
Integration time [ms]:   3.276
Averaging Nr. [scans]: 1000
Smoothing Nr. [pixels]: 0
Data measured with spectrometer [name]: 7414430SP
Wave   ;Sample   ;Dark     ;Reference
[nm]   ;[counts] ;[counts] ;[counts] 

288.544;  148.278;    7.793;  793.890
289.143;  153.439;    7.462;  681.602
289.742;  153.947;    8.602;  828.814
290.341;  139.044;    1.321;  789.841
290.940;  127.619;   -0.709;  730.702
291.538;  128.683;    0.881;  881.108
292.137;  128.574;    0.122;  792.581
292.736;  134.094;   -1.929;  975.101
293.335;  129.900;   -8.229;  735.086
293.934;  130.804;   -5.279;  781.677
294.532;  128.658;   -1.369; 1031.958
295.131;  114.922;   -7.641;  834.394
295.730;  115.040;   -8.420;  809.588
296.328;  113.862;   -5.611;  783.442
296.927;  114.875;   -5.781;  779.652
297.525;  116.198;   -6.361;  781.236
298.124;  105.763;  -11.382;  654.009
298.722;  109.673;   -7.641;  761.933
299.321;  107.878;   -6.811;  708.597
299.919;  106.066;   -6.991;  751.918
300.518;  103.161;  -10.362;  689.338
301.116;  104.344;   -9.581;  691.381
301.715;  104.645;   -4.891;  730.222
302.313;  103.645;   -8.801;  704.943
302.911;   98.449;   -8.522;  733.830
303.509;  103.703;   -6.171;  925.627
304.108;  101.576;   -7.311;  760.383
304.706;  101.305;   -8.321;  801.664
305.304;   95.463;  -10.222;  796.707
305.902;  100.912;   -6.021;  784.484
306.500;   96.123;   -4.971;  728.200
307.098;   94.901;   -7.061;  746.560
307.696;   93.373;   -8.801;  780.432
308.294;   94.535;   -6.411;  731.359
308.892;   95.220;   -2.901;  759.769
309.490;   92.581;   -5.041;  712.161
310.088;   89.908;   -5.002;  788.444
310.686;   93.892;   -2.041;  821.749
311.284;   89.941;   -2.351;  766.040
311.882;   87.303;   -4.422;  731.225
312.480;   84.233;   -4.192;  697.167
313.078;   86.316;   -1.172;  808.331
313.675;   86.962;   -2.601;  691.600
314.273;   82.841;   -1.312;  797.837
314.871;   81.525;   -3.942;  589.829
315.468;   79.523;   -2.802;  652.090
316.066;   81.639;   -0.701;  694.427
316.664;   74.930;   -4.362;  656.351
317.261;   79.252;   -2.872;  910.128
317.859;   74.803;   -2.022;  768.735
318.456;   74.781;   -0.531;  830.096
319.054;   71.136;   -3.912;  787.828
319.651;   69.715;   -4.752;  759.928
320.249;   68.711;   -2.602;  810.188
320.846;   66.976;   -0.821;  714.286
321.443;   65.081;   -4.642;  832.135
322.041;   61.040;   -5.002;  812.315
322.638;   59.397;   -3.982;  701.456
323.235;   59.843;   -3.411;  665.683
323.833;   57.601;   -7.361;  740.354
324.430;   52.255;   -8.611;  615.900
325.027;   53.527;   -4.061;  876.855
325.624;   53.016;   -4.031;  644.532
326.221;   50.484;   -7.481;  689.717
326.818;   50.187;   -5.281;  818.332
327.415;   53.639;   -7.460;  748.828
328.012;   52.605;   -5.510;  690.585
328.609;   51.137;   -7.880;  731.389
329.206;   49.951;   -8.331;  778.621
329.803;   49.731;   -5.121;  737.841
330.400;   52.322;   -4.510;  704.260
330.997;   54.093;   -6.441;  817.147
331.594;   52.267;   -8.831;  788.185
332.191;   57.641;   -7.621;  728.722
332.787;   60.700;   -4.591;  844.463
333.384;   58.988;   -7.412;  763.093
333.981;   57.087;   -8.293;  815.687
334.578;   59.887;   -7.052;  708.378
335.174;   62.560;   -3.102;  731.469
335.771;   62.686;   -5.943;  836.456
336.367;   59.698;   -7.393;  710.631
336.964;   62.846;   -4.063;  793.266
337.561;   60.955;   -3.813;  731.112
338.157;   57.008;   -4.654;  911.916
338.754;   54.595;   -7.934;  796.589
339.350;   53.264;   -4.414;  722.493
339.946;   54.838;   -4.664;  773.135
340.543;   46.637;   -6.375;  846.136
341.139;   41.604;   -9.815;  720.836
341.735;   39.745;   -4.526;  772.593
342.332;   38.330;   -4.895;  691.472
342.928;   38.105;   -4.295;  795.394
343.524;   32.776;   -5.476;  761.684
344.120;   29.120;   -5.856;  738.562
344.716;   31.603;   -2.155;  723.717
345.313;   29.973;   -6.275;  795.342
345.909;   24.454;   -8.815;  627.336
346.505;   26.735;   -5.305;  740.247
347.101;   26.484;   -2.674;  827.864
347.697;   26.775;   -4.344;  785.398
348.293;   21.717;   -9.975;  627.244
348.889;   22.907;   -5.774;  745.914
349.485;   21.873;   -5.004;  688.205
350.081;   21.951;   -4.704;  772.592
350.676;   16.938;   -6.635;  691.606
351.272;   21.397;   -4.504;  809.530
351.868;   21.153;   -3.914;  780.497
352.464;   19.205;   -9.044;  723.932
353.059;   14.714;   -8.314;  646.017
353.655;   17.890;   -7.024;  777.063
354.251;   19.238;   -5.343;  759.845
354.846;   14.403;   -8.604;  740.646
355.442;   12.151;   -6.945;  753.071
356.038;   13.542;   -7.564;  751.708
356.633;   13.905;   -5.814;  728.594
357.229;   12.576;   -7.364;  724.757
357.824;   10.081;   -8.024;  703.600
358.420;    9.376;   -9.384;  679.726
359.015;    9.616;   -5.104;  695.357
359.610;   10.251;   -6.854;  763.920
360.206;    5.239;  -10.185;  603.240
360.801;    6.664;   -7.054;  646.503
361.396;    9.829;   -5.034;  725.975
361.992;    6.064;   -8.284;  668.220
362.587;    2.579;   -8.625;  670.160
363.182;    3.974;   -7.674;  689.631
363.777;    5.350;   -5.164;  738.242
364.372;    5.160;   -8.604;  737.314
364.967;    0.820;   -9.055;  680.744
365.563;    5.388;   -6.114;  815.567
366.158;    2.849;   -5.814;  685.161
366.753;    3.389;   -7.854;  649.263
367.348;    0.736;   -7.804;  746.056
367.942;    1.148;   -7.954;  697.298
368.537;    0.156;   -4.984;  754.245
369.132;    0.816;   -8.564;  703.428
369.727;   -3.188;   -8.855;  638.079
370.322;   -1.804;   -6.245;  580.186
370.917;   -2.005;   -6.425;  710.646
371.511;    0.524;   -6.294;  861.834
372.106;   -3.627;   -7.685;  776.964
372.701;   -6.356;   -7.335;  585.988
373.296;   -0.393;   -4.564;  863.135
373.890;   -4.945;  -10.235;  647.840
374.485;   -7.652;   -7.885;  691.199
375.079;   -3.042;   -7.324;  738.685
375.674;   -2.473;   -3.494;  812.970
376.268;   -6.935;   -8.525;  691.759
376.863;  -12.406;  -10.086;  580.327
377.457;   -6.899;   -7.025;  662.490
378.052;   -8.553;   -3.585;  764.884
378.646;   -9.288;   -7.595;  741.167
379.240;   -9.109;   -8.335;  721.176
379.835;   -8.506;   -5.785;  636.978
380.429;  -10.222;   -4.335;  562.557
381.023;   -9.491;   -6.805;  779.205
381.617;  -12.653;   -9.195;  680.106
382.212;   -9.640;   -6.905;  685.303
382.806;   -8.441;   -3.745;  760.690
383.400;  -12.900;   -7.745;  672.281
383.994;  -13.850;   -9.765;  664.870
384.588;  -10.338;   -6.564;  697.701
385.182;   -8.169;   -5.344;  726.624
385.776;   -9.661;   -8.514;  706.875
386.370;  -13.048;   -9.555;  681.968
386.964;  -12.165;   -8.715;  684.155
387.558;   -9.953;   -6.174;  598.360
388.152;  -13.748;   -8.725;  681.959
388.745;  -12.545;   -7.965;  814.707
389.339;  -10.772;   -5.924;  747.642
389.933;  -10.077;   -5.524;  695.370
390.527;  -10.406;   -7.114;  859.029
391.120;  -16.837;  -10.725;  595.318
391.714;  -13.645;   -8.035;  711.633
392.308;  -11.062;   -3.574;  780.253
392.901;  -14.214;   -7.245;  642.460
393.495;  -16.134;   -9.285;  595.414
394.089;  -13.956;   -5.895;  760.452
394.682;  -14.225;   -4.295;  697.188
395.275;  -14.974;   -9.875;  719.927
395.869;  -16.469;   -8.485;  667.314
396.462;  -15.571;   -7.455;  616.609
397.056;  -11.142;   -5.424;  776.621
397.649;  -15.104;   -6.605;  731.575
398.242;  -13.464;   -8.224;  712.645
398.836;  -12.494;   -7.474;  766.408
399.429;  -13.700;   -7.094;  631.041
400.022;  -17.031;   -9.475;  665.902
400.615;  -14.039;   -7.145;  805.609
401.208;  -12.746;   -7.174;  691.451
401.802;  -14.542;   -5.515;  699.329
402.395;  -15.808;   -9.875;  683.502
402.988;  -17.615;   -8.845;  696.627
403.581;  -14.126;   -8.874;  646.878
404.174;  -11.326;   -5.324;  686.568
404.767;  -14.147;   -9.575;  638.583
405.360;  -17.259;  -10.965;  621.445
405.953;  -11.250;   -8.764;  759.034
406.545;  -10.968;   -7.514;  725.342
407.138;  -15.362;  -10.025;  618.350
407.731;  -14.387;  -10.034;  613.303
408.324;  -10.135;   -9.374;  660.554
408.917;  -11.725;   -6.534;  681.864
409.509;  -12.515;   -8.004;  740.396
410.102;  -14.888;   -9.875;  643.948
410.695;   -8.773;   -8.604;  665.758
411.287;   -9.777;   -6.794;  599.821
411.880;  -10.783;   -9.334;  585.421
412.472;  -13.763;  -10.254;  613.092
413.065;  -10.830;   -6.714;  629.408
413.657;   -9.347;   -7.234;  576.678
414.250;   -8.595;  -10.544;  646.681
414.842;  -10.777;   -9.744;  676.353
415.434;   -8.972;   -6.994;  570.463
416.027;   -4.743;   -5.893;  652.196
416.619;   -6.032;   -7.264;  713.400
417.211;   -6.867;  -10.374;  599.352
417.804;   -3.837;   -7.993;  628.499
418.396;   -7.711;   -7.234;  607.643
418.988;   -4.742;   -9.443;  659.238
419.580;   -8.739;  -10.724;  568.276
420.172;   -6.753;  -10.323;  536.196
420.764;   -2.954;   -8.793;  672.482
421.356;   -3.681;  -11.143;  636.898
421.948;   -5.049;   -8.293;  677.661
422.540;    0.545;   -7.893;  680.027
423.132;    0.086;   -7.082;  600.641
423.724;   -3.093;   -8.653;  561.267
424.316;   -1.972;  -10.213;  621.345
424.908;    2.071;   -9.762;  591.517
425.500;    3.002;   -5.572;  647.978
426.092;    3.407;   -8.422;  648.268
426.683;    2.095;   -9.283;  684.836
427.275;    5.099;   -7.852;  641.471
427.867;    6.789;   -5.272;  668.948
428.458;    7.620;   -7.682;  732.344
429.050;    5.163;  -10.612;  680.749
429.642;    7.614;   -9.882;  743.124
430.233;    7.907;   -6.962;  569.356
430.825;    9.711;   -6.842;  724.809
431.416;    6.923;   -9.672;  698.241
432.008;   10.066;   -6.552;  651.723
432.599;   10.504;   -6.891;  656.073
433.190;    8.289;  -10.912;  637.670
433.782;    7.034;  -11.172;  590.395
434.373;   14.527;   -6.061;  884.765
434.964;   13.858;   -8.251;  602.920
435.556;   11.004;   -9.722;  634.537
436.147;   14.452;   -9.082;  758.490
436.738;   13.483;   -8.041;  701.099
437.329;   19.337;   -7.341;  721.723
437.920;   12.066;   -8.162;  666.688
438.511;   11.727;  -11.802;  564.526
439.103;   18.706;  -10.191;  623.998
439.694;   19.687;   -7.601;  681.583
440.285;   20.724;   -8.541;  764.432
440.876;   19.078;   -9.751;  845.738
441.466;   18.600;   -9.401;  575.162
442.057;   23.845;   -7.760;  665.814
442.648;   22.979;   -9.971;  746.255
443.239;   21.054;  -11.001;  620.477
443.830;   25.079;   -7.990;  704.958
444.421;   27.439;   -7.910;  655.474
445.011;   23.686;   -8.131;  693.619
445.602;   24.311;   -7.111;  743.126
446.193;   25.459;  -10.920;  488.117
446.783;   30.133;   -6.500;  640.397
447.374;   26.489;   -8.671;  692.759
447.964;   26.051;  -10.781;  713.770
448.555;   34.564;   -9.650;  822.742
449.145;   30.135;   -8.660;  662.853
449.736;   31.882;   -8.990;  803.179
450.326;   31.761;   -9.500;  713.626
450.917;   36.384;   -8.680;  675.324
451.507;   36.094;   -7.520;  600.661
452.097;   36.550;   -8.590;  746.267
452.688;   37.679;  -11.340;  742.160
453.278;   36.494;  -10.100;  566.840
453.868;   41.001;   -6.019;  793.550
454.458;   39.125;   -9.440;  651.141
455.048;   40.456;  -10.560;  711.783
455.639;   41.578;  -11.799;  567.096
456.229;   45.324;   -6.899;  710.694
456.819;   46.652;   -7.389;  751.158
457.409;   46.506;  -11.119;  773.993
457.999;   49.504;   -9.289;  737.505
458.589;   49.447;   -6.139;  686.606
459.179;   49.607;   -8.729;  717.658
459.769;   47.064;   -9.789;  627.099
460.358;   52.354;  -10.259;  797.262
460.948;   52.405;   -7.299;  689.503
461.538;   54.671;  -10.289;  660.677
462.128;   51.754;  -11.269;  664.934
462.717;   58.359;   -9.368;  710.326
463.307;   61.804;   -7.908;  705.846
463.897;   56.958;   -9.599;  656.942
464.486;   56.539;   -9.769;  837.128
465.076;   61.002;   -8.048;  733.776
465.666;   64.068;   -9.358;  652.900
466.255;   62.208;   -7.919;  785.651
466.845;   60.592;  -11.689;  666.749
467.434;   64.973;   -7.818;  725.873
468.023;   65.760;   -7.678;  658.357
468.613;   63.120;  -10.939;  713.946
469.202;   67.104;  -10.118;  646.507
469.791;   71.304;   -9.108;  737.811
470.381;   73.001;   -6.058;  742.813
470.970;   73.559;  -10.428;  711.099
471.559;   73.019;  -10.268;  733.291
472.148;   75.854;   -8.448;  675.737
472.738;   78.286;   -6.917;  765.466
473.327;   77.615;  -11.978;  637.529
473.916;   77.136;  -11.888;  737.446
474.505;   82.252;   -9.437;  751.703
475.094;   84.749;   -6.747;  806.570
475.683;   84.512;   -9.367;  797.699
476.272;   84.933;  -12.637;  730.632
476.861;   87.829;  -10.027;  706.754
477.449;   93.668;   -8.716;  728.487
478.038;   88.788;   -9.577;  692.513
478.627;   89.643;   -9.718;  714.852
479.216;   95.904;   -8.947;  769.441
479.805;   99.164;   -6.256;  783.375
480.393;   99.374;   -7.937; 1008.945
480.982;   97.663;   -7.717;  874.501
481.571;  103.773;   -9.266;  858.333
482.159;  104.515;   -7.636;  705.386
482.748;  104.306;   -9.667;  821.385
483.336;  109.640;  -10.376;  858.209
483.925;  109.922;   -7.147;  774.373
484.513;  115.837;   -7.996;  758.962
485.102;  113.126;  -10.027;  810.965
485.690;  121.687;  -10.446; 1011.050
486.278;  122.512;   -8.446;  979.329
486.867;  124.297;   -6.356;  809.662
487.455;  125.830;   -9.136;  898.229
488.043;  126.041;  -10.646;  748.361
488.631;  135.295;   -7.456; 1005.079
489.220;  138.996;   -6.636;  908.626
489.808;  139.920;  -11.036;  741.415
490.396;  146.492;  -10.246;  914.645
490.984;  152.398;   -8.556;  830.161
491.572;  161.601;   -5.886;  940.315
492.160;  167.319;   -9.486;  919.081
492.748;  178.875;  -10.976;  884.341
493.336;  201.378;   -8.776; 1019.693
493.924;  226.453;   -5.465;  958.077
494.512;  252.405;   -9.986; 1066.638
495.100;  288.925;  -10.636; 1103.280
495.687;  341.483;  -10.885; 1206.373
496.275;  403.183;   -8.126; 1150.796
496.863;  472.406;  -10.586; 1281.171
497.451;  571.430;  -11.926; 1386.805
498.038;  698.435;  -10.885; 1556.729
498.626;  800.825;   -6.315; 1741.407
499.214;  943.897;   -7.326; 2016.609
499.801; 1142.409;  -11.906; 2220.633
500.389; 1379.463;  -10.466; 2312.494
500.976; 1690.966;   -5.236; 2744.849
501.564; 2112.147;   -8.936; 3148.565
502.151; 2488.709;  -13.176; 3515.999
502.738; 2938.066;  -10.646; 3971.274
503.326; 3303.175;   -9.525; 4403.796
503.913; 3674.847;  -10.856; 5161.749
504.500; 4033.044;  -11.586; 5986.420
505.088; 4437.604;  -10.336; 6381.201
505.675; 4953.604;   -6.355; 6925.547
506.262; 5645.679;   -9.046; 7619.060
506.849; 6330.217;  -10.416; 8733.969
507.436; 6799.797;  -10.305; 9790.121
508.023; 7378.454;   -5.496; 9985.472
508.610; 7601.452;   -7.856;10434.618
509.197; 8206.951;  -10.097;11198.435
509.784; 9539.072;  -10.886;12391.194
510.371;10525.780;   -9.315;13603.713
510.958;11215.399;   -9.936;14426.586
511.545;11962.611;   -9.326;15243.775
512.132;12851.530;  -10.075;15945.876
512.719;13508.390;   -7.796;16340.369
513.305;14419.633;  -10.606;18011.766
513.892;15222.984;  -11.486;19754.971
514.479;16498.496;   -9.126;20967.805
515.066;17749.572;   -6.026;22299.793
515.652;18924.910;   -8.466;22908.660
516.239;20265.113;  -10.886;23798.875
516.825;21362.295;  -11.496;25567.275
517.412;22513.045;   -5.796;28154.959
517.998;23074.361;  -10.506;28344.111
518.585;22998.600;  -10.076;27134.219
519.171;23481.789;   -8.315;27268.576
519.758;25024.221;   -8.596;28964.129
520.344;26638.885;   -8.466;30664.494
520.930;26518.541;  -11.006;32550.605
521.516;28155.740;  -10.495;35422.895
522.103;30519.443;   -5.526;38280.004
522.689;31184.375;   -8.746;37835.117
523.275;30415.678;  -11.376;37288.613
523.861;31207.861;  -11.156;37281.395
524.447;32578.146;   -8.135;37846.949
525.033;32419.346;   -7.896;38321.949
525.619;32557.352;  -12.476;38579.285
526.205;34164.020;   -9.516;40622.875
526.791;36461.660;   -6.926;42258.836
527.377;36548.977;   -8.346;42966.902
527.963;38056.410;   -8.717;42018.949
528.549;36523.770;  -11.016;42476.828
529.135;35350.238;   -8.536;41854.852
529.721;34914.137;   -9.666;41237.711
530.306;34358.656;  -10.066;41259.445
530.892;34085.375;  -11.356;41506.047
531.478;35498.500;   -6.596;43559.613
532.063;38241.172;   -8.836;47695.563
532.649;38374.125;  -10.047;50808.324
533.235;39367.605;   -9.746;51787.500
533.820;40406.434;   -6.566;52145.035
534.406;41797.801;  -10.817;51133.488
534.991;41588.656;   -9.416;49996.805
535.576;40150.879;   -9.036;48882.852
536.162;40462.488;   -6.156;46942.285
536.747;41576.582;  -11.607;45711.746
537.333;45449.211;  -11.787;48510.180
537.918;47946.449;  -12.437;50439.891
538.503;46349.984;   -7.196;50863.711
539.088;43508.656;  -10.556;50906.922
539.673;43498.043;   -8.767;52621.965
540.259;43379.836;  -10.026;52368.094
540.844;40859.289;   -7.416;50879.109
541.429;42020.168;   -9.467;52077.777
542.014;44928.109;   -9.527;52716.695
542.599;44297.750;   -9.946;52363.281
543.184;42177.164;   -7.927;53187.137
543.769;43915.309;   -9.297;54697.605
544.354;43200.500;  -10.127;53913.914
544.938;41926.695;   -9.267;49680.164
545.523;43530.039;   -6.506;47386.277
546.108;45753.770;   -9.787;49151.949
546.693;47960.719;  -11.587;51384.637
547.278;48075.941;  -10.986;51853.254
547.862;45108.117;   -8.206;51173.750
548.447;40771.613;  -10.067;51691.395
549.031;40578.348;   -9.637;52456.703
549.616;45424.582;   -9.926;52714.516
550.201;44289.863;   -6.347;52414.598
550.785;45331.820;   -7.917;52355.059
551.370;44619.797;  -10.867;54589.453
551.954;44789.891;   -9.047;58267.348
552.538;45512.348;   -7.827;59062.176
553.123;44074.762;  -10.287;58115.285
553.707;42361.566;  -12.178;56556.285
554.291;43627.902;   -8.717;56201.668
554.876;45599.238;   -7.457;55335.762
555.460;45988.641;  -10.387;54155.703
556.044;47151.184;   -9.618;53721.484
556.628;45623.703;  -11.567;53731.016
557.212;44228.195;   -8.097;54312.531
557.796;42820.988;  -11.077;53797.773
558.380;42753.785;  -11.108;56145.984
558.964;43198.344;   -9.057;57277.930
559.548;44103.832;   -6.977;56459.641
560.132;42675.172;  -11.457;54434.543
560.716;41650.527;  -11.378;54800.617
561.300;42824.863;   -9.577;57606.945
561.884;43864.609;   -7.127;58972.445
562.467;42481.602;   -7.118;57327.570
563.051;41608.250;  -13.358;54962.434
563.635;42410.918;  -10.178;52594.473
564.219;43029.906;   -7.837;50610.410
564.802;44007.281;  -11.398;49551.180
565.386;44029.828;  -12.788;48370.953
565.969;43428.574;   -9.077;48178.871
566.553;43079.559;   -6.207;49957.305
567.136;43268.313;   -8.568;50369.594
567.720;39383.223;  -11.868;49492.004
568.303;37496.922;   -8.268;50616.352
568.887;37663.664;   -8.698;50727.148
569.470;37823.836;   -6.808;51698.379
570.053;36457.969;  -13.188;52122.078
570.637;34898.543;  -12.037;52536.438
571.220;34595.680;   -8.577;51186.098
571.803;34963.156;   -8.498;51032.762
572.386;37465.285;  -10.498;49609.887
572.969;39901.453;   -9.388;48285.926
573.552;37902.328;   -8.338;47624.285
574.135;36530.438;   -8.518;45498.641
574.718;34088.594;  -13.628;41970.434
575.301;32824.176;  -10.893;41447.137
575.884;31559.760;   -8.158;40923.836
576.467;32669.953;  -10.328;45267.723
577.050;34664.211;  -13.058;48175.543
577.633;35240.207;   -9.458;47729.328
578.216;33673.871;   -8.928;47579.793
578.799;33248.199;   -9.358;47820.996
579.381;32842.492;  -11.388;48115.551
579.964;32131.111;  -11.718;47333.766
580.547;33929.480;   -8.588;46668.969
581.129;35123.688;   -8.859;44466.141
581.712;35778.324;  -10.729;44164.922
582.294;36369.723;  -11.118;46477.855
582.877;36179.492;   -5.218;48244.254
583.459;33737.516;   -8.679;47437.895
584.042;31868.455;  -10.709;46943.219
584.624;32584.254;  -11.669;46792.227
585.206;32005.770;   -8.218;46557.250
585.789;32109.199;  -10.569;45793.773
586.371;34644.164;  -11.859;43836.391
586.953;34690.469;  -10.719;42972.492
587.536;35643.387;   -7.198;42487.211
588.118;34688.219;   -8.720;42086.414
588.700;30383.840;  -10.439;43389.930
589.282;27944.742;   -9.198;43646.039
589.864;27427.078;   -9.199;43438.109
590.446;29215.393;  -11.319;43151.926
591.028;31558.037;  -11.159;42781.867
591.610;32464.498;  -11.779;42839.098
592.192;30938.168;   -7.668;42820.402
592.774;29817.715;  -11.949;40724.277
593.356;28710.777;  -12.129;39874.789
593.937;27838.971;  -10.669;39980.648
594.519;30084.674;   -6.509;42069.633
595.101;32103.064;  -10.849;42976.031
595.683;32101.070;  -11.679;44084.441
596.264;33216.512;   -9.049;43478.797
596.846;32342.248;   -8.849;43803.672
597.427;32075.154;   -9.570;42986.934
598.009;33734.555;  -12.620;42832.219
598.591;33980.512;  -10.039;42580.086
599.172;32912.848;  -10.369;43061.805
599.753;33018.977;   -9.140;41691.469
600.335;34601.703;  -11.430;40692.520
600.916;33012.215;   -9.939;39982.422
601.498;30641.098;   -8.479;40318.617
602.079;29218.533;  -10.920;40670.609
602.660;29391.709;  -11.480;41450.898
603.241;30814.209;  -11.699;41137.738
603.823;29552.115;   -9.579;38868.797
604.404;29580.713;  -10.620;38182.785
604.985;30965.799;  -10.450;38078.047
605.566;30387.971;   -9.129;38056.633
606.147;30540.316;   -7.510;37020.418
606.728;32193.938;  -10.660;37883.359
607.309;30791.309;  -11.740;38748.273
607.890;30187.373;   -9.759;38850.230
608.471;29792.432;   -8.250;37457.918
609.051;28906.992;   -9.240;36066.457
609.632;27906.141;  -12.120;35991.074
610.213;28787.246;   -9.110;37402.641
610.794;29329.531;   -8.030;38383.363
611.374;28871.607;   -8.110;40562.387
611.955;29331.113;  -13.560;38533.727
612.536;30564.580;  -11.400;36951.789
613.116;30614.586;   -8.070;37197.891
613.697;30730.965;  -10.830;38411.125
614.277;29383.746;  -11.641;38673.938
614.858;30404.670;  -13.310;37075.863
615.438;29426.139;   -7.460;35092.906
616.019;26479.801;   -7.601;33666.301
616.599;27239.758;  -12.020;34189.023
617.179;29104.174;  -11.780;36952.047
617.760;29936.742;   -8.570;39582.574
618.340;30958.416;  -11.471;38943.977
618.920;32260.979;  -11.170;37594.156
619.500;32229.205;  -11.071;37866.938
620.080;31531.545;   -7.750;37869.043
620.660;32722.758;  -12.711;36868.617
621.241;34114.387;  -10.211;36352.309
621.821;34208.547;  -10.961;35459.520
622.401;33168.703;   -7.720;35207.414
622.980;32371.674;   -8.981;35980.422
623.560;31007.371;   -9.331;37351.328
624.140;29962.916;   -9.850;34388.582
624.720;24702.496;   -7.451;32368.764
625.300;21205.750;   -9.070;32638.629
625.880;24542.498;  -12.601;34599.035
626.459;28511.980;  -11.751;36831.738
627.039;31674.703;   -9.281;38299.098
627.619;31559.186;   -8.801;38289.574
628.198;29908.891;  -12.071;37220.695
628.778;29042.605;   -9.461;37632.563
629.357;29753.643;   -8.491;38003.012
629.937;29847.197;   -9.721;38402.039
630.516;29316.143;   -9.951;37868.801
631.096;28911.215;  -11.731;35760.410
631.675;32085.697;   -8.572;35225.219
632.254;37075.320;  -11.282;35130.289
632.834;36396.668;  -13.322;35794.570
633.413;34308.184;  -10.301;35788.922
633.992;31165.648;   -8.582;34532.863
634.571;32093.000;   -8.352;33590.113
635.151;34966.762;  -11.912;34943.863
635.730;33358.816;  -10.511;35352.523
636.309;30116.139;   -7.731;35366.605
636.888;27917.391;   -9.952;36165.637
637.467;28956.322;  -11.672;37515.902
638.046;30636.867;   -8.901;39288.695
638.625;33778.063;   -7.912;38279.699
639.204;33326.715;  -10.022;37741.598
639.782;31725.508;  -12.252;38364.551
640.361;27914.371;  -10.041;36740.621
640.940;25157.967;  -11.161;34950.082
641.519;25807.338;   -9.701;34137.398
642.097;28818.201;  -11.271;35654.258
642.676;31611.205;   -8.651;35637.957
643.255;32020.762;   -8.711;36567.074
643.833;31126.361;   -9.581;37809.434
644.412;31248.734;  -13.711;37337.293
644.990;30519.438;  -11.811;37018.531
645.569;30863.340;   -9.411;36518.469
646.147;29689.049;  -10.291;36186.430
646.726;29020.080;  -12.401;36267.688
647.304;29992.814;  -10.411;36647.625
647.882;32121.314;   -9.651;39286.742
648.461;33898.246;   -9.631;39157.703
649.039;31847.768;  -11.881;35412.883
649.617;31102.236;   -9.661;34744.918
650.195;30915.492;   -9.301;35403.098
650.773;29386.072;  -10.511;35053.797
651.352;27110.334;  -11.521;33756.816
651.930;24915.258;  -12.211;31868.773
652.508;23352.133;   -9.171;33121.551
653.086;27333.154;   -9.371;33564.793
653.663;29952.008;  -13.161;34054.668
654.241;29001.693;  -13.031;35693.309
654.819;30733.420;   -9.371;36422.906
655.397;30808.244;  -10.511;38213.484
655.975;30530.305;  -10.371;39507.625
656.553;30092.189;  -10.051;39498.223
657.130;28495.742;  -10.061;40395.480
657.708;28064.350;   -9.561;39242.020
658.286;28136.842;  -11.511;38920.020
658.863;29222.900;  -10.261;40202.898
659.441;32297.092;   -7.531;39677.938
660.018;31635.109;   -9.501;40413.355
660.596;30414.549;  -13.301;39931.414
661.173;32421.449;  -11.211;39604.531
661.750;32665.336;   -9.951;39700.070
662.328;31794.225;   -9.390;39292.809
662.905;30818.859;  -11.330;38235.648
663.482;26118.725;   -9.050;36212.305
664.060;24376.496;   -8.240;35944.945
664.637;27285.578;  -10.050;35170.785
665.214;29130.191;  -11.760;34197.523
665.791;30427.566;  -10.530;34549.520
666.368;29052.588;   -9.690;35118.578
666.945;30101.559;   -9.320;36019.418
667.522;31644.717;  -11.860;36048.438
668.099;31388.473;  -10.770;36243.914
668.676;30271.721;   -6.260;35958.875
669.253;28903.859;   -7.000;37384.730
669.830;29583.338;  -10.190;36779.629
670.407;29291.242;   -9.550;35231.289
670.984;29545.504;   -9.260;35544.270
671.560;29852.564;   -9.280;35466.867
672.137;28763.191;  -11.810;34280.863
672.714;29520.051;  -11.490;34632.863
673.290;29987.979;   -7.740;35135.422
673.867;30419.611;  -10.660;36114.480
674.443;30127.744;  -12.230;36152.859
675.020;28418.908;  -10.450;35327.238
675.596;29665.898;   -9.260;35795.176
676.173;30130.271;  -10.780;35430.355
676.749;30029.533;  -13.690;33549.516
677.326;30106.566;  -11.980;32210.012
677.902;30049.281;   -8.630;32068.871
678.478;29272.773;  -10.730;32583.891
679.054;28831.225;  -10.520;32088.928
679.631;29082.531;  -11.920;30978.848
680.207;30540.473;   -7.490;33160.887
680.783;32081.338;   -9.860;35570.363
681.359;31124.500;  -13.380;36125.184
681.935;30490.822;  -12.480;35240.922
682.511;29629.980;   -7.900;34429.961
683.087;29862.016;   -7.710;34463.680
683.663;29638.223;  -11.480;34648.898
684.239;28254.773;  -14.090;34546.457
684.815;27877.178;   -7.560;35586.375
685.390;28334.209;   -9.910;35821.895
685.966;28821.713;  -11.159;35085.871
686.542;31323.604;  -11.169;34198.230
687.118;33286.750;   -5.959;32847.707
687.693;33244.805;  -10.329;32794.027
688.269;32882.984;  -12.059;33072.367
688.844;30960.961;  -10.909;33141.664
689.420;28738.266;   -8.019;33965.742
689.995;26488.004;   -8.399;34655.523
690.571;25267.889;  -10.949;33576.742
691.146;25795.148;   -9.619;32657.219
691.722;25255.857;   -8.999;32526.979
692.297;25540.609;  -11.589;33014.617
692.872;27445.674;  -11.739;34012.254
693.448;26862.420;  -11.059;34237.434
694.023;26105.672;  -10.139;34142.672
694.598;28164.266;   -9.029;34132.031
695.173;28320.684;  -13.319;34205.250
695.748;27624.076;  -10.169;32882.488
696.323;27514.809;   -8.339;32864.906
696.898;27814.072;   -8.169;33170.004
697.473;27700.045;  -12.309;32432.984
698.048;27157.088;  -10.989;31649.303
698.623;27298.064;   -9.329;30778.141
699.198;29341.600;   -9.849;31140.119
699.773;30003.646;  -12.329;31764.299
700.348;28307.490;  -10.389;31780.816
700.922;28347.898;   -9.269;32046.375
701.497;28982.334;   -9.329;32603.574
702.072;28958.625;  -10.789;34799.871
702.646;27773.969;  -10.839;35793.172
703.221;26154.977;   -9.099;35201.590
703.795;28166.791;  -10.939;34764.527
704.370;28342.111;  -12.859;34307.367
704.944;28811.920;  -11.559;33509.887
705.519;29809.357;   -7.939;31388.584
706.093;31337.496;  -10.499;31340.104
706.668;31399.879;  -11.289;32630.281
707.242;30364.648;  -11.509;32728.779
707.816;28874.656;   -9.639;32947.238
708.390;27383.818;  -11.429;33277.855
708.965;28134.713;  -11.869;33834.336
709.539;28539.793;  -11.689;33709.273
710.113;28977.973;  -10.478;33044.313
710.687;28079.184;  -10.228;31953.992
711.261;26226.898;  -13.698;30505.949
711.835;26139.111;  -13.378;30262.369
712.409;27110.965;   -9.698;31254.447
712.983;28935.277;  -11.898;32754.986
713.557;29716.637;  -15.138;34018.824
714.131;29300.588;  -14.098;34579.625
714.704;28410.623;   -9.958;33890.262
715.278;26272.281;  -10.028;33531.102
715.852;25464.781;  -11.148;33601.660
716.425;26356.770;   -9.068;33515.117
716.999;27046.541;  -10.038;33185.555
717.573;28152.025;   -9.798;33905.996
718.146;29197.090;  -12.378;35199.293
718.720;28958.465;  -11.918;35060.551
719.293;28355.357;   -8.088;34973.230
719.867;31211.422;  -10.888;36394.449
720.440;30619.768;  -11.938;36663.008
721.013;28847.693;  -12.818;35102.426
721.587;27676.521;  -10.298;33985.266
722.160;26884.402;  -10.048;33524.965
722.733;25874.389;  -12.108;32987.043
723.306;26231.879;  -10.818;33066.301
723.880;28463.811;   -8.908;33399.500
724.453;29938.705;   -9.878;33468.297
725.026;28882.730;  -11.188;33816.637
725.599;26623.785;  -11.678;32797.996
726.172;27472.553;   -9.618;33187.434
726.745;28681.506;   -8.258;35136.613
727.318;30007.820;  -12.978;35751.730
727.891;30109.197;  -12.148;35890.430
728.463;29696.695;   -8.968;34822.090
729.036;28871.850;  -10.188;32895.086
729.609;29271.287;  -11.788;31823.225
730.182;26145.865;  -11.788;31445.283
730.754;23630.477;  -10.268;32373.223
731.327;23694.934;   -9.998;33676.820
731.900;24193.102;  -12.228;33417.000
732.472;25620.615;  -13.848;31978.498
733.045;27366.625;   -8.698;30368.777
733.617;27369.041;  -10.607;30574.215
734.190;26757.322;  -11.507;31280.975
734.762;23645.672;  -13.647;31674.412
735.334;22163.936;   -9.767;31247.291
735.907;22974.289;   -9.897;29876.211
736.479;22932.307;  -11.637;29808.488
737.051;22573.730;   -9.567;30233.547
737.623;23580.211;   -8.187;31469.086
738.195;24629.133;  -11.187;31784.225
738.768;26737.736;  -12.337;32120.523
739.340;26569.748;  -12.227;32094.342
739.912;25198.371;  -11.057;31312.680
740.484;23832.484;  -10.207;31946.238
741.056;22902.469;  -10.047;32984.059
741.628;24701.740;  -13.627;33897.715
742.199;26919.326;   -7.177;33213.016
742.771;25272.270;  -10.797;31369.113
743.343;22942.691;  -11.997;31865.473
743.915;22005.303;  -12.867;32388.631
744.487;22124.270;   -7.617;31079.568
745.058;22255.814;   -9.557;30570.107
745.630;22646.881;   -9.877;29970.127
746.201;23260.830;  -14.177;29186.766
746.773;23510.986;   -9.237;28805.723
747.344;23489.186;   -9.847;29591.223
747.916;22358.574;  -11.657;31412.201
748.487;22776.141;  -10.587;32194.898
749.059;23949.801;   -8.707;32533.719
749.630;24662.863;  -10.537;32158.518
750.201;23782.711;  -11.687;30855.395
750.773;22009.139;  -11.647;28622.555
751.344;21980.137;   -7.147;28405.732
751.915;23081.666;   -9.757;28461.551
752.486;22637.324;  -12.427;27842.850
753.057;20490.059;  -12.227;27845.008
753.628;19500.049;  -10.417;27728.107
754.199;20678.418;  -11.767;27381.086
754.770;21585.861;  -11.187;25882.203
755.341;21570.000;  -10.507;25886.184
755.912;21462.691;   -9.387;26050.861
756.483;20889.904;  -10.647;26798.779
757.054;19036.699;  -11.837;27048.238
757.625;17787.121;  -12.716;26294.838
758.195;17688.604;   -9.666;26142.076
758.766;17501.686;   -8.656;26392.234
759.337;18328.318;  -12.856;26334.594
759.907;20102.797;  -13.366;27579.652
760.478;20892.160;   -8.576;28352.770
761.048;20057.479;  -10.526;27325.088
761.619;19207.510;  -11.116;26460.428
762.189;19408.447;  -12.136;26029.826
762.760;20755.652;   -9.456;26430.145
763.330;21713.305;   -7.136;26670.902
763.900;20960.025;  -11.786;26603.021
764.471;18285.918;  -11.546;25542.740
765.041;16976.248;   -8.096;24358.459
765.611;17077.109;   -8.876;23991.297
766.181;17560.883;  -12.196;24470.236
766.751;18525.535;  -11.636;24845.975
767.321;18195.441;  -10.156;24533.633
767.891;16176.165;  -11.766;24916.492
768.461;15715.580;  -14.936;24776.771
769.031;16343.857;  -12.356;24757.988
769.601;17795.865;   -7.526;24181.088
770.171;17543.398;  -10.766;23670.387
770.741;16949.965;  -13.176;22960.045
771.311;17283.109;  -10.616;22917.523
771.880;17520.264;   -9.576;23562.941
772.450;17188.717;  -10.336;24216.500
773.020;17304.188;  -13.516;24140.398
773.589;16656.854;  -13.466;24414.857
774.159;16026.361;   -8.686;23858.717
774.729;15672.487;   -9.476;22942.135
775.298;15161.619;  -13.666;22324.033
775.867;14762.441;  -11.716;21140.313
776.437;14793.604;   -9.906;20838.092
777.006;14567.442;  -12.166;20599.510
777.576;14476.342;  -12.356;20508.809
778.145;14680.074;  -11.646;20732.947
778.714;14532.133;   -8.226;21062.465
779.283;13750.246;   -9.556;20949.664
779.853;13305.671;  -14.116;20508.623
780.422;13777.423;  -11.506;20649.082
780.991;13373.896;   -9.556;21527.520
781.560;12279.589;   -9.095;22632.658
782.129;12119.385;  -12.135;23048.277
782.698;12135.569;  -10.865;23438.555
783.267;11702.008;   -9.335;23267.734
783.836;11688.489;  -11.045;22415.133
784.404;12750.644;  -13.865;20443.152
784.973;13283.630;  -13.095;19699.150
785.542;13224.509;  -11.575;19763.828
786.111;13078.289;   -9.705;20341.408
786.679;12494.916;  -12.105;20207.967
787.248;12242.930;  -12.455;19516.465
787.817;12048.436;  -11.535;18900.363
788.385;11616.313;   -9.765;17879.121
788.954;11027.527;  -14.005;17658.301
789.522;10543.753;  -11.955;17788.879
790.090;11114.921;  -10.135;18118.277
790.659;11474.523;  -10.975;18338.736
791.227;10954.343;  -13.375;18508.615
791.795;11412.986;  -12.375;17898.254
792.364;11713.177;  -10.725;17295.133
792.932;11938.983;   -9.715;16822.051
793.500;12148.112;  -12.675;17040.148
794.068;12457.540;  -13.495;17179.787
794.636;12548.187;  -10.885;16664.246
795.204;12017.058;  -11.045;16524.545
795.772;12079.446;  -13.175;17274.564
796.340;11582.027;  -12.445;17891.002
796.908;11414.911;   -9.735;17648.561
797.476;11282.802;   -9.815;17064.080
798.044;10842.854;  -13.985;16672.777
798.612;10053.419;  -13.115;17023.996
799.180; 9658.037;  -10.185;16561.615
799.747; 9583.449;   -9.055;15962.773
800.315; 9341.224;  -12.385;15296.992
800.883; 8959.244;  -15.035;14801.771
801.450; 8908.929;  -10.365;14534.430
802.018; 8962.349;   -9.855;14173.248
802.585; 9120.840;  -11.905;14029.547
803.153; 9217.294;  -11.585;13836.846
803.720; 9063.431;   -9.095;13567.324
804.287; 8584.512;   -9.135;13360.622
804.855; 8188.420;  -11.604;13681.981
805.422; 8089.075;  -11.794;13536.560
805.989; 8070.204;  -10.734;13355.958
806.556; 8295.770;  -10.444;13747.896
807.124; 8580.716;  -12.764;13987.376
807.691; 8555.712;  -12.964;14038.674
808.258; 8311.373;  -11.134;14120.152
808.825; 7924.372;   -9.854;13860.111
809.392; 7969.418;  -10.504;13268.790
809.959; 7531.220;  -13.054;12680.389
810.526; 7146.470;   -8.294;12427.308
811.093; 7240.350;   -8.394;12030.105
811.659; 7829.160;  -12.304;11653.664
812.226; 8279.558;  -13.944;11637.183
812.793; 7929.022;  -10.484;11611.521
813.360; 7296.845;  -10.144;11885.181
813.926; 7022.604;  -11.684;12770.539
814.493; 6811.781;  -13.644;12677.638
815.060; 6414.224;   -9.724;11974.336
815.626; 6441.367;   -9.854;11594.715
816.193; 6832.562;  -13.254;11579.474
816.759; 6850.493;  -13.204;11666.972
817.325; 6971.881;   -9.434;11325.530
817.892; 7391.979;  -10.134;11105.369
818.458; 7855.018;  -13.474;10843.928
819.024; 7444.018;  -11.854;10714.406
819.591; 7120.449;  -10.244;10469.165
820.157; 6912.630;  -10.704;10235.523
820.723; 6428.384;  -12.324;10847.563
821.289; 6136.289;   -9.444;11040.980
821.855; 6008.047;   -8.374;10357.100
822.421; 5915.718;  -10.234; 9978.918
822.987; 5887.988;  -13.294; 9754.177
823.553; 5623.993;  -10.884;10065.755
824.119; 5496.996;   -8.884;10036.294
824.685; 5584.990;   -6.784;10029.192
825.251; 5667.256;  -12.004;10199.230
825.816; 5633.764;  -11.474; 9820.189
826.382; 5427.382;   -9.174; 9297.248
826.948; 5695.000;   -9.214; 9381.347
827.513; 6075.826;  -10.774; 9450.726
828.079; 5846.959;  -11.924; 9472.444
828.645; 5285.784;  -10.543; 9292.643
829.210; 5248.510;  -10.533; 9065.341
829.776; 5225.830;  -10.753; 9132.620
830.341; 5091.866;  -10.173; 9092.878
830.906; 5296.109;  -10.743; 9078.557
831.472; 5633.409;  -11.113; 8534.535
832.037; 5313.070;  -10.603; 8677.874
832.602; 4726.980;  -13.323; 8628.692
833.167; 4482.492;  -10.823; 8879.031
833.733; 4427.169;  -10.113; 9189.790
834.298; 4553.561;  -13.583; 9052.608
834.863; 4600.141;  -12.703; 8895.087
835.428; 4590.009;  -10.523; 8824.266
835.993; 4485.572;   -6.963; 8845.385
836.558; 4346.838;  -10.763; 8888.563
837.123; 4489.581;   -9.903; 8966.582
837.688; 4716.115;   -9.913; 8617.860
838.253; 4930.431;  -10.283; 8590.699
838.817; 5123.768;  -12.963; 8443.797
839.382; 5028.661;  -14.243; 8799.356
839.947; 4709.278;  -10.733; 8810.595
840.511; 4377.406;   -9.383; 8796.394
841.076; 3982.860;  -12.563; 8347.231
841.641; 4045.523;  -12.953; 8224.330
842.205; 4131.451;   -7.043; 8223.349
842.770; 4248.007;   -8.163; 8622.107
843.334; 4436.529;  -12.503; 8410.386
843.898; 4400.926;  -11.693; 8337.465
844.463; 4443.334;  -10.203; 8506.283
845.027; 4221.184;   -9.533; 8280.962
845.591; 4042.719;  -13.443; 8231.141
846.156; 3991.528;  -13.143; 7969.179
846.720; 3855.593;   -9.433; 7768.278
847.284; 3715.038;  -11.033; 7630.957
847.848; 3574.266;  -10.403; 7472.395
848.412; 3470.070;  -11.553; 7437.394
848.976; 3501.905;   -8.393; 7674.592
849.540; 3449.879;   -8.713; 7836.011
850.104; 3592.135;  -12.463; 7913.669
850.668; 3935.208;  -12.973; 7694.508
851.232; 4004.491;  -10.793; 7756.887
851.796; 3829.023;  -10.662; 7926.545
852.359; 3537.737;  -13.082; 7827.844
852.923; 3386.625;  -12.192; 7641.163
853.487; 3201.602;  -11.912; 7342.501
854.050; 3144.586;  -10.892; 7042.820
854.614; 3260.141;  -13.992; 7151.338
855.177; 3369.190;  -11.732; 7105.077
855.741; 3389.475;   -8.962; 6989.675
856.304; 3281.458;   -9.442; 6596.634
856.868; 3241.169;  -14.192; 6356.272
857.431; 3354.106;  -12.702; 6468.571
857.995; 3476.066;   -9.942; 6373.210
858.558; 3480.270;   -9.112; 6324.448
859.121; 3205.562;  -12.932; 6408.327
859.684; 3091.093;  -13.442; 6347.886
860.247; 3188.671;  -10.632; 6321.264
860.810; 3165.805;  -11.272; 6301.903
861.374; 2907.096;   -9.832; 6607.881
861.937; 2659.153;  -11.762; 6408.200
862.500; 2667.598;   -9.722; 6572.639
863.062; 2848.959;  -10.512; 6387.297
863.625; 3014.219;  -11.232; 6190.836
864.188; 3168.204;  -14.112; 5807.254
864.751; 3226.588;  -11.302; 5682.413
865.314; 3106.128;  -10.112; 5547.492
865.876; 2908.113;  -12.182; 5500.150
866.439; 2910.889;  -10.722; 5415.909
867.002; 2847.941;   -9.252; 5501.567
867.564; 2631.063;   -9.572; 5413.946
868.127; 2403.595;  -13.142; 5160.325
868.689; 2298.935;  -12.902; 5133.183
869.252; 2192.308;   -9.732; 5252.382
869.814; 2094.928;   -9.432; 5297.141
870.377; 2119.984;  -11.552; 5390.919
870.939; 2199.184;   -9.052; 5599.898
871.501; 2257.056;  -10.982; 5248.336
872.063; 2251.539;  -12.292; 4854.235
872.626; 2216.130;  -14.912; 4817.074
873.188; 2252.295;  -13.112; 4987.732
873.750; 2221.428;  -13.442; 4868.651
874.312; 2134.934;   -9.402; 4779.330
874.874; 2038.460;  -11.062; 4866.348
875.436; 1943.419;  -13.931; 4718.887
875.998; 1933.255;   -9.561; 4660.005
876.560; 1951.380;  -11.321; 4462.964
877.122; 1894.116;  -12.221; 4145.042
877.683; 1810.027;  -12.191; 4056.481
878.245; 1743.238;  -12.101; 3950.740
878.807; 1789.793;   -8.971; 4058.958
879.369; 1813.294;  -12.071; 3954.677
879.930; 1718.640;  -14.621; 3941.495
880.492; 1658.081;  -10.311; 4067.014
881.053; 1608.986;  -10.901; 3859.633
881.615; 1489.124;  -14.411; 3776.071
882.176; 1395.947;  -13.761; 3734.750
882.738; 1354.480;   -9.181; 3678.489
883.299; 1331.492;  -11.791; 3405.407
883.860; 1344.323;  -13.121; 3351.106
884.422; 1343.271;  -11.211; 3394.044
884.983; 1293.031;  -10.091; 3166.443
885.544; 1210.877;   -8.461; 3189.802
886.105; 1128.332;  -12.361; 3160.360
886.666; 1062.284;  -14.141; 3093.059
887.227; 1006.792;  -11.361; 2941.957
887.788;  944.245;  -11.401; 2974.836
888.349;  883.384;  -13.791; 2721.214
888.910;  882.262;  -13.191; 2696.493
889.471;  891.532;   -9.881; 2560.172
890.032;  870.084;   -9.881; 2558.190
890.593;  845.413;  -10.371; 2567.669
891.153;  821.199;  -13.301; 2460.307
891.714;  768.238;  -11.431; 2372.046
892.275;  726.377;  -11.291; 2309.505
892.835;  680.830;  -11.471; 2382.543
893.396;  622.613;  -11.541; 2295.502
893.956;  565.322;  -11.181; 2162.420
894.517;  531.281;  -11.741; 2125.439
895.077;  528.076;  -11.671; 2086.978
895.638;  529.371;  -11.311; 2126.316
896.198;  499.090;   -9.831; 1838.275
896.758;  456.410;   -8.421; 1892.813
897.319;  424.457;  -12.351; 1792.232
897.879;  408.079;  -13.511; 1762.751
898.439;  380.921;  -12.001; 1661.149
898.999;  357.110;  -10.180; 1781.468
899.559;  347.293;  -12.030; 1703.347
900.119;  342.128;  -15.710; 1537.525
900.679;  338.474;   -8.900; 1638.384
901.239;  323.017;   -8.340; 1527.902
901.799;  312.005;  -13.910; 1456.441
902.359;  307.351;  -13.460; 1357.140
902.919;  299.893;  -11.490; 1331.118
903.479;  286.150;  -12.110; 1317.257
904.038;  265.718;  -11.720; 1262.595
904.598;  249.886;  -13.610; 1152.034
905.158;  247.306;  -11.040; 1240.893
905.717;  239.763;  -10.900; 1233.691
906.277;  227.175;  -15.080; 1217.330
906.836;  216.730;  -13.380; 1222.408
907.396;  208.175;  -10.780; 1193.047
907.955;  201.586;   -8.500; 1182.526
908.515;  195.021;  -12.760; 1099.364
909.074;  189.017;  -11.900; 1092.863
909.633;  183.128;   -8.950; 1069.121
910.192;  179.636;   -8.770; 1196.460
910.752;  174.194;  -12.390; 1029.960
911.311;  169.714;  -13.680; 1009.780
911.870;  167.603;  -12.370;  971.460
912.429;  169.218;  -10.900; 1094.080
912.988;  168.115;  -11.690; 1081.060
913.547;  162.089;  -13.240;  940.380
914.106;  157.206;  -11.990;  999.420
914.665;  153.666;   -9.990;  984.020
915.224;  153.273;  -12.880; 1035.760
915.782;  154.454;  -12.350;  922.560
916.341;  153.640;   -9.110; 1049.840
916.900;  149.264;   -9.270;  925.260
917.458;  146.821;  -13.240;  884.220
918.017;  146.808;  -13.550;  942.600
918.576;  146.022;  -12.320;  904.440
919.134;  144.629;  -11.490;  837.980
919.693;  142.345;  -13.670;  893.060
920.251;  139.612;  -15.470;  876.500
920.809;  139.600;  -11.290;  839.580
921.368;  138.481;  -10.210;  885.360
921.926;  137.483;  -12.140;  842.940
922.484;  136.604;  -13.080;  903.360
923.042;  136.019;  -11.720;  880.340
923.601;  139.369;   -7.480;  998.680
924.159;  138.289;  -11.570;  935.560
924.717;  134.294;  -13.840;  841.080
925.275;  133.641;  -10.640;  903.240
925.833;  135.134;  -11.540;  779.320
926.391;  134.838;  -12.960;  938.380
926.949;  132.731;  -14.130;  857.680
927.506;  132.216;  -11.750;  903.500
928.064;  133.140;  -10.250;  877.580
928.622;  132.844;  -13.030;  880.100
929.180;  131.825;  -13.400;  814.180
929.737;  134.437;  -10.700;  808.540
930.295;  138.008;  -10.070;  928.480
930.853;  139.944;  -11.960;  849.100
931.410;  140.094;  -13.120;  821.120
931.968;  139.473;  -10.770;  940.660
932.525;  139.940;  -10.680;  909.380
933.082;  139.647;  -13.130;  811.440
933.640;  139.722;  -13.210;  925.900
934.197;  138.073;  -11.060;  886.360
934.754;  139.580;   -9.580;  897.780
935.312;  143.546;  -14.000;  863.340
935.869;  147.158;  -10.710; 1012.980
936.426;  147.135;   -9.860;  872.800
936.983;  149.019;   -9.710;  889.020
937.540;  148.810;  -13.990;  838.280
938.097;  145.663;  -14.040;  940.120
938.654;  145.670;  -10.310;  898.860
939.211;  149.144;  -10.560;  952.480
939.768;  153.940;  -13.900;  915.420
940.324;  156.644;  -14.760;  904.200
940.881;  157.537;  -10.370;  878.500
941.438;  158.617;   -8.260; 1021.200
941.995;  154.849;  -12.540;  992.560
942.551;  151.226;  -14.670;  875.620
943.108;  152.675;  -10.450;  937.920
943.664;  155.169;  -10.750;  869.340
944.221;  158.201;  -11.550; 1088.140
944.777;  156.342;  -14.770;  869.680
945.334;  156.897;  -12.820;  884.840
945.890;  158.533;  -10.130;  946.480
946.446;  158.805;  -13.470;  947.020
947.003;  159.823;  -12.120;  964.940
947.559;  163.442;   -9.980; 1063.040
948.115;  162.603;   -9.080; 1026.540
948.671;  161.489;  -10.830;  967.300
949.227;  159.925;  -12.440;  859.560
949.783;  156.002;  -12.910;  858.900
950.339;  157.672;  -10.270;  991.000
950.895;  158.279;  -13.630; 1023.840
951.451;  157.720;  -15.100;  925.280
952.007;  158.305;  -11.330;  998.540
952.563;  158.338;  -10.580;  937.780
953.118;  157.779;  -13.440;  904.940
953.674;  156.653;  -12.710;  935.780
954.230;  156.285;  -10.350;  949.640
954.785;  154.611;   -9.190;  936.640
955.341;  151.898;  -11.200;  998.160
955.897;  150.166;  -16.560;  834.660
956.452;  150.839;  -12.570;  953.840
957.008;  151.589;   -7.970; 1083.640
957.563;  149.144;  -11.940; 1009.540
958.118;  144.832;  -13.450;  877.700
958.674;  145.061;  -12.030;  946.780
959.229;  146.736;   -9.410; 1013.980
959.784;  144.909;  -12.000;  832.400
960.339;  143.192;  -14.780; 1001.280
960.894;  140.066;   -9.860;  963.760
961.449;  135.455;   -9.970;  859.960
962.004;  135.881;  -10.900; 1212.840
962.559;  130.481;  -13.150;  860.140
963.114;  127.300;  -13.740;  742.480
963.669;  128.264;   -9.820;  915.500
964.224;  126.067;  -13.890;  874.340
964.779;  126.215;  -12.600;  828.420
965.334;  126.815;  -10.950; 1017.860
965.888;  126.378;  -11.170;  875.360
966.443;  129.605;  -12.540;  972.380
966.998;  129.000;  -15.780;  819.460
967.552;  127.911;   -9.760;  908.380
968.107;  123.719;   -9.060;  868.300
968.661;  124.752;  -11.950;  922.440
969.216;  125.231;  -12.800;  856.280
969.770;  126.064;  -11.210;  917.200
970.324;  126.965;  -11.610;  923.140
970.879;  125.756;  -11.370;  947.180
971.433;  122.364;  -12.540;  952.720
971.987;  114.325;  -11.320;  895.340
972.541;  106.039;  -10.720;  917.100
973.095;   97.694;   -9.680; 1009.460
973.649;   89.406;  -11.440;  809.480
974.203;   83.543;  -11.210;  829.040
974.757;   81.663;  -10.240;  855.220
975.311;   82.739;  -13.720;  872.600
975.865;   84.609;  -13.770;  881.820
976.419;   86.154;  -11.690;  857.400
976.973;   87.729;   -9.510;  849.620
977.526;   90.961;  -12.620;  949.920
978.080;   90.257;  -12.010;  796.780
978.634;   92.228;  -10.170;  921.320
979.187;   90.767;   -9.020;  905.400
979.741;   89.343;   -9.820; 1018.380
980.294;   85.590;  -14.870;  789.160
980.848;   84.586;  -12.380;  717.220
981.401;   87.410;  -10.350;  816.540
981.955;   89.181;  -13.720;  844.300
982.508;   87.991;  -11.490;  746.340
983.061;   89.009;  -10.000;  915.260
983.615;   85.000;  -11.480;  798.800
984.168;   83.292;  -13.220;  770.080
984.721;   82.637;  -13.960;  880.760
985.274;   80.860;  -10.870;  867.500
985.827;   80.339;   -9.790;  834.220
986.380;   78.830;  -13.120;  721.340
986.933;   78.535;  -12.450;  864.800
987.486;   76.769;  -10.210;  861.920
988.039;   76.008;   -8.430;  863.100
988.591;   74.409;  -10.520;  893.260
989.144;   71.242;  -14.860;  737.260
989.697;   71.392;  -13.080;  758.740
990.250;   71.735;  -10.150;  858.100
990.802;   70.915;  -13.430;  755.860
991.355;   71.654;  -12.750;  974.880
991.907;   69.314;  -12.040;  864.320
992.460;   66.974;  -11.330;  753.760
993.012;   67.079;  -13.610;  749.540
993.565;   65.435;  -13.460;  711.360
994.117;   66.985;   -9.360;  950.780
994.669;   63.601;  -11.300;  701.320
995.221;   62.513;  -13.540;  791.920
995.774;   60.133;  -13.430;  787.580
996.326;   58.371;  -12.520;  740.220
996.878;   59.336;  -10.950;  838.420
997.430;   56.816;  -14.300;  699.860
997.982;   55.553;  -13.760;  750.140
998.534;   54.077;  -11.530;  739.060
999.086;   51.869;  -10.310;  738.220
999.638;   49.486;  -12.530;  661.380
1000.190;   49.026;  -11.840;  699.320
1000.741;   48.898;  -10.260;  742.700
1001.293;   49.699;   -8.860;  686.020
1001.845;   48.800;  -13.700;  676.640
1002.396;   48.474;  -12.100;  743.400
1002.948;   48.615;  -12.760;  737.400
1003.500;   47.610;  -10.380;  723.780
1004.051;   47.571;  -11.900;  907.580
1004.603;   46.263;  -12.250;  791.820
1005.154;   41.905;  -13.210;  608.980
1005.705;   42.045;  -10.950;  723.960
1006.257;   41.349;  -13.880;  707.220
1006.808;   40.536;  -12.840;  685.460
1007.359;   40.228;  -10.570;  763.240
1007.910;   39.134;   -9.620;  646.640
1008.461;   40.146;  -13.630;  732.940
1009.013;   37.561;  -17.200;  588.340
1009.564;   39.063;  -10.200;  793.520
1010.115;   37.600;  -12.570;  597.040
1010.665;   36.973;  -15.150;  602.160
1011.216;   36.725;  -14.480;  667.920
1011.767;   36.325;  -11.340;  697.920
1012.318;   36.129;   -9.780;  736.980
1012.869;   36.017;  -12.380;  679.000
1013.419;   34.257;  -15.560;  603.120
1013.970;   34.958;  -11.010;  666.640
1014.521;   34.892;  -11.610;  620.620
1015.071;   34.918;  -13.450;  670.380
1015.622;   34.934;  -13.870;  635.460
1016.172;   33.625;  -11.610;  596.820
1016.723;   33.012;  -12.120;  614.380
1017.273;   33.407;  -13.620;  604.160
1017.823;   34.134;  -14.140;  650.340
1018.374;   32.796;  -12.800;  611.760
1018.924;   32.573;  -12.340;  716.880
1019.474;   33.359;  -11.410;  718.880
1020.024;   31.983;  -14.770;  657.580
1020.574;   32.904;   -9.780;  726.160
1021.124;   32.887;   -8.560;  673.580
1021.674;   30.951;  -15.190;  559.120
1022.224;   31.884;  -13.530;  708.940
1022.774;   31.828;  -13.280;  668.820
1023.324;   31.824;  -10.690;  753.520
1023.874;   32.923;  -10.240;  875.760
1024.423;   30.204;  -12.540;  613.700
1024.973;   29.586;  -10.010;  610.760
1025.523;   29.958;  -10.550;  620.960
1026.072;   29.481;  -13.560;  606.420
1026.622;   29.309;  -15.120;  675.740
1027.172;   30.149;  -11.260;  715.660
1027.721;   29.644;  -11.410;  601.220
1028.270;   29.099;  -13.530;  663.400
1028.820;   29.024;  -13.680;  638.080
1029.369;   28.909;  -13.520;  612.700
1029.918;   28.925;  -10.980;  649.840
1030.468;   28.308;  -13.530;  564.780
1031.017;   28.254;  -13.170;  634.800
1031.566;   28.083;  -12.200;  608.900
1032.115;   28.115;   -9.960;  694.500
1032.664;   27.221;  -13.210;  596.480
1033.213;   27.744;  -12.500;  735.420
1033.762;   27.806;  -11.910;  635.620
1034.311;   26.950;   -9.640;  677.220
1034.860;   27.309;  -13.310;  691.000
1035.408;   26.993;  -11.830;  722.720
1035.957;   27.771;  -12.000;  719.540
1036.506;   25.726;  -11.690;  530.800
1037.055;   27.812;  -10.990;  844.320
1037.603;   25.813;  -15.120;  664.000
1038.152;   23.979;  -12.450;  534.760
1038.700;   24.831;  -10.560;  585.740
1039.249;   25.765;  -11.080;  681.220
1039.797;   25.549;  -12.540;  633.360
1040.345;   25.188;  -11.920;  705.420
1040.894;   24.741;  -11.410;  625.300
1041.442;   25.077;  -14.320;  632.200
1041.990;   23.998;  -16.240;  559.160
1042.538;   23.472;  -11.680;  536.180
1043.087;   23.343;  -10.760;  570.860
1043.635;   24.670;  -11.850;  670.500
1044.183;   23.741;  -15.480;  586.400
1044.731;   22.803;  -11.770;  576.000
1045.279;   23.109;  -13.090;  674.920
1045.827;   25.263;  -12.440;  892.400
1046.374;   22.319;  -13.840;  515.420
1046.922;   21.719;  -13.220;  590.580
1047.470;   23.181;  -10.230;  691.300
1048.018;   23.043;  -14.590;  647.960
1048.565;   23.471;  -12.050;  708.600
1049.113;   21.213;  -11.650;  557.000
1049.660;   22.304;  -10.510;  629.660
1050.208;   22.697;  -13.310;  675.640
1050.755;   20.685;  -15.900;  606.580
1051.303;   21.696;  -11.430;  686.820
1051.850;   21.450;   -8.480;  635.120
1052.397;   19.499;  -15.010;  473.960
1052.945;   20.350;  -13.960;  617.760
1053.492;   21.896;  -13.150;  741.840
1054.039;   21.876;   -9.630;  720.180
1054.586;   20.635;  -13.680;  557.240
1055.133;   21.410;  -14.570;  693.140
1055.680;   20.640;  -13.820;  646.620
1056.227;   19.149;  -11.730;  542.780
1056.774;   20.898;  -12.480;  794.980
1057.321;   19.177;  -13.930;  523.260
1057.868;   19.286;  -11.690;  651.320
1058.415;   19.832;   -9.520;  651.980
1058.961;   20.652;  -13.160;  678.940
1059.508;   19.658;  -12.920;  643.820
1060.055;   19.700;  -11.920;  581.780
1060.601;   20.012;  -11.500;  624.300
1061.148;   19.514;  -14.330;  616.820
1061.694;   18.273;  -16.870;  592.580
1062.241;   18.414;  -10.330;  596.320
1062.787;   18.442;  -10.620;  663.140
1063.334;   20.030;  -10.110;  808.560
1063.880;   18.361;  -13.400;  668.360
1064.426;   18.448;  -10.680;  706.820
1064.972;   18.194;   -9.920;  601.340
1065.518;   16.496;  -10.980;  566.640
1066.065;   18.173;  -14.890;  624.460
1066.611;   17.053;  -12.870;  598.800
1067.157;   18.054;  -12.950;  641.860
1067.703;   17.960;  -13.540;  668.480
1068.249;   17.470;  -13.540;  605.220
1068.794;   16.492;  -12.600;  626.880
1069.340;   16.011;  -10.620;  578.960
1069.886;   17.145;  -12.830;  590.700
1070.432;   16.190;  -14.870;  541.720
1070.977;   15.863;  -11.980;  601.080
1071.523;   16.278;   -8.200;  573.060
1072.068;   16.498;  -12.330;  582.000
1072.614;   15.108;  -16.370;  527.760
1073.160;   16.574;  -11.100;  687.040
1073.705;   15.509;  -10.480;  572.520
1074.250;   15.640;  -14.520;  559.900
1074.796;   16.258;  -11.460;  655.160
1075.341;   16.225;  -11.950;  664.100
1075.886;   15.617;  -11.460;  594.240
1076.431;   15.490;  -13.770;  649.880
1076.976;   15.462;  -12.680;  639.220
1077.521;   14.629;  -13.170;  583.080
1078.067;   14.239;  -10.860;  579.400
1078.612;   15.301;  -13.920;  661.620
1079.156;   15.092;  -13.880;  601.540
1079.701;   15.021;  -13.120;  693.260
1080.246;   15.045;   -9.940;  696.300
1080.791;   15.184;  -14.740;  625.020
1081.336;   13.725;  -13.750;  659.320
1081.880;   14.401;  -13.400;  649.680
1082.425;   13.428;  -12.220;  573.480
1082.970;   14.632;  -11.610;  717.040
1083.514;   13.637;  -13.580;  597.000
1084.059;   12.582;  -12.810;  586.720
1084.603;   13.193;  -12.320;  565.840
1085.147;   13.696;  -13.190;  645.220
1085.692;   13.807;  -12.480;  716.800
1086.236;   11.748;  -13.020;  503.140
1086.780;   14.232;   -9.190;  751.440
1087.325;   13.156;  -12.480;  654.620
1087.869;   12.817;  -12.450;  610.700
1088.413;   13.386;  -12.240;  705.040
1088.957;   11.539;   -9.020;  543.400
1089.501;   13.584;  -10.320;  766.640
1090.045;   13.005;  -12.720;  726.480
1090.589;   10.329;  -13.690;  569.920
1091.133;   11.805;  -10.020;  673.340
1091.676;   12.616;  -12.330;  591.940
1092.220;   11.576;  -14.970;  600.920
1092.764;   11.872;  -12.430;  706.960
1093.307;   12.266;   -9.800;  673.780
1093.851;   10.780;  -14.970;  556.540
1094.395;   11.952;  -15.310;  683.140
1094.938;   10.391;  -10.370;  632.520
1095.482;   10.686;  -11.050;  559.800
1096.025;   11.640;  -11.840;  710.880
1096.568;   11.777;  -12.840;  779.280
1097.112;    9.483;  -14.700;  508.180
1097.655;   10.917;   -8.720;  603.000
1098.198;    9.987;  -13.610;  600.180
1098.741;   10.114;  -13.350;  612.860
1099.285;   11.163;  -11.230;  657.300
1099.828;    9.185;  -11.840;  439.400
1100.371;   10.294;  -10.840;  608.160
1100.914;   10.267;  -14.190;  682.660
1101.457;   10.133;  -11.240;  679.900
1101.999;    9.051;  -11.270;  584.680
1102.542;   10.278;  -11.480;  641.440
1103.085;    9.123;  -11.750;  658.500
1103.628;   10.261;  -11.400;  762.060
1104.170;    9.135;  -10.490;  588.280
1104.713;    9.271;  -10.600;  646.700
1105.256;    9.128;  -14.360;  557.440
1105.798;    7.798;  -13.210;  499.980
1106.341;   10.192;  -10.270;  728.900
1106.883;    8.533;  -12.200;  521.340
1107.425;    8.278;  -13.110;  668.180
1107.968;    8.226;  -12.840;  612.380
1108.510;    9.458;   -6.480;  684.960
1109.052;    8.135;  -13.940;  612.620
1109.594;    7.955;  -13.690;  554.440
1110.136;    8.600;  -11.880;  643.220
1110.679;    7.401;   -9.500;  633.080
1111.221;    8.664;  -14.160;  604.460
1111.763;    7.850;  -13.980;  559.220
1112.304;    6.518;  -13.880;  547.140
1112.846;    7.520;  -12.210;  666.240
1113.388;   10.882;  -11.390;  942.180
1113.930;    7.531;  -14.540;  694.200
1114.472;    7.433;  -12.640;  606.540
1115.013;    5.592;  -11.620;  551.280
1115.555;    6.294;  -13.640;  587.100
1116.097;    5.921;  -15.380;  579.480
1116.638;    6.920;  -12.640;  684.600
1117.180;    7.117;   -9.850;  667.740
1117.721;    7.505;  -13.690;  568.580
1118.262;    7.707;  -12.680;  677.960
1118.804;    7.631;  -12.530;  637.340
1119.345;    5.928;  -11.690;  578.400
1119.886;    7.232;  -13.380;  704.040
1120.427;    6.161;  -14.070;  589.020
1120.969;    5.071;  -13.500;  597.920
1121.510;    5.673;  -11.480;  563.060
1122.051;    5.976;  -12.830;  723.580
1122.592;    5.948;  -14.290;  655.420
1123.133;    4.865;  -12.400;  547.940
1123.673;    6.636;  -10.130;  706.480
1124.214;    5.403;  -12.930;  612.460
1124.755;    6.364;  -14.380;  639.460
1125.296;    5.502;  -14.000;  627.320
1125.836;    6.701;  -10.070;  691.500
1126.377;    4.841;  -12.640;  599.660
1126.918;    5.230;  -12.960;  614.980
1127.458;    4.845;  -13.350;  622.220
1127.999;    5.470;  -10.750;  656.980
1128.539;    5.098;  -12.350;  694.240
1129.079;    4.897;  -14.860;  632.720
1129.620;    4.098;  -13.840;  558.100
1130.160;    3.765;  -12.330;  539.480
1130.700;    4.358;  -14.530;  640.840
1131.240;    5.255;  -12.530;  643.700
1131.781;    3.829;  -14.450;  619.680
1132.321;    4.396;   -9.790;  599.120
1132.861;    3.779;  -14.860;  564.200
1133.401;    3.231;  -14.290;  593.940
1133.941;    3.689;  -11.750;  626.280
1134.481;    3.465;   -9.920;  597.580
1135.020;    3.682;  -12.290;  609.160
1135.560;    3.720;  -11.650;  674.940
1136.100;    3.177;  -16.270;  501.160
1136.640;    2.435;  -10.890;  510.480
1137.179;    3.168;  -14.180;  537.960
1137.719;    3.082;  -16.250;  605.400
1138.258;    3.101;  -14.230;  587.360
1138.798;    3.506;   -9.090;  663.780
1139.337;    1.970;  -15.130;  482.840
1139.877;    3.073;  -13.680;  642.360
1140.416;    4.610;  -11.320;  878.060
1140.955;    2.430;  -10.860;  535.380
1141.494;    2.376;  -12.920;  669.280
1142.034;    2.657;  -13.930;  583.520
1142.573;    2.637;  -11.440;  646.280
1143.112;    1.789;  -12.000;  553.480
1143.651;    2.464;  -13.670;  536.480
1144.190;    2.906;  -12.730;  691.640
1144.729;    1.798;  -14.560;  607.420
1145.267;    2.590;  -11.830;  584.900
1145.806;    2.879;  -12.230;  637.040
1146.345;    1.400;  -14.130;  635.020
1146.884;    1.345;  -11.590;  622.500
1147.422;    1.491;  -12.550;  533.060
1147.961;    2.404;  -11.180;  708.460
1148.500;    2.607;  -11.510;  669.720
1149.038;    2.948;  -11.640;  632.500
1149.577;    2.645;  -10.130;  698.640
1150.115;    0.794;  -13.970;  452.280
1150.653;    1.436;  -14.520;  607.340
1151.192;    0.518;  -12.810;  552.920
1151.730;    1.796;   -9.100;  652.560
1152.268;    1.164;  -12.220;  589.520
1152.806;    0.822;  -14.140;  571.180
1153.344;   -0.275;  -12.350;  577.640
1153.882;    1.417;   -8.980;  600.060
1154.421;   -0.495;  -15.190;  470.620
1154.958;    0.517;  -15.210;  595.240
1155.496;    1.183;  -12.850;  645.280
1156.034;    1.161;   -9.940;  721.880
1156.572;    1.501;  -13.570;  667.060
1157.110;   -0.214;  -14.590;  473.940
1157.647;    0.859;  -13.030;  676.960
1158.185;    0.588;  -12.140;  564.320
1158.723;   -0.635;  -14.390;  509.200
1159.260;    0.468;  -14.090;  701.700
1159.798;    1.012;  -11.920;  658.160
1160.335;    0.080;  -11.110;  631.820

