
Integration time [ms]:   3.276
Averaging Nr. [scans]: 1000
Smoothing Nr. [pixels]: 0
Data measured with spectrometer [name]: 7414430SP
Wave   ;Sample   ;Dark     ;Reference
[nm]   ;[counts] ;[counts] ;[counts] 

288.544;  150.773;    7.793;  793.890
289.143;  155.642;    7.462;  681.602
289.742;  154.960;    8.602;  828.814
290.341;  139.433;    1.321;  789.841
290.940;  129.366;   -0.709;  730.702
291.538;  130.936;    0.881;  881.108
292.137;  130.646;    0.122;  792.581
292.736;  134.161;   -1.929;  975.101
293.335;  131.890;   -8.229;  735.086
293.934;  132.079;   -5.279;  781.677
294.532;  130.573;   -1.369; 1031.958
295.131;  115.914;   -7.641;  834.394
295.730;  116.366;   -8.420;  809.588
296.328;  116.089;   -5.611;  783.442
296.927;  115.423;   -5.781;  779.652
297.525;  116.078;   -6.361;  781.236
298.124;  106.566;  -11.382;  654.009
298.722;  111.410;   -7.641;  761.933
299.321;  109.514;   -6.811;  708.597
299.919;  107.716;   -6.991;  751.918
300.518;  104.455;  -10.362;  689.338
301.116;  106.023;   -9.581;  691.381
301.715;  105.708;   -4.891;  730.222
302.313;  103.676;   -8.801;  704.943
302.911;   99.867;   -8.522;  733.830
303.509;  106.657;   -6.171;  925.627
304.108;  103.060;   -7.311;  760.383
304.706;  101.667;   -8.321;  801.664
305.304;   97.045;  -10.222;  796.707
305.902;  102.502;   -6.021;  784.484
306.500;   97.869;   -4.971;  728.200
307.098;   96.784;   -7.061;  746.560
307.696;   94.456;   -8.801;  780.432
308.294;   95.214;   -6.411;  731.359
308.892;   96.456;   -2.901;  759.769
309.490;   93.992;   -5.041;  712.161
310.088;   91.857;   -5.002;  788.444
310.686;   96.091;   -2.041;  821.749
311.284;   91.225;   -2.351;  766.040
311.882;   88.723;   -4.422;  731.225
312.480;   85.975;   -4.192;  697.167
313.078;   87.339;   -1.172;  808.331
313.675;   88.028;   -2.601;  691.600
314.273;   83.687;   -1.312;  797.837
314.871;   82.656;   -3.942;  589.829
315.468;   81.541;   -2.802;  652.090
316.066;   83.326;   -0.701;  694.427
316.664;   76.384;   -4.362;  656.351
317.261;   80.580;   -2.872;  910.128
317.859;   76.993;   -2.022;  768.735
318.456;   76.105;   -0.531;  830.096
319.054;   72.445;   -3.912;  787.828
319.651;   71.421;   -4.752;  759.928
320.249;   70.429;   -2.602;  810.188
320.846;   68.582;   -0.821;  714.286
321.443;   65.391;   -4.642;  832.135
322.041;   62.612;   -5.002;  812.315
322.638;   61.374;   -3.982;  701.456
323.235;   61.621;   -3.411;  665.683
323.833;   58.908;   -7.361;  740.354
324.430;   54.937;   -8.611;  615.900
325.027;   56.115;   -4.061;  876.855
325.624;   54.551;   -4.031;  644.532
326.221;   52.631;   -7.481;  689.717
326.818;   51.686;   -5.281;  818.332
327.415;   55.466;   -7.460;  748.828
328.012;   54.955;   -5.510;  690.585
328.609;   52.982;   -7.880;  731.389
329.206;   51.835;   -8.331;  778.621
329.803;   52.191;   -5.121;  737.841
330.400;   54.207;   -4.510;  704.260
330.997;   55.603;   -6.441;  817.147
331.594;   54.603;   -8.831;  788.185
332.191;   59.859;   -7.621;  728.722
332.787;   62.094;   -4.591;  844.463
333.384;   60.517;   -7.412;  763.093
333.981;   60.683;   -8.293;  815.687
334.578;   62.545;   -7.052;  708.378
335.174;   65.520;   -3.102;  731.469
335.771;   63.768;   -5.943;  836.456
336.367;   61.110;   -7.393;  710.631
336.964;   65.019;   -4.063;  793.266
337.561;   62.751;   -3.813;  731.112
338.157;   59.103;   -4.654;  911.916
338.754;   56.447;   -7.934;  796.589
339.350;   54.626;   -4.414;  722.493
339.946;   56.395;   -4.664;  773.135
340.543;   48.584;   -6.375;  846.136
341.139;   43.717;   -9.815;  720.836
341.735;   42.357;   -4.526;  772.593
342.332;   40.131;   -4.895;  691.472
342.928;   39.799;   -4.295;  795.394
343.524;   34.917;   -5.476;  761.684
344.120;   31.550;   -5.856;  738.562
344.716;   34.147;   -2.155;  723.717
345.313;   31.412;   -6.275;  795.342
345.909;   27.059;   -8.815;  627.336
346.505;   28.592;   -5.305;  740.247
347.101;   28.582;   -2.674;  827.864
347.697;   28.681;   -4.344;  785.398
348.293;   23.750;   -9.975;  627.244
348.889;   25.038;   -5.774;  745.914
349.485;   23.980;   -5.004;  688.205
350.081;   25.035;   -4.704;  772.592
350.676;   20.243;   -6.635;  691.606
351.272;   24.962;   -4.504;  809.530
351.868;   23.811;   -3.914;  780.497
352.464;   20.870;   -9.044;  723.932
353.059;   17.306;   -8.314;  646.017
353.655;   21.395;   -7.024;  777.063
354.251;   21.434;   -5.343;  759.845
354.846;   16.437;   -8.604;  740.646
355.442;   14.862;   -6.945;  753.071
356.038;   16.741;   -7.564;  751.708
356.633;   16.450;   -5.814;  728.594
357.229;   13.799;   -7.364;  724.757
357.824;   12.462;   -8.024;  703.600
358.420;   12.451;   -9.384;  679.726
359.015;   12.472;   -5.104;  695.357
359.610;   13.524;   -6.854;  763.920
360.206;    7.731;  -10.185;  603.240
360.801;   10.339;   -7.054;  646.503
361.396;   12.367;   -5.034;  725.975
361.992;    7.724;   -8.284;  668.220
362.587;    4.954;   -8.625;  670.160
363.182;    7.356;   -7.674;  689.631
363.777;    7.564;   -5.164;  738.242
364.372;    7.365;   -8.604;  737.314
364.967;    4.946;   -9.055;  680.744
365.563;    8.395;   -6.114;  815.567
366.158;    5.790;   -5.814;  685.161
366.753;    5.685;   -7.854;  649.263
367.348;    4.695;   -7.804;  746.056
367.942;    4.515;   -7.954;  697.298
368.537;    2.439;   -4.984;  754.245
369.132;    3.300;   -8.564;  703.428
369.727;   -0.529;   -8.855;  638.079
370.322;    1.117;   -6.245;  580.186
370.917;    0.598;   -6.425;  710.646
371.511;    3.253;   -6.294;  861.834
372.106;    0.415;   -7.685;  776.964
372.701;   -3.188;   -7.335;  585.988
373.296;    2.474;   -4.564;  863.135
373.890;   -2.455;  -10.235;  647.840
374.485;   -4.556;   -7.885;  691.199
375.079;   -0.433;   -7.324;  738.685
375.674;    0.849;   -3.494;  812.970
376.268;   -3.519;   -8.525;  691.759
376.863;   -9.844;  -10.086;  580.327
377.457;   -2.734;   -7.025;  662.490
378.052;   -4.605;   -3.585;  764.884
378.646;   -5.730;   -7.595;  741.167
379.240;   -5.331;   -8.335;  721.176
379.835;   -4.370;   -5.785;  636.978
380.429;   -6.975;   -4.335;  562.557
381.023;   -7.560;   -6.805;  779.205
381.617;   -8.816;   -9.195;  680.106
382.212;   -5.674;   -6.905;  685.303
382.806;   -5.417;   -3.745;  760.690
383.400;   -9.287;   -7.745;  672.281
383.994;  -10.428;   -9.765;  664.870
384.588;   -6.461;   -6.564;  697.701
385.182;   -5.780;   -5.344;  726.624
385.776;   -6.565;   -8.514;  706.875
386.370;   -9.553;   -9.555;  681.968
386.964;   -8.671;   -8.715;  684.155
387.558;   -7.079;   -6.174;  598.360
388.152;  -10.717;   -8.725;  681.959
388.745;   -8.789;   -7.965;  814.707
389.339;   -6.017;   -5.924;  747.642
389.933;   -6.325;   -5.524;  695.370
390.527;   -7.875;   -7.114;  859.029
391.120;  -13.234;  -10.725;  595.318
391.714;   -9.149;   -8.035;  711.633
392.308;   -6.821;   -3.574;  780.253
392.901;  -11.313;   -7.245;  642.460
393.495;  -12.451;   -9.285;  595.414
394.089;   -9.861;   -5.895;  760.452
394.682;  -11.503;   -4.295;  697.188
395.275;  -11.775;   -9.875;  719.927
395.869;  -12.599;   -8.485;  667.314
396.462;  -11.642;   -7.455;  616.609
397.056;   -7.067;   -5.424;  776.621
397.649;  -11.798;   -6.605;  731.575
398.242;   -8.940;   -8.224;  712.645
398.836;   -8.537;   -7.474;  766.408
399.429;   -9.441;   -7.094;  631.041
400.022;  -13.161;   -9.475;  665.902
400.615;  -10.857;   -7.145;  805.609
401.208;   -8.628;   -7.174;  691.451
401.802;  -10.998;   -5.515;  699.329
402.395;  -12.190;   -9.875;  683.502
402.988;  -12.710;   -8.845;  696.627
403.581;   -9.025;   -8.874;  646.878
404.174;   -7.847;   -5.324;  686.568
404.767;  -10.593;   -9.575;  638.583
405.360;  -12.788;  -10.965;  621.445
405.953;   -7.392;   -8.764;  759.034
406.545;   -6.721;   -7.514;  725.342
407.138;  -10.976;  -10.025;  618.350
407.731;   -9.553;  -10.034;  613.303
408.324;   -5.650;   -9.374;  660.554
408.917;   -6.605;   -6.534;  681.864
409.509;   -8.168;   -8.004;  740.396
410.102;  -10.203;   -9.875;  643.948
410.695;   -4.778;   -8.604;  665.758
411.287;   -5.722;   -6.794;  599.821
411.880;   -7.264;   -9.334;  585.421
412.472;   -9.714;  -10.254;  613.092
413.065;   -6.868;   -6.714;  629.408
413.657;   -5.057;   -7.234;  576.678
414.250;   -4.386;  -10.544;  646.681
414.842;   -7.292;   -9.744;  676.353
415.434;   -3.925;   -6.994;  570.463
416.027;   -0.341;   -5.893;  652.196
416.619;   -1.508;   -7.264;  713.400
417.211;   -2.524;  -10.374;  599.352
417.804;    0.509;   -7.993;  628.499
418.396;   -2.420;   -7.234;  607.643
418.988;   -1.558;   -9.443;  659.238
419.580;   -3.659;  -10.724;  568.276
420.172;   -2.063;  -10.323;  536.196
420.764;    2.790;   -8.793;  672.482
421.356;    0.522;  -11.143;  636.898
421.948;    0.178;   -8.293;  677.661
422.540;    5.758;   -7.893;  680.027
423.132;    4.089;   -7.082;  600.641
423.724;    1.450;   -8.653;  561.267
424.316;    2.652;  -10.213;  621.345
424.908;    7.894;   -9.762;  591.517
425.500;    7.040;   -5.572;  647.978
426.092;    8.106;   -8.422;  648.268
426.683;    7.270;   -9.283;  684.836
427.275;    9.892;   -7.852;  641.471
427.867;   11.142;   -5.272;  668.948
428.458;   11.163;   -7.682;  732.344
429.050;   10.704;  -10.612;  680.749
429.642;   13.246;   -9.882;  743.124
430.233;   13.770;   -6.962;  569.356
430.825;   14.208;   -6.842;  724.809
431.416;   11.274;   -9.672;  698.241
432.008;   15.630;   -6.552;  651.723
432.599;   15.899;   -6.891;  656.073
433.190;   13.212;  -10.912;  637.670
433.782;   12.519;  -11.172;  590.395
434.373;   20.858;   -6.061;  884.765
434.964;   19.122;   -8.251;  602.920
435.556;   16.109;   -9.722;  634.537
436.147;   19.510;   -9.082;  758.490
436.738;   20.217;   -8.041;  701.099
437.329;   24.863;   -7.341;  721.723
437.920;   17.359;   -8.162;  666.688
438.511;   17.712;  -11.802;  564.526
439.103;   24.860;  -10.191;  623.998
439.694;   25.291;   -7.601;  681.583
440.285;   27.356;   -8.541;  764.432
440.876;   24.562;   -9.751;  845.738
441.466;   24.700;   -9.401;  575.162
442.057;   29.855;   -7.760;  665.814
442.648;   28.159;   -9.971;  746.255
443.239;   27.420;  -11.001;  620.477
443.830;   32.092;   -7.990;  704.958
444.421;   33.760;   -7.910;  655.474
445.011;   30.333;   -8.131;  693.619
445.602;   29.656;   -7.111;  743.126
446.193;   32.284;  -10.920;  488.117
446.783;   36.330;   -6.500;  640.397
447.374;   32.057;   -8.671;  692.759
447.964;   32.560;  -10.781;  713.770
448.555;   41.053;   -9.650;  822.742
449.145;   37.329;   -8.660;  662.853
449.736;   38.333;   -8.990;  803.179
450.326;   38.386;   -9.500;  713.626
450.917;   43.566;   -8.680;  675.324
451.507;   42.460;   -7.520;  600.661
452.097;   42.924;   -8.590;  746.267
452.688;   43.866;  -11.340;  742.160
453.278;   44.087;  -10.100;  566.840
453.868;   48.996;   -6.019;  793.550
454.458;   46.956;   -9.440;  651.141
455.048;   46.333;  -10.560;  711.783
455.639;   48.398;  -11.799;  567.096
456.229;   51.544;   -6.899;  710.694
456.819;   53.602;   -7.389;  751.158
457.409;   53.907;  -11.119;  773.993
457.999;   57.029;   -9.289;  737.505
458.589;   56.594;   -6.139;  686.606
459.179;   56.358;   -8.729;  717.658
459.769;   54.483;   -9.789;  627.099
460.358;   60.006;  -10.259;  797.262
460.948;   59.603;   -7.299;  689.503
461.538;   61.120;  -10.289;  660.677
462.128;   59.223;  -11.269;  664.934
462.717;   66.169;   -9.368;  710.326
463.307;   69.030;   -7.908;  705.846
463.897;   64.616;   -9.599;  656.942
464.486;   64.061;   -9.769;  837.128
465.076;   68.839;   -8.048;  733.776
465.666;   72.429;   -9.358;  652.900
466.255;   69.609;   -7.919;  785.651
466.845;   69.976;  -11.689;  666.749
467.434;   73.259;   -7.818;  725.873
468.023;   73.587;   -7.678;  658.357
468.613;   70.880;  -10.939;  713.946
469.202;   75.818;  -10.118;  646.507
469.791;   80.241;   -9.108;  737.811
470.381;   81.345;   -6.058;  742.813
470.970;   81.022;  -10.428;  711.099
471.559;   81.256;  -10.268;  733.291
472.148;   84.395;   -8.448;  675.737
472.738;   86.765;   -6.917;  765.466
473.327;   86.123;  -11.978;  637.529
473.916;   85.731;  -11.888;  737.446
474.505;   90.540;   -9.437;  751.703
475.094;   93.388;   -6.747;  806.570
475.683;   92.850;   -9.367;  797.699
476.272;   94.017;  -12.637;  730.632
476.861;   97.384;  -10.027;  706.754
477.449;  103.405;   -8.716;  728.487
478.038;   97.925;   -9.577;  692.513
478.627;   99.034;   -9.718;  714.852
479.216;  106.181;   -8.947;  769.441
479.805;  108.169;   -6.256;  783.375
480.393;  108.783;   -7.937; 1008.945
480.982;  107.795;   -7.717;  874.501
481.571;  114.853;   -9.266;  858.333
482.159;  115.042;   -7.636;  705.386
482.748;  114.607;   -9.667;  821.385
483.336;  119.623;  -10.376;  858.209
483.925;  121.548;   -7.147;  774.373
484.513;  127.565;   -7.996;  758.962
485.102;  123.486;  -10.027;  810.965
485.690;  132.905;  -10.446; 1011.050
486.278;  135.320;   -8.446;  979.329
486.867;  135.878;   -6.356;  809.662
487.455;  137.365;   -9.136;  898.229
488.043;  139.301;  -10.646;  748.361
488.631;  148.696;   -7.456; 1005.079
489.220;  152.018;   -6.636;  908.626
489.808;  152.530;  -11.036;  741.415
490.396;  160.697;  -10.246;  914.645
490.984;  167.738;   -8.556;  830.161
491.572;  177.545;   -5.886;  940.315
492.160;  183.442;   -9.486;  919.081
492.748;  196.408;  -10.976;  884.341
493.336;  221.989;   -8.776; 1019.693
493.924;  249.272;   -5.465;  958.077
494.512;  278.939;   -9.986; 1066.638
495.100;  321.063;  -10.636; 1103.280
495.687;  380.353;  -10.885; 1206.373
496.275;  450.873;   -8.126; 1150.796
496.863;  525.007;  -10.586; 1281.171
497.451;  636.504;  -11.926; 1386.805
498.038;  777.894;  -10.885; 1556.729
498.626;  892.951;   -6.315; 1741.407
499.214; 1052.542;   -7.326; 2016.609
499.801; 1278.772;  -11.906; 2220.633
500.389; 1545.031;  -10.466; 2312.494
500.976; 1891.533;   -5.236; 2744.849
501.564; 2367.758;   -8.936; 3148.565
502.151; 2787.391;  -13.176; 3515.999
502.738; 3294.405;  -10.646; 3971.274
503.326; 3705.632;   -9.525; 4403.796
503.913; 4114.932;  -10.856; 5161.749
504.500; 4518.579;  -11.586; 5986.420
505.088; 4974.939;  -10.336; 6381.201
505.675; 5561.875;   -6.355; 6925.547
506.262; 6331.477;   -9.046; 7619.060
506.849; 7081.493;  -10.416; 8733.969
507.436; 7602.845;  -10.305; 9790.121
508.023; 8233.288;   -5.496; 9985.472
508.610; 8486.671;   -7.856;10434.618
509.197; 9170.205;  -10.097;11198.435
509.784;10650.081;  -10.886;12391.194
510.371;11740.769;   -9.315;13603.713
510.958;12494.152;   -9.936;14426.586
511.545;13317.170;   -9.326;15243.775
512.132;14277.301;  -10.075;15945.876
512.719;14992.891;   -7.796;16340.369
513.305;16038.747;  -10.606;18011.766
513.892;16897.332;  -11.486;19754.971
514.479;18262.775;   -9.126;20967.805
515.066;19637.104;   -6.026;22299.793
515.652;20901.672;   -8.466;22908.660
516.239;22363.563;  -10.886;23798.875
516.825;23604.006;  -11.496;25567.275
517.412;24898.441;   -5.796;28154.959
517.998;25504.512;  -10.506;28344.111
518.585;25409.959;  -10.076;27134.219
519.171;25910.895;   -8.315;27268.576
519.758;27576.027;   -8.596;28964.129
520.344;29342.150;   -8.466;30664.494
520.930;29237.617;  -11.006;32550.605
521.516;31010.045;  -10.495;35422.895
522.103;33481.027;   -5.526;38280.004
522.689;34170.055;   -8.746;37835.117
523.275;33250.832;  -11.376;37288.613
523.861;34109.703;  -11.156;37281.395
524.447;35618.633;   -8.135;37846.949
525.033;35458.816;   -7.896;38321.949
525.619;35527.152;  -12.476;38579.285
526.205;37226.906;   -9.516;40622.875
526.791;39800.188;   -6.926;42258.836
527.377;39958.305;   -8.346;42966.902
527.963;41638.426;   -8.717;42018.949
528.549;39859.309;  -11.016;42476.828
529.135;38566.805;   -8.536;41854.852
529.721;38137.879;   -9.666;41237.711
530.306;37485.414;  -10.066;41259.445
530.892;37077.730;  -11.356;41506.047
531.478;38647.574;   -6.596;43559.613
532.063;41600.727;   -8.836;47695.563
532.649;41758.836;  -10.047;50808.324
533.235;42883.664;   -9.746;51787.500
533.820;43989.570;   -6.566;52145.035
534.406;45409.195;  -10.817;51133.488
534.991;45198.984;   -9.416;49996.805
535.576;43643.613;   -9.036;48882.852
536.162;43986.844;   -6.156;46942.285
536.747;45116.504;  -11.607;45711.746
537.333;49252.230;  -11.787;48510.180
537.918;51807.301;  -12.437;50439.891
538.503;50097.977;   -7.196;50863.711
539.088;47183.219;  -10.556;50906.922
539.673;47091.156;   -8.767;52621.965
540.259;46839.355;  -10.026;52368.094
540.844;44136.586;   -7.416;50879.109
541.429;45351.742;   -9.467;52077.777
542.014;48402.906;   -9.527;52716.695
542.599;47710.863;   -9.946;52363.281
543.184;45544.836;   -7.927;53187.137
543.769;47542.035;   -9.297;54697.605
544.354;46664.438;  -10.127;53913.914
544.938;45229.234;   -9.267;49680.164
545.523;47011.473;   -6.506;47386.277
546.108;49398.402;   -9.787;49151.949
546.693;51751.328;  -11.587;51384.637
547.278;51943.035;  -10.986;51853.254
547.862;48861.523;   -8.206;51173.750
548.447;44158.336;  -10.067;51691.395
549.031;43753.395;   -9.637;52456.703
549.616;48927.605;   -9.926;52714.516
550.201;47809.785;   -6.347;52414.598
550.785;48938.938;   -7.917;52355.059
551.370;48100.363;  -10.867;54589.453
551.954;48204.660;   -9.047;58267.348
552.538;48921.438;   -7.827;59062.176
553.123;47263.918;  -10.287;58115.285
553.707;45358.281;  -12.178;56556.285
554.291;46781.121;   -8.717;56201.668
554.876;49008.371;   -7.457;55335.762
555.460;49459.578;  -10.387;54155.703
556.044;50816.609;   -9.618;53721.484
556.628;49144.172;  -11.567;53731.016
557.212;47599.227;   -8.097;54312.531
557.796;46036.293;  -11.077;53797.773
558.380;45951.238;  -11.108;56145.984
558.964;46474.848;   -9.057;57277.930
559.548;47406.719;   -6.977;56459.641
560.132;45748.813;  -11.457;54434.543
560.716;44745.102;  -11.378;54800.617
561.300;46112.055;   -9.577;57606.945
561.884;47169.613;   -7.127;58972.445
562.467;45647.262;   -7.118;57327.570
563.051;44813.297;  -13.358;54962.434
563.635;45690.484;  -10.178;52594.473
564.219;46269.238;   -7.837;50610.410
564.802;47332.691;  -11.398;49551.180
565.386;47394.836;  -12.788;48370.953
565.969;46774.871;   -9.077;48178.871
566.553;46304.637;   -6.207;49957.305
567.136;46442.301;   -8.568;50369.594
567.720;42255.969;  -11.868;49492.004
568.303;40187.699;   -8.268;50616.352
568.887;40333.723;   -8.698;50727.148
569.470;40444.621;   -6.808;51698.379
570.053;39008.973;  -13.188;52122.078
570.637;37364.305;  -12.037;52536.438
571.220;37097.203;   -8.577;51186.098
571.803;37544.770;   -8.498;51032.762
572.386;40347.668;  -10.498;49609.887
572.969;42956.527;   -9.388;48285.926
573.552;40631.285;   -8.338;47624.285
574.135;39108.617;   -8.518;45498.641
574.718;36618.648;  -13.628;41970.434
575.301;35420.793;  -10.893;41447.137
575.884;34222.938;   -8.158;40923.836
576.467;35629.191;  -10.328;45267.723
577.050;38280.004;  -13.058;48175.543
577.633;39684.238;   -9.458;47729.328
578.216;38332.340;   -8.928;47579.793
578.799;37360.586;   -9.358;47820.996
579.381;36063.441;  -11.388;48115.551
579.964;34653.844;  -11.718;47333.766
580.547;36271.984;   -8.588;46668.969
581.129;37356.441;   -8.859;44466.141
581.712;37911.305;  -10.729;44164.922
582.294;38520.703;  -11.118;46477.855
582.877;38451.910;   -5.218;48244.254
583.459;35945.043;   -8.679;47437.895
584.042;34063.012;  -10.709;46943.219
584.624;34900.340;  -11.669;46792.227
585.206;34292.250;   -8.218;46557.250
585.789;34567.707;  -10.569;45793.773
586.371;37556.637;  -11.859;43836.391
586.953;37858.090;  -10.719;42972.492
587.536;39263.633;   -7.198;42487.211
588.118;38808.711;   -8.720;42086.414
588.700;35394.223;  -10.439;43389.930
589.282;34580.258;   -9.198;43646.039
589.864;35321.020;   -9.199;43438.109
590.446;36092.664;  -11.319;43151.926
591.028;35798.527;  -11.159;42781.867
591.610;34836.074;  -11.779;42839.098
592.192;32481.479;   -7.668;42820.402
592.774;31065.104;  -11.949;40724.277
593.356;29771.936;  -12.129;39874.789
593.937;28820.918;  -10.669;39980.648
594.519;31151.629;   -6.509;42069.633
595.101;33250.008;  -10.849;42976.031
595.683;33278.586;  -11.679;44084.441
596.264;34362.555;   -9.049;43478.797
596.846;33428.398;   -8.849;43803.672
597.427;33197.195;   -9.570;42986.934
598.009;34952.148;  -12.620;42832.219
598.591;35194.996;  -10.039;42580.086
599.172;34057.707;  -10.369;43061.805
599.753;34074.953;   -9.140;41691.469
600.335;35614.809;  -11.430;40692.520
600.916;33990.160;   -9.939;39982.422
601.498;31636.939;   -8.479;40318.617
602.079;30146.566;  -10.920;40670.609
602.660;30279.824;  -11.480;41450.898
603.241;31760.084;  -11.699;41137.738
603.823;30510.992;   -9.579;38868.797
604.404;30614.211;  -10.620;38182.785
604.985;32006.615;  -10.450;38078.047
605.566;31419.076;   -9.129;38056.633
606.147;31583.926;   -7.510;37020.418
606.728;33362.055;  -10.660;37883.359
607.309;31931.340;  -11.740;38748.273
607.890;31272.193;   -9.759;38850.230
608.471;30758.422;   -8.250;37457.918
609.051;29836.145;   -9.240;36066.457
609.632;28847.613;  -12.120;35991.074
610.213;29716.070;   -9.110;37402.641
610.794;30245.953;   -8.030;38383.363
611.374;29733.809;   -8.110;40562.387
611.955;30218.158;  -13.560;38533.727
612.536;31518.799;  -11.400;36951.789
613.116;31589.408;   -8.070;37197.891
613.697;31697.877;  -10.830;38411.125
614.277;30313.531;  -11.641;38673.938
614.858;31293.004;  -13.310;37075.863
615.438;30230.922;   -7.460;35092.906
616.019;27271.500;   -7.601;33666.301
616.599;28112.875;  -12.020;34189.023
617.179;30031.457;  -11.780;36952.047
617.760;30886.723;   -8.570;39582.574
618.340;31989.213;  -11.471;38943.977
618.920;33340.020;  -11.170;37594.156
619.500;33228.906;  -11.071;37866.938
620.080;32471.475;   -7.750;37869.043
620.660;33661.277;  -12.711;36868.617
621.241;35081.098;  -10.211;36352.309
621.821;35209.512;  -10.961;35459.520
622.401;34089.941;   -7.720;35207.414
622.980;33254.027;   -8.981;35980.422
623.560;31888.928;   -9.331;37351.328
624.140;30839.602;   -9.850;34388.582
624.720;25425.285;   -7.451;32368.764
625.300;21798.709;   -9.070;32638.629
625.880;25201.307;  -12.601;34599.035
626.459;29322.461;  -11.751;36831.738
627.039;32584.400;   -9.281;38299.098
627.619;32480.602;   -8.801;38289.574
628.198;30758.955;  -12.071;37220.695
628.778;29850.014;   -9.461;37632.563
629.357;30521.963;   -8.491;38003.012
629.937;30540.602;   -9.721;38402.039
630.516;29940.424;   -9.951;37868.801
631.096;29560.314;  -11.731;35760.410
631.675;32938.270;   -8.572;35225.219
632.254;38077.035;  -11.282;35130.289
632.834;37313.789;  -13.322;35794.570
633.413;35107.320;  -10.301;35788.922
633.992;31891.783;   -8.582;34532.863
634.571;32804.074;   -8.352;33590.113
635.151;35648.137;  -11.912;34943.863
635.730;34013.914;  -10.511;35352.523
636.309;30788.359;   -7.731;35366.605
636.888;28585.469;   -9.952;36165.637
637.467;29604.256;  -11.672;37515.902
638.046;31220.988;   -8.901;39288.695
638.625;34388.754;   -7.912;38279.699
639.204;33978.320;  -10.022;37741.598
639.782;32371.652;  -12.252;38364.551
640.361;28440.984;  -10.041;36740.621
640.940;25672.555;  -11.161;34950.082
641.519;26321.895;   -9.701;34137.398
642.097;29372.371;  -11.271;35654.258
642.676;32265.131;   -8.651;35637.957
643.255;32673.645;   -8.711;36567.074
643.833;31791.111;   -9.581;37809.434
644.412;31883.404;  -13.711;37337.293
644.990;31078.424;  -11.811;37018.531
645.569;31451.986;   -9.411;36518.469
646.147;30338.492;  -10.291;36186.430
646.726;29571.582;  -12.401;36267.688
647.304;30494.428;  -10.411;36647.625
647.882;32750.168;   -9.651;39286.742
648.461;34650.313;   -9.631;39157.703
649.039;32583.848;  -11.881;35412.883
649.617;31762.414;   -9.661;34744.918
650.195;31520.617;   -9.301;35403.098
650.773;29985.023;  -10.511;35053.797
651.352;27695.973;  -11.521;33756.816
651.930;25379.488;  -12.211;31868.773
652.508;23712.881;   -9.171;33121.551
653.086;27731.203;   -9.371;33564.793
653.663;30388.303;  -13.161;34054.668
654.241;29478.275;  -13.031;35693.309
654.819;31292.340;   -9.371;36422.906
655.397;31348.465;  -10.511;38213.484
655.975;31057.547;  -10.371;39507.625
656.553;30558.912;  -10.051;39498.223
657.130;28912.551;  -10.061;40395.480
657.708;28391.945;   -9.561;39242.020
658.286;28433.227;  -11.511;38920.020
658.863;29489.469;  -10.261;40202.898
659.441;32592.057;   -7.531;39677.938
660.018;31991.072;   -9.501;40413.355
660.596;30860.998;  -13.301;39931.414
661.173;32928.973;  -11.211;39604.531
661.750;33156.754;   -9.951;39700.070
662.328;32203.195;   -9.390;39292.809
662.905;31129.229;  -11.330;38235.648
663.482;26379.822;   -9.050;36212.305
664.060;24602.646;   -8.240;35944.945
664.637;27569.980;  -10.050;35170.785
665.214;29411.857;  -11.760;34197.523
665.791;30683.234;  -10.530;34549.520
666.368;29328.896;   -9.690;35118.578
666.945;30418.547;   -9.320;36019.418
667.522;32013.260;  -11.860;36048.438
668.099;31722.336;  -10.770;36243.914
668.676;30592.002;   -6.260;35958.875
669.253;29250.850;   -7.000;37384.730
669.830;29920.471;  -10.190;36779.629
670.407;29587.666;   -9.550;35231.289
670.984;29846.484;   -9.260;35544.270
671.560;30189.695;   -9.280;35466.867
672.137;29019.539;  -11.810;34280.863
672.714;29739.639;  -11.490;34632.863
673.290;30209.102;   -7.740;35135.422
673.867;30601.271;  -10.660;36114.480
674.443;30294.283;  -12.230;36152.859
675.020;28612.727;  -10.450;35327.238
675.596;29884.740;   -9.260;35795.176
676.173;30353.838;  -10.780;35430.355
676.749;30285.430;  -13.690;33549.516
677.326;30328.977;  -11.980;32210.012
677.902;30264.809;   -8.630;32068.871
678.478;29467.016;  -10.730;32583.891
679.054;28992.025;  -10.520;32088.928
679.631;29269.615;  -11.920;30978.848
680.207;30721.152;   -7.490;33160.887
680.783;32315.621;   -9.860;35570.363
681.359;31324.342;  -13.380;36125.184
681.935;30626.250;  -12.480;35240.922
682.511;29774.088;   -7.900;34429.961
683.087;30010.648;   -7.710;34463.680
683.663;29724.037;  -11.480;34648.898
684.239;28297.900;  -14.090;34546.457
684.815;28013.871;   -7.560;35586.375
685.390;28526.164;   -9.910;35821.895
685.966;28958.656;  -11.159;35085.871
686.542;31370.742;  -11.169;34198.230
687.118;33257.777;   -5.959;32847.707
687.693;33224.727;  -10.329;32794.027
688.269;32885.152;  -12.059;33072.367
688.844;30983.760;  -10.909;33141.664
689.420;28784.949;   -8.019;33965.742
689.995;26542.604;   -8.399;34655.523
690.571;25402.002;  -10.949;33576.742
691.146;26033.666;   -9.619;32657.219
691.722;25421.195;   -8.999;32526.979
692.297;25621.582;  -11.589;33014.617
692.872;27486.789;  -11.739;34012.254
693.448;26849.955;  -11.059;34237.434
694.023;26103.385;  -10.139;34142.672
694.598;28239.590;   -9.029;34132.031
695.173;28409.367;  -13.319;34205.250
695.748;27729.357;  -10.169;32882.488
696.323;27608.996;   -8.339;32864.906
696.898;27901.574;   -8.169;33170.004
697.473;27715.934;  -12.309;32432.984
698.048;27071.359;  -10.989;31649.303
698.623;27152.773;   -9.329;30778.141
699.198;29150.328;   -9.849;31140.119
699.773;29847.301;  -12.329;31764.299
700.348;28262.621;  -10.389;31780.816
700.922;28309.889;   -9.269;32046.375
701.497;28857.668;   -9.329;32603.574
702.072;28771.641;  -10.789;34799.871
702.646;27639.850;  -10.839;35793.172
703.221;26061.023;   -9.099;35201.590
703.795;28019.150;  -10.939;34764.527
704.370;28197.262;  -12.859;34307.367
704.944;28636.600;  -11.559;33509.887
705.519;29589.664;   -7.939;31388.584
706.093;31107.990;  -10.499;31340.104
706.668;31266.117;  -11.289;32630.281
707.242;30216.977;  -11.509;32728.779
707.816;28733.896;   -9.639;32947.238
708.390;27222.289;  -11.429;33277.855
708.965;27973.070;  -11.869;33834.336
709.539;28359.707;  -11.689;33709.273
710.113;28770.738;  -10.478;33044.313
710.687;27845.305;  -10.228;31953.992
711.261;26095.932;  -13.698;30505.949
711.835;26076.936;  -13.378;30262.369
712.409;27045.775;   -9.698;31254.447
712.983;28871.641;  -11.898;32754.986
713.557;29640.857;  -15.138;34018.824
714.131;29110.754;  -14.098;34579.625
714.704;28142.881;   -9.958;33890.262
715.278;26046.518;  -10.028;33531.102
715.852;25250.945;  -11.148;33601.660
716.425;26148.734;   -9.068;33515.117
716.999;26880.395;  -10.038;33185.555
717.573;27968.598;   -9.798;33905.996
718.146;28996.072;  -12.378;35199.293
718.720;28723.248;  -11.918;35060.551
719.293;28123.941;   -8.088;34973.230
719.867;31043.055;  -10.888;36394.449
720.440;30474.521;  -11.938;36663.008
721.013;28662.127;  -12.818;35102.426
721.587;27414.430;  -10.298;33985.266
722.160;26610.855;  -10.048;33524.965
722.733;25634.355;  -12.108;32987.043
723.306;26030.814;  -10.818;33066.301
723.880;28228.646;   -8.908;33399.500
724.453;29651.186;   -9.878;33468.297
725.026;28534.725;  -11.188;33816.637
725.599;26300.211;  -11.678;32797.996
726.172;27220.205;   -9.618;33187.434
726.745;28437.686;   -8.258;35136.613
727.318;29753.766;  -12.978;35751.730
727.891;29802.479;  -12.148;35890.430
728.463;29411.627;   -8.968;34822.090
729.036;28568.984;  -10.188;32895.086
729.609;28922.582;  -11.788;31823.225
730.182;25844.125;  -11.788;31445.283
730.754;23367.266;  -10.268;32373.223
731.327;23457.344;   -9.998;33676.820
731.900;23967.324;  -12.228;33417.000
732.472;25380.654;  -13.848;31978.498
733.045;27068.957;   -8.698;30368.777
733.617;27051.584;  -10.607;30574.215
734.190;26417.561;  -11.507;31280.975
734.762;23316.576;  -13.647;31674.412
735.334;21831.207;   -9.767;31247.291
735.907;22647.170;   -9.897;29876.211
736.479;22700.613;  -11.637;29808.488
737.051;22397.945;   -9.567;30233.547
737.623;23380.396;   -8.187;31469.086
738.195;24406.855;  -11.187;31784.225
738.768;26531.068;  -12.337;32120.523
739.340;26294.680;  -12.227;32094.342
739.912;24874.643;  -11.057;31312.680
740.484;23546.629;  -10.207;31946.238
741.056;22677.895;  -10.047;32984.059
741.628;24480.688;  -13.627;33897.715
742.199;26701.316;   -7.177;33213.016
742.771;25031.842;  -10.797;31369.113
743.343;22698.768;  -11.997;31865.473
743.915;21744.561;  -12.867;32388.631
744.487;21837.645;   -7.617;31079.568
745.058;21930.066;   -9.557;30570.107
745.630;22318.973;   -9.877;29970.127
746.201;22937.619;  -14.177;29186.766
746.773;23204.156;   -9.237;28805.723
747.344;23151.553;   -9.847;29591.223
747.916;21998.279;  -11.657;31412.201
748.487;22408.492;  -10.587;32194.898
749.059;23567.197;   -8.707;32533.719
749.630;24247.643;  -10.537;32158.518
750.201;23350.053;  -11.687;30855.395
750.773;21606.193;  -11.647;28622.555
751.344;21684.732;   -7.147;28405.732
751.915;22795.377;   -9.757;28461.551
752.486;22289.568;  -12.427;27842.850
753.057;20113.818;  -12.227;27845.008
753.628;19076.146;  -10.417;27728.107
754.199;20235.229;  -11.767;27381.086
754.770;21195.703;  -11.187;25882.203
755.341;21220.639;  -10.507;25886.184
755.912;21091.787;   -9.387;26050.861
756.483;20520.686;  -10.647;26798.779
757.054;18677.863;  -11.837;27048.238
757.625;17458.225;  -12.716;26294.838
758.195;17408.006;   -9.666;26142.076
758.766;17225.326;   -8.656;26392.234
759.337;18018.832;  -12.856;26334.594
759.907;19780.758;  -13.366;27579.652
760.478;20547.572;   -8.576;28352.770
761.048;19723.498;  -10.526;27325.088
761.619;18844.469;  -11.116;26460.428
762.189;19042.375;  -12.136;26029.826
762.760;20381.801;   -9.456;26430.145
763.330;21322.850;   -7.136;26670.902
763.900;20541.740;  -11.786;26603.021
764.471;17938.625;  -11.546;25542.740
765.041;16678.930;   -8.096;24358.459
765.611;16789.445;   -8.876;23991.297
766.181;17252.166;  -12.196;24470.236
766.751;18161.877;  -11.636;24845.975
767.321;17809.643;  -10.156;24533.633
767.891;15831.605;  -11.766;24916.492
768.461;15404.813;  -14.936;24776.771
769.031;16059.721;  -12.356;24757.988
769.601;17479.008;   -7.526;24181.088
770.171;17176.484;  -10.766;23670.387
770.741;16570.908;  -13.176;22960.045
771.311;16895.596;  -10.616;22917.523
771.880;17117.965;   -9.576;23562.941
772.450;16752.611;  -10.336;24216.500
773.020;16873.414;  -13.516;24140.398
773.589;16311.372;  -13.466;24414.857
774.159;15741.149;   -8.686;23858.717
774.729;15359.681;   -9.476;22942.135
775.298;14808.060;  -13.666;22324.033
775.867;14389.625;  -11.716;21140.313
776.437;14424.596;   -9.906;20838.092
777.006;14212.319;  -12.166;20599.510
777.576;14138.682;  -12.356;20508.809
778.145;14347.452;  -11.646;20732.947
778.714;14193.149;   -8.226;21062.465
779.283;13433.843;   -9.556;20949.664
779.853;12989.560;  -14.116;20508.623
780.422;13449.366;  -11.506;20649.082
780.991;13072.214;   -9.556;21527.520
781.560;11991.989;   -9.095;22632.658
782.129;11806.241;  -12.135;23048.277
782.698;11817.449;  -10.865;23438.555
783.267;11391.032;   -9.335;23267.734
783.836;11390.312;  -11.045;22415.133
784.404;12421.595;  -13.865;20443.152
784.973;12927.015;  -13.095;19699.150
785.542;12867.333;  -11.575;19763.828
786.111;12740.108;   -9.705;20341.408
786.679;12189.950;  -12.105;20207.967
787.248;11983.141;  -12.455;19516.465
787.817;11795.218;  -11.535;18900.363
788.385;11316.551;   -9.765;17879.121
788.954;10737.299;  -14.005;17658.301
789.522;10287.347;  -11.955;17788.879
790.090;10859.954;  -10.135;18118.277
790.659;11207.271;  -10.975;18338.736
791.227;10676.313;  -13.375;18508.615
791.795;11092.005;  -12.375;17898.254
792.364;11388.545;  -10.725;17295.133
792.932;11632.433;   -9.715;16822.051
793.500;11839.738;  -12.675;17040.148
794.068;12136.739;  -13.495;17179.787
794.636;12212.371;  -10.885;16664.246
795.204;11722.118;  -11.045;16524.545
795.772;11806.723;  -13.175;17274.564
796.340;11296.224;  -12.445;17891.002
796.908;11103.122;   -9.735;17648.561
797.476;10961.264;   -9.815;17064.080
798.044;10539.050;  -13.985;16672.777
798.612; 9805.019;  -13.115;17023.996
799.180; 9443.346;  -10.185;16561.615
799.747; 9373.238;   -9.055;15962.773
800.315; 9137.854;  -12.385;15296.992
800.883; 8755.229;  -15.035;14801.771
801.450; 8685.015;  -10.365;14534.430
802.018; 8728.198;   -9.855;14173.248
802.585; 8895.813;  -11.905;14029.547
803.153; 8996.003;  -11.585;13836.846
803.720; 8830.425;   -9.095;13567.324
804.287; 8347.000;   -9.135;13360.622
804.855; 7951.410;  -11.604;13681.981
805.422; 7853.648;  -11.794;13536.560
805.989; 7821.968;  -10.734;13355.958
806.556; 8015.776;  -10.444;13747.896
807.124; 8295.719;  -12.764;13987.376
807.691; 8285.727;  -12.964;14038.674
808.258; 8042.137;  -11.134;14120.152
808.825; 7654.685;   -9.854;13860.111
809.392; 7710.091;  -10.504;13268.790
809.959; 7294.259;  -13.054;12680.389
810.526; 6918.135;   -8.294;12427.308
811.093; 7004.583;   -8.394;12030.105
811.659; 7582.046;  -12.304;11653.664
812.226; 8012.637;  -13.944;11637.183
812.793; 7674.147;  -10.484;11611.521
813.360; 7043.253;  -10.144;11885.181
813.926; 6769.371;  -11.684;12770.539
814.493; 6568.053;  -13.644;12677.638
815.060; 6207.048;   -9.724;11974.336
815.626; 6264.149;   -9.854;11594.715
816.193; 6674.532;  -13.254;11579.474
816.759; 6714.750;  -13.204;11666.972
817.325; 6825.007;   -9.434;11325.530
817.892; 7212.402;  -10.134;11105.369
818.458; 7621.941;  -13.474;10843.928
819.024; 7175.526;  -11.854;10714.406
819.591; 6842.322;  -10.244;10469.165
820.157; 6644.289;  -10.704;10235.523
820.723; 6186.725;  -12.324;10847.563
821.289; 5907.577;   -9.444;11040.980
821.855; 5789.226;   -8.374;10357.100
822.421; 5705.585;  -10.234; 9978.918
822.987; 5681.786;  -13.294; 9754.177
823.553; 5436.369;  -10.884;10065.755
824.119; 5307.892;   -8.884;10036.294
824.685; 5389.385;   -6.784;10029.192
825.251; 5449.259;  -12.004;10199.230
825.816; 5417.808;  -11.474; 9820.189
826.382; 5222.663;   -9.174; 9297.248
826.948; 5476.856;   -9.214; 9381.347
827.513; 5842.202;  -10.774; 9450.726
828.079; 5632.164;  -11.924; 9472.444
828.645; 5105.936;  -10.543; 9292.643
829.210; 5072.817;  -10.533; 9065.341
829.776; 5054.242;  -10.753; 9132.620
830.341; 4928.854;  -10.173; 9092.878
830.906; 5123.140;  -10.743; 9078.557
831.472; 5446.502;  -11.113; 8534.535
832.037; 5133.018;  -10.603; 8677.874
832.602; 4559.201;  -13.323; 8628.692
833.167; 4314.001;  -10.823; 8879.031
833.733; 4259.380;  -10.113; 9189.790
834.298; 4383.221;  -13.583; 9052.608
834.863; 4436.136;  -12.703; 8895.087
835.428; 4425.547;  -10.523; 8824.266
835.993; 4316.852;   -6.963; 8845.385
836.558; 4189.980;  -10.763; 8888.563
837.123; 4333.567;   -9.903; 8966.582
837.688; 4551.401;   -9.913; 8617.860
838.253; 4743.506;  -10.283; 8590.699
838.817; 4923.581;  -12.963; 8443.797
839.382; 4833.092;  -14.243; 8799.356
839.947; 4522.525;  -10.733; 8810.595
840.511; 4207.965;   -9.383; 8796.394
841.076; 3835.626;  -12.563; 8347.231
841.641; 3909.900;  -12.953; 8224.330
842.205; 4002.142;   -7.043; 8223.349
842.770; 4122.840;   -8.163; 8622.107
843.334; 4298.639;  -12.503; 8410.386
843.898; 4261.169;  -11.693; 8337.465
844.463; 4289.655;  -10.203; 8506.283
845.027; 4066.876;   -9.533; 8280.962
845.591; 3898.022;  -13.443; 8231.141
846.156; 3845.404;  -13.143; 7969.179
846.720; 3713.187;   -9.433; 7768.278
847.284; 3583.111;  -11.033; 7630.957
847.848; 3455.879;  -10.403; 7472.395
848.412; 3346.333;  -11.553; 7437.394
848.976; 3360.001;   -8.393; 7674.592
849.540; 3309.049;   -8.713; 7836.011
850.104; 3449.363;  -12.463; 7913.669
850.668; 3783.713;  -12.973; 7694.508
851.232; 3852.836;  -10.793; 7756.887
851.796; 3685.912;  -10.662; 7926.545
852.359; 3405.454;  -13.082; 7827.844
852.923; 3251.746;  -12.192; 7641.163
853.487; 3069.656;  -11.912; 7342.501
854.050; 3007.097;  -10.892; 7042.820
854.614; 3117.778;  -13.992; 7151.338
855.177; 3218.668;  -11.732; 7105.077
855.741; 3248.396;   -8.962; 6989.675
856.304; 3151.540;   -9.442; 6596.634
856.868; 3109.597;  -14.192; 6356.272
857.431; 3213.482;  -12.702; 6468.571
857.995; 3334.488;   -9.942; 6373.210
858.558; 3338.122;   -9.112; 6324.448
859.121; 3082.833;  -12.932; 6408.327
859.684; 2971.672;  -13.442; 6347.886
860.247; 3050.569;  -10.632; 6321.264
860.810; 3020.608;  -11.272; 6301.903
861.374; 2773.517;   -9.832; 6607.881
861.937; 2536.448;  -11.762; 6408.200
862.500; 2545.765;   -9.722; 6572.639
863.062; 2720.288;  -10.512; 6387.297
863.625; 2869.986;  -11.232; 6190.836
864.188; 3019.771;  -14.112; 5807.254
864.751; 3077.666;  -11.302; 5682.413
865.314; 2963.098;  -10.112; 5547.492
865.876; 2781.064;  -12.182; 5500.150
866.439; 2786.172;  -10.722; 5415.909
867.002; 2724.115;   -9.252; 5501.567
867.564; 2515.679;   -9.572; 5413.946
868.127; 2295.971;  -13.142; 5160.325
868.689; 2195.271;  -12.902; 5133.183
869.252; 2089.117;   -9.732; 5252.382
869.814; 1999.863;   -9.432; 5297.141
870.377; 2023.802;  -11.552; 5390.919
870.939; 2101.643;   -9.052; 5599.898
871.501; 2152.716;  -10.982; 5248.336
872.063; 2147.319;  -12.292; 4854.235
872.626; 2114.840;  -14.912; 4817.074
873.188; 2152.337;  -13.112; 4987.732
873.750; 2127.470;  -13.442; 4868.651
874.312; 2040.695;   -9.402; 4779.330
874.874; 1953.717;  -11.062; 4866.348
875.436; 1859.610;  -13.931; 4718.887
875.998; 1848.972;   -9.561; 4660.005
876.560; 1867.675;  -11.321; 4462.964
877.122; 1814.450;  -12.221; 4145.042
877.683; 1732.709;  -12.191; 4056.481
878.245; 1670.987;  -12.101; 3950.740
878.807; 1711.881;   -8.971; 4058.958
879.369; 1734.222;  -12.071; 3954.677
879.930; 1642.075;  -14.621; 3941.495
880.492; 1585.244;  -10.311; 4067.014
881.053; 1537.654;  -10.901; 3859.633
881.615; 1426.239;  -14.411; 3776.071
882.176; 1337.128;  -13.761; 3734.750
882.738; 1297.380;   -9.181; 3678.489
883.299; 1275.254;  -11.791; 3405.407
883.860; 1285.314;  -13.121; 3351.106
884.422; 1285.280;  -11.211; 3394.044
884.983; 1234.895;  -10.091; 3166.443
885.544; 1154.899;   -8.461; 3189.802
886.105; 1076.809;  -12.361; 3160.360
886.666; 1014.086;  -14.141; 3093.059
887.227;  963.916;  -11.361; 2941.957
887.788;  903.243;  -11.401; 2974.836
888.349;  843.563;  -13.791; 2721.214
888.910;  844.456;  -13.191; 2696.493
889.471;  852.929;   -9.881; 2560.172
890.032;  831.436;   -9.881; 2558.190
890.593;  809.169;  -10.371; 2567.669
891.153;  785.517;  -13.301; 2460.307
891.714;  734.556;  -11.431; 2372.046
892.275;  694.354;  -11.291; 2309.505
892.835;  651.892;  -11.471; 2382.543
893.396;  596.781;  -11.541; 2295.502
893.956;  541.182;  -11.181; 2162.420
894.517;  508.310;  -11.741; 2125.439
895.077;  506.582;  -11.671; 2086.978
895.638;  507.696;  -11.311; 2126.316
896.198;  479.236;   -9.831; 1838.275
896.758;  436.981;   -8.421; 1892.813
897.319;  408.841;  -12.351; 1792.232
897.879;  392.629;  -13.511; 1762.751
898.439;  366.952;  -12.001; 1661.149
898.999;  343.830;  -10.180; 1781.468
899.559;  332.862;  -12.030; 1703.347
900.119;  328.744;  -15.710; 1537.525
900.679;  324.992;   -8.900; 1638.384
901.239;  310.262;   -8.340; 1527.902
901.799;  299.853;  -13.910; 1456.441
902.359;  294.760;  -13.460; 1357.140
902.919;  288.451;  -11.490; 1331.118
903.479;  275.792;  -12.110; 1317.257
904.038;  255.870;  -11.720; 1262.595
904.598;  241.536;  -13.610; 1152.034
905.158;  237.765;  -11.040; 1240.893
905.717;  231.228;  -10.900; 1233.691
906.277;  219.216;  -15.080; 1217.330
906.836;  210.414;  -13.380; 1222.408
907.396;  201.144;  -10.780; 1193.047
907.955;  194.927;   -8.500; 1182.526
908.515;  189.041;  -12.760; 1099.364
909.074;  183.443;  -11.900; 1092.863
909.633;  178.484;   -8.950; 1069.121
910.192;  173.525;   -8.770; 1196.460
910.752;  167.895;  -12.390; 1029.960
911.311;  165.014;  -13.680; 1009.780
911.870;  162.412;  -12.370;  971.460
912.429;  163.583;  -10.900; 1094.080
912.988;  162.094;  -11.690; 1081.060
913.547;  158.402;  -13.240;  940.380
914.106;  153.873;  -11.990;  999.420
914.665;  150.142;   -9.990;  984.020
915.224;  148.757;  -12.880; 1035.760
915.782;  150.272;  -12.350;  922.560
916.341;  148.981;   -9.110; 1049.840
916.900;  145.482;   -9.270;  925.260
917.458;  142.699;  -13.240;  884.220
918.017;  143.366;  -13.550;  942.600
918.576;  142.130;  -12.320;  904.440
919.134;  139.919;  -11.490;  837.980
919.693;  138.574;  -13.670;  893.060
920.251;  136.796;  -15.470;  876.500
920.809;  136.370;  -11.290;  839.580
921.368;  134.984;  -10.210;  885.360
921.926;  133.921;  -12.140;  842.940
922.484;  132.348;  -13.080;  903.360
923.042;  133.575;  -11.720;  880.340
923.601;  135.890;   -7.480;  998.680
924.159;  133.380;  -11.570;  935.560
924.717;  130.441;  -13.840;  841.080
925.275;  131.199;  -10.640;  903.240
925.833;  129.907;  -11.540;  779.320
926.391;  131.151;  -12.960;  938.380
926.949;  129.837;  -14.130;  857.680
927.506;  130.716;  -11.750;  903.500
928.064;  129.880;  -10.250;  877.580
928.622;  128.808;  -13.030;  880.100
929.180;  129.142;  -13.400;  814.180
929.737;  129.958;  -10.700;  808.540
930.295;  133.792;  -10.070;  928.480
930.853;  134.907;  -11.960;  849.100
931.410;  135.713;  -13.120;  821.120
931.968;  135.759;  -10.770;  940.660
932.525;  134.597;  -10.680;  909.380
933.082;  135.060;  -13.130;  811.440
933.640;  136.261;  -13.210;  925.900
934.197;  133.810;  -11.060;  886.360
934.754;  135.667;   -9.580;  897.780
935.312;  137.878;  -14.000;  863.340
935.869;  142.434;  -10.710; 1012.980
936.426;  142.663;   -9.860;  872.800
936.983;  144.335;   -9.710;  889.020
937.540;  141.606;  -13.990;  838.280
938.097;  141.132;  -14.040;  940.120
938.654;  140.607;  -10.310;  898.860
939.211;  143.809;  -10.560;  952.480
939.768;  146.422;  -13.900;  915.420
940.324;  150.142;  -14.760;  904.200
940.881;  150.718;  -10.370;  878.500
941.438;  151.393;   -8.260; 1021.200
941.995;  147.335;  -12.540;  992.560
942.551;  145.485;  -14.670;  875.620
943.108;  146.588;  -10.450;  937.920
943.664;  148.288;  -10.750;  869.340
944.221;  151.592;  -11.550; 1088.140
944.777;  149.071;  -14.770;  869.680
945.334;  150.652;  -12.820;  884.840
945.890;  151.163;  -10.130;  946.480
946.446;  150.964;  -13.470;  947.020
947.003;  153.330;  -12.120;  964.940
947.559;  156.428;   -9.980; 1063.040
948.115;  154.353;   -9.080; 1026.540
948.671;  153.133;  -10.830;  967.300
949.227;  151.110;  -12.440;  859.560
949.783;  148.991;  -12.910;  858.900
950.339;  150.516;  -10.270;  991.000
950.895;  149.707;  -13.630; 1023.840
951.451;  149.214;  -15.100;  925.280
952.007;  150.123;  -11.330;  998.540
952.563;  150.106;  -10.580;  937.780
953.118;  149.042;  -13.440;  904.940
953.674;  148.560;  -12.710;  935.780
954.230;  148.510;  -10.350;  949.640
954.785;  146.300;   -9.190;  936.640
955.341;  142.564;  -11.200;  998.160
955.897;  141.810;  -16.560;  834.660
956.452;  142.872;  -12.570;  953.840
957.008;  142.006;   -7.970; 1083.640
957.563;  139.919;  -11.940; 1009.540
958.118;  135.894;  -13.450;  877.700
958.674;  136.986;  -12.030;  946.780
959.229;  137.885;   -9.410; 1013.980
959.784;  135.360;  -12.000;  832.400
960.339;  135.340;  -14.780; 1001.280
960.894;  132.176;   -9.860;  963.760
961.449;  126.943;   -9.970;  859.960
962.004;  128.089;  -10.900; 1212.840
962.559;  122.576;  -13.150;  860.140
963.114;  119.382;  -13.740;  742.480
963.669;  119.156;   -9.820;  915.500
964.224;  117.822;  -13.890;  874.340
964.779;  117.276;  -12.600;  828.420
965.334;  117.835;  -10.950; 1017.860
965.888;  117.896;  -11.170;  875.360
966.443;  119.019;  -12.540;  972.380
966.998;  118.701;  -15.780;  819.460
967.552;  118.307;   -9.760;  908.380
968.107;  114.259;   -9.060;  868.300
968.661;  115.393;  -11.950;  922.440
969.216;  116.617;  -12.800;  856.280
969.770;  116.998;  -11.210;  917.200
970.324;  115.285;  -11.610;  923.140
970.879;  112.159;  -11.370;  947.180
971.433;  109.927;  -12.540;  952.720
971.987;  104.799;  -11.320;  895.340
972.541;  100.527;  -10.720;  917.100
973.095;  100.852;   -9.680; 1009.460
973.649;   99.532;  -11.440;  809.480
974.203;   99.158;  -11.210;  829.040
974.757;   98.179;  -10.240;  855.220
975.311;   98.620;  -13.720;  872.600
975.865;   98.196;  -13.770;  881.820
976.419;   96.851;  -11.690;  857.400
976.973;   96.369;   -9.510;  849.620
977.526;   97.922;  -12.620;  949.920
978.080;   97.581;  -12.010;  796.780
978.634;   98.664;  -10.170;  921.320
979.187;   95.819;   -9.020;  905.400
979.741;   93.148;   -9.820; 1018.380
980.294;   89.569;  -14.870;  789.160
980.848;   86.959;  -12.380;  717.220
981.401;   88.899;  -10.350;  816.540
981.955;   90.684;  -13.720;  844.300
982.508;   89.679;  -11.490;  746.340
983.061;   90.785;  -10.000;  915.260
983.615;   86.414;  -11.480;  798.800
984.168;   82.907;  -13.220;  770.080
984.721;   83.151;  -13.960;  880.760
985.274;   82.164;  -10.870;  867.500
985.827;   81.270;   -9.790;  834.220
986.380;   78.228;  -13.120;  721.340
986.933;   77.378;  -12.450;  864.800
987.486;   76.763;  -10.210;  861.920
988.039;   75.355;   -8.430;  863.100
988.591;   72.895;  -10.520;  893.260
989.144;   70.858;  -14.860;  737.260
989.697;   70.491;  -13.080;  758.740
990.250;   70.613;  -10.150;  858.100
990.802;   69.632;  -13.430;  755.860
991.355;   70.874;  -12.750;  974.880
991.907;   68.417;  -12.040;  864.320
992.460;   65.960;  -11.330;  753.760
993.012;   65.641;  -13.610;  749.540
993.565;   65.202;  -13.460;  711.360
994.117;   66.168;   -9.360;  950.780
994.669;   62.307;  -11.300;  701.320
995.221;   60.037;  -13.540;  791.920
995.774;   59.029;  -13.430;  787.580
996.326;   57.647;  -12.520;  740.220
996.878;   57.369;  -10.950;  838.420
997.430;   55.157;  -14.300;  699.860
997.982;   54.082;  -13.760;  750.140
998.534;   54.380;  -11.530;  739.060
999.086;   52.343;  -10.310;  738.220
999.638;   51.512;  -12.530;  661.380
1000.190;   50.934;  -11.840;  699.320
1000.741;   50.766;  -10.260;  742.700
1001.293;   50.944;   -8.860;  686.020
1001.845;   48.709;  -13.700;  676.640
1002.396;   49.053;  -12.100;  743.400
1002.948;   48.315;  -12.760;  737.400
1003.500;   46.870;  -10.380;  723.780
1004.051;   47.022;  -11.900;  907.580
1004.603;   45.861;  -12.250;  791.820
1005.154;   42.230;  -13.210;  608.980
1005.705;   41.489;  -10.950;  723.960
1006.257;   40.657;  -13.880;  707.220
1006.808;   39.811;  -12.840;  685.460
1007.359;   39.842;  -10.570;  763.240
1007.910;   38.604;   -9.620;  646.640
1008.461;   38.133;  -13.630;  732.940
1009.013;   37.231;  -17.200;  588.340
1009.564;   39.195;  -10.200;  793.520
1010.115;   36.578;  -12.570;  597.040
1010.665;   36.060;  -15.150;  602.160
1011.216;   36.157;  -14.480;  667.920
1011.767;   35.927;  -11.340;  697.920
1012.318;   35.659;   -9.780;  736.980
1012.869;   34.740;  -12.380;  679.000
1013.419;   34.685;  -15.560;  603.120
1013.970;   35.500;  -11.010;  666.640
1014.521;   33.904;  -11.610;  620.620
1015.071;   34.152;  -13.450;  670.380
1015.622;   33.936;  -13.870;  635.460
1016.172;   33.594;  -11.610;  596.820
1016.723;   32.337;  -12.120;  614.380
1017.273;   31.823;  -13.620;  604.160
1017.823;   32.610;  -14.140;  650.340
1018.374;   31.715;  -12.800;  611.760
1018.924;   32.336;  -12.340;  716.880
1019.474;   32.408;  -11.410;  718.880
1020.024;   30.996;  -14.770;  657.580
1020.574;   31.781;   -9.780;  726.160
1021.124;   31.320;   -8.560;  673.580
1021.674;   30.772;  -15.190;  559.120
1022.224;   31.974;  -13.530;  708.940
1022.774;   31.778;  -13.280;  668.820
1023.324;   31.405;  -10.690;  753.520
1023.874;   31.810;  -10.240;  875.760
1024.423;   30.340;  -12.540;  613.700
1024.973;   29.728;  -10.010;  610.760
1025.523;   29.295;  -10.550;  620.960
1026.072;   28.308;  -13.560;  606.420
1026.622;   28.485;  -15.120;  675.740
1027.172;   29.540;  -11.260;  715.660
1027.721;   28.311;  -11.410;  601.220
1028.270;   28.623;  -13.530;  663.400
1028.820;   28.758;  -13.680;  638.080
1029.369;   28.694;  -13.520;  612.700
1029.918;   28.029;  -10.980;  649.840
1030.468;   27.347;  -13.530;  564.780
1031.017;   28.254;  -13.170;  634.800
1031.566;   27.271;  -12.200;  608.900
1032.115;   27.780;   -9.960;  694.500
1032.664;   25.914;  -13.210;  596.480
1033.213;   27.751;  -12.500;  735.420
1033.762;   26.903;  -11.910;  635.620
1034.311;   26.768;   -9.640;  677.220
1034.860;   27.245;  -13.310;  691.000
1035.408;   26.986;  -11.830;  722.720
1035.957;   27.119;  -12.000;  719.540
1036.506;   24.907;  -11.690;  530.800
1037.055;   26.782;  -10.990;  844.320
1037.603;   25.192;  -15.120;  664.000
1038.152;   24.581;  -12.450;  534.760
1038.700;   24.674;  -10.560;  585.740
1039.249;   24.182;  -11.080;  681.220
1039.797;   25.400;  -12.540;  633.360
1040.345;   24.963;  -11.920;  705.420
1040.894;   24.083;  -11.410;  625.300
1041.442;   23.734;  -14.320;  632.200
1041.990;   23.397;  -16.240;  559.160
1042.538;   23.270;  -11.680;  536.180
1043.087;   23.195;  -10.760;  570.860
1043.635;   24.171;  -11.850;  670.500
1044.183;   23.692;  -15.480;  586.400
1044.731;   23.705;  -11.770;  576.000
1045.279;   22.619;  -13.090;  674.920
1045.827;   23.870;  -12.440;  892.400
1046.374;   21.873;  -13.840;  515.420
1046.922;   22.211;  -13.220;  590.580
1047.470;   23.648;  -10.230;  691.300
1048.018;   22.354;  -14.590;  647.960
1048.565;   23.419;  -12.050;  708.600
1049.113;   21.687;  -11.650;  557.000
1049.660;   21.126;  -10.510;  629.660
1050.208;   21.579;  -13.310;  675.640
1050.755;   20.891;  -15.900;  606.580
1051.303;   22.311;  -11.430;  686.820
1051.850;   20.748;   -8.480;  635.120
1052.397;   19.814;  -15.010;  473.960
1052.945;   20.648;  -13.960;  617.760
1053.492;   22.169;  -13.150;  741.840
1054.039;   21.199;   -9.630;  720.180
1054.586;   19.438;  -13.680;  557.240
1055.133;   20.886;  -14.570;  693.140
1055.680;   21.185;  -13.820;  646.620
1056.227;   19.959;  -11.730;  542.780
1056.774;   20.733;  -12.480;  794.980
1057.321;   19.079;  -13.930;  523.260
1057.868;   19.701;  -11.690;  651.320
1058.415;   19.521;   -9.520;  651.980
1058.961;   19.595;  -13.160;  678.940
1059.508;   18.839;  -12.920;  643.820
1060.055;   19.236;  -11.920;  581.780
1060.601;   19.089;  -11.500;  624.300
1061.148;   18.566;  -14.330;  616.820
1061.694;   18.415;  -16.870;  592.580
1062.241;   18.825;  -10.330;  596.320
1062.787;   18.255;  -10.620;  663.140
1063.334;   19.752;  -10.110;  808.560
1063.880;   18.324;  -13.400;  668.360
1064.426;   19.122;  -10.680;  706.820
1064.972;   17.176;   -9.920;  601.340
1065.518;   16.258;  -10.980;  566.640
1066.065;   18.266;  -14.890;  624.460
1066.611;   16.689;  -12.870;  598.800
1067.157;   17.950;  -12.950;  641.860
1067.703;   16.947;  -13.540;  668.480
1068.249;   17.174;  -13.540;  605.220
1068.794;   16.822;  -12.600;  626.880
1069.340;   16.155;  -10.620;  578.960
1069.886;   16.673;  -12.830;  590.700
1070.432;   15.621;  -14.870;  541.720
1070.977;   16.157;  -11.980;  601.080
1071.523;   16.355;   -8.200;  573.060
1072.068;   16.188;  -12.330;  582.000
1072.614;   15.643;  -16.370;  527.760
1073.160;   17.336;  -11.100;  687.040
1073.705;   15.402;  -10.480;  572.520
1074.250;   14.821;  -14.520;  559.900
1074.796;   15.786;  -11.460;  655.160
1075.341;   16.580;  -11.950;  664.100
1075.886;   15.444;  -11.460;  594.240
1076.431;   14.538;  -13.770;  649.880
1076.976;   14.289;  -12.680;  639.220
1077.521;   14.129;  -13.170;  583.080
1078.067;   13.641;  -10.860;  579.400
1078.612;   14.378;  -13.920;  661.620
1079.156;   14.559;  -13.880;  601.540
1079.701;   14.762;  -13.120;  693.260
1080.246;   15.024;   -9.940;  696.300
1080.791;   14.681;  -14.740;  625.020
1081.336;   14.799;  -13.750;  659.320
1081.880;   13.930;  -13.400;  649.680
1082.425;   13.818;  -12.220;  573.480
1082.970;   14.499;  -11.610;  717.040
1083.514;   13.773;  -13.580;  597.000
1084.059;   12.986;  -12.810;  586.720
1084.603;   13.477;  -12.320;  565.840
1085.147;   13.112;  -13.190;  645.220
1085.692;   14.195;  -12.480;  716.800
1086.236;   11.813;  -13.020;  503.140
1086.780;   14.249;   -9.190;  751.440
1087.325;   12.739;  -12.480;  654.620
1087.869;   12.850;  -12.450;  610.700
1088.413;   13.175;  -12.240;  705.040
1088.957;   11.542;   -9.020;  543.400
1089.501;   13.434;  -10.320;  766.640
1090.045;   12.550;  -12.720;  726.480
1090.589;   10.544;  -13.690;  569.920
1091.133;   12.159;  -10.020;  673.340
1091.676;   11.408;  -12.330;  591.940
1092.220;   11.489;  -14.970;  600.920
1092.764;   13.289;  -12.430;  706.960
1093.307;   11.802;   -9.800;  673.780
1093.851;   10.419;  -14.970;  556.540
1094.395;   11.366;  -15.310;  683.140
1094.938;   10.567;  -10.370;  632.520
1095.482;   10.728;  -11.050;  559.800
1096.025;   11.131;  -11.840;  710.880
1096.568;   12.281;  -12.840;  779.280
1097.112;    9.516;  -14.700;  508.180
1097.655;   10.948;   -8.720;  603.000
1098.198;    9.671;  -13.610;  600.180
1098.741;    9.796;  -13.350;  612.860
1099.285;   10.777;  -11.230;  657.300
1099.828;    8.938;  -11.840;  439.400
1100.371;    9.477;  -10.840;  608.160
1100.914;   10.342;  -14.190;  682.660
1101.457;   10.469;  -11.240;  679.900
1101.999;    8.862;  -11.270;  584.680
1102.542;    9.561;  -11.480;  641.440
1103.085;    8.898;  -11.750;  658.500
1103.628;    9.789;  -11.400;  762.060
1104.170;    8.822;  -10.490;  588.280
1104.713;    9.649;  -10.600;  646.700
1105.256;    9.111;  -14.360;  557.440
1105.798;    8.205;  -13.210;  499.980
1106.341;   10.050;  -10.270;  728.900
1106.883;    7.828;  -12.200;  521.340
1107.425;    9.238;  -13.110;  668.180
1107.968;    8.562;  -12.840;  612.380
1108.510;    8.987;   -6.480;  684.960
1109.052;    6.741;  -13.940;  612.620
1109.594;    8.038;  -13.690;  554.440
1110.136;    9.433;  -11.880;  643.220
1110.679;    7.351;   -9.500;  633.080
1111.221;    8.394;  -14.160;  604.460
1111.763;    7.714;  -13.980;  559.220
1112.304;    7.226;  -13.880;  547.140
1112.846;    8.796;  -12.210;  666.240
1113.388;   10.546;  -11.390;  942.180
1113.930;    7.506;  -14.540;  694.200
1114.472;    7.368;  -12.640;  606.540
1115.013;    5.832;  -11.620;  551.280
1115.555;    5.974;  -13.640;  587.100
1116.097;    5.548;  -15.380;  579.480
1116.638;    7.532;  -12.640;  684.600
1117.180;    7.203;   -9.850;  667.740
1117.721;    6.672;  -13.690;  568.580
1118.262;    6.876;  -12.680;  677.960
1118.804;    7.658;  -12.530;  637.340
1119.345;    5.840;  -11.690;  578.400
1119.886;    7.453;  -13.380;  704.040
1120.427;    5.778;  -14.070;  589.020
1120.969;    5.806;  -13.500;  597.920
1121.510;    4.939;  -11.480;  563.060
1122.051;    6.243;  -12.830;  723.580
1122.592;    5.147;  -14.290;  655.420
1123.133;    4.785;  -12.400;  547.940
1123.673;    6.360;  -10.130;  706.480
1124.214;    4.920;  -12.930;  612.460
1124.755;    5.687;  -14.380;  639.460
1125.296;    6.181;  -14.000;  627.320
1125.836;    6.273;  -10.070;  691.500
1126.377;    4.901;  -12.640;  599.660
1126.918;    5.493;  -12.960;  614.980
1127.458;    4.443;  -13.350;  622.220
1127.999;    5.667;  -10.750;  656.980
1128.539;    4.841;  -12.350;  694.240
1129.079;    4.196;  -14.860;  632.720
1129.620;    4.113;  -13.840;  558.100
1130.160;    4.189;  -12.330;  539.480
1130.700;    4.660;  -14.530;  640.840
1131.240;    5.363;  -12.530;  643.700
1131.781;    3.640;  -14.450;  619.680
1132.321;    4.055;   -9.790;  599.120
1132.861;    3.075;  -14.860;  564.200
1133.401;    3.313;  -14.290;  593.940
1133.941;    4.348;  -11.750;  626.280
1134.481;    3.774;   -9.920;  597.580
1135.020;    2.721;  -12.290;  609.160
1135.560;    3.782;  -11.650;  674.940
1136.100;    3.456;  -16.270;  501.160
1136.640;    3.645;  -10.890;  510.480
1137.179;    2.986;  -14.180;  537.960
1137.719;    3.228;  -16.250;  605.400
1138.258;    3.711;  -14.230;  587.360
1138.798;    3.273;   -9.090;  663.780
1139.337;    1.729;  -15.130;  482.840
1139.877;    2.953;  -13.680;  642.360
1140.416;    5.085;  -11.320;  878.060
1140.955;    2.502;  -10.860;  535.380
1141.494;    2.935;  -12.920;  669.280
1142.034;    2.081;  -13.930;  583.520
1142.573;    3.585;  -11.440;  646.280
1143.112;    2.433;  -12.000;  553.480
1143.651;    2.014;  -13.670;  536.480
1144.190;    3.252;  -12.730;  691.640
1144.729;    3.085;  -14.560;  607.420
1145.267;    2.648;  -11.830;  584.900
1145.806;    2.890;  -12.230;  637.040
1146.345;    1.802;  -14.130;  635.020
1146.884;    2.445;  -11.590;  622.500
1147.422;    1.551;  -12.550;  533.060
1147.961;    3.299;  -11.180;  708.460
1148.500;    2.373;  -11.510;  669.720
1149.038;    3.313;  -11.640;  632.500
1149.577;    2.599;  -10.130;  698.640
1150.115;    0.121;  -13.970;  452.280
1150.653;    2.524;  -14.520;  607.340
1151.192;    2.036;  -12.810;  552.920
1151.730;    1.425;   -9.100;  652.560
1152.268;    0.503;  -12.220;  589.520
1152.806;    1.036;  -14.140;  571.180
1153.344;    0.043;  -12.350;  577.640
1153.882;    0.899;   -8.980;  600.060
1154.421;   -0.900;  -15.190;  470.620
1154.958;    0.761;  -15.210;  595.240
1155.496;    1.730;  -12.850;  645.280
1156.034;    1.040;   -9.940;  721.880
1156.572;    2.039;  -13.570;  667.060
1157.110;   -0.261;  -14.590;  473.940
1157.647;    1.037;  -13.030;  676.960
1158.185;   -0.422;  -12.140;  564.320
1158.723;   -1.182;  -14.390;  509.200
1159.260;    0.994;  -14.090;  701.700
1159.798;    0.868;  -11.920;  658.160
1160.335;   -0.243;  -11.110;  631.820

