
Integration time [ms]:   3.276
Averaging Nr. [scans]: 1000
Smoothing Nr. [pixels]: 0
Data measured with spectrometer [name]: 7414430SP
Wave   ;Sample   ;Dark     ;Reference
[nm]   ;[counts] ;[counts] ;[counts] 

288.544;  155.823;    7.793;  793.890
289.143;  160.394;    7.462;  681.602
289.742;  161.096;    8.602;  828.814
290.341;  147.815;    1.321;  789.841
290.940;  137.633;   -0.709;  730.702
291.538;  139.483;    0.881;  881.108
292.137;  136.600;    0.122;  792.581
292.736;  139.454;   -1.929;  975.101
293.335;  136.741;   -8.229;  735.086
293.934;  137.606;   -5.279;  781.677
294.532;  136.835;   -1.369; 1031.958
295.131;  123.261;   -7.641;  834.394
295.730;  123.039;   -8.420;  809.588
296.328;  122.430;   -5.611;  783.442
296.927;  121.003;   -5.781;  779.652
297.525;  121.767;   -6.361;  781.236
298.124;  113.157;  -11.382;  654.009
298.722;  117.510;   -7.641;  761.933
299.321;  114.459;   -6.811;  708.597
299.919;  111.838;   -6.991;  751.918
300.518;  108.801;  -10.362;  689.338
301.116;  110.506;   -9.581;  691.381
301.715;  110.061;   -4.891;  730.222
302.313;  109.302;   -8.801;  704.943
302.911;  104.664;   -8.522;  733.830
303.509;  110.557;   -6.171;  925.627
304.108;  106.524;   -7.311;  760.383
304.706;  105.527;   -8.321;  801.664
305.304;  100.909;  -10.222;  796.707
305.902;  107.018;   -6.021;  784.484
306.500;  101.580;   -4.971;  728.200
307.098;   99.202;   -7.061;  746.560
307.696;   98.322;   -8.801;  780.432
308.294;   99.915;   -6.411;  731.359
308.892;  101.491;   -2.901;  759.769
309.490;   95.761;   -5.041;  712.161
310.088;   94.501;   -5.002;  788.444
310.686;   99.526;   -2.041;  821.749
311.284;   94.268;   -2.351;  766.040
311.882;   91.251;   -4.422;  731.225
312.480;   88.767;   -4.192;  697.167
313.078;   91.114;   -1.172;  808.331
313.675;   91.600;   -2.601;  691.600
314.273;   85.724;   -1.312;  797.837
314.871;   85.406;   -3.942;  589.829
315.468;   84.047;   -2.802;  652.090
316.066;   86.142;   -0.701;  694.427
316.664;   79.027;   -4.362;  656.351
317.261;   83.098;   -2.872;  910.128
317.859;   78.991;   -2.022;  768.735
318.456;   79.070;   -0.531;  830.096
319.054;   75.168;   -3.912;  787.828
319.651;   74.146;   -4.752;  759.928
320.249;   73.543;   -2.602;  810.188
320.846;   69.948;   -0.821;  714.286
321.443;   67.069;   -4.642;  832.135
322.041;   65.195;   -5.002;  812.315
322.638;   62.835;   -3.982;  701.456
323.235;   64.146;   -3.411;  665.683
323.833;   60.092;   -7.361;  740.354
324.430;   55.684;   -8.611;  615.900
325.027;   56.480;   -4.061;  876.855
325.624;   56.171;   -4.031;  644.532
326.221;   53.978;   -7.481;  689.717
326.818;   52.602;   -5.281;  818.332
327.415;   55.713;   -7.460;  748.828
328.012;   54.339;   -5.510;  690.585
328.609;   53.436;   -7.880;  731.389
329.206;   51.804;   -8.331;  778.621
329.803;   51.693;   -5.121;  737.841
330.400;   53.904;   -4.510;  704.260
330.997;   56.165;   -6.441;  817.147
331.594;   54.198;   -8.831;  788.185
332.191;   59.543;   -7.621;  728.722
332.787;   62.570;   -4.591;  844.463
333.384;   62.704;   -7.412;  763.093
333.981;   61.265;   -8.293;  815.687
334.578;   64.368;   -7.052;  708.378
335.174;   66.255;   -3.102;  731.469
335.771;   64.402;   -5.943;  836.456
336.367;   63.906;   -7.393;  710.631
336.964;   65.875;   -4.063;  793.266
337.561;   64.220;   -3.813;  731.112
338.157;   59.793;   -4.654;  911.916
338.754;   58.856;   -7.934;  796.589
339.350;   58.172;   -4.414;  722.493
339.946;   57.603;   -4.664;  773.135
340.543;   50.122;   -6.375;  846.136
341.139;   45.424;   -9.815;  720.836
341.735;   42.103;   -4.526;  772.593
342.332;   40.091;   -4.895;  691.472
342.928;   40.677;   -4.295;  795.394
343.524;   34.356;   -5.476;  761.684
344.120;   30.765;   -5.856;  738.562
344.716;   34.349;   -2.155;  723.717
345.313;   31.255;   -6.275;  795.342
345.909;   26.012;   -8.815;  627.336
346.505;   29.037;   -5.305;  740.247
347.101;   28.613;   -2.674;  827.864
347.697;   27.110;   -4.344;  785.398
348.293;   23.360;   -9.975;  627.244
348.889;   24.966;   -5.774;  745.914
349.485;   23.348;   -5.004;  688.205
350.081;   23.359;   -4.704;  772.592
350.676;   18.243;   -6.635;  691.606
351.272;   24.084;   -4.504;  809.530
351.868;   22.799;   -3.914;  780.497
352.464;   19.982;   -9.044;  723.932
353.059;   17.216;   -8.314;  646.017
353.655;   20.557;   -7.024;  777.063
354.251;   20.902;   -5.343;  759.845
354.846;   14.623;   -8.604;  740.646
355.442;   13.236;   -6.945;  753.071
356.038;   14.847;   -7.564;  751.708
356.633;   14.586;   -5.814;  728.594
357.229;   13.104;   -7.364;  724.757
357.824;   11.500;   -8.024;  703.600
358.420;   11.216;   -9.384;  679.726
359.015;   10.561;   -5.104;  695.357
359.610;   12.164;   -6.854;  763.920
360.206;    6.007;  -10.185;  603.240
360.801;    9.355;   -7.054;  646.503
361.396;   10.803;   -5.034;  725.975
361.992;    5.695;   -8.284;  668.220
362.587;    3.744;   -8.625;  670.160
363.182;    5.566;   -7.674;  689.631
363.777;    6.373;   -5.164;  738.242
364.372;    5.876;   -8.604;  737.314
364.967;    2.596;   -9.055;  680.744
365.563;    6.478;   -6.114;  815.567
366.158;    3.545;   -5.814;  685.161
366.753;    3.451;   -7.854;  649.263
367.348;    2.562;   -7.804;  746.056
367.942;    2.521;   -7.954;  697.298
368.537;    1.689;   -4.984;  754.245
369.132;    0.330;   -8.564;  703.428
369.727;   -2.853;   -8.855;  638.079
370.322;   -0.661;   -6.245;  580.186
370.917;   -2.169;   -6.425;  710.646
371.511;    0.914;   -6.294;  861.834
372.106;   -2.715;   -7.685;  776.964
372.701;   -5.436;   -7.335;  585.988
373.296;   -0.211;   -4.564;  863.135
373.890;   -5.682;  -10.235;  647.840
374.485;   -7.181;   -7.885;  691.199
375.079;   -2.557;   -7.324;  738.685
375.674;   -1.293;   -3.494;  812.970
376.268;   -6.110;   -8.525;  691.759
376.863;  -11.938;  -10.086;  580.327
377.457;   -5.549;   -7.025;  662.490
378.052;   -8.017;   -3.585;  764.884
378.646;   -9.104;   -7.595;  741.167
379.240;   -8.291;   -8.335;  721.176
379.835;   -8.034;   -5.785;  636.978
380.429;  -10.586;   -4.335;  562.557
381.023;   -9.973;   -6.805;  779.205
381.617;  -13.177;   -9.195;  680.106
382.212;   -8.709;   -6.905;  685.303
382.806;   -8.930;   -3.745;  760.690
383.400;  -12.353;   -7.745;  672.281
383.994;  -13.428;   -9.765;  664.870
384.588;   -9.322;   -6.564;  697.701
385.182;   -7.933;   -5.344;  726.624
385.776;  -10.970;   -8.514;  706.875
386.370;  -13.145;   -9.555;  681.968
386.964;  -11.446;   -8.715;  684.155
387.558;   -9.988;   -6.174;  598.360
388.152;  -14.176;   -8.725;  681.959
388.745;  -12.698;   -7.965;  814.707
389.339;  -10.238;   -5.924;  747.642
389.933;   -9.560;   -5.524;  695.370
390.527;  -10.783;   -7.114;  859.029
391.120;  -16.789;  -10.725;  595.318
391.714;  -13.862;   -8.035;  711.633
392.308;  -10.568;   -3.574;  780.253
392.901;  -14.668;   -7.245;  642.460
393.495;  -15.688;   -9.285;  595.414
394.089;  -13.621;   -5.895;  760.452
394.682;  -14.967;   -4.295;  697.188
395.275;  -15.996;   -9.875;  719.927
395.869;  -16.498;   -8.485;  667.314
396.462;  -15.358;   -7.455;  616.609
397.056;  -11.749;   -5.424;  776.621
397.649;  -16.820;   -6.605;  731.575
398.242;  -13.975;   -8.224;  712.645
398.836;  -12.308;   -7.474;  766.408
399.429;  -14.013;   -7.094;  631.041
400.022;  -17.679;   -9.475;  665.902
400.615;  -15.047;   -7.145;  805.609
401.208;  -12.131;   -7.174;  691.451
401.802;  -15.316;   -5.515;  699.329
402.395;  -16.634;   -9.875;  683.502
402.988;  -17.203;   -8.845;  696.627
403.581;  -13.723;   -8.874;  646.878
404.174;  -11.947;   -5.324;  686.568
404.767;  -14.934;   -9.575;  638.583
405.360;  -17.442;  -10.965;  621.445
405.953;  -11.680;   -8.764;  759.034
406.545;  -11.604;   -7.514;  725.342
407.138;  -16.598;  -10.025;  618.350
407.731;  -14.395;  -10.034;  613.303
408.324;  -11.045;   -9.374;  660.554
408.917;  -11.797;   -6.534;  681.864
409.509;  -13.640;   -8.004;  740.396
410.102;  -15.827;   -9.875;  643.948
410.695;   -9.120;   -8.604;  665.758
411.287;  -10.465;   -6.794;  599.821
411.880;  -11.961;   -9.334;  585.421
412.472;  -14.579;  -10.254;  613.092
413.065;  -11.274;   -6.714;  629.408
413.657;   -9.319;   -7.234;  576.678
414.250;   -9.738;  -10.544;  646.681
414.842;  -11.743;   -9.744;  676.353
415.434;   -8.457;   -6.994;  570.463
416.027;   -5.270;   -5.893;  652.196
416.619;   -8.195;   -7.264;  713.400
417.211;   -7.664;  -10.374;  599.352
417.804;   -3.537;   -7.993;  628.499
418.396;   -8.518;   -7.234;  607.643
418.988;   -6.837;   -9.443;  659.238
419.580;   -9.585;  -10.724;  568.276
420.172;   -7.042;  -10.323;  536.196
420.764;   -3.173;   -8.793;  672.482
421.356;   -5.030;  -11.143;  636.898
421.948;   -5.025;   -8.293;  677.661
422.540;    0.223;   -7.893;  680.027
423.132;   -0.459;   -7.082;  600.641
423.724;   -4.945;   -8.653;  561.267
424.316;   -1.676;  -10.213;  621.345
424.908;    1.625;   -9.762;  591.517
425.500;    1.707;   -5.572;  647.978
426.092;    1.846;   -8.422;  648.268
426.683;    0.873;   -9.283;  684.836
427.275;    4.401;   -7.852;  641.471
427.867;    6.482;   -5.272;  668.948
428.458;    6.317;   -7.682;  732.344
429.050;    4.394;  -10.612;  680.749
429.642;    6.963;   -9.882;  743.124
430.233;    6.840;   -6.962;  569.356
430.825;    7.196;   -6.842;  724.809
431.416;    5.887;   -9.672;  698.241
432.008;   10.427;   -6.552;  651.723
432.599;    9.745;   -6.891;  656.073
433.190;    6.483;  -10.912;  637.670
433.782;    6.259;  -11.172;  590.395
434.373;   14.538;   -6.061;  884.765
434.964;   12.192;   -8.251;  602.920
435.556;    9.617;   -9.722;  634.537
436.147;   12.737;   -9.082;  758.490
436.738;   13.047;   -8.041;  701.099
437.329;   17.492;   -7.341;  721.723
437.920;    9.646;   -8.162;  666.688
438.511;   10.402;  -11.802;  564.526
439.103;   17.754;  -10.191;  623.998
439.694;   18.885;   -7.601;  681.583
440.285;   19.111;   -8.541;  764.432
440.876;   18.295;   -9.751;  845.738
441.466;   17.830;   -9.401;  575.162
442.057;   22.364;   -7.760;  665.814
442.648;   20.870;   -9.971;  746.255
443.239;   19.705;  -11.001;  620.477
443.830;   24.635;   -7.990;  704.958
444.421;   26.864;   -7.910;  655.474
445.011;   21.804;   -8.131;  693.619
445.602;   22.208;   -7.111;  743.126
446.193;   24.551;  -10.920;  488.117
446.783;   28.914;   -6.500;  640.397
447.374;   23.787;   -8.671;  692.759
447.964;   25.176;  -10.781;  713.770
448.555;   33.610;   -9.650;  822.742
449.145;   29.719;   -8.660;  662.853
449.736;   30.105;   -8.990;  803.179
450.326;   30.269;   -9.500;  713.626
450.917;   35.549;   -8.680;  675.324
451.507;   34.155;   -7.520;  600.661
452.097;   34.394;   -8.590;  746.267
452.688;   35.865;  -11.340;  742.160
453.278;   36.098;  -10.100;  566.840
453.868;   40.236;   -6.019;  793.550
454.458;   37.355;   -9.440;  651.141
455.048;   37.863;  -10.560;  711.783
455.639;   40.892;  -11.799;  567.096
456.229;   43.466;   -6.899;  710.694
456.819;   44.456;   -7.389;  751.158
457.409;   45.796;  -11.119;  773.993
457.999;   48.023;   -9.289;  737.505
458.589;   47.887;   -6.139;  686.606
459.179;   46.928;   -8.729;  717.658
459.769;   46.072;   -9.789;  627.099
460.358;   51.631;  -10.259;  797.262
460.948;   50.277;   -7.299;  689.503
461.538;   52.527;  -10.289;  660.677
462.128;   50.302;  -11.269;  664.934
462.717;   57.064;   -9.368;  710.326
463.307;   60.291;   -7.908;  705.846
463.897;   54.951;   -9.599;  656.942
464.486;   54.759;   -9.769;  837.128
465.076;   59.435;   -8.048;  733.776
465.666;   63.160;   -9.358;  652.900
466.255;   59.810;   -7.919;  785.651
466.845;   59.021;  -11.689;  666.749
467.434;   63.103;   -7.818;  725.873
468.023;   62.987;   -7.678;  658.357
468.613;   61.147;  -10.939;  713.946
469.202;   65.161;  -10.118;  646.507
469.791;   70.608;   -9.108;  737.811
470.381;   70.669;   -6.058;  742.813
470.970;   70.389;  -10.428;  711.099
471.559;   70.189;  -10.268;  733.291
472.148;   73.514;   -8.448;  675.737
472.738;   76.343;   -6.917;  765.466
473.327;   76.093;  -11.978;  637.529
473.916;   75.251;  -11.888;  737.446
474.505;   80.036;   -9.437;  751.703
475.094;   82.844;   -6.747;  806.570
475.683;   80.719;   -9.367;  797.699
476.272;   82.143;  -12.637;  730.632
476.861;   85.730;  -10.027;  706.754
477.449;   92.041;   -8.716;  728.487
478.038;   85.911;   -9.577;  692.513
478.627;   87.590;   -9.718;  714.852
479.216;   94.982;   -8.947;  769.441
479.805;   97.221;   -6.256;  783.375
480.393;   96.645;   -7.937; 1008.945
480.982;   96.038;   -7.717;  874.501
481.571;  103.161;   -9.266;  858.333
482.159;  103.627;   -7.636;  705.386
482.748;  102.781;   -9.667;  821.385
483.336;  107.002;  -10.376;  858.209
483.925;  108.572;   -7.147;  774.373
484.513;  114.793;   -7.996;  758.962
485.102;  111.234;  -10.027;  810.965
485.690;  119.976;  -10.446; 1011.050
486.278;  121.844;   -8.446;  979.329
486.867;  122.691;   -6.356;  809.662
487.455;  123.501;   -9.136;  898.229
488.043;  126.140;  -10.646;  748.361
488.631;  134.969;   -7.456; 1005.079
489.220;  138.331;   -6.636;  908.626
489.808;  138.398;  -11.036;  741.415
490.396;  146.840;  -10.246;  914.645
490.984;  153.629;   -8.556;  830.161
491.572;  165.958;   -5.886;  940.315
492.160;  172.161;   -9.486;  919.081
492.748;  182.153;  -10.976;  884.341
493.336;  205.557;   -8.776; 1019.693
493.924;  235.777;   -5.465;  958.077
494.512;  272.743;   -9.986; 1066.638
495.100;  317.768;  -10.636; 1103.280
495.687;  385.220;  -10.885; 1206.373
496.275;  469.596;   -8.126; 1150.796
496.863;  546.874;  -10.586; 1281.171
497.451;  655.761;  -11.926; 1386.805
498.038;  764.438;  -10.885; 1556.729
498.626;  894.039;   -6.315; 1741.407
499.214; 1104.154;   -7.326; 2016.609
499.801; 1345.805;  -11.906; 2220.633
500.389; 1657.872;  -10.466; 2312.494
500.976; 1941.520;   -5.236; 2744.849
501.564; 2410.144;   -8.936; 3148.565
502.151; 3049.078;  -13.176; 3515.999
502.738; 3448.629;  -10.646; 3971.274
503.326; 3843.362;   -9.525; 4403.796
503.913; 4261.306;  -10.856; 5161.749
504.500; 4751.523;  -11.586; 5986.420
505.088; 5318.651;  -10.336; 6381.201
505.675; 6184.734;   -6.355; 6925.547
506.262; 6724.417;   -9.046; 7619.060
506.849; 7124.185;  -10.416; 8733.969
507.436; 7652.257;  -10.305; 9790.121
508.023; 8045.036;   -5.496; 9985.472
508.610; 8093.355;   -7.856;10434.618
509.197; 8984.630;  -10.097;11198.435
509.784;10320.660;  -10.886;12391.194
510.371;11762.419;   -9.315;13603.713
510.958;12950.989;   -9.936;14426.586
511.545;13523.504;   -9.326;15243.775
512.132;13657.986;  -10.075;15945.876
512.719;14148.851;   -7.796;16340.369
513.305;15410.063;  -10.606;18011.766
513.892;16871.527;  -11.486;19754.971
514.479;18013.654;   -9.126;20967.805
515.066;19370.852;   -6.026;22299.793
515.652;19471.229;   -8.466;22908.660
516.239;19957.623;  -10.886;23798.875
516.825;21573.887;  -11.496;25567.275
517.412;23183.121;   -5.796;28154.959
517.998;24305.041;  -10.506;28344.111
518.585;25128.668;  -10.076;27134.219
519.171;24629.174;   -8.315;27268.576
519.758;25308.643;   -8.596;28964.129
520.344;27815.100;   -8.466;30664.494
520.930;26943.318;  -11.006;32550.605
521.516;25322.607;  -10.495;35422.895
522.103;27083.799;   -5.526;38280.004
522.689;29351.758;   -8.746;37835.117
523.275;30399.252;  -11.376;37288.613
523.861;32341.199;  -11.156;37281.395
524.447;32027.545;   -8.135;37846.949
525.033;32431.264;   -7.896;38321.949
525.619;33271.652;  -12.476;38579.285
526.205;33298.523;   -9.516;40622.875
526.791;32864.559;   -6.926;42258.836
527.377;32663.465;   -8.346;42966.902
527.963;34300.324;   -8.717;42018.949
528.549;35885.238;  -11.016;42476.828
529.135;34425.465;   -8.536;41854.852
529.721;34267.094;   -9.666;41237.711
530.306;33356.563;  -10.066;41259.445
530.892;34315.781;  -11.356;41506.047
531.478;36108.855;   -6.596;43559.613
532.063;37995.602;   -8.836;47695.563
532.649;36414.551;  -10.047;50808.324
533.235;36540.457;   -9.746;51787.500
533.820;38919.164;   -6.566;52145.035
534.406;40641.184;  -10.817;51133.488
534.991;42397.109;   -9.416;49996.805
535.576;41042.375;   -9.036;48882.852
536.162;38448.262;   -6.156;46942.285
536.747;38992.047;  -11.607;45711.746
537.333;41882.219;  -11.787;48510.180
537.918;42568.355;  -12.437;50439.891
538.503;41917.766;   -7.196;50863.711
539.088;42483.750;  -10.556;50906.922
539.673;43409.859;   -8.767;52621.965
540.259;40310.539;  -10.026;52368.094
540.844;39622.734;   -7.416;50879.109
541.429;39449.512;   -9.467;52077.777
542.014;38945.949;   -9.527;52716.695
542.599;41903.180;   -9.946;52363.281
543.184;43217.445;   -7.927;53187.137
543.769;43517.309;   -9.297;54697.605
544.354;43803.375;  -10.127;53913.914
544.938;41639.809;   -9.267;49680.164
545.523;39797.559;   -6.506;47386.277
546.108;41603.328;   -9.787;49151.949
546.693;42273.551;  -11.587;51384.637
547.278;42603.957;  -10.986;51853.254
547.862;43260.711;   -8.206;51173.750
548.447;41745.484;  -10.067;51691.395
549.031;41507.902;   -9.637;52456.703
549.616;41913.563;   -9.926;52714.516
550.201;41030.395;   -6.347;52414.598
550.785;41859.289;   -7.917;52355.059
551.370;42788.750;  -10.867;54589.453
551.954;45068.824;   -9.047;58267.348
552.538;44262.160;   -7.827;59062.176
553.123;42119.531;  -10.287;58115.285
553.707;41308.520;  -12.178;56556.285
554.291;38998.594;   -8.717;56201.668
554.876;40123.590;   -7.457;55335.762
555.460;42384.633;  -10.387;54155.703
556.044;43996.574;   -9.618;53721.484
556.628;44566.887;  -11.567;53731.016
557.212;45247.719;   -8.097;54312.531
557.796;46906.273;  -11.077;53797.773
558.380;44886.379;  -11.108;56145.984
558.964;42968.387;   -9.057;57277.930
559.548;40674.328;   -6.977;56459.641
560.132;37696.809;  -11.457;54434.543
560.716;39201.949;  -11.378;54800.617
561.300;41297.094;   -9.577;57606.945
561.884;40105.898;   -7.127;58972.445
562.467;38856.059;   -7.118;57327.570
563.051;37620.977;  -13.358;54962.434
563.635;35856.043;  -10.178;52594.473
564.219;37332.762;   -7.837;50610.410
564.802;40481.098;  -11.398;49551.180
565.386;40924.004;  -12.788;48370.953
565.969;42012.816;   -9.077;48178.871
566.553;41105.105;   -6.207;49957.305
567.136;39697.059;   -8.568;50369.594
567.720;40632.418;  -11.868;49492.004
568.303;41551.434;   -8.268;50616.352
568.887;40867.734;   -8.698;50727.148
569.470;38741.688;   -6.808;51698.379
570.053;36723.238;  -13.188;52122.078
570.637;34470.750;  -12.037;52536.438
571.220;34418.609;   -8.577;51186.098
571.803;34434.199;   -8.498;51032.762
572.386;36431.207;  -10.498;49609.887
572.969;37063.488;   -9.388;48285.926
573.552;36930.996;   -8.338;47624.285
574.135;35477.063;   -8.518;45498.641
574.718;31961.535;  -13.628;41970.434
575.301;32713.498;  -10.893;41447.137
575.884;33465.461;   -8.158;40923.836
576.467;38239.219;  -10.328;45267.723
577.050;38869.664;  -13.058;48175.543
577.633;37742.578;   -9.458;47729.328
578.216;34578.949;   -8.928;47579.793
578.799;32321.023;   -9.358;47820.996
579.381;33481.668;  -11.388;48115.551
579.964;33549.902;  -11.718;47333.766
580.547;32479.869;   -8.588;46668.969
581.129;33206.422;   -8.859;44466.141
581.712;34763.922;  -10.729;44164.922
582.294;34335.539;  -11.118;46477.855
582.877;35178.531;   -5.218;48244.254
583.459;35539.223;   -8.679;47437.895
584.042;36677.906;  -10.709;46943.219
584.624;34900.309;  -11.669;46792.227
585.206;33677.352;   -8.218;46557.250
585.789;34484.996;  -10.569;45793.773
586.371;34890.605;  -11.859;43836.391
586.953;35995.797;  -10.719;42972.492
587.536;37412.004;   -7.198;42487.211
588.118;36292.121;   -8.720;42086.414
588.700;35091.527;  -10.439;43389.930
589.282;32426.463;   -9.198;43646.039
589.864;30281.277;   -9.199;43438.109
590.446;30129.648;  -11.319;43151.926
591.028;29419.758;  -11.159;42781.867
591.610;28944.352;  -11.779;42839.098
592.192;28933.500;   -7.668;42820.402
592.774;26943.176;  -11.949;40724.277
593.356;24854.715;  -12.129;39874.789
593.937;26436.889;  -10.669;39980.648
594.519;30663.695;   -6.509;42069.633
595.101;31788.025;  -10.849;42976.031
595.683;31047.566;  -11.679;44084.441
596.264;30191.152;   -9.049;43478.797
596.846;29875.436;   -8.849;43803.672
597.427;29839.723;   -9.570;42986.934
598.009;31570.197;  -12.620;42832.219
598.591;31559.242;  -10.039;42580.086
599.172;33597.770;  -10.369;43061.805
599.753;35933.836;   -9.140;41691.469
600.335;35334.441;  -11.430;40692.520
600.916;32986.723;   -9.939;39982.422
601.498;30042.666;   -8.479;40318.617
602.079;29450.225;  -10.920;40670.609
602.660;29016.881;  -11.480;41450.898
603.241;29770.689;  -11.699;41137.738
603.823;30145.498;   -9.579;38868.797
604.404;29910.162;  -10.620;38182.785
604.985;32738.148;  -10.450;38078.047
605.566;33512.102;   -9.129;38056.633
606.147;34423.645;   -7.510;37020.418
606.728;33227.500;  -10.660;37883.359
607.309;31340.729;  -11.740;38748.273
607.890;31064.941;   -9.759;38850.230
608.471;29871.920;   -8.250;37457.918
609.051;30111.436;   -9.240;36066.457
609.632;29951.117;  -12.120;35991.074
610.213;29567.002;   -9.110;37402.641
610.794;30835.184;   -8.030;38383.363
611.374;29745.842;   -8.110;40562.387
611.955;29672.225;  -13.560;38533.727
612.536;30721.859;  -11.400;36951.789
613.116;30062.094;   -8.070;37197.891
613.697;30690.074;  -10.830;38411.125
614.277;30488.467;  -11.641;38673.938
614.858;30065.363;  -13.310;37075.863
615.438;30054.773;   -7.460;35092.906
616.019;28158.842;   -7.601;33666.301
616.599;28753.934;  -12.020;34189.023
617.179;28606.230;  -11.780;36952.047
617.760;27674.531;   -8.570;39582.574
618.340;28087.928;  -11.471;38943.977
618.920;28414.609;  -11.170;37594.156
619.500;29335.625;  -11.071;37866.938
620.080;29868.002;   -7.750;37869.043
620.660;30085.006;  -12.711;36868.617
621.241;30874.879;  -10.211;36352.309
621.821;30515.549;  -10.961;35459.520
622.401;30778.469;   -7.720;35207.414
622.980;32790.688;   -8.981;35980.422
623.560;31440.303;   -9.331;37351.328
624.140;27190.232;   -9.850;34388.582
624.720;23285.170;   -7.451;32368.764
625.300;22969.123;   -9.070;32638.629
625.880;27176.350;  -12.601;34599.035
626.459;30430.998;  -11.751;36831.738
627.039;30586.660;   -9.281;38299.098
627.619;29640.371;   -8.801;38289.574
628.198;29723.318;  -12.071;37220.695
628.778;30628.705;   -9.461;37632.563
629.357;31362.844;   -8.491;38003.012
629.937;30996.014;   -9.721;38402.039
630.516;31745.514;   -9.951;37868.801
631.096;33019.246;  -11.731;35760.410
631.675;35334.828;   -8.572;35225.219
632.254;35013.980;  -11.282;35130.289
632.834;33740.672;  -13.322;35794.570
633.413;34528.492;  -10.301;35788.922
633.992;34408.535;   -8.582;34532.863
634.571;35073.336;   -8.352;33590.113
635.151;34326.254;  -11.912;34943.863
635.730;32240.994;  -10.511;35352.523
636.309;32260.949;   -7.731;35366.605
636.888;32006.951;   -9.952;36165.637
637.467;31063.285;  -11.672;37515.902
638.046;29458.336;   -8.901;39288.695
638.625;28679.510;   -7.912;38279.699
639.204;28100.871;  -10.022;37741.598
639.782;29446.391;  -12.252;38364.551
640.361;31586.820;  -10.041;36740.621
640.940;31539.822;  -11.161;34950.082
641.519;31027.021;   -9.701;34137.398
642.097;32022.338;  -11.271;35654.258
642.676;32106.043;   -8.651;35637.957
643.255;31179.730;   -8.711;36567.074
643.833;30790.879;   -9.581;37809.434
644.412;31479.057;  -13.711;37337.293
644.990;32842.957;  -11.811;37018.531
645.569;35672.230;   -9.411;36518.469
646.147;36274.672;  -10.291;36186.430
646.726;34356.109;  -12.401;36267.688
647.304;32803.234;  -10.411;36647.625
647.882;33377.516;   -9.651;39286.742
648.461;33221.250;   -9.631;39157.703
649.039;31015.646;  -11.881;35412.883
649.617;30846.523;   -9.661;34744.918
650.195;31239.906;   -9.301;35403.098
650.773;30595.549;  -10.511;35053.797
651.352;30558.256;  -11.521;33756.816
651.930;29336.809;  -12.211;31868.773
652.508;28262.277;   -9.171;33121.551
653.086;29667.496;   -9.371;33564.793
653.663;31931.334;  -13.161;34054.668
654.241;30770.887;  -13.031;35693.309
654.819;28846.182;   -9.371;36422.906
655.397;29518.221;  -10.511;38213.484
655.975;29734.625;  -10.371;39507.625
656.553;30645.104;  -10.051;39498.223
657.130;31219.477;  -10.061;40395.480
657.708;28145.729;   -9.561;39242.020
658.286;25372.008;  -11.511;38920.020
658.863;25814.074;  -10.261;40202.898
659.441;28616.205;   -7.531;39677.938
660.018;31106.482;   -9.501;40413.355
660.596;31790.074;  -13.301;39931.414
661.173;34473.145;  -11.211;39604.531
661.750;33600.309;   -9.951;39700.070
662.328;30970.896;   -9.390;39292.809
662.905;29497.859;  -11.330;38235.648
663.482;26636.721;   -9.050;36212.305
664.060;24427.121;   -8.240;35944.945
664.637;28540.463;  -10.050;35170.785
665.214;33320.453;  -11.760;34197.523
665.791;32181.262;  -10.530;34549.520
666.368;31667.221;   -9.690;35118.578
666.945;31970.439;   -9.320;36019.418
667.522;32844.422;  -11.860;36048.438
668.099;32109.129;  -10.770;36243.914
668.676;32268.100;   -6.260;35958.875
669.253;34331.402;   -7.000;37384.730
669.830;34737.703;  -10.190;36779.629
670.407;33518.559;   -9.550;35231.289
670.984;32906.621;   -9.260;35544.270
671.560;31248.713;   -9.280;35466.867
672.137;29468.516;  -11.810;34280.863
672.714;29459.541;  -11.490;34632.863
673.290;30295.721;   -7.740;35135.422
673.867;30862.357;  -10.660;36114.480
674.443;30187.963;  -12.230;36152.859
675.020;28684.113;  -10.450;35327.238
675.596;27139.570;   -9.260;35795.176
676.173;27854.527;  -10.780;35430.355
676.749;28631.379;  -13.690;33549.516
677.326;29776.861;  -11.980;32210.012
677.902;27946.471;   -8.630;32068.871
678.478;26062.303;  -10.730;32583.891
679.054;27726.057;  -10.520;32088.928
679.631;29240.195;  -11.920;30978.848
680.207;30540.125;   -7.490;33160.887
680.783;31538.338;   -9.860;35570.363
681.359;32111.605;  -13.380;36125.184
681.935;31150.590;  -12.480;35240.922
682.511;31661.434;   -7.900;34429.961
683.087;32013.492;   -7.710;34463.680
683.663;32581.314;  -11.480;34648.898
684.239;32289.631;  -14.090;34546.457
684.815;33205.574;   -7.560;35586.375
685.390;33316.621;   -9.910;35821.895
685.966;32982.328;  -11.159;35085.871
686.542;33361.066;  -11.169;34198.230
687.118;31771.498;   -5.959;32847.707
687.693;31787.121;  -10.329;32794.027
688.269;30965.049;  -12.059;33072.367
688.844;31652.373;  -10.909;33141.664
689.420;33084.207;   -8.019;33965.742
689.995;30119.699;   -8.399;34655.523
690.571;29206.139;  -10.949;33576.742
691.146;28433.811;   -9.619;32657.219
691.722;26368.563;   -8.999;32526.979
692.297;25602.264;  -11.589;33014.617
692.872;26405.422;  -11.739;34012.254
693.448;26584.289;  -11.059;34237.434
694.023;28347.205;  -10.139;34142.672
694.598;30386.930;   -9.029;34132.031
695.173;29982.115;  -13.319;34205.250
695.748;27451.088;  -10.169;32882.488
696.323;25315.088;   -8.339;32864.906
696.898;24985.055;   -8.169;33170.004
697.473;28082.252;  -12.309;32432.984
698.048;28092.338;  -10.989;31649.303
698.623;27126.283;   -9.329;30778.141
699.198;28546.729;   -9.849;31140.119
699.773;29801.920;  -12.329;31764.299
700.348;29606.971;  -10.389;31780.816
700.922;27851.932;   -9.269;32046.375
701.497;26372.512;   -9.329;32603.574
702.072;28105.043;  -10.789;34799.871
702.646;27955.814;  -10.839;35793.172
703.221;28443.688;   -9.099;35201.590
703.795;28978.160;  -10.939;34764.527
704.370;27507.859;  -12.859;34307.367
704.944;28711.697;  -11.559;33509.887
705.519;29858.400;   -7.939;31388.584
706.093;31869.180;  -10.499;31340.104
706.668;32984.094;  -11.289;32630.281
707.242;31954.000;  -11.509;32728.779
707.816;30539.703;   -9.639;32947.238
708.390;30183.363;  -11.429;33277.855
708.965;31309.881;  -11.869;33834.336
709.539;31387.910;  -11.689;33709.273
710.113;30703.486;  -10.478;33044.313
710.687;27860.244;  -10.228;31953.992
711.261;26938.043;  -13.698;30505.949
711.835;26676.623;  -13.378;30262.369
712.409;26510.105;   -9.698;31254.447
712.983;26337.277;  -11.898;32754.986
713.557;25435.816;  -15.138;34018.824
714.131;26745.105;  -14.098;34579.625
714.704;26614.357;   -9.958;33890.262
715.278;25748.807;  -10.028;33531.102
715.852;24780.219;  -11.148;33601.660
716.425;24249.145;   -9.068;33515.117
716.999;25743.297;  -10.038;33185.555
717.573;26441.068;   -9.798;33905.996
718.146;27602.924;  -12.378;35199.293
718.720;28313.783;  -11.918;35060.551
719.293;27540.600;   -8.088;34973.230
719.867;26709.223;  -10.888;36394.449
720.440;27592.727;  -11.938;36663.008
721.013;29358.355;  -12.818;35102.426
721.587;30729.475;  -10.298;33985.266
722.160;30431.404;  -10.048;33524.965
722.733;28396.754;  -12.108;32987.043
723.306;26145.857;  -10.818;33066.301
723.880;26615.117;   -8.908;33399.500
724.453;25864.215;   -9.878;33468.297
725.026;25823.338;  -11.188;33816.637
725.599;26028.602;  -11.678;32797.996
726.172;25504.117;   -9.618;33187.434
726.745;26266.500;   -8.258;35136.613
727.318;28934.111;  -12.978;35751.730
727.891;31190.803;  -12.148;35890.430
728.463;32527.539;   -8.968;34822.090
729.036;32769.074;  -10.188;32895.086
729.609;30373.729;  -11.788;31823.225
730.182;28657.852;  -11.788;31445.283
730.754;27932.914;  -10.268;32373.223
731.327;27528.682;   -9.998;33676.820
731.900;26625.900;  -12.228;33417.000
732.472;25780.277;  -13.848;31978.498
733.045;25709.166;   -8.698;30368.777
733.617;25123.971;  -10.607;30574.215
734.190;23680.867;  -11.507;31280.975
734.762;23929.543;  -13.647;31674.412
735.334;25215.348;   -9.767;31247.291
735.907;25425.367;   -9.897;29876.211
736.479;23398.906;  -11.637;29808.488
737.051;22924.877;   -9.567;30233.547
737.623;23916.820;   -8.187;31469.086
738.195;25825.012;  -11.187;31784.225
738.768;26158.963;  -12.337;32120.523
739.340;25505.449;  -12.227;32094.342
739.912;24985.846;  -11.057;31312.680
740.484;25827.082;  -10.207;31946.238
741.056;26938.252;  -10.047;32984.059
741.628;26522.105;  -13.627;33897.715
742.199;27148.693;   -7.177;33213.016
742.771;25614.637;  -10.797;31369.113
743.343;24062.336;  -11.997;31865.473
743.915;24232.084;  -12.867;32388.631
744.487;24892.359;   -7.617;31079.568
745.058;26209.967;   -9.557;30570.107
745.630;25972.168;   -9.877;29970.127
746.201;24644.033;  -14.177;29186.766
746.773;24318.279;   -9.237;28805.723
747.344;24469.619;   -9.847;29591.223
747.916;24483.545;  -11.657;31412.201
748.487;23990.061;  -10.587;32194.898
749.059;23865.152;   -8.707;32533.719
749.630;23033.723;  -10.537;32158.518
750.201;23311.533;  -11.687;30855.395
750.773;23400.023;  -11.647;28622.555
751.344;24741.900;   -7.147;28405.732
751.915;24691.992;   -9.757;28461.551
752.486;24198.027;  -12.427;27842.850
753.057;22596.723;  -12.227;27845.008
753.628;22076.244;  -10.417;27728.107
754.199;22141.467;  -11.767;27381.086
754.770;21612.275;  -11.187;25882.203
755.341;21257.207;  -10.507;25886.184
755.912;21668.998;   -9.387;26050.861
756.483;22015.762;  -10.647;26798.779
757.054;21599.721;  -11.837;27048.238
757.625;19879.252;  -12.716;26294.838
758.195;19284.457;   -9.666;26142.076
758.766;20241.064;   -8.656;26392.234
759.337;20053.053;  -12.856;26334.594
759.907;19282.730;  -13.366;27579.652
760.478;18358.434;   -8.576;28352.770
761.048;18910.439;  -10.526;27325.088
761.619;19549.369;  -11.116;26460.428
762.189;19108.594;  -12.136;26029.826
762.760;19075.861;   -9.456;26430.145
763.330;19359.869;   -7.136;26670.902
763.900;19383.764;  -11.786;26603.021
764.471;18698.572;  -11.546;25542.740
765.041;18449.086;   -8.096;24358.459
765.611;18593.039;   -8.876;23991.297
766.181;18611.117;  -12.196;24470.236
766.751;19178.277;  -11.636;24845.975
767.321;19241.947;  -10.156;24533.633
767.891;18971.844;  -11.766;24916.492
768.461;18578.105;  -14.936;24776.771
769.031;17684.426;  -12.356;24757.988
769.601;17416.371;   -7.526;24181.088
770.171;17850.414;  -10.766;23670.387
770.741;18546.150;  -13.176;22960.045
771.311;18193.461;  -10.616;22917.523
771.880;16839.133;   -9.576;23562.941
772.450;16228.267;  -10.336;24216.500
773.020;16454.813;  -13.516;24140.398
773.589;16374.768;  -13.466;24414.857
774.159;15771.841;   -8.686;23858.717
774.729;15087.897;   -9.476;22942.135
775.298;15072.153;  -13.666;22324.033
775.867;15121.701;  -11.716;21140.313
776.437;14630.463;   -9.906;20838.092
777.006;14495.000;  -12.166;20599.510
777.576;15770.056;  -12.356;20508.809
778.145;15071.139;  -11.646;20732.947
778.714;13772.287;   -8.226;21062.465
779.283;13338.404;   -9.556;20949.664
779.853;13156.972;  -14.116;20508.623
780.422;13430.024;  -11.506;20649.082
780.991;13827.239;   -9.556;21527.520
781.560;14404.021;   -9.095;22632.658
782.129;13280.004;  -12.135;23048.277
782.698;12015.256;  -10.865;23438.555
783.267;11386.762;   -9.335;23267.734
783.836;11662.637;  -11.045;22415.133
784.404;12362.845;  -13.865;20443.152
784.973;12587.337;  -13.095;19699.150
785.542;12511.372;  -11.575;19763.828
786.111;12334.955;   -9.705;20341.408
786.679;12170.605;  -12.105;20207.967
787.248;11817.129;  -12.455;19516.465
787.817;11576.271;  -11.535;18900.363
788.385;11421.954;   -9.765;17879.121
788.954;11295.266;  -14.005;17658.301
789.522;11083.776;  -11.955;17788.879
790.090;10177.896;  -10.135;18118.277
790.659; 9362.354;  -10.975;18338.736
791.227; 9425.629;  -13.375;18508.615
791.795; 9771.142;  -12.375;17898.254
792.364; 9984.662;  -10.725;17295.133
792.932;10319.880;   -9.715;16822.051
793.500;10136.562;  -12.675;17040.148
794.068;10435.701;  -13.495;17179.787
794.636;10531.425;  -10.885;16664.246
795.204;10202.372;  -11.045;16524.545
795.772;10141.628;  -13.175;17274.564
796.340; 9886.233;  -12.445;17891.002
796.908;10090.354;   -9.735;17648.561
797.476;10462.508;   -9.815;17064.080
798.044;10172.704;  -13.985;16672.777
798.612; 9751.404;  -13.115;17023.996
799.180; 8989.921;  -10.185;16561.615
799.747; 8652.243;   -9.055;15962.773
800.315; 8896.241;  -12.385;15296.992
800.883; 8357.259;  -15.035;14801.771
801.450; 7654.348;  -10.365;14534.430
802.018; 7365.205;   -9.855;14173.248
802.585; 7316.130;  -11.905;14029.547
803.153; 7498.246;  -11.585;13836.846
803.720; 7325.011;   -9.095;13567.324
804.287; 7258.370;   -9.135;13360.622
804.855; 7444.491;  -11.604;13681.981
805.422; 7815.703;  -11.794;13536.560
805.989; 8071.698;  -10.734;13355.958
806.556; 8030.681;  -10.444;13747.896
807.124; 8299.740;  -12.764;13987.376
807.691; 8738.211;  -12.964;14038.674
808.258; 8805.637;  -11.134;14120.152
808.825; 8849.999;   -9.854;13860.111
809.392; 8530.847;  -10.504;13268.790
809.959; 7868.824;  -13.054;12680.389
810.526; 7204.526;   -8.294;12427.308
811.093; 6591.802;   -8.394;12030.105
811.659; 6418.888;  -12.304;11653.664
812.226; 6626.648;  -13.944;11637.183
812.793; 7017.436;  -10.484;11611.521
813.360; 7146.913;  -10.144;11885.181
813.926; 7168.261;  -11.684;12770.539
814.493; 7113.630;  -13.644;12677.638
815.060; 7015.443;   -9.724;11974.336
815.626; 7189.358;   -9.854;11594.715
816.193; 7249.584;  -13.254;11579.474
816.759; 6655.927;  -13.204;11666.972
817.325; 6239.579;   -9.434;11325.530
817.892; 6124.243;  -10.134;11105.369
818.458; 6280.125;  -13.474;10843.928
819.024; 6755.526;  -11.854;10714.406
819.591; 6896.396;  -10.244;10469.165
820.157; 6712.671;  -10.704;10235.523
820.723; 6707.972;  -12.324;10847.563
821.289; 6615.364;   -9.444;11040.980
821.855; 6646.955;   -8.374;10357.100
822.421; 6947.269;  -10.234; 9978.918
822.987; 6934.784;  -13.294; 9754.177
823.553; 6661.938;  -10.884;10065.755
824.119; 6418.064;   -8.884;10036.294
824.685; 5905.999;   -6.784;10029.192
825.251; 5818.180;  -12.004;10199.230
825.816; 5544.367;  -11.474; 9820.189
826.382; 5318.318;   -9.174; 9297.248
826.948; 5616.332;   -9.214; 9381.347
827.513; 6061.840;  -10.774; 9450.726
828.079; 6171.606;  -11.924; 9472.444
828.645; 5972.265;  -10.543; 9292.643
829.210; 5823.990;  -10.533; 9065.341
829.776; 5709.611;  -10.753; 9132.620
830.341; 5849.357;  -10.173; 9092.878
830.906; 5896.652;  -10.743; 9078.557
831.472; 5664.581;  -11.113; 8534.535
832.037; 5295.360;  -10.603; 8677.874
832.602; 5151.158;  -13.323; 8628.692
833.167; 4933.167;  -10.823; 8879.031
833.733; 4795.841;  -10.113; 9189.790
834.298; 4666.544;  -13.583; 9052.608
834.863; 4847.899;  -12.703; 8895.087
835.428; 5063.489;  -10.523; 8824.266
835.993; 4981.049;   -6.963; 8845.385
836.558; 4935.417;  -10.763; 8888.563
837.123; 5074.992;   -9.903; 8966.582
837.688; 5439.961;   -9.913; 8617.860
838.253; 5472.061;  -10.283; 8590.699
838.817; 5099.396;  -12.963; 8443.797
839.382; 4974.263;  -14.243; 8799.356
839.947; 5129.087;  -10.733; 8810.595
840.511; 5144.941;   -9.383; 8796.394
841.076; 4985.100;  -12.563; 8347.231
841.641; 4809.314;  -12.953; 8224.330
842.205; 4671.016;   -7.043; 8223.349
842.770; 4455.154;   -8.163; 8622.107
843.334; 4603.188;  -12.503; 8410.386
843.898; 4743.861;  -11.693; 8337.465
844.463; 4299.267;  -10.203; 8506.283
845.027; 3991.590;   -9.533; 8280.962
845.591; 4017.749;  -13.443; 8231.141
846.156; 4077.362;  -13.143; 7969.179
846.720; 3904.254;   -9.433; 7768.278
847.284; 3806.677;  -11.033; 7630.957
847.848; 3800.891;  -10.403; 7472.395
848.412; 3646.387;  -11.553; 7437.394
848.976; 3562.912;   -8.393; 7674.592
849.540; 3524.576;   -8.713; 7836.011
850.104; 3486.970;  -12.463; 7913.669
850.668; 3526.212;  -12.973; 7694.508
851.232; 3469.355;  -10.793; 7756.887
851.796; 3480.960;  -10.662; 7926.545
852.359; 3581.620;  -13.082; 7827.844
852.923; 3566.260;  -12.192; 7641.163
853.487; 3565.124;  -11.912; 7342.501
854.050; 3415.967;  -10.892; 7042.820
854.614; 3467.836;  -13.992; 7151.338
855.177; 3543.317;  -11.732; 7105.077
855.741; 3425.234;   -8.962; 6989.675
856.304; 3288.266;   -9.442; 6596.634
856.868; 3167.669;  -14.192; 6356.272
857.431; 3112.934;  -12.702; 6468.571
857.995; 3107.683;   -9.942; 6373.210
858.558; 3182.390;   -9.112; 6324.448
859.121; 3087.458;  -12.932; 6408.327
859.684; 2954.292;  -13.442; 6347.886
860.247; 2907.158;  -10.632; 6321.264
860.810; 2862.723;  -11.272; 6301.903
861.374; 2788.361;   -9.832; 6607.881
861.937; 2701.892;  -11.762; 6408.200
862.500; 2705.183;   -9.722; 6572.639
863.062; 2696.138;  -10.512; 6387.297
863.625; 2686.926;  -11.232; 6190.836
864.188; 2720.360;  -14.112; 5807.254
864.751; 2741.998;  -11.302; 5682.413
865.314; 2635.280;  -10.112; 5547.492
865.876; 2465.738;  -12.182; 5500.150
866.439; 2314.351;  -10.722; 5415.909
867.002; 2224.633;   -9.252; 5501.567
867.564; 2279.967;   -9.572; 5413.946
868.127; 2320.629;  -13.142; 5160.325
868.689; 2416.651;  -12.902; 5133.183
869.252; 2544.124;   -9.732; 5252.382
869.814; 2479.102;   -9.432; 5297.141
870.377; 2378.274;  -11.552; 5390.919
870.939; 2368.655;   -9.052; 5599.898
871.501; 2317.716;  -10.982; 5248.336
872.063; 2210.589;  -12.292; 4854.235
872.626; 2150.958;  -14.912; 4817.074
873.188; 2054.169;  -13.112; 4987.732
873.750; 2020.823;  -13.442; 4868.651
874.312; 1978.953;   -9.402; 4779.330
874.874; 1937.672;  -11.062; 4866.348
875.436; 1834.772;  -13.931; 4718.887
875.998; 1722.713;   -9.561; 4660.005
876.560; 1708.865;  -11.321; 4462.964
877.122; 1775.736;  -12.221; 4145.042
877.683; 1895.041;  -12.191; 4056.481
878.245; 1932.850;  -12.101; 3950.740
878.807; 1950.879;   -8.971; 4058.958
879.369; 1897.640;  -12.071; 3954.677
879.930; 1770.745;  -14.621; 3941.495
880.492; 1681.169;  -10.311; 4067.014
881.053; 1680.001;  -10.901; 3859.633
881.615; 1671.365;  -14.411; 3776.071
882.176; 1600.087;  -13.761; 3734.750
882.738; 1520.562;   -9.181; 3678.489
883.299; 1505.417;  -11.791; 3405.407
883.860; 1523.656;  -13.121; 3351.106
884.422; 1470.760;  -11.211; 3394.044
884.983; 1382.033;  -10.091; 3166.443
885.544; 1330.558;   -8.461; 3189.802
886.105; 1265.451;  -12.361; 3160.360
886.666; 1204.459;  -14.141; 3093.059
887.227; 1174.509;  -11.361; 2941.957
887.788; 1114.430;  -11.401; 2974.836
888.349; 1016.226;  -13.791; 2721.214
888.910;  972.865;  -13.191; 2696.493
889.471;  934.739;   -9.881; 2560.172
890.032;  941.699;   -9.881; 2558.190
890.593;  935.467;  -10.371; 2567.669
891.153;  849.632;  -13.301; 2460.307
891.714;  735.818;  -11.431; 2372.046
892.275;  687.891;  -11.291; 2309.505
892.835;  697.483;  -11.471; 2382.543
893.396;  687.545;  -11.541; 2295.502
893.956;  658.092;  -11.181; 2162.420
894.517;  616.881;  -11.741; 2125.439
895.077;  561.766;  -11.671; 2086.978
895.638;  519.722;  -11.311; 2126.316
896.198;  506.950;   -9.831; 1838.275
896.758;  489.599;   -8.421; 1892.813
897.319;  467.254;  -12.351; 1792.232
897.879;  448.887;  -13.511; 1762.751
898.439;  415.738;  -12.001; 1661.149
898.999;  393.122;  -10.180; 1781.468
899.559;  387.166;  -12.030; 1703.347
900.119;  379.570;  -15.710; 1537.525
900.679;  365.119;   -8.900; 1638.384
901.239;  344.109;   -8.340; 1527.902
901.799;  314.546;  -13.910; 1456.441
902.359;  291.087;  -13.460; 1357.140
902.919;  281.926;  -11.490; 1331.118
903.479;  281.922;  -12.110; 1317.257
904.038;  275.061;  -11.720; 1262.595
904.598;  267.312;  -13.610; 1152.034
905.158;  255.382;  -11.040; 1240.893
905.717;  238.907;  -10.900; 1233.691
906.277;  227.997;  -15.080; 1217.330
906.836;  226.333;  -13.380; 1222.408
907.396;  224.543;  -10.780; 1193.047
907.955;  216.330;   -8.500; 1182.526
908.515;  210.916;  -12.760; 1099.364
909.074;  210.823;  -11.900; 1092.863
909.633;  211.100;   -8.950; 1069.121
910.192;  207.314;   -8.770; 1196.460
910.752;  196.200;  -12.390; 1029.960
911.311;  186.216;  -13.680; 1009.780
911.870;  176.993;  -12.370;  971.460
912.429;  170.550;  -10.900; 1094.080
912.988;  167.986;  -11.690; 1081.060
913.547;  165.473;  -13.240;  940.380
914.106;  163.710;  -11.990;  999.420
914.665;  162.532;   -9.990;  984.020
915.224;  159.558;  -12.880; 1035.760
915.782;  157.593;  -12.350;  922.560
916.341;  157.288;   -9.110; 1049.840
916.900;  153.800;   -9.270;  925.260
917.458;  151.666;  -13.240;  884.220
918.017;  151.399;  -13.550;  942.600
918.576;  148.892;  -12.320;  904.440
919.134;  146.641;  -11.490;  837.980
919.693;  144.844;  -13.670;  893.060
920.251;  143.427;  -15.470;  876.500
920.809;  144.690;  -11.290;  839.580
921.368;  144.046;  -10.210;  885.360
921.926;  141.910;  -12.140;  842.940
922.484;  138.180;  -13.080;  903.360
923.042;  138.172;  -11.720;  880.340
923.601;  137.937;   -7.480;  998.680
924.159;  135.650;  -11.570;  935.560
924.717;  133.947;  -13.840;  841.080
925.275;  135.077;  -10.640;  903.240
925.833;  132.661;  -11.540;  779.320
926.391;  134.153;  -12.960;  938.380
926.949;  134.541;  -14.130;  857.680
927.506;  135.134;  -11.750;  903.500
928.064;  132.846;  -10.250;  877.580
928.622;  133.747;  -13.030;  880.100
929.180;  136.423;  -13.400;  814.180
929.737;  138.940;  -10.700;  808.540
930.295;  141.518;  -10.070;  928.480
930.853;  140.681;  -11.960;  849.100
931.410;  141.456;  -13.120;  821.120
931.968;  143.732;  -10.770;  940.660
932.525;  143.842;  -10.680;  909.380
933.082;  142.472;  -13.130;  811.440
933.640;  145.581;  -13.210;  925.900
934.197;  144.700;  -11.060;  886.360
934.754;  144.381;   -9.580;  897.780
935.312;  145.635;  -14.000;  863.340
935.869;  147.770;  -10.710; 1012.980
936.426;  146.427;   -9.860;  872.800
936.983;  146.416;   -9.710;  889.020
937.540;  147.255;  -13.990;  838.280
938.097;  152.078;  -14.040;  940.120
938.654;  156.311;  -10.310;  898.860
939.211;  155.897;  -10.560;  952.480
939.768;  156.506;  -13.900;  915.420
940.324;  159.232;  -14.760;  904.200
940.881;  163.097;  -10.370;  878.500
941.438;  166.562;   -8.260; 1021.200
941.995;  165.057;  -12.540;  992.560
942.551;  165.038;  -14.670;  875.620
943.108;  167.411;  -10.450;  937.920
943.664;  167.401;  -10.750;  869.340
944.221;  170.919;  -11.550; 1088.140
944.777;  172.114;  -14.770;  869.680
945.334;  170.259;  -12.820;  884.840
945.890;  164.470;  -10.130;  946.480
946.446;  160.857;  -13.470;  947.020
947.003;  163.118;  -12.120;  964.940
947.559;  163.761;   -9.980; 1063.040
948.115;  159.373;   -9.080; 1026.540
948.671;  156.863;  -10.830;  967.300
949.227;  157.668;  -12.440;  859.560
949.783;  156.964;  -12.910;  858.900
950.339;  161.284;  -10.270;  991.000
950.895;  162.388;  -13.630; 1023.840
951.451;  162.107;  -15.100;  925.280
952.007;  161.523;  -11.330;  998.540
952.563;  156.760;  -10.580;  937.780
953.118;  153.413;  -13.440;  904.940
953.674;  153.021;  -12.710;  935.780
954.230;  157.076;  -10.350;  949.640
954.785;  159.368;   -9.190;  936.640
955.341;  161.492;  -11.200;  998.160
955.897;  156.549;  -16.560;  834.660
956.452;  155.204;  -12.570;  953.840
957.008;  151.998;   -7.970; 1083.640
957.563;  148.047;  -11.940; 1009.540
958.118;  144.898;  -13.450;  877.700
958.674;  142.604;  -12.030;  946.780
959.229;  143.408;   -9.410; 1013.980
959.784;  143.212;  -12.000;  832.400
960.339;  144.765;  -14.780; 1001.280
960.894;  142.716;   -9.860;  963.760
961.449;  138.732;   -9.970;  859.960
962.004;  138.076;  -10.900; 1212.840
962.559;  136.204;  -13.150;  860.140
963.114;  135.943;  -13.740;  742.480
963.669;  135.572;   -9.820;  915.500
964.224;  134.730;  -13.890;  874.340
964.779;  135.473;  -12.600;  828.420
965.334;  133.825;  -10.950; 1017.860
965.888;  124.571;  -11.170;  875.360
966.443;  115.005;  -12.540;  972.380
966.998;  102.546;  -15.780;  819.460
967.552;   97.320;   -9.760;  908.380
968.107;   93.598;   -9.060;  868.300
968.661;   94.985;  -11.950;  922.440
969.216;   98.041;  -12.800;  856.280
969.770;   99.797;  -11.210;  917.200
970.324;  101.735;  -11.610;  923.140
970.879;  104.121;  -11.370;  947.180
971.433;  105.884;  -12.540;  952.720
971.987;  106.603;  -11.320;  895.340
972.541;  105.784;  -10.720;  917.100
973.095;  105.829;   -9.680; 1009.460
973.649;  102.617;  -11.440;  809.480
974.203;  102.130;  -11.210;  829.040
974.757;  101.249;  -10.240;  855.220
975.311;  101.478;  -13.720;  872.600
975.865;  102.055;  -13.770;  881.820
976.419;   99.737;  -11.690;  857.400
976.973;   97.017;   -9.510;  849.620
977.526;   96.334;  -12.620;  949.920
978.080;   95.192;  -12.010;  796.780
978.634;   95.209;  -10.170;  921.320
979.187;   93.936;   -9.020;  905.400
979.741;   95.106;   -9.820; 1018.380
980.294;   93.480;  -14.870;  789.160
980.848;   93.048;  -12.380;  717.220
981.401;   92.896;  -10.350;  816.540
981.955;   91.554;  -13.720;  844.300
982.508;   87.301;  -11.490;  746.340
983.061;   87.999;  -10.000;  915.260
983.615;   86.332;  -11.480;  798.800
984.168;   84.197;  -13.220;  770.080
984.721;   83.510;  -13.960;  880.760
985.274;   83.410;  -10.870;  867.500
985.827;   80.525;   -9.790;  834.220
986.380;   77.789;  -13.120;  721.340
986.933;   78.209;  -12.450;  864.800
987.486;   77.536;  -10.210;  861.920
988.039;   78.022;   -8.430;  863.100
988.591;   76.531;  -10.520;  893.260
989.144;   74.974;  -14.860;  737.260
989.697;   73.792;  -13.080;  758.740
990.250;   73.160;  -10.150;  858.100
990.802;   70.447;  -13.430;  755.860
991.355;   70.833;  -12.750;  974.880
991.907;   68.983;  -12.040;  864.320
992.460;   67.134;  -11.330;  753.760
993.012;   66.409;  -13.610;  749.540
993.565;   64.347;  -13.460;  711.360
994.117;   65.301;   -9.360;  950.780
994.669;   62.630;  -11.300;  701.320
995.221;   61.206;  -13.540;  791.920
995.774;   61.005;  -13.430;  787.580
996.326;   59.397;  -12.520;  740.220
996.878;   58.910;  -10.950;  838.420
997.430;   55.853;  -14.300;  699.860
997.982;   55.469;  -13.760;  750.140
998.534;   55.152;  -11.530;  739.060
999.086;   53.754;  -10.310;  738.220
999.638;   52.786;  -12.530;  661.380
1000.190;   52.274;  -11.840;  699.320
1000.741;   52.161;  -10.260;  742.700
1001.293;   51.357;   -8.860;  686.020
1001.845;   50.207;  -13.700;  676.640
1002.396;   50.624;  -12.100;  743.400
1002.948;   50.032;  -12.760;  737.400
1003.500;   48.126;  -10.380;  723.780
1004.051;   48.342;  -11.900;  907.580
1004.603;   46.882;  -12.250;  791.820
1005.154;   43.817;  -13.210;  608.980
1005.705;   42.293;  -10.950;  723.960
1006.257;   40.968;  -13.880;  707.220
1006.808;   41.102;  -12.840;  685.460
1007.359;   40.602;  -10.570;  763.240
1007.910;   40.145;   -9.620;  646.640
1008.461;   38.812;  -13.630;  732.940
1009.013;   38.673;  -17.200;  588.340
1009.564;   40.497;  -10.200;  793.520
1010.115;   37.117;  -12.570;  597.040
1010.665;   36.963;  -15.150;  602.160
1011.216;   36.988;  -14.480;  667.920
1011.767;   37.142;  -11.340;  697.920
1012.318;   37.435;   -9.780;  736.980
1012.869;   35.046;  -12.380;  679.000
1013.419;   36.286;  -15.560;  603.120
1013.970;   36.386;  -11.010;  666.640
1014.521;   35.632;  -11.610;  620.620
1015.071;   35.524;  -13.450;  670.380
1015.622;   34.474;  -13.870;  635.460
1016.172;   34.765;  -11.610;  596.820
1016.723;   33.765;  -12.120;  614.380
1017.273;   32.848;  -13.620;  604.160
1017.823;   33.466;  -14.140;  650.340
1018.374;   33.565;  -12.800;  611.760
1018.924;   33.080;  -12.340;  716.880
1019.474;   33.622;  -11.410;  718.880
1020.024;   32.492;  -14.770;  657.580
1020.574;   33.853;   -9.780;  726.160
1021.124;   33.194;   -8.560;  673.580
1021.674;   31.131;  -15.190;  559.120
1022.224;   32.436;  -13.530;  708.940
1022.774;   32.581;  -13.280;  668.820
1023.324;   32.180;  -10.690;  753.520
1023.874;   32.896;  -10.240;  875.760
1024.423;   30.727;  -12.540;  613.700
1024.973;   30.363;  -10.010;  610.760
1025.523;   30.349;  -10.550;  620.960
1026.072;   28.770;  -13.560;  606.420
1026.622;   29.833;  -15.120;  675.740
1027.172;   31.115;  -11.260;  715.660
1027.721;   29.175;  -11.410;  601.220
1028.270;   29.590;  -13.530;  663.400
1028.820;   29.872;  -13.680;  638.080
1029.369;   29.129;  -13.520;  612.700
1029.918;   28.792;  -10.980;  649.840
1030.468;   28.259;  -13.530;  564.780
1031.017;   29.295;  -13.170;  634.800
1031.566;   28.319;  -12.200;  608.900
1032.115;   28.702;   -9.960;  694.500
1032.664;   27.046;  -13.210;  596.480
1033.213;   27.947;  -12.500;  735.420
1033.762;   27.260;  -11.910;  635.620
1034.311;   27.704;   -9.640;  677.220
1034.860;   27.226;  -13.310;  691.000
1035.408;   27.214;  -11.830;  722.720
1035.957;   27.875;  -12.000;  719.540
1036.506;   26.101;  -11.690;  530.800
1037.055;   27.508;  -10.990;  844.320
1037.603;   26.452;  -15.120;  664.000
1038.152;   25.028;  -12.450;  534.760
1038.700;   25.739;  -10.560;  585.740
1039.249;   24.927;  -11.080;  681.220
1039.797;   25.154;  -12.540;  633.360
1040.345;   26.278;  -11.920;  705.420
1040.894;   24.744;  -11.410;  625.300
1041.442;   24.293;  -14.320;  632.200
1041.990;   23.885;  -16.240;  559.160
1042.538;   24.464;  -11.680;  536.180
1043.087;   23.589;  -10.760;  570.860
1043.635;   24.526;  -11.850;  670.500
1044.183;   23.728;  -15.480;  586.400
1044.731;   23.898;  -11.770;  576.000
1045.279;   24.183;  -13.090;  674.920
1045.827;   24.227;  -12.440;  892.400
1046.374;   22.465;  -13.840;  515.420
1046.922;   23.280;  -13.220;  590.580
1047.470;   23.747;  -10.230;  691.300
1048.018;   22.668;  -14.590;  647.960
1048.565;   24.008;  -12.050;  708.600
1049.113;   22.525;  -11.650;  557.000
1049.660;   21.992;  -10.510;  629.660
1050.208;   21.876;  -13.310;  675.640
1050.755;   21.118;  -15.900;  606.580
1051.303;   22.588;  -11.430;  686.820
1051.850;   21.661;   -8.480;  635.120
1052.397;   19.226;  -15.010;  473.960
1052.945;   21.182;  -13.960;  617.760
1053.492;   23.104;  -13.150;  741.840
1054.039;   22.040;   -9.630;  720.180
1054.586;   20.541;  -13.680;  557.240
1055.133;   21.563;  -14.570;  693.140
1055.680;   21.810;  -13.820;  646.620
1056.227;   20.307;  -11.730;  542.780
1056.774;   21.614;  -12.480;  794.980
1057.321;   19.140;  -13.930;  523.260
1057.868;   20.092;  -11.690;  651.320
1058.415;   19.848;   -9.520;  651.980
1058.961;   20.098;  -13.160;  678.940
1059.508;   19.997;  -12.920;  643.820
1060.055;   20.050;  -11.920;  581.780
1060.601;   19.707;  -11.500;  624.300
1061.148;   18.505;  -14.330;  616.820
1061.694;   18.369;  -16.870;  592.580
1062.241;   19.323;  -10.330;  596.320
1062.787;   19.280;  -10.620;  663.140
1063.334;   19.599;  -10.110;  808.560
1063.880;   18.440;  -13.400;  668.360
1064.426;   19.677;  -10.680;  706.820
1064.972;   18.261;   -9.920;  601.340
1065.518;   16.546;  -10.980;  566.640
1066.065;   18.087;  -14.890;  624.460
1066.611;   18.042;  -12.870;  598.800
1067.157;   18.426;  -12.950;  641.860
1067.703;   17.345;  -13.540;  668.480
1068.249;   17.013;  -13.540;  605.220
1068.794;   17.704;  -12.600;  626.880
1069.340;   15.993;  -10.620;  578.960
1069.886;   16.754;  -12.830;  590.700
1070.432;   16.139;  -14.870;  541.720
1070.977;   16.675;  -11.980;  601.080
1071.523;   15.872;   -8.200;  573.060
1072.068;   16.275;  -12.330;  582.000
1072.614;   15.574;  -16.370;  527.760
1073.160;   17.179;  -11.100;  687.040
1073.705;   15.414;  -10.480;  572.520
1074.250;   14.917;  -14.520;  559.900
1074.796;   16.268;  -11.460;  655.160
1075.341;   16.349;  -11.950;  664.100
1075.886;   15.372;  -11.460;  594.240
1076.431;   14.468;  -13.770;  649.880
1076.976;   14.421;  -12.680;  639.220
1077.521;   15.243;  -13.170;  583.080
1078.067;   14.387;  -10.860;  579.400
1078.612;   15.214;  -13.920;  661.620
1079.156;   14.451;  -13.880;  601.540
1079.701;   15.385;  -13.120;  693.260
1080.246;   14.526;   -9.940;  696.300
1080.791;   14.037;  -14.740;  625.020
1081.336;   14.313;  -13.750;  659.320
1081.880;   14.156;  -13.400;  649.680
1082.425;   13.260;  -12.220;  573.480
1082.970;   14.831;  -11.610;  717.040
1083.514;   13.771;  -13.580;  597.000
1084.059;   13.013;  -12.810;  586.720
1084.603;   12.608;  -12.320;  565.840
1085.147;   13.472;  -13.190;  645.220
1085.692;   14.022;  -12.480;  716.800
1086.236;   12.930;  -13.020;  503.140
1086.780;   14.446;   -9.190;  751.440
1087.325;   12.730;  -12.480;  654.620
1087.869;   12.020;  -12.450;  610.700
1088.413;   13.559;  -12.240;  705.040
1088.957;   11.231;   -9.020;  543.400
1089.501;   13.312;  -10.320;  766.640
1090.045;   12.806;  -12.720;  726.480
1090.589;   11.698;  -13.690;  569.920
1091.133;   12.303;  -10.020;  673.340
1091.676;   11.907;  -12.330;  591.940
1092.220;   11.985;  -14.970;  600.920
1092.764;   12.783;  -12.430;  706.960
1093.307;   12.061;   -9.800;  673.780
1093.851;    9.887;  -14.970;  556.540
1094.395;   11.156;  -15.310;  683.140
1094.938;   11.153;  -10.370;  632.520
1095.482;   11.154;  -11.050;  559.800
1096.025;   11.384;  -11.840;  710.880
1096.568;   11.996;  -12.840;  779.280
1097.112;   10.250;  -14.700;  508.180
1097.655;   10.976;   -8.720;  603.000
1098.198;    9.295;  -13.610;  600.180
1098.741;    9.543;  -13.350;  612.860
1099.285;   10.685;  -11.230;  657.300
1099.828;    8.721;  -11.840;  439.400
1100.371;    9.536;  -10.840;  608.160
1100.914;    9.626;  -14.190;  682.660
1101.457;   10.041;  -11.240;  679.900
1101.999;    8.758;  -11.270;  584.680
1102.542;    9.096;  -11.480;  641.440
1103.085;    9.628;  -11.750;  658.500
1103.628;   10.462;  -11.400;  762.060
1104.170;    9.166;  -10.490;  588.280
1104.713;    8.421;  -10.600;  646.700
1105.256;    8.441;  -14.360;  557.440
1105.798;    8.665;  -13.210;  499.980
1106.341;   10.112;  -10.270;  728.900
1106.883;    7.249;  -12.200;  521.340
1107.425;    8.388;  -13.110;  668.180
1107.968;    8.845;  -12.840;  612.380
1108.510;    8.732;   -6.480;  684.960
1109.052;    7.083;  -13.940;  612.620
1109.594;    8.063;  -13.690;  554.440
1110.136;    9.018;  -11.880;  643.220
1110.679;    7.338;   -9.500;  633.080
1111.221;    7.650;  -14.160;  604.460
1111.763;    6.627;  -13.980;  559.220
1112.304;    7.452;  -13.880;  547.140
1112.846;    7.718;  -12.210;  666.240
1113.388;    9.755;  -11.390;  942.180
1113.930;    7.431;  -14.540;  694.200
1114.472;    6.985;  -12.640;  606.540
1115.013;    5.490;  -11.620;  551.280
1115.555;    6.155;  -13.640;  587.100
1116.097;    5.697;  -15.380;  579.480
1116.638;    7.850;  -12.640;  684.600
1117.180;    7.264;   -9.850;  667.740
1117.721;    6.166;  -13.690;  568.580
1118.262;    6.854;  -12.680;  677.960
1118.804;    8.367;  -12.530;  637.340
1119.345;    5.610;  -11.690;  578.400
1119.886;    6.224;  -13.380;  704.040
1120.427;    5.844;  -14.070;  589.020
1120.969;    5.732;  -13.500;  597.920
1121.510;    5.967;  -11.480;  563.060
1122.051;    5.545;  -12.830;  723.580
1122.592;    5.406;  -14.290;  655.420
1123.133;    5.562;  -12.400;  547.940
1123.673;    6.110;  -10.130;  706.480
1124.214;    5.173;  -12.930;  612.460
1124.755;    5.583;  -14.380;  639.460
1125.296;    5.919;  -14.000;  627.320
1125.836;    5.962;  -10.070;  691.500
1126.377;    4.250;  -12.640;  599.660
1126.918;    5.184;  -12.960;  614.980
1127.458;    5.073;  -13.350;  622.220
1127.999;    4.913;  -10.750;  656.980
1128.539;    4.355;  -12.350;  694.240
1129.079;    4.260;  -14.860;  632.720
1129.620;    4.724;  -13.840;  558.100
1130.160;    4.225;  -12.330;  539.480
1130.700;    4.294;  -14.530;  640.840
1131.240;    5.051;  -12.530;  643.700
1131.781;    4.685;  -14.450;  619.680
1132.321;    4.406;   -9.790;  599.120
1132.861;    2.693;  -14.860;  564.200
1133.401;    3.080;  -14.290;  593.940
1133.941;    4.294;  -11.750;  626.280
1134.481;    2.543;   -9.920;  597.580
1135.020;    2.580;  -12.290;  609.160
1135.560;    3.268;  -11.650;  674.940
1136.100;    3.428;  -16.270;  501.160
1136.640;    2.842;  -10.890;  510.480
1137.179;    1.728;  -14.180;  537.960
1137.719;    3.126;  -16.250;  605.400
1138.258;    3.174;  -14.230;  587.360
1138.798;    3.792;   -9.090;  663.780
1139.337;    1.280;  -15.130;  482.840
1139.877;    2.674;  -13.680;  642.360
1140.416;    4.716;  -11.320;  878.060
1140.955;    2.064;  -10.860;  535.380
1141.494;    1.896;  -12.920;  669.280
1142.034;    1.993;  -13.930;  583.520
1142.573;    3.231;  -11.440;  646.280
1143.112;    2.508;  -12.000;  553.480
1143.651;    1.659;  -13.670;  536.480
1144.190;    2.299;  -12.730;  691.640
1144.729;    2.093;  -14.560;  607.420
1145.267;    1.492;  -11.830;  584.900
1145.806;    1.951;  -12.230;  637.040
1146.345;    0.939;  -14.130;  635.020
1146.884;    1.629;  -11.590;  622.500
1147.422;    1.413;  -12.550;  533.060
1147.961;    1.830;  -11.180;  708.460
1148.500;    2.795;  -11.510;  669.720
1149.038;    3.013;  -11.640;  632.500
1149.577;    2.117;  -10.130;  698.640
1150.115;   -1.073;  -13.970;  452.280
1150.653;    1.309;  -14.520;  607.340
1151.192;    1.413;  -12.810;  552.920
1151.730;    1.725;   -9.100;  652.560
1152.268;    0.351;  -12.220;  589.520
1152.806;   -0.157;  -14.140;  571.180
1153.344;   -0.101;  -12.350;  577.640
1153.882;    0.998;   -8.980;  600.060
1154.421;   -0.448;  -15.190;  470.620
1154.958;    0.461;  -15.210;  595.240
1155.496;    1.803;  -12.850;  645.280
1156.034;    1.039;   -9.940;  721.880
1156.572;    0.702;  -13.570;  667.060
1157.110;   -0.042;  -14.590;  473.940
1157.647;    1.125;  -13.030;  676.960
1158.185;   -0.157;  -12.140;  564.320
1158.723;   -2.084;  -14.390;  509.200
1159.260;    0.243;  -14.090;  701.700
1159.798;    0.906;  -11.920;  658.160
1160.335;   -0.675;  -11.110;  631.820

