
Integration time [ms]:   3.276
Averaging Nr. [scans]: 1000
Smoothing Nr. [pixels]: 0
Data measured with spectrometer [name]: 7414430SP
Wave   ;Sample   ;Dark     ;Reference
[nm]   ;[counts] ;[counts] ;[counts] 

288.544;  150.814;    7.793;  793.890
289.143;  154.755;    7.462;  681.602
289.742;  154.990;    8.602;  828.814
290.341;  140.762;    1.321;  789.841
290.940;  129.878;   -0.709;  730.702
291.538;  130.372;    0.881;  881.108
292.137;  131.096;    0.122;  792.581
292.736;  136.414;   -1.929;  975.101
293.335;  132.038;   -8.229;  735.086
293.934;  132.082;   -5.279;  781.677
294.532;  131.384;   -1.369; 1031.958
295.131;  117.057;   -7.641;  834.394
295.730;  117.368;   -8.420;  809.588
296.328;  116.216;   -5.611;  783.442
296.927;  116.870;   -5.781;  779.652
297.525;  118.663;   -6.361;  781.236
298.124;  107.557;  -11.382;  654.009
298.722;  111.613;   -7.641;  761.933
299.321;  110.668;   -6.811;  708.597
299.919;  108.066;   -6.991;  751.918
300.518;  104.426;  -10.362;  689.338
301.116;  106.189;   -9.581;  691.381
301.715;  105.997;   -4.891;  730.222
302.313;  105.203;   -8.801;  704.943
302.911;  101.005;   -8.522;  733.830
303.509;  105.935;   -6.171;  925.627
304.108;  103.720;   -7.311;  760.383
304.706;  103.291;   -8.321;  801.664
305.304;   97.369;  -10.222;  796.707
305.902;  103.400;   -6.021;  784.484
306.500;   97.900;   -4.971;  728.200
307.098;   96.657;   -7.061;  746.560
307.696;   95.081;   -8.801;  780.432
308.294;   95.240;   -6.411;  731.359
308.892;   97.707;   -2.901;  759.769
309.490;   93.781;   -5.041;  712.161
310.088;   92.216;   -5.002;  788.444
310.686;   95.076;   -2.041;  821.749
311.284;   91.794;   -2.351;  766.040
311.882;   89.522;   -4.422;  731.225
312.480;   86.712;   -4.192;  697.167
313.078;   88.117;   -1.172;  808.331
313.675;   88.788;   -2.601;  691.600
314.273;   84.582;   -1.312;  797.837
314.871;   83.123;   -3.942;  589.829
315.468;   80.910;   -2.802;  652.090
316.066;   84.337;   -0.701;  694.427
316.664;   76.689;   -4.362;  656.351
317.261;   80.826;   -2.872;  910.128
317.859;   76.075;   -2.022;  768.735
318.456;   76.995;   -0.531;  830.096
319.054;   73.357;   -3.912;  787.828
319.651;   72.404;   -4.752;  759.928
320.249;   69.751;   -2.602;  810.188
320.846;   68.098;   -0.821;  714.286
321.443;   66.933;   -4.642;  832.135
322.041;   62.714;   -5.002;  812.315
322.638;   59.837;   -3.982;  701.456
323.235;   61.925;   -3.411;  665.683
323.833;   59.442;   -7.361;  740.354
324.430;   53.879;   -8.611;  615.900
325.027;   54.672;   -4.061;  876.855
325.624;   54.481;   -4.031;  644.532
326.221;   52.600;   -7.481;  689.717
326.818;   51.326;   -5.281;  818.332
327.415;   54.256;   -7.460;  748.828
328.012;   54.462;   -5.510;  690.585
328.609;   53.125;   -7.880;  731.389
329.206;   51.332;   -8.331;  778.621
329.803;   51.145;   -5.121;  737.841
330.400;   53.539;   -4.510;  704.260
330.997;   55.684;   -6.441;  817.147
331.594;   53.307;   -8.831;  788.185
332.191;   58.405;   -7.621;  728.722
332.787;   61.504;   -4.591;  844.463
333.384;   60.504;   -7.412;  763.093
333.981;   58.761;   -8.293;  815.687
334.578;   61.873;   -7.052;  708.378
335.174;   64.194;   -3.102;  731.469
335.771;   64.092;   -5.943;  836.456
336.367;   61.289;   -7.393;  710.631
336.964;   65.337;   -4.063;  793.266
337.561;   62.583;   -3.813;  731.112
338.157;   59.438;   -4.654;  911.916
338.754;   56.271;   -7.934;  796.589
339.350;   53.777;   -4.414;  722.493
339.946;   56.761;   -4.664;  773.135
340.543;   49.244;   -6.375;  846.136
341.139;   43.446;   -9.815;  720.836
341.735;   40.467;   -4.526;  772.593
342.332;   39.454;   -4.895;  691.472
342.928;   40.001;   -4.295;  795.394
343.524;   33.885;   -5.476;  761.684
344.120;   29.433;   -5.856;  738.562
344.716;   33.279;   -2.155;  723.717
345.313;   32.116;   -6.275;  795.342
345.909;   26.061;   -8.815;  627.336
346.505;   27.850;   -5.305;  740.247
347.101;   27.434;   -2.674;  827.864
347.697;   27.832;   -4.344;  785.398
348.293;   23.368;   -9.975;  627.244
348.889;   23.957;   -5.774;  745.914
349.485;   23.258;   -5.004;  688.205
350.081;   23.558;   -4.704;  772.592
350.676;   18.844;   -6.635;  691.606
351.272;   22.938;   -4.504;  809.530
351.868;   22.644;   -3.914;  780.497
352.464;   20.160;   -9.044;  723.932
353.059;   16.666;   -8.314;  646.017
353.655;   19.582;   -7.024;  777.063
354.251;   20.780;   -5.343;  759.845
354.846;   15.678;   -8.604;  740.646
355.442;   12.906;   -6.945;  753.071
356.038;   14.266;   -7.564;  751.708
356.633;   15.006;   -5.814;  728.594
357.229;   13.189;   -7.364;  724.757
357.824;   11.146;   -8.024;  703.600
358.420;   10.243;   -9.384;  679.726
359.015;   11.621;   -5.104;  695.357
359.610;   11.782;   -6.854;  763.920
360.206;    4.817;  -10.185;  603.240
360.801;    8.413;   -7.054;  646.503
361.396;   11.317;   -5.034;  725.975
361.992;    6.648;   -8.284;  668.220
362.587;    3.521;   -8.625;  670.160
363.182;    5.456;   -7.674;  689.631
363.777;    6.591;   -5.164;  738.242
364.372;    6.668;   -8.604;  737.314
364.967;    2.475;   -9.055;  680.744
365.563;    6.343;   -6.114;  815.567
366.158;    4.147;   -5.814;  685.161
366.753;    3.508;   -7.854;  649.263
367.348;    2.277;   -7.804;  746.056
367.942;    1.880;   -7.954;  697.298
368.537;    1.047;   -4.984;  754.245
369.132;    1.826;   -8.564;  703.428
369.727;   -2.202;   -8.855;  638.079
370.322;   -1.212;   -6.245;  580.186
370.917;   -1.704;   -6.425;  710.646
371.511;    1.379;   -6.294;  861.834
372.106;   -1.798;   -7.685;  776.964
372.701;   -5.806;   -7.335;  585.988
373.296;    0.200;   -4.564;  863.135
373.890;   -4.338;  -10.235;  647.840
374.485;   -6.871;   -7.885;  691.199
375.079;   -3.600;   -7.324;  738.685
375.674;   -0.703;   -3.494;  812.970
376.268;   -5.685;   -8.525;  691.759
376.863;  -11.388;  -10.086;  580.327
377.457;   -5.863;   -7.025;  662.490
378.052;   -6.981;   -3.585;  764.884
378.646;   -7.656;   -7.595;  741.167
379.240;   -8.582;   -8.335;  721.176
379.835;   -7.125;   -5.785;  636.978
380.429;   -9.513;   -4.335;  562.557
381.023;   -9.070;   -6.805;  779.205
381.617;  -11.874;   -9.195;  680.106
382.212;   -8.513;   -6.905;  685.303
382.806;   -7.554;   -3.745;  760.690
383.400;  -11.461;   -7.745;  672.281
383.994;  -12.204;   -9.765;  664.870
384.588;   -9.171;   -6.564;  697.701
385.182;   -8.301;   -5.344;  726.624
385.776;   -9.241;   -8.514;  706.875
386.370;  -11.598;   -9.555;  681.968
386.964;  -11.551;   -8.715;  684.155
387.558;  -10.073;   -6.174;  598.360
388.152;  -13.664;   -8.725;  681.959
388.745;  -11.119;   -7.965;  814.707
389.339;   -9.417;   -5.924;  747.642
389.933;   -8.709;   -5.524;  695.370
390.527;   -9.587;   -7.114;  859.029
391.120;  -15.786;  -10.725;  595.318
391.714;  -12.986;   -8.035;  711.633
392.308;   -9.864;   -3.574;  780.253
392.901;  -13.170;   -7.245;  642.460
393.495;  -15.483;   -9.285;  595.414
394.089;  -13.410;   -5.895;  760.452
394.682;  -14.219;   -4.295;  697.188
395.275;  -14.540;   -9.875;  719.927
395.869;  -16.029;   -8.485;  667.314
396.462;  -14.104;   -7.455;  616.609
397.056;  -10.139;   -5.424;  776.621
397.649;  -14.896;   -6.605;  731.575
398.242;  -12.913;   -8.224;  712.645
398.836;  -11.481;   -7.474;  766.408
399.429;  -12.849;   -7.094;  631.041
400.022;  -15.772;   -9.475;  665.902
400.615;  -13.790;   -7.145;  805.609
401.208;  -11.854;   -7.174;  691.451
401.802;  -13.635;   -5.515;  699.329
402.395;  -15.087;   -9.875;  683.502
402.988;  -15.869;   -8.845;  696.627
403.581;  -12.942;   -8.874;  646.878
404.174;  -10.848;   -5.324;  686.568
404.767;  -13.708;   -9.575;  638.583
405.360;  -16.475;  -10.965;  621.445
405.953;  -10.670;   -8.764;  759.034
406.545;  -10.407;   -7.514;  725.342
407.138;  -14.491;  -10.025;  618.350
407.731;  -13.034;  -10.034;  613.303
408.324;   -9.026;   -9.374;  660.554
408.917;  -10.416;   -6.534;  681.864
409.509;  -11.976;   -8.004;  740.396
410.102;  -13.400;   -9.875;  643.948
410.695;   -7.916;   -8.604;  665.758
411.287;   -9.062;   -6.794;  599.821
411.880;  -10.195;   -9.334;  585.421
412.472;  -13.535;  -10.254;  613.092
413.065;  -11.119;   -6.714;  629.408
413.657;   -8.327;   -7.234;  576.678
414.250;   -7.861;  -10.544;  646.681
414.842;   -9.926;   -9.744;  676.353
415.434;   -8.827;   -6.994;  570.463
416.027;   -3.326;   -5.893;  652.196
416.619;   -5.541;   -7.264;  713.400
417.211;   -6.531;  -10.374;  599.352
417.804;   -3.273;   -7.993;  628.499
418.396;   -6.714;   -7.234;  607.643
418.988;   -4.562;   -9.443;  659.238
419.580;   -7.698;  -10.724;  568.276
420.172;   -5.510;  -10.323;  536.196
420.764;   -1.688;   -8.793;  672.482
421.356;   -2.661;  -11.143;  636.898
421.948;   -2.921;   -8.293;  677.661
422.540;    2.040;   -7.893;  680.027
423.132;    0.531;   -7.082;  600.641
423.724;   -2.412;   -8.653;  561.267
424.316;   -0.766;  -10.213;  621.345
424.908;    2.790;   -9.762;  591.517
425.500;    3.571;   -5.572;  647.978
426.092;    2.851;   -8.422;  648.268
426.683;    3.189;   -9.283;  684.836
427.275;    5.610;   -7.852;  641.471
427.867;    7.387;   -5.272;  668.948
428.458;    8.565;   -7.682;  732.344
429.050;    6.714;  -10.612;  680.749
429.642;    8.799;   -9.882;  743.124
430.233;    9.022;   -6.962;  569.356
430.825;   10.539;   -6.842;  724.809
431.416;    8.279;   -9.672;  698.241
432.008;   10.995;   -6.552;  651.723
432.599;   12.009;   -6.891;  656.073
433.190;    9.035;  -10.912;  637.670
433.782;    7.782;  -11.172;  590.395
434.373;   15.286;   -6.061;  884.765
434.964;   14.159;   -8.251;  602.920
435.556;   11.973;   -9.722;  634.537
436.147;   14.889;   -9.082;  758.490
436.738;   14.854;   -8.041;  701.099
437.329;   20.672;   -7.341;  721.723
437.920;   13.580;   -8.162;  666.688
438.511;   13.201;  -11.802;  564.526
439.103;   19.884;  -10.191;  623.998
439.694;   21.813;   -7.601;  681.583
440.285;   22.537;   -8.541;  764.432
440.876;   20.316;   -9.751;  845.738
441.466;   19.891;   -9.401;  575.162
442.057;   24.912;   -7.760;  665.814
442.648;   24.175;   -9.971;  746.255
443.239;   22.062;  -11.001;  620.477
443.830;   26.676;   -7.990;  704.958
444.421;   28.589;   -7.910;  655.474
445.011;   25.187;   -8.131;  693.619
445.602;   25.277;   -7.111;  743.126
446.193;   26.409;  -10.920;  488.117
446.783;   31.404;   -6.500;  640.397
447.374;   27.388;   -8.671;  692.759
447.964;   26.803;  -10.781;  713.770
448.555;   35.913;   -9.650;  822.742
449.145;   32.271;   -8.660;  662.853
449.736;   33.613;   -8.990;  803.179
450.326;   32.911;   -9.500;  713.626
450.917;   37.562;   -8.680;  675.324
451.507;   37.113;   -7.520;  600.661
452.097;   37.974;   -8.590;  746.267
452.688;   38.677;  -11.340;  742.160
453.278;   38.146;  -10.100;  566.840
453.868;   43.292;   -6.019;  793.550
454.458;   40.182;   -9.440;  651.141
455.048;   40.594;  -10.560;  711.783
455.639;   42.057;  -11.799;  567.096
456.229;   45.653;   -6.899;  710.694
456.819;   48.159;   -7.389;  751.158
457.409;   48.164;  -11.119;  773.993
457.999;   50.829;   -9.289;  737.505
458.589;   50.972;   -6.139;  686.606
459.179;   50.695;   -8.729;  717.658
459.769;   49.469;   -9.789;  627.099
460.358;   53.170;  -10.259;  797.262
460.948;   54.124;   -7.299;  689.503
461.538;   55.077;  -10.289;  660.677
462.128;   53.054;  -11.269;  664.934
462.717;   59.896;   -9.368;  710.326
463.307;   63.187;   -7.908;  705.846
463.897;   58.771;   -9.599;  656.942
464.486;   57.400;   -9.769;  837.128
465.076;   62.498;   -8.048;  733.776
465.666;   66.024;   -9.358;  652.900
466.255;   63.722;   -7.919;  785.651
466.845;   62.771;  -11.689;  666.749
467.434;   65.623;   -7.818;  725.873
468.023;   67.414;   -7.678;  658.357
468.613;   64.830;  -10.939;  713.946
469.202;   68.777;  -10.118;  646.507
469.791;   72.868;   -9.108;  737.811
470.381;   75.223;   -6.058;  742.813
470.970;   75.246;  -10.428;  711.099
471.559;   74.019;  -10.268;  733.291
472.148;   77.536;   -8.448;  675.737
472.738;   80.278;   -6.917;  765.466
473.327;   80.133;  -11.978;  637.529
473.916;   78.911;  -11.888;  737.446
474.505;   82.758;   -9.437;  751.703
475.094;   86.733;   -6.747;  806.570
475.683;   85.924;   -9.367;  797.699
476.272;   86.672;  -12.637;  730.632
476.861;   89.030;  -10.027;  706.754
477.449;   95.128;   -8.716;  728.487
478.038;   89.967;   -9.577;  692.513
478.627;   91.562;   -9.718;  714.852
479.216;   97.554;   -8.947;  769.441
479.805;  101.019;   -6.256;  783.375
480.393;  100.513;   -7.937; 1008.945
480.982;   99.732;   -7.717;  874.501
481.571;  106.197;   -9.266;  858.333
482.159;  106.652;   -7.636;  705.386
482.748;  107.106;   -9.667;  821.385
483.336;  110.697;  -10.376;  858.209
483.925;  111.829;   -7.147;  774.373
484.513;  119.209;   -7.996;  758.962
485.102;  115.982;  -10.027;  810.965
485.690;  123.384;  -10.446; 1011.050
486.278;  125.835;   -8.446;  979.329
486.867;  126.738;   -6.356;  809.662
487.455;  128.440;   -9.136;  898.229
488.043;  129.680;  -10.646;  748.361
488.631;  138.472;   -7.456; 1005.079
489.220;  142.277;   -6.636;  908.626
489.808;  142.643;  -11.036;  741.415
490.396;  150.020;  -10.246;  914.645
490.984;  155.789;   -8.556;  830.161
491.572;  166.445;   -5.886;  940.315
492.160;  171.744;   -9.486;  919.081
492.748;  183.496;  -10.976;  884.341
493.336;  206.485;   -8.776; 1019.693
493.924;  232.359;   -5.465;  958.077
494.512;  261.310;   -9.986; 1066.638
495.100;  299.007;  -10.636; 1103.280
495.687;  353.349;  -10.885; 1206.373
496.275;  413.463;   -8.126; 1150.796
496.863;  479.582;  -10.586; 1281.171
497.451;  578.216;  -11.926; 1386.805
498.038;  722.862;  -10.885; 1556.729
498.626;  842.015;   -6.315; 1741.407
499.214;  986.552;   -7.326; 2016.609
499.801; 1189.191;  -11.906; 2220.633
500.389; 1443.362;  -10.466; 2312.494
500.976; 1794.579;   -5.236; 2744.849
501.564; 2208.271;   -8.936; 3148.565
502.151; 2577.314;  -13.176; 3515.999
502.738; 3056.669;  -10.646; 3971.274
503.326; 3450.704;   -9.525; 4403.796
503.913; 3892.795;  -10.856; 5161.749
504.500; 4243.325;  -11.586; 5986.420
505.088; 4663.451;  -10.336; 6381.201
505.675; 5217.132;   -6.355; 6925.547
506.262; 5818.814;   -9.046; 7619.060
506.849; 6565.282;  -10.416; 8733.969
507.436; 7056.036;  -10.305; 9790.121
508.023; 7472.930;   -5.496; 9985.472
508.610; 7739.214;   -7.856;10434.618
509.197; 8506.213;  -10.097;11198.435
509.784;10038.655;  -10.886;12391.194
510.371;11225.854;   -9.315;13603.713
510.958;11947.164;   -9.936;14426.586
511.545;12513.796;   -9.326;15243.775
512.132;13018.139;  -10.075;15945.876
512.719;13554.390;   -7.796;16340.369
513.305;14907.438;  -10.606;18011.766
513.892;15864.366;  -11.486;19754.971
514.479;17324.678;   -9.126;20967.805
515.066;18574.512;   -6.026;22299.793
515.652;19531.150;   -8.466;22908.660
516.239;20734.342;  -10.886;23798.875
516.825;21184.793;  -11.496;25567.275
517.412;22121.299;   -5.796;28154.959
517.998;23154.492;  -10.506;28344.111
518.585;23193.959;  -10.076;27134.219
519.171;23189.545;   -8.315;27268.576
519.758;24668.182;   -8.596;28964.129
520.344;26223.426;   -8.466;30664.494
520.930;26072.955;  -11.006;32550.605
521.516;27736.205;  -10.495;35422.895
522.103;30371.992;   -5.526;38280.004
522.689;31076.762;   -8.746;37835.117
523.275;29963.848;  -11.376;37288.613
523.861;30303.418;  -11.156;37281.395
524.447;31880.660;   -8.135;37846.949
525.033;31580.465;   -7.896;38321.949
525.619;30962.447;  -12.476;38579.285
526.205;30110.684;   -9.516;40622.875
526.791;30167.521;   -6.926;42258.836
527.377;30982.949;   -8.346;42966.902
527.963;35838.418;   -8.717;42018.949
528.549;37826.531;  -11.016;42476.828
529.135;36918.586;   -8.536;41854.852
529.721;36519.543;   -9.666;41237.711
530.306;35834.875;  -10.066;41259.445
530.892;35896.094;  -11.356;41506.047
531.478;36835.430;   -6.596;43559.613
532.063;39008.535;   -8.836;47695.563
532.649;39404.105;  -10.047;50808.324
533.235;40887.508;   -9.746;51787.500
533.820;41993.895;   -6.566;52145.035
534.406;41770.707;  -10.817;51133.488
534.991;40842.492;   -9.416;49996.805
535.576;39576.363;   -9.036;48882.852
536.162;39996.840;   -6.156;46942.285
536.747;40566.918;  -11.607;45711.746
537.333;43111.480;  -11.787;48510.180
537.918;44934.137;  -12.437;50439.891
538.503;42764.551;   -7.196;50863.711
539.088;38410.230;  -10.556;50906.922
539.673;36327.203;   -8.767;52621.965
540.259;35017.109;  -10.026;52368.094
540.844;34392.270;   -7.416;50879.109
541.429;38741.535;   -9.467;52077.777
542.014;45318.195;   -9.527;52716.695
542.599;47544.492;   -9.946;52363.281
543.184;44417.352;   -7.927;53187.137
543.769;44998.672;   -9.297;54697.605
544.354;45317.102;  -10.127;53913.914
544.938;44599.258;   -9.267;49680.164
545.523;46821.340;   -6.506;47386.277
546.108;48651.906;   -9.787;49151.949
546.693;50347.617;  -11.587;51384.637
547.278;50229.023;  -10.986;51853.254
547.862;47095.145;   -8.206;51173.750
548.447;42805.563;  -10.067;51691.395
549.031;41837.883;   -9.637;52456.703
549.616;46331.914;   -9.926;52714.516
550.201;46486.395;   -6.347;52414.598
550.785;46461.641;   -7.917;52355.059
551.370;46172.789;  -10.867;54589.453
551.954;46367.551;   -9.047;58267.348
552.538;47891.488;   -7.827;59062.176
553.123;46856.949;  -10.287;58115.285
553.707;44555.281;  -12.178;56556.285
554.291;44612.988;   -8.717;56201.668
554.876;44977.273;   -7.457;55335.762
555.460;45646.133;  -10.387;54155.703
556.044;48200.215;   -9.618;53721.484
556.628;46341.676;  -11.567;53731.016
557.212;45688.516;   -8.097;54312.531
557.796;44074.199;  -11.077;53797.773
558.380;44503.902;  -11.108;56145.984
558.964;44710.805;   -9.057;57277.930
559.548;45155.184;   -6.977;56459.641
560.132;43313.840;  -11.457;54434.543
560.716;42358.801;  -11.378;54800.617
561.300;42447.477;   -9.577;57606.945
561.884;43912.691;   -7.127;58972.445
562.467;43509.512;   -7.118;57327.570
563.051;42658.801;  -13.358;54962.434
563.635;43032.254;  -10.178;52594.473
564.219;44204.781;   -7.837;50610.410
564.802;45162.602;  -11.398;49551.180
565.386;45237.137;  -12.788;48370.953
565.969;44700.227;   -9.077;48178.871
566.553;43997.328;   -6.207;49957.305
567.136;44280.793;   -8.568;50369.594
567.720;40564.895;  -11.868;49492.004
568.303;38738.555;   -8.268;50616.352
568.887;38757.227;   -8.698;50727.148
569.470;39239.926;   -6.808;51698.379
570.053;37972.059;  -13.188;52122.078
570.637;36651.660;  -12.037;52536.438
571.220;36285.520;   -8.577;51186.098
571.803;36581.340;   -8.498;51032.762
572.386;38582.410;  -10.498;49609.887
572.969;41583.188;   -9.388;48285.926
573.552;40501.551;   -8.338;47624.285
574.135;39596.984;   -8.518;45498.641
574.718;36316.414;  -13.628;41970.434
575.301;35128.164;  -10.893;41447.137
575.884;33939.914;   -8.158;40923.836
576.467;34384.355;  -10.328;45267.723
577.050;37257.355;  -13.058;48175.543
577.633;39062.012;   -9.458;47729.328
578.216;38057.328;   -8.928;47579.793
578.799;37069.199;   -9.358;47820.996
579.381;35484.883;  -11.388;48115.551
579.964;33708.359;  -11.718;47333.766
580.547;34711.188;   -8.588;46668.969
581.129;34875.477;   -8.859;44466.141
581.712;35031.023;  -10.729;44164.922
582.294;35705.961;  -11.118;46477.855
582.877;36882.965;   -5.218;48244.254
583.459;35648.152;   -8.679;47437.895
584.042;33794.602;  -10.709;46943.219
584.624;33778.398;  -11.669;46792.227
585.206;32623.500;   -8.218;46557.250
585.789;33339.227;  -10.569;45793.773
586.371;36596.367;  -11.859;43836.391
586.953;36857.762;  -10.719;42972.492
587.536;37370.941;   -7.198;42487.211
588.118;37783.570;   -8.720;42086.414
588.700;34693.094;  -10.439;43389.930
589.282;33632.496;   -9.198;43646.039
589.864;33726.797;   -9.199;43438.109
590.446;35259.707;  -11.319;43151.926
591.028;35064.852;  -11.159;42781.867
591.610;34324.340;  -11.779;42839.098
592.192;31398.678;   -7.668;42820.402
592.774;29794.205;  -11.949;40724.277
593.356;28882.633;  -12.129;39874.789
593.937;28511.016;  -10.669;39980.648
594.519;30550.635;   -6.509;42069.633
595.101;32478.727;  -10.849;42976.031
595.683;32819.023;  -11.679;44084.441
596.264;34048.035;   -9.049;43478.797
596.846;32862.969;   -8.849;43803.672
597.427;31741.355;   -9.570;42986.934
598.009;33410.043;  -12.620;42832.219
598.591;34031.758;  -10.039;42580.086
599.172;33802.598;  -10.369;43061.805
599.753;33916.832;   -9.140;41691.469
600.335;35070.016;  -11.430;40692.520
600.916;33361.387;   -9.939;39982.422
601.498;31611.295;   -8.479;40318.617
602.079;30416.088;  -10.920;40670.609
602.660;30078.367;  -11.480;41450.898
603.241;30542.443;  -11.699;41137.738
603.823;29084.354;   -9.579;38868.797
604.404;29554.557;  -10.620;38182.785
604.985;31104.750;  -10.450;38078.047
605.566;30304.859;   -9.129;38056.633
606.147;29754.100;   -7.510;37020.418
606.728;32342.055;  -10.660;37883.359
607.309;31785.320;  -11.740;38748.273
607.890;30929.148;   -9.759;38850.230
608.471;30398.557;   -8.250;37457.918
609.051;29925.051;   -9.240;36066.457
609.632;28773.096;  -12.120;35991.074
610.213;29466.348;   -9.110;37402.641
610.794;30065.461;   -8.030;38383.363
611.374;29000.193;   -8.110;40562.387
611.955;28824.340;  -13.560;38533.727
612.536;30381.109;  -11.400;36951.789
613.116;30564.230;   -8.070;37197.891
613.697;31474.029;  -10.830;38411.125
614.277;29929.219;  -11.641;38673.938
614.858;30613.355;  -13.310;37075.863
615.438;30828.783;   -7.460;35092.906
616.019;28280.115;   -7.601;33666.301
616.599;28554.645;  -12.020;34189.023
617.179;30309.678;  -11.780;36952.047
617.760;30582.141;   -8.570;39582.574
618.340;31762.363;  -11.471;38943.977
618.920;33357.020;  -11.170;37594.156
619.500;32946.070;  -11.071;37866.938
620.080;32661.141;   -7.750;37869.043
620.660;33517.273;  -12.711;36868.617
621.241;34182.648;  -10.211;36352.309
621.821;33566.809;  -10.961;35459.520
622.401;33211.039;   -7.720;35207.414
622.980;32349.600;   -8.981;35980.422
623.560;30956.006;   -9.331;37351.328
624.140;30428.027;   -9.850;34388.582
624.720;26217.809;   -7.451;32368.764
625.300;22192.715;   -9.070;32638.629
625.880;24950.814;  -12.601;34599.035
626.459;28394.730;  -11.751;36831.738
627.039;31155.604;   -9.281;38299.098
627.619;31366.959;   -8.801;38289.574
628.198;30074.201;  -12.071;37220.695
628.778;30056.396;   -9.461;37632.563
629.357;30838.350;   -8.491;38003.012
629.937;30295.816;   -9.721;38402.039
630.516;29427.943;   -9.951;37868.801
631.096;29557.139;  -11.731;35760.410
631.675;32639.137;   -8.572;35225.219
632.254;37735.895;  -11.282;35130.289
632.834;36924.973;  -13.322;35794.570
633.413;35364.477;  -10.301;35788.922
633.992;32346.180;   -8.582;34532.863
634.571;33360.207;   -8.352;33590.113
635.151;35816.109;  -11.912;34943.863
635.730;34036.863;  -10.511;35352.523
636.309;30923.285;   -7.731;35366.605
636.888;28264.229;   -9.952;36165.637
637.467;28206.549;  -11.672;37515.902
638.046;30330.828;   -8.901;39288.695
638.625;33489.203;   -7.912;38279.699
639.204;33359.504;  -10.022;37741.598
639.782;31877.385;  -12.252;38364.551
640.361;28550.568;  -10.041;36740.621
640.940;25730.287;  -11.161;34950.082
641.519;25312.076;   -9.701;34137.398
642.097;27630.172;  -11.271;35654.258
642.676;31241.910;   -8.651;35637.957
643.255;33065.141;   -8.711;36567.074
643.833;31804.564;   -9.581;37809.434
644.412;31997.020;  -13.711;37337.293
644.990;31472.395;  -11.811;37018.531
645.569;31245.957;   -9.411;36518.469
646.147;29886.908;  -10.291;36186.430
646.726;29211.559;  -12.401;36267.688
647.304;30619.178;  -10.411;36647.625
647.882;31857.215;   -9.651;39286.742
648.461;33401.434;   -9.631;39157.703
649.039;33193.543;  -11.881;35412.883
649.617;32950.414;   -9.661;34744.918
650.195;32807.789;   -9.301;35403.098
650.773;31997.244;  -10.511;35053.797
651.352;29601.592;  -11.521;33756.816
651.930;26513.018;  -12.211;31868.773
652.508;23726.408;   -9.171;33121.551
653.086;27243.533;   -9.371;33564.793
653.663;31046.738;  -13.161;34054.668
654.241;29884.010;  -13.031;35693.309
654.819;31243.850;   -9.371;36422.906
655.397;30674.809;  -10.511;38213.484
655.975;30266.576;  -10.371;39507.625
656.553;30423.297;  -10.051;39498.223
657.130;29380.689;  -10.061;40395.480
657.708;29410.096;   -9.561;39242.020
658.286;29350.787;  -11.511;38920.020
658.863;29811.430;  -10.261;40202.898
659.441;31863.943;   -7.531;39677.938
660.018;31172.889;   -9.501;40413.355
660.596;30468.635;  -13.301;39931.414
661.173;32460.014;  -11.211;39604.531
661.750;32683.254;   -9.951;39700.070
662.328;31678.096;   -9.390;39292.809
662.905;30815.873;  -11.330;38235.648
663.482;26467.443;   -9.050;36212.305
664.060;24250.016;   -8.240;35944.945
664.637;26735.760;  -10.050;35170.785
665.214;28273.393;  -11.760;34197.523
665.791;30072.525;  -10.530;34549.520
666.368;29596.539;   -9.690;35118.578
666.945;30384.822;   -9.320;36019.418
667.522;31450.410;  -11.860;36048.438
668.099;31467.000;  -10.770;36243.914
668.676;31085.412;   -6.260;35958.875
669.253;29606.836;   -7.000;37384.730
669.830;29333.518;  -10.190;36779.629
670.407;28942.129;   -9.550;35231.289
670.984;29922.139;   -9.260;35544.270
671.560;29967.055;   -9.280;35466.867
672.137;28396.414;  -11.810;34280.863
672.714;29361.707;  -11.490;34632.863
673.290;29750.814;   -7.740;35135.422
673.867;29738.852;  -10.660;36114.480
674.443;30185.271;  -12.230;36152.859
675.020;28251.621;  -10.450;35327.238
675.596;29482.172;   -9.260;35795.176
676.173;30376.012;  -10.780;35430.355
676.749;29603.141;  -13.690;33549.516
677.326;29334.383;  -11.980;32210.012
677.902;29571.422;   -8.630;32068.871
678.478;28920.068;  -10.730;32583.891
679.054;28881.012;  -10.520;32088.928
679.631;30278.264;  -11.920;30978.848
680.207;31085.744;   -7.490;33160.887
680.783;32337.408;   -9.860;35570.363
681.359;31133.209;  -13.380;36125.184
681.935;29603.033;  -12.480;35240.922
682.511;28322.826;   -7.900;34429.961
683.087;28258.445;   -7.710;34463.680
683.663;28609.660;  -11.480;34648.898
684.239;28613.629;  -14.090;34546.457
684.815;28730.453;   -7.560;35586.375
685.390;28734.123;   -9.910;35821.895
685.966;28810.135;  -11.159;35085.871
686.542;31325.746;  -11.169;34198.230
687.118;33554.969;   -5.959;32847.707
687.693;33481.809;  -10.329;32794.027
688.269;32825.934;  -12.059;33072.367
688.844;30565.881;  -10.909;33141.664
689.420;28971.031;   -8.019;33965.742
689.995;27321.070;   -8.399;34655.523
690.571;26355.334;  -10.949;33576.742
691.146;26772.119;   -9.619;32657.219
691.722;25827.049;   -8.999;32526.979
692.297;25072.797;  -11.589;33014.617
692.872;26941.682;  -11.739;34012.254
693.448;27252.947;  -11.059;34237.434
694.023;25996.488;  -10.139;34142.672
694.598;27771.283;   -9.029;34132.031
695.173;27841.211;  -13.319;34205.250
695.748;27294.668;  -10.169;32882.488
696.323;26921.537;   -8.339;32864.906
696.898;26652.232;   -8.169;33170.004
697.473;26739.832;  -12.309;32432.984
698.048;26864.082;  -10.989;31649.303
698.623;27439.920;   -9.329;30778.141
699.198;28981.090;   -9.849;31140.119
699.773;29862.469;  -12.329;31764.299
700.348;28970.666;  -10.389;31780.816
700.922;29360.805;   -9.269;32046.375
701.497;29663.547;   -9.329;32603.574
702.072;29596.221;  -10.789;34799.871
702.646;29162.615;  -10.839;35793.172
703.221;27947.125;   -9.099;35201.590
703.795;29970.246;  -10.939;34764.527
704.370;29863.176;  -12.859;34307.367
704.944;29667.561;  -11.559;33509.887
705.519;30837.248;   -7.939;31388.584
706.093;32046.621;  -10.499;31340.104
706.668;31756.291;  -11.289;32630.281
707.242;30012.191;  -11.509;32728.779
707.816;28725.465;   -9.639;32947.238
708.390;27222.424;  -11.429;33277.855
708.965;27878.553;  -11.869;33834.336
709.539;28629.102;  -11.689;33709.273
710.113;29070.100;  -10.478;33044.313
710.687;28376.342;  -10.228;31953.992
711.261;25991.611;  -13.698;30505.949
711.835;25793.500;  -13.378;30262.369
712.409;26907.805;   -9.698;31254.447
712.983;28288.201;  -11.898;32754.986
713.557;29521.338;  -15.138;34018.824
714.131;29320.604;  -14.098;34579.625
714.704;28240.537;   -9.958;33890.262
715.278;25862.768;  -10.028;33531.102
715.852;25759.164;  -11.148;33601.660
716.425;27001.596;   -9.068;33515.117
716.999;27606.771;  -10.038;33185.555
717.573;28387.361;   -9.798;33905.996
718.146;29374.996;  -12.378;35199.293
718.720;29282.725;  -11.918;35060.551
719.293;29125.932;   -8.088;34973.230
719.867;31720.379;  -10.888;36394.449
720.440;31904.871;  -11.938;36663.008
721.013;30574.236;  -12.818;35102.426
721.587;28864.016;  -10.298;33985.266
722.160;26436.734;  -10.048;33524.965
722.733;25233.176;  -12.108;32987.043
723.306;26279.578;  -10.818;33066.301
723.880;28178.469;   -8.908;33399.500
724.453;29997.512;   -9.878;33468.297
725.026;29079.250;  -11.188;33816.637
725.599;26148.197;  -11.678;32797.996
726.172;26442.473;   -9.618;33187.434
726.745;28075.391;   -8.258;35136.613
727.318;29938.240;  -12.978;35751.730
727.891;30795.588;  -12.148;35890.430
728.463;30596.115;   -8.968;34822.090
729.036;29101.750;  -10.188;32895.086
729.609;29088.387;  -11.788;31823.225
730.182;25540.811;  -11.788;31445.283
730.754;23068.434;  -10.268;32373.223
731.327;23442.617;   -9.998;33676.820
731.900;23566.828;  -12.228;33417.000
732.472;25060.234;  -13.848;31978.498
733.045;27797.115;   -8.698;30368.777
733.617;27954.676;  -10.607;30574.215
734.190;27281.018;  -11.507;31280.975
734.762;24261.607;  -13.647;31674.412
735.334;22733.367;   -9.767;31247.291
735.907;23208.754;   -9.897;29876.211
736.479;22994.768;  -11.637;29808.488
737.051;22492.811;   -9.567;30233.547
737.623;23624.363;   -8.187;31469.086
738.195;24424.918;  -11.187;31784.225
738.768;26091.975;  -12.337;32120.523
739.340;26025.854;  -12.227;32094.342
739.912;24619.490;  -11.057;31312.680
740.484;23962.102;  -10.207;31946.238
741.056;22901.441;  -10.047;32984.059
741.628;24170.279;  -13.627;33897.715
742.199;26670.023;   -7.177;33213.016
742.771;25475.641;  -10.797;31369.113
743.343;23035.051;  -11.997;31865.473
743.915;21781.748;  -12.867;32388.631
744.487;21822.988;   -7.617;31079.568
745.058;22129.104;   -9.557;30570.107
745.630;23117.346;   -9.877;29970.127
746.201;24624.385;  -14.177;29186.766
746.773;25012.648;   -9.237;28805.723
747.344;24550.828;   -9.847;29591.223
747.916;22681.686;  -11.657;31412.201
748.487;21889.684;  -10.587;32194.898
749.059;23178.326;   -8.707;32533.719
749.630;24649.189;  -10.537;32158.518
750.201;24120.627;  -11.687;30855.395
750.773;22907.596;  -11.647;28622.555
751.344;23158.602;   -7.147;28405.732
751.915;23963.162;   -9.757;28461.551
752.486;22779.000;  -12.427;27842.850
753.057;20367.482;  -12.227;27845.008
753.628;19219.070;  -10.417;27728.107
754.199;19830.963;  -11.767;27381.086
754.770;20827.404;  -11.187;25882.203
755.341;21242.887;  -10.507;25886.184
755.912;21435.273;   -9.387;26050.861
756.483;20874.672;  -10.647;26798.779
757.054;19115.873;  -11.837;27048.238
757.625;17827.662;  -12.716;26294.838
758.195;17578.889;   -9.666;26142.076
758.766;17408.443;   -8.656;26392.234
759.337;18338.592;  -12.856;26334.594
759.907;20078.830;  -13.366;27579.652
760.478;21215.486;   -8.576;28352.770
761.048;21098.365;  -10.526;27325.088
761.619;20399.002;  -11.116;26460.428
762.189;19924.023;  -12.136;26029.826
762.760;20358.293;   -9.456;26430.145
763.330;21446.098;   -7.136;26670.902
763.900;20792.463;  -11.786;26603.021
764.471;17757.572;  -11.546;25542.740
765.041;16489.854;   -8.096;24358.459
765.611;17151.166;   -8.876;23991.297
766.181;17883.781;  -12.196;24470.236
766.751;18654.715;  -11.636;24845.975
767.321;18385.932;  -10.156;24533.633
767.891;16251.750;  -11.766;24916.492
768.461;15509.804;  -14.936;24776.771
769.031;16009.000;  -12.356;24757.988
769.601;17897.059;   -7.526;24181.088
770.171;18057.074;  -10.766;23670.387
770.741;17226.434;  -13.176;22960.045
771.311;17140.469;  -10.616;22917.523
771.880;17215.078;   -9.576;23562.941
772.450;16837.240;  -10.336;24216.500
773.020;16954.148;  -13.516;24140.398
773.589;16795.285;  -13.466;24414.857
774.159;16624.336;   -8.686;23858.717
774.729;16215.104;   -9.476;22942.135
775.298;15403.124;  -13.666;22324.033
775.867;14825.714;  -11.716;21140.313
776.437;14941.055;   -9.906;20838.092
777.006;14708.908;  -12.166;20599.510
777.576;14675.329;  -12.356;20508.809
778.145;14947.750;  -11.646;20732.947
778.714;14853.844;   -8.226;21062.465
779.283;13832.394;   -9.556;20949.664
779.853;13449.077;  -14.116;20508.623
780.422;13958.493;  -11.506;20649.082
780.991;13491.866;   -9.556;21527.520
781.560;12594.753;   -9.095;22632.658
782.129;12433.132;  -12.135;23048.277
782.698;12215.672;  -10.865;23438.555
783.267;11821.150;   -9.335;23267.734
783.836;11852.141;  -11.045;22415.133
784.404;12775.748;  -13.865;20443.152
784.973;13000.578;  -13.095;19699.150
785.542;12812.029;  -11.575;19763.828
786.111;12757.228;   -9.705;20341.408
786.679;12549.161;  -12.105;20207.967
787.248;12456.489;  -12.455;19516.465
787.817;12038.390;  -11.535;18900.363
788.385;11451.245;   -9.765;17879.121
788.954;10759.729;  -14.005;17658.301
789.522;10425.918;  -11.955;17788.879
790.090;11056.157;  -10.135;18118.277
790.659;11528.976;  -10.975;18338.736
791.227;10917.784;  -13.375;18508.615
791.795;11257.133;  -12.375;17898.254
792.364;11617.471;  -10.725;17295.133
792.932;11899.179;   -9.715;16822.051
793.500;12030.477;  -12.675;17040.148
794.068;12226.941;  -13.495;17179.787
794.636;12390.860;  -10.885;16664.246
795.204;11910.914;  -11.045;16524.545
795.772;11792.232;  -13.175;17274.564
796.340;11263.598;  -12.445;17891.002
796.908;11089.309;   -9.735;17648.561
797.476;11002.609;   -9.815;17064.080
798.044;10503.054;  -13.985;16672.777
798.612; 9795.654;  -13.115;17023.996
799.180; 9569.916;  -10.185;16561.615
799.747; 9505.007;   -9.055;15962.773
800.315; 9168.032;  -12.385;15296.992
800.883; 8836.703;  -15.035;14801.771
801.450; 8795.065;  -10.365;14534.430
802.018; 8828.878;   -9.855;14173.248
802.585; 8866.085;  -11.905;14029.547
803.153; 8933.638;  -11.585;13836.846
803.720; 8885.226;   -9.095;13567.324
804.287; 8523.094;   -9.135;13360.622
804.855; 8066.894;  -11.604;13681.981
805.422; 7935.375;  -11.794;13536.560
805.989; 7797.488;  -10.734;13355.958
806.556; 7950.238;  -10.444;13747.896
807.124; 8419.780;  -12.764;13987.376
807.691; 8497.802;  -12.964;14038.674
808.258; 8303.182;  -11.134;14120.152
808.825; 7935.273;   -9.854;13860.111
809.392; 7985.731;  -10.504;13268.790
809.959; 7560.607;  -13.054;12680.389
810.526; 7118.538;   -8.294;12427.308
811.093; 7075.383;   -8.394;12030.105
811.659; 7668.868;  -12.304;11653.664
812.226; 8178.205;  -13.944;11637.183
812.793; 7919.905;  -10.484;11611.521
813.360; 7299.688;  -10.144;11885.181
813.926; 6801.981;  -11.684;12770.539
814.493; 6474.513;  -13.644;12677.638
815.060; 6068.009;   -9.724;11974.336
815.626; 6086.196;   -9.854;11594.715
816.193; 6575.305;  -13.254;11579.474
816.759; 6705.853;  -13.204;11666.972
817.325; 6900.678;   -9.434;11325.530
817.892; 7276.620;  -10.134;11105.369
818.458; 7698.213;  -13.474;10843.928
819.024; 7377.722;  -11.854;10714.406
819.591; 7068.036;  -10.244;10469.165
820.157; 6809.792;  -10.704;10235.523
820.723; 6369.734;  -12.324;10847.563
821.289; 6201.778;   -9.444;11040.980
821.855; 6188.548;   -8.374;10357.100
822.421; 6222.090;  -10.234; 9978.918
822.987; 6125.062;  -13.294; 9754.177
823.553; 5755.882;  -10.884;10065.755
824.119; 5580.572;   -8.884;10036.294
824.685; 5702.856;   -6.784;10029.192
825.251; 5771.606;  -12.004;10199.230
825.816; 5730.020;  -11.474; 9820.189
826.382; 5566.041;   -9.174; 9297.248
826.948; 5796.125;   -9.214; 9381.347
827.513; 6217.945;  -10.774; 9450.726
828.079; 6050.306;  -11.924; 9472.444
828.645; 5436.570;  -10.543; 9292.643
829.210; 5298.178;  -10.533; 9065.341
829.776; 5276.049;  -10.753; 9132.620
830.341; 5206.144;  -10.173; 9092.878
830.906; 5402.227;  -10.743; 9078.557
831.472; 5799.507;  -11.113; 8534.535
832.037; 5640.636;  -10.603; 8677.874
832.602; 5092.168;  -13.323; 8628.692
833.167; 4678.629;  -10.823; 8879.031
833.733; 4553.203;  -10.113; 9189.790
834.298; 4634.637;  -13.583; 9052.608
834.863; 4624.045;  -12.703; 8895.087
835.428; 4636.756;  -10.523; 8824.266
835.993; 4696.602;   -6.963; 8845.385
836.558; 4604.141;  -10.763; 8888.563
837.123; 4625.603;   -9.903; 8966.582
837.688; 4761.276;   -9.913; 8617.860
838.253; 4930.749;  -10.283; 8590.699
838.817; 5105.540;  -12.963; 8443.797
839.382; 5060.472;  -14.243; 8799.356
839.947; 4755.276;  -10.733; 8810.595
840.511; 4435.543;   -9.383; 8796.394
841.076; 4043.302;  -12.563; 8347.231
841.641; 4037.708;  -12.953; 8224.330
842.205; 4082.669;   -7.043; 8223.349
842.770; 4205.000;   -8.163; 8622.107
843.334; 4506.558;  -12.503; 8410.386
843.898; 4513.180;  -11.693; 8337.465
844.463; 4488.219;  -10.203; 8506.283
845.027; 4228.796;   -9.533; 8280.962
845.591; 4023.216;  -13.443; 8231.141
846.156; 4033.346;  -13.143; 7969.179
846.720; 3909.148;   -9.433; 7768.278
847.284; 3793.248;  -11.033; 7630.957
847.848; 3595.480;  -10.403; 7472.395
848.412; 3464.516;  -11.553; 7437.394
848.976; 3512.222;   -8.393; 7674.592
849.540; 3473.908;   -8.713; 7836.011
850.104; 3544.251;  -12.463; 7913.669
850.668; 3850.766;  -12.973; 7694.508
851.232; 3938.385;  -10.793; 7756.887
851.796; 3767.255;  -10.662; 7926.545
852.359; 3470.703;  -13.082; 7827.844
852.923; 3342.875;  -12.192; 7641.163
853.487; 3201.455;  -11.912; 7342.501
854.050; 3127.198;  -10.892; 7042.820
854.614; 3272.043;  -13.992; 7151.338
855.177; 3404.030;  -11.732; 7105.077
855.741; 3437.204;   -8.962; 6989.675
856.304; 3290.677;   -9.442; 6596.634
856.868; 3243.587;  -14.192; 6356.272
857.431; 3401.526;  -12.702; 6468.571
857.995; 3537.045;   -9.942; 6373.210
858.558; 3586.172;   -9.112; 6324.448
859.121; 3328.074;  -12.932; 6408.327
859.684; 3168.929;  -13.442; 6347.886
860.247; 3254.497;  -10.632; 6321.264
860.810; 3219.664;  -11.272; 6301.903
861.374; 2946.092;   -9.832; 6607.881
861.937; 2661.691;  -11.762; 6408.200
862.500; 2609.513;   -9.722; 6572.639
863.062; 2729.485;  -10.512; 6387.297
863.625; 2868.434;  -11.232; 6190.836
864.188; 3023.092;  -14.112; 5807.254
864.751; 3112.482;  -11.302; 5682.413
865.314; 3023.176;  -10.112; 5547.492
865.876; 2863.148;  -12.182; 5500.150
866.439; 2880.460;  -10.722; 5415.909
867.002; 2810.823;   -9.252; 5501.567
867.564; 2577.927;   -9.572; 5413.946
868.127; 2367.614;  -13.142; 5160.325
868.689; 2313.726;  -12.902; 5133.183
869.252; 2268.209;   -9.732; 5252.382
869.814; 2177.691;   -9.432; 5297.141
870.377; 2180.740;  -11.552; 5390.919
870.939; 2269.173;   -9.052; 5599.898
871.501; 2340.013;  -10.982; 5248.336
872.063; 2354.119;  -12.292; 4854.235
872.626; 2329.283;  -14.912; 4817.074
873.188; 2311.545;  -13.112; 4987.732
873.750; 2266.261;  -13.442; 4868.651
874.312; 2180.920;   -9.402; 4779.330
874.874; 2105.166;  -11.062; 4866.348
875.436; 2039.967;  -13.931; 4718.887
875.998; 2031.331;   -9.561; 4660.005
876.560; 2043.964;  -11.321; 4462.964
877.122; 2022.000;  -12.221; 4145.042
877.683; 2002.072;  -12.191; 4056.481
878.245; 2039.269;  -12.101; 3950.740
878.807; 2154.637;   -8.971; 4058.958
879.369; 2117.825;  -12.071; 3954.677
879.930; 1786.296;  -14.621; 3941.495
880.492; 1409.906;  -10.311; 4067.014
881.053; 1081.249;  -10.901; 3859.633
881.615;  853.487;  -14.411; 3776.071
882.176;  814.097;  -13.761; 3734.750
882.738;  896.578;   -9.181; 3678.489
883.299;  983.429;  -11.791; 3405.407
883.860; 1043.195;  -13.121; 3351.106
884.422; 1073.613;  -11.211; 3394.044
884.983; 1072.495;  -10.091; 3166.443
885.544; 1024.961;   -8.461; 3189.802
886.105;  985.046;  -12.361; 3160.360
886.666;  959.260;  -14.141; 3093.059
887.227;  928.600;  -11.361; 2941.957
887.788;  867.054;  -11.401; 2974.836
888.349;  809.072;  -13.791; 2721.214
888.910;  815.853;  -13.191; 2696.493
889.471;  831.617;   -9.881; 2560.172
890.032;  810.540;   -9.881; 2558.190
890.593;  783.120;  -10.371; 2567.669
891.153;  761.255;  -13.301; 2460.307
891.714;  722.206;  -11.431; 2372.046
892.275;  689.090;  -11.291; 2309.505
892.835;  655.055;  -11.471; 2382.543
893.396;  603.461;  -11.541; 2295.502
893.956;  554.211;  -11.181; 2162.420
894.517;  518.765;  -11.741; 2125.439
895.077;  516.666;  -11.671; 2086.978
895.638;  519.844;  -11.311; 2126.316
896.198;  494.758;   -9.831; 1838.275
896.758;  450.414;   -8.421; 1892.813
897.319;  416.868;  -12.351; 1792.232
897.879;  404.516;  -13.511; 1762.751
898.439;  381.174;  -12.001; 1661.149
898.999;  354.367;  -10.180; 1781.468
899.559;  343.253;  -12.030; 1703.347
900.119;  339.719;  -15.710; 1537.525
900.679;  338.598;   -8.900; 1638.384
901.239;  327.273;   -8.340; 1527.902
901.799;  316.882;  -13.910; 1456.441
902.359;  307.232;  -13.460; 1357.140
902.919;  299.353;  -11.490; 1331.118
903.479;  284.501;  -12.110; 1317.257
904.038;  263.068;  -11.720; 1262.595
904.598;  247.390;  -13.610; 1152.034
905.158;  243.057;  -11.040; 1240.893
905.717;  236.551;  -10.900; 1233.691
906.277;  224.450;  -15.080; 1217.330
906.836;  214.771;  -13.380; 1222.408
907.396;  207.787;  -10.780; 1193.047
907.955;  201.247;   -8.500; 1182.526
908.515;  195.626;  -12.760; 1099.364
909.074;  189.408;  -11.900; 1092.863
909.633;  183.224;   -8.950; 1069.121
910.192;  180.077;   -8.770; 1196.460
910.752;  175.631;  -12.390; 1029.960
911.311;  170.726;  -13.680; 1009.780
911.870;  166.526;  -12.370;  971.460
912.429;  165.778;  -10.900; 1094.080
912.988;  161.212;  -11.690; 1081.060
913.547;  154.907;  -13.240;  940.380
914.106;  150.510;  -11.990;  999.420
914.665;  148.249;   -9.990;  984.020
915.224;  147.933;  -12.880; 1035.760
915.782;  147.842;  -12.350;  922.560
916.341;  148.717;   -9.110; 1049.840
916.900;  146.790;   -9.270;  925.260
917.458;  144.381;  -13.240;  884.220
918.017;  143.796;  -13.550;  942.600
918.576;  143.865;  -12.320;  904.440
919.134;  142.083;  -11.490;  837.980
919.693;  140.263;  -13.670;  893.060
920.251;  138.906;  -15.470;  876.500
920.809;  136.476;  -11.290;  839.580
921.368;  137.084;  -10.210;  885.360
921.926;  135.706;  -12.140;  842.940
922.484;  134.688;  -13.080;  903.360
923.042;  134.119;  -11.720;  880.340
923.601;  137.160;   -7.480;  998.680
924.159;  134.894;  -11.570;  935.560
924.717;  132.764;  -13.840;  841.080
925.275;  131.893;  -10.640;  903.240
925.833;  131.784;  -11.540;  779.320
926.391;  132.701;  -12.960;  938.380
926.949;  129.898;  -14.130;  857.680
927.506;  130.543;  -11.750;  903.500
928.064;  131.469;  -10.250;  877.580
928.622;  130.541;  -13.030;  880.100
929.180;  129.528;  -13.400;  814.180
929.737;  130.226;  -10.700;  808.540
930.295;  134.214;  -10.070;  928.480
930.853;  136.942;  -11.960;  849.100
931.410;  137.917;  -13.120;  821.120
931.968;  136.768;  -10.770;  940.660
932.525;  135.962;  -10.680;  909.380
933.082;  136.124;  -13.130;  811.440
933.640;  136.394;  -13.210;  925.900
934.197;  134.313;  -11.060;  886.360
934.754;  136.169;   -9.580;  897.780
935.312;  139.828;  -14.000;  863.340
935.869;  143.433;  -10.710; 1012.980
936.426;  143.337;   -9.860;  872.800
936.983;  143.878;   -9.710;  889.020
937.540;  143.556;  -13.990;  838.280
938.097;  141.891;  -14.040;  940.120
938.654;  143.052;  -10.310;  898.860
939.211;  145.292;  -10.560;  952.480
939.768;  148.778;  -13.900;  915.420
940.324;  152.157;  -14.760;  904.200
940.881;  153.012;  -10.370;  878.500
941.438;  153.568;   -8.260; 1021.200
941.995;  149.584;  -12.540;  992.560
942.551;  146.470;  -14.670;  875.620
943.108;  146.407;  -10.450;  937.920
943.664;  148.870;  -10.750;  869.340
944.221;  153.193;  -11.550; 1088.140
944.777;  151.039;  -14.770;  869.680
945.334;  152.550;  -12.820;  884.840
945.890;  155.697;  -10.130;  946.480
946.446;  155.104;  -13.470;  947.020
947.003;  156.304;  -12.120;  964.940
947.559;  157.803;   -9.980; 1063.040
948.115;  157.427;   -9.080; 1026.540
948.671;  154.935;  -10.830;  967.300
949.227;  151.729;  -12.440;  859.560
949.783;  148.674;  -12.910;  858.900
950.339;  151.453;  -10.270;  991.000
950.895;  150.963;  -13.630; 1023.840
951.451;  150.699;  -15.100;  925.280
952.007;  151.754;  -11.330;  998.540
952.563;  153.584;  -10.580;  937.780
953.118;  152.253;  -13.440;  904.940
953.674;  150.665;  -12.710;  935.780
954.230;  151.914;  -10.350;  949.640
954.785;  150.343;   -9.190;  936.640
955.341;  148.440;  -11.200;  998.160
955.897;  145.129;  -16.560;  834.660
956.452;  146.068;  -12.570;  953.840
957.008;  144.785;   -7.970; 1083.640
957.563;  141.693;  -11.940; 1009.540
958.118;  137.523;  -13.450;  877.700
958.674;  138.590;  -12.030;  946.780
959.229;  140.121;   -9.410; 1013.980
959.784;  138.719;  -12.000;  832.400
960.339;  135.668;  -14.780; 1001.280
960.894;  131.922;   -9.860;  963.760
961.449;  128.683;   -9.970;  859.960
962.004;  129.270;  -10.900; 1212.840
962.559;  124.185;  -13.150;  860.140
963.114;  122.429;  -13.740;  742.480
963.669;  121.162;   -9.820;  915.500
964.224;  119.592;  -13.890;  874.340
964.779;  118.074;  -12.600;  828.420
965.334;  119.401;  -10.950; 1017.860
965.888;  119.246;  -11.170;  875.360
966.443;  121.017;  -12.540;  972.380
966.998;  118.935;  -15.780;  819.460
967.552;  118.432;   -9.760;  908.380
968.107;  115.650;   -9.060;  868.300
968.661;  116.198;  -11.950;  922.440
969.216;  115.826;  -12.800;  856.280
969.770;  116.389;  -11.210;  917.200
970.324;  115.736;  -11.610;  923.140
970.879;  113.052;  -11.370;  947.180
971.433;  109.989;  -12.540;  952.720
971.987;  103.825;  -11.320;  895.340
972.541;  101.523;  -10.720;  917.100
973.095;  102.860;   -9.680; 1009.460
973.649;   99.723;  -11.440;  809.480
974.203;   99.551;  -11.210;  829.040
974.757;  100.796;  -10.240;  855.220
975.311;  101.071;  -13.720;  872.600
975.865;   99.649;  -13.770;  881.820
976.419;   97.872;  -11.690;  857.400
976.973;   98.444;   -9.510;  849.620
977.526;  100.214;  -12.620;  949.920
978.080;   99.745;  -12.010;  796.780
978.634;  100.668;  -10.170;  921.320
979.187;   98.565;   -9.020;  905.400
979.741;   96.731;   -9.820; 1018.380
980.294;   91.246;  -14.870;  789.160
980.848;   89.194;  -12.380;  717.220
981.401;   91.165;  -10.350;  816.540
981.955;   93.154;  -13.720;  844.300
982.508;   92.537;  -11.490;  746.340
983.061;   92.885;  -10.000;  915.260
983.615;   89.433;  -11.480;  798.800
984.168;   86.630;  -13.220;  770.080
984.721;   85.594;  -13.960;  880.760
985.274;   84.994;  -10.870;  867.500
985.827;   84.279;   -9.790;  834.220
986.380;   81.863;  -13.120;  721.340
986.933;   80.361;  -12.450;  864.800
987.486;   78.071;  -10.210;  861.920
988.039;   78.311;   -8.430;  863.100
988.591;   75.421;  -10.520;  893.260
989.144;   73.728;  -14.860;  737.260
989.697;   72.450;  -13.080;  758.740
990.250;   73.254;  -10.150;  858.100
990.802;   72.287;  -13.430;  755.860
991.355;   72.966;  -12.750;  974.880
991.907;   70.477;  -12.040;  864.320
992.460;   67.987;  -11.330;  753.760
993.012;   67.732;  -13.610;  749.540
993.565;   66.149;  -13.460;  711.360
994.117;   67.455;   -9.360;  950.780
994.669;   64.318;  -11.300;  701.320
995.221;   62.875;  -13.540;  791.920
995.774;   60.584;  -13.430;  787.580
996.326;   58.784;  -12.520;  740.220
996.878;   58.614;  -10.950;  838.420
997.430;   57.058;  -14.300;  699.860
997.982;   56.236;  -13.760;  750.140
998.534;   55.390;  -11.530;  739.060
999.086;   54.032;  -10.310;  738.220
999.638;   53.247;  -12.530;  661.380
1000.190;   52.269;  -11.840;  699.320
1000.741;   51.847;  -10.260;  742.700
1001.293;   51.376;   -8.860;  686.020
1001.845;   50.974;  -13.700;  676.640
1002.396;   50.026;  -12.100;  743.400
1002.948;   49.910;  -12.760;  737.400
1003.500;   47.825;  -10.380;  723.780
1004.051;   48.598;  -11.900;  907.580
1004.603;   46.443;  -12.250;  791.820
1005.154;   43.239;  -13.210;  608.980
1005.705;   42.205;  -10.950;  723.960
1006.257;   41.865;  -13.880;  707.220
1006.808;   40.595;  -12.840;  685.460
1007.359;   40.349;  -10.570;  763.240
1007.910;   40.222;   -9.620;  646.640
1008.461;   39.701;  -13.630;  732.940
1009.013;   38.114;  -17.200;  588.340
1009.564;   39.725;  -10.200;  793.520
1010.115;   37.785;  -12.570;  597.040
1010.665;   37.631;  -15.150;  602.160
1011.216;   37.387;  -14.480;  667.920
1011.767;   36.700;  -11.340;  697.920
1012.318;   37.508;   -9.780;  736.980
1012.869;   36.046;  -12.380;  679.000
1013.419;   34.886;  -15.560;  603.120
1013.970;   35.388;  -11.010;  666.640
1014.521;   34.848;  -11.610;  620.620
1015.071;   34.977;  -13.450;  670.380
1015.622;   34.128;  -13.870;  635.460
1016.172;   34.027;  -11.610;  596.820
1016.723;   33.966;  -12.120;  614.380
1017.273;   33.625;  -13.620;  604.160
1017.823;   33.358;  -14.140;  650.340
1018.374;   32.655;  -12.800;  611.760
1018.924;   32.897;  -12.340;  716.880
1019.474;   33.779;  -11.410;  718.880
1020.024;   31.854;  -14.770;  657.580
1020.574;   32.657;   -9.780;  726.160
1021.124;   32.576;   -8.560;  673.580
1021.674;   31.540;  -15.190;  559.120
1022.224;   32.379;  -13.530;  708.940
1022.774;   31.904;  -13.280;  668.820
1023.324;   32.639;  -10.690;  753.520
1023.874;   32.792;  -10.240;  875.760
1024.423;   30.644;  -12.540;  613.700
1024.973;   30.636;  -10.010;  610.760
1025.523;   29.495;  -10.550;  620.960
1026.072;   30.431;  -13.560;  606.420
1026.622;   29.729;  -15.120;  675.740
1027.172;   30.486;  -11.260;  715.660
1027.721;   29.171;  -11.410;  601.220
1028.270;   29.656;  -13.530;  663.400
1028.820;   29.828;  -13.680;  638.080
1029.369;   28.586;  -13.520;  612.700
1029.918;   29.238;  -10.980;  649.840
1030.468;   28.716;  -13.530;  564.780
1031.017;   29.131;  -13.170;  634.800
1031.566;   28.184;  -12.200;  608.900
1032.115;   28.696;   -9.960;  694.500
1032.664;   27.693;  -13.210;  596.480
1033.213;   28.494;  -12.500;  735.420
1033.762;   27.799;  -11.910;  635.620
1034.311;   27.859;   -9.640;  677.220
1034.860;   26.949;  -13.310;  691.000
1035.408;   26.986;  -11.830;  722.720
1035.957;   28.134;  -12.000;  719.540
1036.506;   26.339;  -11.690;  530.800
1037.055;   28.208;  -10.990;  844.320
1037.603;   26.102;  -15.120;  664.000
1038.152;   24.564;  -12.450;  534.760
1038.700;   25.594;  -10.560;  585.740
1039.249;   25.732;  -11.080;  681.220
1039.797;   25.415;  -12.540;  633.360
1040.345;   25.086;  -11.920;  705.420
1040.894;   25.107;  -11.410;  625.300
1041.442;   25.438;  -14.320;  632.200
1041.990;   23.263;  -16.240;  559.160
1042.538;   23.349;  -11.680;  536.180
1043.087;   23.742;  -10.760;  570.860
1043.635;   25.709;  -11.850;  670.500
1044.183;   23.607;  -15.480;  586.400
1044.731;   23.611;  -11.770;  576.000
1045.279;   23.641;  -13.090;  674.920
1045.827;   25.626;  -12.440;  892.400
1046.374;   22.931;  -13.840;  515.420
1046.922;   22.006;  -13.220;  590.580
1047.470;   23.686;  -10.230;  691.300
1048.018;   23.134;  -14.590;  647.960
1048.565;   24.141;  -12.050;  708.600
1049.113;   22.207;  -11.650;  557.000
1049.660;   21.985;  -10.510;  629.660
1050.208;   22.568;  -13.310;  675.640
1050.755;   21.169;  -15.900;  606.580
1051.303;   22.261;  -11.430;  686.820
1051.850;   21.638;   -8.480;  635.120
1052.397;   19.661;  -15.010;  473.960
1052.945;   19.696;  -13.960;  617.760
1053.492;   21.796;  -13.150;  741.840
1054.039;   22.676;   -9.630;  720.180
1054.586;   21.099;  -13.680;  557.240
1055.133;   21.387;  -14.570;  693.140
1055.680;   20.659;  -13.820;  646.620
1056.227;   20.691;  -11.730;  542.780
1056.774;   22.094;  -12.480;  794.980
1057.321;   19.525;  -13.930;  523.260
1057.868;   19.432;  -11.690;  651.320
1058.415;   20.003;   -9.520;  651.980
1058.961;   20.854;  -13.160;  678.940
1059.508;   20.061;  -12.920;  643.820
1060.055;   19.640;  -11.920;  581.780
1060.601;   19.694;  -11.500;  624.300
1061.148;   19.888;  -14.330;  616.820
1061.694;   18.584;  -16.870;  592.580
1062.241;   19.328;  -10.330;  596.320
1062.787;   18.619;  -10.620;  663.140
1063.334;   21.007;  -10.110;  808.560
1063.880;   18.827;  -13.400;  668.360
1064.426;   19.003;  -10.680;  706.820
1064.972;   18.016;   -9.920;  601.340
1065.518;   17.271;  -10.980;  566.640
1066.065;   18.278;  -14.890;  624.460
1066.611;   17.298;  -12.870;  598.800
1067.157;   17.860;  -12.950;  641.860
1067.703;   17.928;  -13.540;  668.480
1068.249;   17.253;  -13.540;  605.220
1068.794;   17.784;  -12.600;  626.880
1069.340;   16.811;  -10.620;  578.960
1069.886;   17.710;  -12.830;  590.700
1070.432;   16.078;  -14.870;  541.720
1070.977;   16.296;  -11.980;  601.080
1071.523;   17.066;   -8.200;  573.060
1072.068;   16.572;  -12.330;  582.000
1072.614;   16.473;  -16.370;  527.760
1073.160;   17.808;  -11.100;  687.040
1073.705;   16.021;  -10.480;  572.520
1074.250;   16.129;  -14.520;  559.900
1074.796;   16.618;  -11.460;  655.160
1075.341;   16.258;  -11.950;  664.100
1075.886;   16.644;  -11.460;  594.240
1076.431;   15.641;  -13.770;  649.880
1076.976;   14.988;  -12.680;  639.220
1077.521;   14.205;  -13.170;  583.080
1078.067;   14.052;  -10.860;  579.400
1078.612;   15.405;  -13.920;  661.620
1079.156;   14.698;  -13.880;  601.540
1079.701;   15.697;  -13.120;  693.260
1080.246;   15.666;   -9.940;  696.300
1080.791;   14.561;  -14.740;  625.020
1081.336;   15.536;  -13.750;  659.320
1081.880;   14.648;  -13.400;  649.680
1082.425;   13.979;  -12.220;  573.480
1082.970;   15.616;  -11.610;  717.040
1083.514;   13.647;  -13.580;  597.000
1084.059;   12.913;  -12.810;  586.720
1084.603;   12.850;  -12.320;  565.840
1085.147;   13.399;  -13.190;  645.220
1085.692;   13.974;  -12.480;  716.800
1086.236;   11.819;  -13.020;  503.140
1086.780;   14.637;   -9.190;  751.440
1087.325;   14.424;  -12.480;  654.620
1087.869;   12.896;  -12.450;  610.700
1088.413;   13.772;  -12.240;  705.040
1088.957;   11.853;   -9.020;  543.400
1089.501;   13.722;  -10.320;  766.640
1090.045;   13.944;  -12.720;  726.480
1090.589;   11.072;  -13.690;  569.920
1091.133;   12.606;  -10.020;  673.340
1091.676;   12.736;  -12.330;  591.940
1092.220;   11.968;  -14.970;  600.920
1092.764;   12.938;  -12.430;  706.960
1093.307;   13.192;   -9.800;  673.780
1093.851;   11.421;  -14.970;  556.540
1094.395;   11.969;  -15.310;  683.140
1094.938;   10.849;  -10.370;  632.520
1095.482;   11.666;  -11.050;  559.800
1096.025;   12.807;  -11.840;  710.880
1096.568;   11.967;  -12.840;  779.280
1097.112;   10.335;  -14.700;  508.180
1097.655;   11.336;   -8.720;  603.000
1098.198;   10.210;  -13.610;  600.180
1098.741;    9.597;  -13.350;  612.860
1099.285;   11.447;  -11.230;  657.300
1099.828;    9.502;  -11.840;  439.400
1100.371;   11.022;  -10.840;  608.160
1100.914;   11.330;  -14.190;  682.660
1101.457;   10.213;  -11.240;  679.900
1101.999;    9.245;  -11.270;  584.680
1102.542;   10.568;  -11.480;  641.440
1103.085;    9.923;  -11.750;  658.500
1103.628;   10.875;  -11.400;  762.060
1104.170;    8.827;  -10.490;  588.280
1104.713;   10.107;  -10.600;  646.700
1105.256;    9.023;  -14.360;  557.440
1105.798;    7.948;  -13.210;  499.980
1106.341;   10.902;  -10.270;  728.900
1106.883;    8.876;  -12.200;  521.340
1107.425;    8.530;  -13.110;  668.180
1107.968;    8.795;  -12.840;  612.380
1108.510;    9.473;   -6.480;  684.960
1109.052;    8.240;  -13.940;  612.620
1109.594;    7.758;  -13.690;  554.440
1110.136;    8.496;  -11.880;  643.220
1110.679;    8.419;   -9.500;  633.080
1111.221;    8.528;  -14.160;  604.460
1111.763;    7.679;  -13.980;  559.220
1112.304;    7.264;  -13.880;  547.140
1112.846;    8.556;  -12.210;  666.240
1113.388;   10.874;  -11.390;  942.180
1113.930;    8.176;  -14.540;  694.200
1114.472;    7.349;  -12.640;  606.540
1115.013;    6.839;  -11.620;  551.280
1115.555;    7.201;  -13.640;  587.100
1116.097;    6.510;  -15.380;  579.480
1116.638;    7.523;  -12.640;  684.600
1117.180;    7.615;   -9.850;  667.740
1117.721;    7.158;  -13.690;  568.580
1118.262;    7.528;  -12.680;  677.960
1118.804;    8.076;  -12.530;  637.340
1119.345;    6.931;  -11.690;  578.400
1119.886;    7.770;  -13.380;  704.040
1120.427;    6.562;  -14.070;  589.020
1120.969;    5.569;  -13.500;  597.920
1121.510;    5.154;  -11.480;  563.060
1122.051;    6.994;  -12.830;  723.580
1122.592;    5.656;  -14.290;  655.420
1123.133;    4.333;  -12.400;  547.940
1123.673;    7.010;  -10.130;  706.480
1124.214;    6.152;  -12.930;  612.460
1124.755;    6.063;  -14.380;  639.460
1125.296;    5.722;  -14.000;  627.320
1125.836;    6.355;  -10.070;  691.500
1126.377;    5.446;  -12.640;  599.660
1126.918;    6.404;  -12.960;  614.980
1127.458;    5.476;  -13.350;  622.220
1127.999;    5.448;  -10.750;  656.980
1128.539;    5.755;  -12.350;  694.240
1129.079;    4.595;  -14.860;  632.720
1129.620;    4.051;  -13.840;  558.100
1130.160;    4.824;  -12.330;  539.480
1130.700;    4.980;  -14.530;  640.840
1131.240;    5.464;  -12.530;  643.700
1131.781;    4.259;  -14.450;  619.680
1132.321;    5.041;   -9.790;  599.120
1132.861;    3.009;  -14.860;  564.200
1133.401;    3.667;  -14.290;  593.940
1133.941;    4.529;  -11.750;  626.280
1134.481;    4.060;   -9.920;  597.580
1135.020;    4.648;  -12.290;  609.160
1135.560;    4.427;  -11.650;  674.940
1136.100;    2.563;  -16.270;  501.160
1136.640;    2.759;  -10.890;  510.480
1137.179;    3.821;  -14.180;  537.960
1137.719;    3.148;  -16.250;  605.400
1138.258;    3.216;  -14.230;  587.360
1138.798;    3.727;   -9.090;  663.780
1139.337;    2.132;  -15.130;  482.840
1139.877;    2.837;  -13.680;  642.360
1140.416;    4.478;  -11.320;  878.060
1140.955;    3.064;  -10.860;  535.380
1141.494;    3.286;  -12.920;  669.280
1142.034;    2.536;  -13.930;  583.520
1142.573;    3.670;  -11.440;  646.280
1143.112;    2.148;  -12.000;  553.480
1143.651;    3.176;  -13.670;  536.480
1144.190;    3.382;  -12.730;  691.640
1144.729;    2.548;  -14.560;  607.420
1145.267;    2.337;  -11.830;  584.900
1145.806;    3.859;  -12.230;  637.040
1146.345;    2.472;  -14.130;  635.020
1146.884;    1.626;  -11.590;  622.500
1147.422;    1.289;  -12.550;  533.060
1147.961;    3.310;  -11.180;  708.460
1148.500;    2.968;  -11.510;  669.720
1149.038;    2.995;  -11.640;  632.500
1149.577;    3.244;  -10.130;  698.640
1150.115;    0.842;  -13.970;  452.280
1150.653;    2.495;  -14.520;  607.340
1151.192;    1.667;  -12.810;  552.920
1151.730;    2.234;   -9.100;  652.560
1152.268;    1.634;  -12.220;  589.520
1152.806;    1.661;  -14.140;  571.180
1153.344;   -0.044;  -12.350;  577.640
1153.882;    1.621;   -8.980;  600.060
1154.421;    0.255;  -15.190;  470.620
1154.958;    0.343;  -15.210;  595.240
1155.496;    2.469;  -12.850;  645.280
1156.034;    1.429;   -9.940;  721.880
1156.572;    2.277;  -13.570;  667.060
1157.110;   -0.570;  -14.590;  473.940
1157.647;    0.962;  -13.030;  676.960
1158.185;    0.091;  -12.140;  564.320
1158.723;   -0.636;  -14.390;  509.200
1159.260;    1.139;  -14.090;  701.700
1159.798;    0.631;  -11.920;  658.160
1160.335;    0.405;  -11.110;  631.820

