
Integration time [ms]:   3.276
Averaging Nr. [scans]: 1000
Smoothing Nr. [pixels]: 0
Data measured with spectrometer [name]: 7414430SP
Wave   ;Sample   ;Dark     ;Reference
[nm]   ;[counts] ;[counts] ;[counts] 

288.544;  150.122;    7.793;  793.890
289.143;  154.241;    7.462;  681.602
289.742;  154.500;    8.602;  828.814
290.341;  140.423;    1.321;  789.841
290.940;  128.477;   -0.709;  730.702
291.538;  129.783;    0.881;  881.108
292.137;  130.326;    0.122;  792.581
292.736;  135.411;   -1.929;  975.101
293.335;  131.502;   -8.229;  735.086
293.934;  132.264;   -5.279;  781.677
294.532;  130.328;   -1.369; 1031.958
295.131;  116.670;   -7.641;  834.394
295.730;  115.789;   -8.420;  809.588
296.328;  115.542;   -5.611;  783.442
296.927;  116.264;   -5.781;  779.652
297.525;  117.563;   -6.361;  781.236
298.124;  107.509;  -11.382;  654.009
298.722;  111.283;   -7.641;  761.933
299.321;  108.590;   -6.811;  708.597
299.919;  107.647;   -6.991;  751.918
300.518;  104.855;  -10.362;  689.338
301.116;  105.901;   -9.581;  691.381
301.715;  105.884;   -4.891;  730.222
302.313;  105.051;   -8.801;  704.943
302.911;   99.721;   -8.522;  733.830
303.509;  105.135;   -6.171;  925.627
304.108;  102.665;   -7.311;  760.383
304.706;  102.173;   -8.321;  801.664
305.304;   96.609;  -10.222;  796.707
305.902;  102.060;   -6.021;  784.484
306.500;   97.276;   -4.971;  728.200
307.098;   96.136;   -7.061;  746.560
307.696;   93.918;   -8.801;  780.432
308.294;   95.064;   -6.411;  731.359
308.892;   96.219;   -2.901;  759.769
309.490;   92.583;   -5.041;  712.161
310.088;   91.302;   -5.002;  788.444
310.686;   96.415;   -2.041;  821.749
311.284;   91.487;   -2.351;  766.040
311.882;   88.892;   -4.422;  731.225
312.480;   85.073;   -4.192;  697.167
313.078;   86.652;   -1.172;  808.331
313.675;   88.679;   -2.601;  691.600
314.273;   82.783;   -1.312;  797.837
314.871;   81.958;   -3.942;  589.829
315.468;   80.384;   -2.802;  652.090
316.066;   83.161;   -0.701;  694.427
316.664;   76.352;   -4.362;  656.351
317.261;   79.416;   -2.872;  910.128
317.859;   75.991;   -2.022;  768.735
318.456;   75.805;   -0.531;  830.096
319.054;   71.432;   -3.912;  787.828
319.651;   70.639;   -4.752;  759.928
320.249;   69.929;   -2.602;  810.188
320.846;   67.073;   -0.821;  714.286
321.443;   64.375;   -4.642;  832.135
322.041;   61.449;   -5.002;  812.315
322.638;   60.020;   -3.982;  701.456
323.235;   61.341;   -3.411;  665.683
323.833;   58.093;   -7.361;  740.354
324.430;   53.365;   -8.611;  615.900
325.027;   54.605;   -4.061;  876.855
325.624;   53.974;   -4.031;  644.532
326.221;   51.704;   -7.481;  689.717
326.818;   50.300;   -5.281;  818.332
327.415;   53.719;   -7.460;  748.828
328.012;   53.385;   -5.510;  690.585
328.609;   51.957;   -7.880;  731.389
329.206;   49.372;   -8.331;  778.621
329.803;   49.917;   -5.121;  737.841
330.400;   52.740;   -4.510;  704.260
330.997;   54.668;   -6.441;  817.147
331.594;   52.508;   -8.831;  788.185
332.191;   58.303;   -7.621;  728.722
332.787;   61.033;   -4.591;  844.463
333.384;   60.227;   -7.412;  763.093
333.981;   57.492;   -8.293;  815.687
334.578;   61.224;   -7.052;  708.378
335.174;   64.283;   -3.102;  731.469
335.771;   63.370;   -5.943;  836.456
336.367;   59.477;   -7.393;  710.631
336.964;   64.130;   -4.063;  793.266
337.561;   61.995;   -3.813;  731.112
338.157;   57.530;   -4.654;  911.916
338.754;   53.973;   -7.934;  796.589
339.350;   54.091;   -4.414;  722.493
339.946;   55.433;   -4.664;  773.135
340.543;   47.374;   -6.375;  846.136
341.139;   42.298;   -9.815;  720.836
341.735;   39.149;   -4.526;  772.593
342.332;   38.359;   -4.895;  691.472
342.928;   37.978;   -4.295;  795.394
343.524;   32.785;   -5.476;  761.684
344.120;   28.894;   -5.856;  738.562
344.716;   32.431;   -2.155;  723.717
345.313;   30.393;   -6.275;  795.342
345.909;   24.790;   -8.815;  627.336
346.505;   26.551;   -5.305;  740.247
347.101;   26.699;   -2.674;  827.864
347.697;   26.722;   -4.344;  785.398
348.293;   21.915;   -9.975;  627.244
348.889;   22.917;   -5.774;  745.914
349.485;   22.337;   -5.004;  688.205
350.081;   23.272;   -4.704;  772.592
350.676;   17.737;   -6.635;  691.606
351.272;   22.027;   -4.504;  809.530
351.868;   21.956;   -3.914;  780.497
352.464;   19.166;   -9.044;  723.932
353.059;   15.162;   -8.314;  646.017
353.655;   18.850;   -7.024;  777.063
354.251;   19.091;   -5.343;  759.845
354.846;   14.676;   -8.604;  740.646
355.442;   12.122;   -6.945;  753.071
356.038;   13.848;   -7.564;  751.708
356.633;   14.268;   -5.814;  728.594
357.229;   11.506;   -7.364;  724.757
357.824;   10.651;   -8.024;  703.600
358.420;    9.738;   -9.384;  679.726
359.015;    9.971;   -5.104;  695.357
359.610;   10.943;   -6.854;  763.920
360.206;    5.285;  -10.185;  603.240
360.801;    8.325;   -7.054;  646.503
361.396;   10.299;   -5.034;  725.975
361.992;    5.126;   -8.284;  668.220
362.587;    3.169;   -8.625;  670.160
363.182;    4.320;   -7.674;  689.631
363.777;    6.115;   -5.164;  738.242
364.372;    5.444;   -8.604;  737.314
364.967;    1.407;   -9.055;  680.744
365.563;    5.565;   -6.114;  815.567
366.158;    3.593;   -5.814;  685.161
366.753;    3.413;   -7.854;  649.263
367.348;    0.566;   -7.804;  746.056
367.942;    2.313;   -7.954;  697.298
368.537;    0.551;   -4.984;  754.245
369.132;    0.833;   -8.564;  703.428
369.727;   -3.767;   -8.855;  638.079
370.322;   -1.561;   -6.245;  580.186
370.917;   -2.394;   -6.425;  710.646
371.511;    0.612;   -6.294;  861.834
372.106;   -2.366;   -7.685;  776.964
372.701;   -5.632;   -7.335;  585.988
373.296;   -0.047;   -4.564;  863.135
373.890;   -4.678;  -10.235;  647.840
374.485;   -7.500;   -7.885;  691.199
375.079;   -3.598;   -7.324;  738.685
375.674;   -1.820;   -3.494;  812.970
376.268;   -6.489;   -8.525;  691.759
376.863;  -12.319;  -10.086;  580.327
377.457;   -6.149;   -7.025;  662.490
378.052;   -8.069;   -3.585;  764.884
378.646;   -8.436;   -7.595;  741.167
379.240;   -9.522;   -8.335;  721.176
379.835;   -7.991;   -5.785;  636.978
380.429;  -10.133;   -4.335;  562.557
381.023;   -9.836;   -6.805;  779.205
381.617;  -12.549;   -9.195;  680.106
382.212;   -9.585;   -6.905;  685.303
382.806;   -8.261;   -3.745;  760.690
383.400;  -12.129;   -7.745;  672.281
383.994;  -13.098;   -9.765;  664.870
384.588;   -9.325;   -6.564;  697.701
385.182;   -7.698;   -5.344;  726.624
385.776;  -10.173;   -8.514;  706.875
386.370;  -12.575;   -9.555;  681.968
386.964;  -11.720;   -8.715;  684.155
387.558;  -10.422;   -6.174;  598.360
388.152;  -13.822;   -8.725;  681.959
388.745;  -11.935;   -7.965;  814.707
389.339;   -9.518;   -5.924;  747.642
389.933;   -8.718;   -5.524;  695.370
390.527;   -9.639;   -7.114;  859.029
391.120;  -16.994;  -10.725;  595.318
391.714;  -13.375;   -8.035;  711.633
392.308;  -10.149;   -3.574;  780.253
392.901;  -14.081;   -7.245;  642.460
393.495;  -16.272;   -9.285;  595.414
394.089;  -13.698;   -5.895;  760.452
394.682;  -13.235;   -4.295;  697.188
395.275;  -15.106;   -9.875;  719.927
395.869;  -16.118;   -8.485;  667.314
396.462;  -14.331;   -7.455;  616.609
397.056;  -10.746;   -5.424;  776.621
397.649;  -15.256;   -6.605;  731.575
398.242;  -12.874;   -8.224;  712.645
398.836;  -11.958;   -7.474;  766.408
399.429;  -12.666;   -7.094;  631.041
400.022;  -16.805;   -9.475;  665.902
400.615;  -13.943;   -7.145;  805.609
401.208;  -12.226;   -7.174;  691.451
401.802;  -14.413;   -5.515;  699.329
402.395;  -15.002;   -9.875;  683.502
402.988;  -16.160;   -8.845;  696.627
403.581;  -13.134;   -8.874;  646.878
404.174;  -10.807;   -5.324;  686.568
404.767;  -13.794;   -9.575;  638.583
405.360;  -16.469;  -10.965;  621.445
405.953;  -10.759;   -8.764;  759.034
406.545;  -10.676;   -7.514;  725.342
407.138;  -14.476;  -10.025;  618.350
407.731;  -14.115;  -10.034;  613.303
408.324;   -9.084;   -9.374;  660.554
408.917;  -10.452;   -6.534;  681.864
409.509;  -12.921;   -8.004;  740.396
410.102;  -14.504;   -9.875;  643.948
410.695;   -8.567;   -8.604;  665.758
411.287;   -9.525;   -6.794;  599.821
411.880;  -10.720;   -9.334;  585.421
412.472;  -14.013;  -10.254;  613.092
413.065;  -10.918;   -6.714;  629.408
413.657;   -8.166;   -7.234;  576.678
414.250;   -8.293;  -10.544;  646.681
414.842;  -10.915;   -9.744;  676.353
415.434;   -8.272;   -6.994;  570.463
416.027;   -4.051;   -5.893;  652.196
416.619;   -6.203;   -7.264;  713.400
417.211;   -6.855;  -10.374;  599.352
417.804;   -3.712;   -7.993;  628.499
418.396;   -6.633;   -7.234;  607.643
418.988;   -4.435;   -9.443;  659.238
419.580;   -8.352;  -10.724;  568.276
420.172;   -6.336;  -10.323;  536.196
420.764;   -1.919;   -8.793;  672.482
421.356;   -2.819;  -11.143;  636.898
421.948;   -3.781;   -8.293;  677.661
422.540;    1.341;   -7.893;  680.027
423.132;    0.343;   -7.082;  600.641
423.724;   -3.242;   -8.653;  561.267
424.316;   -0.646;  -10.213;  621.345
424.908;    2.826;   -9.762;  591.517
425.500;    3.794;   -5.572;  647.978
426.092;    3.425;   -8.422;  648.268
426.683;    2.957;   -9.283;  684.836
427.275;    5.165;   -7.852;  641.471
427.867;    6.186;   -5.272;  668.948
428.458;    7.739;   -7.682;  732.344
429.050;    5.922;  -10.612;  680.749
429.642;    7.926;   -9.882;  743.124
430.233;    8.612;   -6.962;  569.356
430.825;    9.720;   -6.842;  724.809
431.416;    6.928;   -9.672;  698.241
432.008;   11.546;   -6.552;  651.723
432.599;   11.786;   -6.891;  656.073
433.190;    8.421;  -10.912;  637.670
433.782;    7.775;  -11.172;  590.395
434.373;   14.671;   -6.061;  884.765
434.964;   13.659;   -8.251;  602.920
435.556;   11.751;   -9.722;  634.537
436.147;   14.458;   -9.082;  758.490
436.738;   14.252;   -8.041;  701.099
437.329;   18.684;   -7.341;  721.723
437.920;   12.308;   -8.162;  666.688
438.511;   12.387;  -11.802;  564.526
439.103;   19.115;  -10.191;  623.998
439.694;   21.453;   -7.601;  681.583
440.285;   21.755;   -8.541;  764.432
440.876;   19.802;   -9.751;  845.738
441.466;   19.142;   -9.401;  575.162
442.057;   24.985;   -7.760;  665.814
442.648;   22.953;   -9.971;  746.255
443.239;   20.479;  -11.001;  620.477
443.830;   26.751;   -7.990;  704.958
444.421;   28.686;   -7.910;  655.474
445.011;   24.421;   -8.131;  693.619
445.602;   24.877;   -7.111;  743.126
446.193;   26.546;  -10.920;  488.117
446.783;   30.440;   -6.500;  640.397
447.374;   25.667;   -8.671;  692.759
447.964;   26.641;  -10.781;  713.770
448.555;   34.839;   -9.650;  822.742
449.145;   31.439;   -8.660;  662.853
449.736;   32.427;   -8.990;  803.179
450.326;   31.919;   -9.500;  713.626
450.917;   37.448;   -8.680;  675.324
451.507;   37.388;   -7.520;  600.661
452.097;   36.791;   -8.590;  746.267
452.688;   37.657;  -11.340;  742.160
453.278;   37.504;  -10.100;  566.840
453.868;   42.222;   -6.019;  793.550
454.458;   40.613;   -9.440;  651.141
455.048;   40.211;  -10.560;  711.783
455.639;   42.069;  -11.799;  567.096
456.229;   45.203;   -6.899;  710.694
456.819;   47.064;   -7.389;  751.158
457.409;   47.608;  -11.119;  773.993
457.999;   50.496;   -9.289;  737.505
458.589;   50.040;   -6.139;  686.606
459.179;   50.317;   -8.729;  717.658
459.769;   47.322;   -9.789;  627.099
460.358;   52.616;  -10.259;  797.262
460.948;   52.925;   -7.299;  689.503
461.538;   54.557;  -10.289;  660.677
462.128;   52.467;  -11.269;  664.934
462.717;   59.646;   -9.368;  710.326
463.307;   62.147;   -7.908;  705.846
463.897;   57.369;   -9.599;  656.942
464.486;   56.654;   -9.769;  837.128
465.076;   61.841;   -8.048;  733.776
465.666;   64.780;   -9.358;  652.900
466.255;   62.924;   -7.919;  785.651
466.845;   61.114;  -11.689;  666.749
467.434;   65.062;   -7.818;  725.873
468.023;   65.920;   -7.678;  658.357
468.613;   62.863;  -10.939;  713.946
469.202;   67.690;  -10.118;  646.507
469.791;   71.485;   -9.108;  737.811
470.381;   74.416;   -6.058;  742.813
470.970;   74.054;  -10.428;  711.099
471.559;   73.035;  -10.268;  733.291
472.148;   76.474;   -8.448;  675.737
472.738;   79.168;   -6.917;  765.466
473.327;   78.115;  -11.978;  637.529
473.916;   77.861;  -11.888;  737.446
474.505;   82.000;   -9.437;  751.703
475.094;   85.903;   -6.747;  806.570
475.683;   84.775;   -9.367;  797.699
476.272;   86.324;  -12.637;  730.632
476.861;   88.723;  -10.027;  706.754
477.449;   95.680;   -8.716;  728.487
478.038;   89.545;   -9.577;  692.513
478.627;   90.455;   -9.718;  714.852
479.216;   97.334;   -8.947;  769.441
479.805;  100.217;   -6.256;  783.375
480.393;  100.389;   -7.937; 1008.945
480.982;   99.377;   -7.717;  874.501
481.571;  105.121;   -9.266;  858.333
482.159;  106.198;   -7.636;  705.386
482.748;  106.090;   -9.667;  821.385
483.336;  109.426;  -10.376;  858.209
483.925;  110.845;   -7.147;  774.373
484.513;  118.040;   -7.996;  758.962
485.102;  115.493;  -10.027;  810.965
485.690;  123.330;  -10.446; 1011.050
486.278;  125.216;   -8.446;  979.329
486.867;  125.254;   -6.356;  809.662
487.455;  127.682;   -9.136;  898.229
488.043;  129.205;  -10.646;  748.361
488.631;  137.540;   -7.456; 1005.079
489.220;  142.548;   -6.636;  908.626
489.808;  142.726;  -11.036;  741.415
490.396;  150.180;  -10.246;  914.645
490.984;  156.925;   -8.556;  830.161
491.572;  167.490;   -5.886;  940.315
492.160;  173.875;   -9.486;  919.081
492.748;  186.704;  -10.976;  884.341
493.336;  210.465;   -8.776; 1019.693
493.924;  238.805;   -5.465;  958.077
494.512;  270.709;   -9.986; 1066.638
495.100;  313.021;  -10.636; 1103.280
495.687;  371.566;  -10.885; 1206.373
496.275;  432.301;   -8.126; 1150.796
496.863;  498.590;  -10.586; 1281.171
497.451;  607.651;  -11.926; 1386.805
498.038;  758.471;  -10.885; 1556.729
498.626;  873.216;   -6.315; 1741.407
499.214; 1026.534;   -7.326; 2016.609
499.801; 1248.573;  -11.906; 2220.633
500.389; 1505.750;  -10.466; 2312.494
500.976; 1861.839;   -5.236; 2744.849
501.564; 2279.158;   -8.936; 3148.565
502.151; 2664.995;  -13.176; 3515.999
502.738; 3234.498;  -10.646; 3971.274
503.326; 3651.761;   -9.525; 4403.796
503.913; 4089.590;  -10.856; 5161.749
504.500; 4437.558;  -11.586; 5986.420
505.088; 4881.263;  -10.336; 6381.201
505.675; 5400.163;   -6.355; 6925.547
506.262; 5970.861;   -9.046; 7619.060
506.849; 6667.783;  -10.416; 8733.969
507.436; 7228.737;  -10.305; 9790.121
508.023; 7639.175;   -5.496; 9985.472
508.610; 7910.250;   -7.856;10434.618
509.197; 8769.595;  -10.097;11198.435
509.784;10342.736;  -10.886;12391.194
510.371;11482.132;   -9.315;13603.713
510.958;12202.776;   -9.936;14426.586
511.545;12963.024;   -9.326;15243.775
512.132;13380.042;  -10.075;15945.876
512.719;13821.814;   -7.796;16340.369
513.305;15189.702;  -10.606;18011.766
513.892;16150.830;  -11.486;19754.971
514.479;17341.750;   -9.126;20967.805
515.066;18326.916;   -6.026;22299.793
515.652;19282.578;   -8.466;22908.660
516.239;20764.445;  -10.886;23798.875
516.825;21413.965;  -11.496;25567.275
517.412;21958.555;   -5.796;28154.959
517.998;22870.023;  -10.506;28344.111
518.585;23346.576;  -10.076;27134.219
519.171;23609.307;   -8.315;27268.576
519.758;25153.785;   -8.596;28964.129
520.344;26388.195;   -8.466;30664.494
520.930;26395.008;  -11.006;32550.605
521.516;28069.574;  -10.495;35422.895
522.103;30039.867;   -5.526;38280.004
522.689;30747.031;   -8.746;37835.117
523.275;29685.424;  -11.376;37288.613
523.861;29392.121;  -11.156;37281.395
524.447;30802.842;   -8.135;37846.949
525.033;30263.877;   -7.896;38321.949
525.619;29484.328;  -12.476;38579.285
526.205;28294.600;   -9.516;40622.875
526.791;29020.867;   -6.926;42258.836
527.377;31470.203;   -8.346;42966.902
527.963;37015.418;   -8.717;42018.949
528.549;38014.699;  -11.016;42476.828
529.135;36396.305;   -8.536;41854.852
529.721;35990.406;   -9.666;41237.711
530.306;35620.047;  -10.066;41259.445
530.892;35442.738;  -11.356;41506.047
531.478;36095.418;   -6.596;43559.613
532.063;37960.066;   -8.836;47695.563
532.649;38112.375;  -10.047;50808.324
533.235;40674.109;   -9.746;51787.500
533.820;42880.250;   -6.566;52145.035
534.406;42730.020;  -10.817;51133.488
534.991;41279.301;   -9.416;49996.805
535.576;39660.426;   -9.036;48882.852
536.162;40073.777;   -6.156;46942.285
536.747;40810.527;  -11.607;45711.746
537.333;42980.605;  -11.787;48510.180
537.918;44183.910;  -12.437;50439.891
538.503;42012.965;   -7.196;50863.711
539.088;38725.723;  -10.556;50906.922
539.673;37640.316;   -8.767;52621.965
540.259;35547.563;  -10.026;52368.094
540.844;33486.063;   -7.416;50879.109
541.429;36855.738;   -9.467;52077.777
542.014;43437.539;   -9.527;52716.695
542.599;46154.328;   -9.946;52363.281
543.184;43857.332;   -7.927;53187.137
543.769;44832.297;   -9.297;54697.605
544.354;45239.840;  -10.127;53913.914
544.938;44419.023;   -9.267;49680.164
545.523;46370.941;   -6.506;47386.277
546.108;47954.262;   -9.787;49151.949
546.693;49858.141;  -11.587;51384.637
547.278;50424.227;  -10.986;51853.254
547.862;46460.578;   -8.206;51173.750
548.447;41706.168;  -10.067;51691.395
549.031;41321.316;   -9.637;52456.703
549.616;46063.492;   -9.926;52714.516
550.201;46177.504;   -6.347;52414.598
550.785;45600.535;   -7.917;52355.059
551.370;45448.301;  -10.867;54589.453
551.954;46279.031;   -9.047;58267.348
552.538;48250.770;   -7.827;59062.176
553.123;47059.188;  -10.287;58115.285
553.707;45332.324;  -12.178;56556.285
554.291;45598.250;   -8.717;56201.668
554.876;44999.602;   -7.457;55335.762
555.460;45426.715;  -10.387;54155.703
556.044;48385.426;   -9.618;53721.484
556.628;45962.973;  -11.567;53731.016
557.212;45285.059;   -8.097;54312.531
557.796;43636.211;  -11.077;53797.773
558.380;44200.574;  -11.108;56145.984
558.964;44709.324;   -9.057;57277.930
559.548;44158.520;   -6.977;56459.641
560.132;42492.805;  -11.457;54434.543
560.716;41876.383;  -11.378;54800.617
561.300;41855.535;   -9.577;57606.945
561.884;43301.418;   -7.127;58972.445
562.467;43136.656;   -7.118;57327.570
563.051;42304.320;  -13.358;54962.434
563.635;42621.105;  -10.178;52594.473
564.219;44235.742;   -7.837;50610.410
564.802;45175.910;  -11.398;49551.180
565.386;44899.668;  -12.788;48370.953
565.969;44032.145;   -9.077;48178.871
566.553;43925.859;   -6.207;49957.305
567.136;44151.855;   -8.568;50369.594
567.720;40364.973;  -11.868;49492.004
568.303;39661.965;   -8.268;50616.352
568.887;39706.430;   -8.698;50727.148
569.470;39126.930;   -6.808;51698.379
570.053;37075.215;  -13.188;52122.078
570.637;35751.672;  -12.037;52536.438
571.220;35435.566;   -8.577;51186.098
571.803;35616.055;   -8.498;51032.762
572.386;38002.773;  -10.498;49609.887
572.969;41104.367;   -9.388;48285.926
573.552;39752.352;   -8.338;47624.285
574.135;39012.133;   -8.518;45498.641
574.718;36051.422;  -13.628;41970.434
575.301;35142.734;  -10.893;41447.137
575.884;34234.043;   -8.158;40923.836
576.467;34579.992;  -10.328;45267.723
577.050;37289.160;  -13.058;48175.543
577.633;39040.316;   -9.458;47729.328
578.216;37304.777;   -8.928;47579.793
578.799;35990.969;   -9.358;47820.996
579.381;34474.344;  -11.388;48115.551
579.964;32802.465;  -11.718;47333.766
580.547;33981.684;   -8.588;46668.969
581.129;34817.695;   -8.859;44466.141
581.712;35063.000;  -10.729;44164.922
582.294;35945.988;  -11.118;46477.855
582.877;36895.547;   -5.218;48244.254
583.459;35462.500;   -8.679;47437.895
584.042;33582.410;  -10.709;46943.219
584.624;33622.590;  -11.669;46792.227
585.206;32921.223;   -8.218;46557.250
585.789;34252.906;  -10.569;45793.773
586.371;37240.410;  -11.859;43836.391
586.953;37350.758;  -10.719;42972.492
587.536;37687.465;   -7.198;42487.211
588.118;37054.004;   -8.720;42086.414
588.700;34032.195;  -10.439;43389.930
589.282;33692.148;   -9.198;43646.039
589.864;34366.008;   -9.199;43438.109
590.446;35571.125;  -11.319;43151.926
591.028;35147.844;  -11.159;42781.867
591.610;34298.359;  -11.779;42839.098
592.192;31567.873;   -7.668;42820.402
592.774;29881.184;  -11.949;40724.277
593.356;28862.205;  -12.129;39874.789
593.937;29395.535;  -10.669;39980.648
594.519;31755.580;   -6.509;42069.633
595.101;32722.920;  -10.849;42976.031
595.683;32771.438;  -11.679;44084.441
596.264;34126.504;   -9.049;43478.797
596.846;33204.859;   -8.849;43803.672
597.427;32027.791;   -9.570;42986.934
598.009;33708.813;  -12.620;42832.219
598.591;34034.980;  -10.039;42580.086
599.172;33606.090;  -10.369;43061.805
599.753;33734.137;   -9.140;41691.469
600.335;35297.816;  -11.430;40692.520
600.916;33339.547;   -9.939;39982.422
601.498;31718.350;   -8.479;40318.617
602.079;31092.428;  -10.920;40670.609
602.660;31167.453;  -11.480;41450.898
603.241;30706.111;  -11.699;41137.738
603.823;29015.646;   -9.579;38868.797
604.404;29823.516;  -10.620;38182.785
604.985;31367.096;  -10.450;38078.047
605.566;30523.818;   -9.129;38056.633
606.147;29957.438;   -7.510;37020.418
606.728;32459.648;  -10.660;37883.359
607.309;31721.381;  -11.740;38748.273
607.890;30578.141;   -9.759;38850.230
608.471;30605.068;   -8.250;37457.918
609.051;30947.553;   -9.240;36066.457
609.632;29668.195;  -12.120;35991.074
610.213;29907.623;   -9.110;37402.641
610.794;29958.191;   -8.030;38383.363
611.374;28641.689;   -8.110;40562.387
611.955;28638.104;  -13.560;38533.727
612.536;30625.377;  -11.400;36951.789
613.116;30795.334;   -8.070;37197.891
613.697;31088.912;  -10.830;38411.125
614.277;29759.270;  -11.641;38673.938
614.858;30621.916;  -13.310;37075.863
615.438;30883.240;   -7.460;35092.906
616.019;28496.367;   -7.601;33666.301
616.599;28948.473;  -12.020;34189.023
617.179;30599.822;  -11.780;36952.047
617.760;30839.105;   -8.570;39582.574
618.340;32064.018;  -11.471;38943.977
618.920;33575.102;  -11.170;37594.156
619.500;33408.797;  -11.071;37866.938
620.080;32868.117;   -7.750;37869.043
620.660;33593.750;  -12.711;36868.617
621.241;34367.523;  -10.211;36352.309
621.821;33646.352;  -10.961;35459.520
622.401;33229.086;   -7.720;35207.414
622.980;32113.234;   -8.981;35980.422
623.560;30732.668;   -9.331;37351.328
624.140;30352.520;   -9.850;34388.582
624.720;26234.746;   -7.451;32368.764
625.300;22300.428;   -9.070;32638.629
625.880;24768.539;  -12.601;34599.035
626.459;28501.930;  -11.751;36831.738
627.039;31125.471;   -9.281;38299.098
627.619;31314.760;   -8.801;38289.574
628.198;29889.576;  -12.071;37220.695
628.778;29451.781;   -9.461;37632.563
629.357;30272.787;   -8.491;38003.012
629.937;30046.154;   -9.721;38402.039
630.516;28931.734;   -9.951;37868.801
631.096;28943.252;  -11.731;35760.410
631.675;32626.254;   -8.572;35225.219
632.254;38043.707;  -11.282;35130.289
632.834;36766.605;  -13.322;35794.570
633.413;34913.543;  -10.301;35788.922
633.992;32231.777;   -8.582;34532.863
634.571;33705.473;   -8.352;33590.113
635.151;35249.234;  -11.912;34943.863
635.730;32931.875;  -10.511;35352.523
636.309;30313.736;   -7.731;35366.605
636.888;28416.504;   -9.952;36165.637
637.467;28706.080;  -11.672;37515.902
638.046;30780.787;   -8.901;39288.695
638.625;33489.992;   -7.912;38279.699
639.204;33608.836;  -10.022;37741.598
639.782;32062.422;  -12.252;38364.551
640.361;28572.729;  -10.041;36740.621
640.940;26025.645;  -11.161;34950.082
641.519;25847.061;   -9.701;34137.398
642.097;27800.248;  -11.271;35654.258
642.676;30856.242;   -8.651;35637.957
643.255;32340.365;   -8.711;36567.074
643.833;31031.971;   -9.581;37809.434
644.412;31353.627;  -13.711;37337.293
644.990;31336.596;  -11.811;37018.531
645.569;31726.371;   -9.411;36518.469
646.147;30519.797;  -10.291;36186.430
646.726;29388.027;  -12.401;36267.688
647.304;30180.807;  -10.411;36647.625
647.882;31441.797;   -9.651;39286.742
648.461;32956.836;   -9.631;39157.703
649.039;32379.447;  -11.881;35412.883
649.617;31895.984;   -9.661;34744.918
650.195;31753.598;   -9.301;35403.098
650.773;31108.805;  -10.511;35053.797
651.352;29407.371;  -11.521;33756.816
651.930;26581.615;  -12.211;31868.773
652.508;23621.963;   -9.171;33121.551
653.086;26679.018;   -9.371;33564.793
653.663;30701.641;  -13.161;34054.668
654.241;29888.268;  -13.031;35693.309
654.819;30891.955;   -9.371;36422.906
655.397;29986.102;  -10.511;38213.484
655.975;29799.389;  -10.371;39507.625
656.553;30391.787;  -10.051;39498.223
657.130;29303.742;  -10.061;40395.480
657.708;28603.971;   -9.561;39242.020
658.286;28345.627;  -11.511;38920.020
658.863;28971.658;  -10.261;40202.898
659.441;30841.279;   -7.531;39677.938
660.018;30284.514;   -9.501;40413.355
660.596;29942.688;  -13.301;39931.414
661.173;31744.209;  -11.211;39604.531
661.750;31977.361;   -9.951;39700.070
662.328;31799.449;   -9.390;39292.809
662.905;31403.299;  -11.330;38235.648
663.482;26807.807;   -9.050;36212.305
664.060;24372.652;   -8.240;35944.945
664.637;26849.408;  -10.050;35170.785
665.214;28371.740;  -11.760;34197.523
665.791;30253.240;  -10.530;34549.520
666.368;29563.000;   -9.690;35118.578
666.945;30135.254;   -9.320;36019.418
667.522;31264.387;  -11.860;36048.438
668.099;31604.328;  -10.770;36243.914
668.676;31142.582;   -6.260;35958.875
669.253;29372.053;   -7.000;37384.730
669.830;28857.250;  -10.190;36779.629
670.407;28400.039;   -9.550;35231.289
670.984;29558.695;   -9.260;35544.270
671.560;29470.584;   -9.280;35466.867
672.137;27845.725;  -11.810;34280.863
672.714;28861.719;  -11.490;34632.863
673.290;29213.023;   -7.740;35135.422
673.867;29309.721;  -10.660;36114.480
674.443;29723.910;  -12.230;36152.859
675.020;27874.527;  -10.450;35327.238
675.596;29346.152;   -9.260;35795.176
676.173;30122.053;  -10.780;35430.355
676.749;29336.693;  -13.690;33549.516
677.326;29383.955;  -11.980;32210.012
677.902;29897.451;   -8.630;32068.871
678.478;28885.674;  -10.730;32583.891
679.054;28887.684;  -10.520;32088.928
679.631;30432.986;  -11.920;30978.848
680.207;31272.410;   -7.490;33160.887
680.783;32400.449;   -9.860;35570.363
681.359;31279.887;  -13.380;36125.184
681.935;29950.814;  -12.480;35240.922
682.511;28400.281;   -7.900;34429.961
683.087;28159.760;   -7.710;34463.680
683.663;28683.938;  -11.480;34648.898
684.239;28482.611;  -14.090;34546.457
684.815;28594.764;   -7.560;35586.375
685.390;28711.598;   -9.910;35821.895
685.966;28544.994;  -11.159;35085.871
686.542;30986.170;  -11.169;34198.230
687.118;33046.395;   -5.959;32847.707
687.693;32888.457;  -10.329;32794.027
688.269;32228.244;  -12.059;33072.367
688.844;29790.982;  -10.909;33141.664
689.420;28283.686;   -8.019;33965.742
689.995;27053.986;   -8.399;34655.523
690.571;26423.719;  -10.949;33576.742
691.146;26671.971;   -9.619;32657.219
691.722;25634.061;   -8.999;32526.979
692.297;25280.197;  -11.589;33014.617
692.872;27223.531;  -11.739;34012.254
693.448;27330.732;  -11.059;34237.434
694.023;25864.328;  -10.139;34142.672
694.598;27737.150;   -9.029;34132.031
695.173;27720.877;  -13.319;34205.250
695.748;26967.439;  -10.169;32882.488
696.323;26372.953;   -8.339;32864.906
696.898;25872.117;   -8.169;33170.004
697.473;26222.424;  -12.309;32432.984
698.048;26877.162;  -10.989;31649.303
698.623;27507.664;   -9.329;30778.141
699.198;28872.900;   -9.849;31140.119
699.773;29493.561;  -12.329;31764.299
700.348;28681.873;  -10.389;31780.816
700.922;29169.971;   -9.269;32046.375
701.497;29330.047;   -9.329;32603.574
702.072;29469.498;  -10.789;34799.871
702.646;29576.994;  -10.839;35793.172
703.221;29021.084;   -9.099;35201.590
703.795;30229.002;  -10.939;34764.527
704.370;28978.055;  -12.859;34307.367
704.944;28875.383;  -11.559;33509.887
705.519;30465.441;   -7.939;31388.584
706.093;31645.865;  -10.499;31340.104
706.668;31369.504;  -11.289;32630.281
707.242;29921.877;  -11.509;32728.779
707.816;28990.020;   -9.639;32947.238
708.390;27275.994;  -11.429;33277.855
708.965;27841.729;  -11.869;33834.336
709.539;28644.414;  -11.689;33709.273
710.113;28816.729;  -10.478;33044.313
710.687;27607.729;  -10.228;31953.992
711.261;25021.623;  -13.698;30505.949
711.835;24920.197;  -13.378;30262.369
712.409;26307.193;   -9.698;31254.447
712.983;27683.445;  -11.898;32754.986
713.557;28686.004;  -15.138;34018.824
714.131;28979.141;  -14.098;34579.625
714.704;28125.324;   -9.958;33890.262
715.278;25654.055;  -10.028;33531.102
715.852;26152.654;  -11.148;33601.660
716.425;27640.227;   -9.068;33515.117
716.999;27987.287;  -10.038;33185.555
717.573;28652.842;   -9.798;33905.996
718.146;29386.414;  -12.378;35199.293
718.720;29351.703;  -11.918;35060.551
719.293;29660.469;   -8.088;34973.230
719.867;32104.191;  -10.888;36394.449
720.440;31618.197;  -11.938;36663.008
721.013;29950.156;  -12.818;35102.426
721.587;28879.104;  -10.298;33985.266
722.160;26974.652;  -10.048;33524.965
722.733;25680.521;  -12.108;32987.043
723.306;26637.287;  -10.818;33066.301
723.880;28170.482;   -8.908;33399.500
724.453;29884.346;   -9.878;33468.297
725.026;28698.352;  -11.188;33816.637
725.599;25700.379;  -11.678;32797.996
726.172;26118.516;   -9.618;33187.434
726.745;28111.910;   -8.258;35136.613
727.318;30482.076;  -12.978;35751.730
727.891;31389.814;  -12.148;35890.430
728.463;30841.623;   -8.968;34822.090
729.036;29152.223;  -10.188;32895.086
729.609;29409.740;  -11.788;31823.225
730.182;25875.947;  -11.788;31445.283
730.754;23596.787;  -10.268;32373.223
731.327;23562.816;   -9.998;33676.820
731.900;23242.953;  -12.228;33417.000
732.472;24677.727;  -13.848;31978.498
733.045;27595.916;   -8.698;30368.777
733.617;28279.006;  -10.607;30574.215
734.190;27502.613;  -11.507;31280.975
734.762;23864.197;  -13.647;31674.412
735.334;22259.008;   -9.767;31247.291
735.907;23094.586;   -9.897;29876.211
736.479;23157.031;  -11.637;29808.488
737.051;22519.438;   -9.567;30233.547
737.623;23542.490;   -8.187;31469.086
738.195;24542.447;  -11.187;31784.225
738.768;26057.336;  -12.337;32120.523
739.340;25551.605;  -12.227;32094.342
739.912;24078.551;  -11.057;31312.680
740.484;23675.023;  -10.207;31946.238
741.056;23178.539;  -10.047;32984.059
741.628;24878.309;  -13.627;33897.715
742.199;27350.754;   -7.177;33213.016
742.771;26103.781;  -10.797;31369.113
743.343;23523.906;  -11.997;31865.473
743.915;21819.311;  -12.867;32388.631
744.487;21818.818;   -7.617;31079.568
745.058;22265.467;   -9.557;30570.107
745.630;23231.061;   -9.877;29970.127
746.201;24547.107;  -14.177;29186.766
746.773;24568.723;   -9.237;28805.723
747.344;23998.117;   -9.847;29591.223
747.916;22540.531;  -11.657;31412.201
748.487;22275.572;  -10.587;32194.898
749.059;23742.779;   -8.707;32533.719
749.630;24785.619;  -10.537;32158.518
750.201;23832.285;  -11.687;30855.395
750.773;22511.912;  -11.647;28622.555
751.344;22603.943;   -7.147;28405.732
751.915;23685.459;   -9.757;28461.551
752.486;22577.701;  -12.427;27842.850
753.057;20287.570;  -12.227;27845.008
753.628;19391.314;  -10.417;27728.107
754.199;20019.758;  -11.767;27381.086
754.770;20877.271;  -11.187;25882.203
755.341;21030.268;  -10.507;25886.184
755.912;21231.225;   -9.387;26050.861
756.483;21185.063;  -10.647;26798.779
757.054;19449.328;  -11.837;27048.238
757.625;17910.535;  -12.716;26294.838
758.195;17498.727;   -9.666;26142.076
758.766;17277.742;   -8.656;26392.234
759.337;18302.180;  -12.856;26334.594
759.907;20044.822;  -13.366;27579.652
760.478;21110.699;   -8.576;28352.770
761.048;20889.584;  -10.526;27325.088
761.619;20110.314;  -11.116;26460.428
762.189;19862.000;  -12.136;26029.826
762.760;20487.686;   -9.456;26430.145
763.330;21295.322;   -7.136;26670.902
763.900;20477.264;  -11.786;26603.021
764.471;17546.285;  -11.546;25542.740
765.041;16388.359;   -8.096;24358.459
765.611;16971.150;   -8.876;23991.297
766.181;17834.859;  -12.196;24470.236
766.751;18703.248;  -11.636;24845.975
767.321;18321.799;  -10.156;24533.633
767.891;16051.352;  -11.766;24916.492
768.461;15432.553;  -14.936;24776.771
769.031;15883.654;  -12.356;24757.988
769.601;17477.189;   -7.526;24181.088
770.171;17735.488;  -10.766;23670.387
770.741;17348.764;  -13.176;22960.045
771.311;17482.379;  -10.616;22917.523
771.880;17538.955;   -9.576;23562.941
772.450;16945.820;  -10.336;24216.500
773.020;16910.717;  -13.516;24140.398
773.589;16664.328;  -13.466;24414.857
774.159;16592.721;   -8.686;23858.717
774.729;16479.053;   -9.476;22942.135
775.298;15645.063;  -13.666;22324.033
775.867;14834.896;  -11.716;21140.313
776.437;14782.926;   -9.906;20838.092
777.006;14690.875;  -12.166;20599.510
777.576;14794.731;  -12.356;20508.809
778.145;15157.482;  -11.646;20732.947
778.714;14971.020;   -8.226;21062.465
779.283;13783.838;   -9.556;20949.664
779.853;13471.774;  -14.116;20508.623
780.422;13977.570;  -11.506;20649.082
780.991;13413.750;   -9.556;21527.520
781.560;12416.823;   -9.095;22632.658
782.129;12377.227;  -12.135;23048.277
782.698;12279.339;  -10.865;23438.555
783.267;11847.964;   -9.335;23267.734
783.836;11673.887;  -11.045;22415.133
784.404;12383.902;  -13.865;20443.152
784.973;12504.278;  -13.095;19699.150
785.542;12341.267;  -11.575;19763.828
786.111;12346.582;   -9.705;20341.408
786.679;12200.446;  -12.105;20207.967
787.248;12274.578;  -12.455;19516.465
787.817;11954.565;  -11.535;18900.363
788.385;11289.271;   -9.765;17879.121
788.954;10424.604;  -14.005;17658.301
789.522;10167.555;  -11.955;17788.879
790.090;10913.643;  -10.135;18118.277
790.659;11313.585;  -10.975;18338.736
791.227;10636.960;  -13.375;18508.615
791.795;11029.881;  -12.375;17898.254
792.364;11338.323;  -10.725;17295.133
792.932;11501.937;   -9.715;16822.051
793.500;11586.866;  -12.675;17040.148
794.068;11768.863;  -13.495;17179.787
794.636;11902.320;  -10.885;16664.246
795.204;11496.258;  -11.045;16524.545
795.772;11320.225;  -13.175;17274.564
796.340;10814.198;  -12.445;17891.002
796.908;10620.483;   -9.735;17648.561
797.476;10567.443;   -9.815;17064.080
798.044;10211.563;  -13.985;16672.777
798.612; 9525.415;  -13.115;17023.996
799.180; 9248.973;  -10.185;16561.615
799.747; 9256.984;   -9.055;15962.773
800.315; 9000.143;  -12.385;15296.992
800.883; 8594.707;  -15.035;14801.771
801.450; 8441.083;  -10.365;14534.430
802.018; 8434.942;   -9.855;14173.248
802.585; 8422.710;  -11.905;14029.547
803.153; 8541.119;  -11.585;13836.846
803.720; 8587.290;   -9.095;13567.324
804.287; 8298.087;   -9.135;13360.622
804.855; 7877.047;  -11.604;13681.981
805.422; 7685.429;  -11.794;13536.560
805.989; 7487.868;  -10.734;13355.958
806.556; 7629.865;  -10.444;13747.896
807.124; 8063.523;  -12.764;13987.376
807.691; 7988.640;  -12.964;14038.674
808.258; 7718.435;  -11.134;14120.152
808.825; 7407.028;   -9.854;13860.111
809.392; 7491.000;  -10.504;13268.790
809.959; 7159.596;  -13.054;12680.389
810.526; 6817.151;   -8.294;12427.308
811.093; 6864.980;   -8.394;12030.105
811.659; 7417.543;  -12.304;11653.664
812.226; 7838.976;  -13.944;11637.183
812.793; 7509.282;  -10.484;11611.521
813.360; 6855.826;  -10.144;11885.181
813.926; 6333.936;  -11.684;12770.539
814.493; 6053.683;  -13.644;12677.638
815.060; 5697.058;   -9.724;11974.336
815.626; 5701.689;   -9.854;11594.715
816.193; 6166.266;  -13.254;11579.474
816.759; 6337.693;  -13.204;11666.972
817.325; 6529.809;   -9.434;11325.530
817.892; 6947.390;  -10.134;11105.369
818.458; 7332.388;  -13.474;10843.928
819.024; 6909.905;  -11.854;10714.406
819.591; 6535.089;  -10.244;10469.165
820.157; 6287.580;  -10.704;10235.523
820.723; 5968.462;  -12.324;10847.563
821.289; 5847.899;   -9.444;11040.980
821.855; 5825.654;   -8.374;10357.100
822.421; 5881.720;  -10.234; 9978.918
822.987; 5775.714;  -13.294; 9754.177
823.553; 5443.292;  -10.884;10065.755
824.119; 5281.126;   -8.884;10036.294
824.685; 5379.971;   -6.784;10029.192
825.251; 5445.008;  -12.004;10199.230
825.816; 5393.410;  -11.474; 9820.189
826.382; 5290.021;   -9.174; 9297.248
826.948; 5565.612;   -9.214; 9381.347
827.513; 5927.896;  -10.774; 9450.726
828.079; 5713.468;  -11.924; 9472.444
828.645; 5207.767;  -10.543; 9292.643
829.210; 5192.778;  -10.533; 9065.341
829.776; 5192.762;  -10.753; 9132.620
830.341; 5131.629;  -10.173; 9092.878
830.906; 5366.922;  -10.743; 9078.557
831.472; 5743.329;  -11.113; 8534.535
832.037; 5520.076;  -10.603; 8677.874
832.602; 4914.382;  -13.323; 8628.692
833.167; 4484.636;  -10.823; 8879.031
833.733; 4387.885;  -10.113; 9189.790
834.298; 4479.121;  -13.583; 9052.608
834.863; 4443.824;  -12.703; 8895.087
835.428; 4450.729;  -10.523; 8824.266
835.993; 4579.704;   -6.963; 8845.385
836.558; 4557.918;  -10.763; 8888.563
837.123; 4567.336;   -9.903; 8966.582
837.688; 4648.770;   -9.913; 8617.860
838.253; 4814.144;  -10.283; 8590.699
838.817; 5021.432;  -12.963; 8443.797
839.382; 5000.330;  -14.243; 8799.356
839.947; 4727.320;  -10.733; 8810.595
840.511; 4493.846;   -9.383; 8796.394
841.076; 4137.846;  -12.563; 8347.231
841.641; 4110.997;  -12.953; 8224.330
842.205; 4151.651;   -7.043; 8223.349
842.770; 4299.488;   -8.163; 8622.107
843.334; 4675.603;  -12.503; 8410.386
843.898; 4737.101;  -11.693; 8337.465
844.463; 4668.494;  -10.203; 8506.283
845.027; 4335.393;   -9.533; 8280.962
845.591; 4139.654;  -13.443; 8231.141
846.156; 4218.604;  -13.143; 7969.179
846.720; 4143.075;   -9.433; 7768.278
847.284; 4013.828;  -11.033; 7630.957
847.848; 3773.200;  -10.403; 7472.395
848.412; 3588.090;  -11.553; 7437.394
848.976; 3606.896;   -8.393; 7674.592
849.540; 3578.692;   -8.713; 7836.011
850.104; 3655.899;  -12.463; 7913.669
850.668; 3938.373;  -12.973; 7694.508
851.232; 4038.026;  -10.793; 7756.887
851.796; 3897.992;  -10.662; 7926.545
852.359; 3582.224;  -13.082; 7827.844
852.923; 3463.905;  -12.192; 7641.163
853.487; 3371.591;  -11.912; 7342.501
854.050; 3320.667;  -10.892; 7042.820
854.614; 3441.348;  -13.992; 7151.338
855.177; 3546.750;  -11.732; 7105.077
855.741; 3549.920;   -8.962; 6989.675
856.304; 3376.039;   -9.442; 6596.634
856.868; 3323.957;  -14.192; 6356.272
857.431; 3462.227;  -12.702; 6468.571
857.995; 3565.831;   -9.942; 6373.210
858.558; 3614.415;   -9.112; 6324.448
859.121; 3372.460;  -12.932; 6408.327
859.684; 3238.274;  -13.442; 6347.886
860.247; 3330.539;  -10.632; 6321.264
860.810; 3270.866;  -11.272; 6301.903
861.374; 2949.927;   -9.832; 6607.881
861.937; 2653.632;  -11.762; 6408.200
862.500; 2631.528;   -9.722; 6572.639
863.062; 2769.313;  -10.512; 6387.297
863.625; 2878.183;  -11.232; 6190.836
864.188; 3017.872;  -14.112; 5807.254
864.751; 3132.340;  -11.302; 5682.413
865.314; 3048.434;  -10.112; 5547.492
865.876; 2882.231;  -12.182; 5500.150
866.439; 2870.801;  -10.722; 5415.909
867.002; 2752.021;   -9.252; 5501.567
867.564; 2494.504;   -9.572; 5413.946
868.127; 2278.719;  -13.142; 5160.325
868.689; 2235.682;  -12.902; 5133.183
869.252; 2190.918;   -9.732; 5252.382
869.814; 2105.759;   -9.432; 5297.141
870.377; 2113.272;  -11.552; 5390.919
870.939; 2205.154;   -9.052; 5599.898
871.501; 2269.148;  -10.982; 5248.336
872.063; 2285.279;  -12.292; 4854.235
872.626; 2264.731;  -14.912; 4817.074
873.188; 2226.969;  -13.112; 4987.732
873.750; 2175.357;  -13.442; 4868.651
874.312; 2102.033;   -9.402; 4779.330
874.874; 2026.552;  -11.062; 4866.348
875.436; 1954.549;  -13.931; 4718.887
875.998; 1947.250;   -9.561; 4660.005
876.560; 1970.685;  -11.321; 4462.964
877.122; 1996.849;  -12.221; 4145.042
877.683; 2023.658;  -12.191; 4056.481
878.245; 2040.417;  -12.101; 3950.740
878.807; 2042.125;   -8.971; 4058.958
879.369; 1880.298;  -12.071; 3954.677
879.930; 1493.304;  -14.621; 3941.495
880.492; 1148.319;  -10.311; 4067.014
881.053;  922.839;  -10.901; 3859.633
881.615;  825.345;  -14.411; 3776.071
882.176;  859.332;  -13.761; 3734.750
882.738;  941.689;   -9.181; 3678.489
883.299;  998.735;  -11.791; 3405.407
883.860; 1047.060;  -13.121; 3351.106
884.422; 1078.080;  -11.211; 3394.044
884.983; 1068.815;  -10.091; 3166.443
885.544; 1009.062;   -8.461; 3189.802
886.105;  963.992;  -12.361; 3160.360
886.666;  947.899;  -14.141; 3093.059
887.227;  924.224;  -11.361; 2941.957
887.788;  860.755;  -11.401; 2974.836
888.349;  798.971;  -13.791; 2721.214
888.910;  811.455;  -13.191; 2696.493
889.471;  823.132;   -9.881; 2560.172
890.032;  800.488;   -9.881; 2558.190
890.593;  769.317;  -10.371; 2567.669
891.153;  752.938;  -13.301; 2460.307
891.714;  718.485;  -11.431; 2372.046
892.275;  688.597;  -11.291; 2309.505
892.835;  653.562;  -11.471; 2382.543
893.396;  604.911;  -11.541; 2295.502
893.956;  554.491;  -11.181; 2162.420
894.517;  518.272;  -11.741; 2125.439
895.077;  516.741;  -11.671; 2086.978
895.638;  522.025;  -11.311; 2126.316
896.198;  498.226;   -9.831; 1838.275
896.758;  452.508;   -8.421; 1892.813
897.319;  417.754;  -12.351; 1792.232
897.879;  405.379;  -13.511; 1762.751
898.439;  381.227;  -12.001; 1661.149
898.999;  354.175;  -10.180; 1781.468
899.559;  343.679;  -12.030; 1703.347
900.119;  340.671;  -15.710; 1537.525
900.679;  339.072;   -8.900; 1638.384
901.239;  323.061;   -8.340; 1527.902
901.799;  312.272;  -13.910; 1456.441
902.359;  306.695;  -13.460; 1357.140
902.919;  297.403;  -11.490; 1331.118
903.479;  282.739;  -12.110; 1317.257
904.038;  260.467;  -11.720; 1262.595
904.598;  245.982;  -13.610; 1152.034
905.158;  242.640;  -11.040; 1240.893
905.717;  234.815;  -10.900; 1233.691
906.277;  222.454;  -15.080; 1217.330
906.836;  212.767;  -13.380; 1222.408
907.396;  204.428;  -10.780; 1193.047
907.955;  197.154;   -8.500; 1182.526
908.515;  192.150;  -12.760; 1099.364
909.074;  186.655;  -11.900; 1092.863
909.633;  181.054;   -8.950; 1069.121
910.192;  177.738;   -8.770; 1196.460
910.752;  173.134;  -12.390; 1029.960
911.311;  169.646;  -13.680; 1009.780
911.870;  166.300;  -12.370;  971.460
912.429;  165.539;  -10.900; 1094.080
912.988;  161.312;  -11.690; 1081.060
913.547;  154.807;  -13.240;  940.380
914.106;  150.072;  -11.990;  999.420
914.665;  146.760;   -9.990;  984.020
915.224;  145.693;  -12.880; 1035.760
915.782;  146.449;  -12.350;  922.560
916.341;  146.941;   -9.110; 1049.840
916.900;  143.400;   -9.270;  925.260
917.458;  142.582;  -13.240;  884.220
918.017;  142.099;  -13.550;  942.600
918.576;  141.247;  -12.320;  904.440
919.134;  139.866;  -11.490;  837.980
919.693;  137.538;  -13.670;  893.060
920.251;  135.895;  -15.470;  876.500
920.809;  134.808;  -11.290;  839.580
921.368;  134.997;  -10.210;  885.360
921.926;  134.243;  -12.140;  842.940
922.484;  132.195;  -13.080;  903.360
923.042;  132.526;  -11.720;  880.340
923.601;  134.456;   -7.480;  998.680
924.159;  133.058;  -11.570;  935.560
924.717;  129.761;  -13.840;  841.080
925.275;  130.746;  -10.640;  903.240
925.833;  129.071;  -11.540;  779.320
926.391;  129.929;  -12.960;  938.380
926.949;  128.176;  -14.130;  857.680
927.506;  128.502;  -11.750;  903.500
928.064;  129.045;  -10.250;  877.580
928.622;  127.497;  -13.030;  880.100
929.180;  127.443;  -13.400;  814.180
929.737;  128.651;  -10.700;  808.540
930.295;  132.642;  -10.070;  928.480
930.853;  133.587;  -11.960;  849.100
931.410;  135.222;  -13.120;  821.120
931.968;  134.387;  -10.770;  940.660
932.525;  133.848;  -10.680;  909.380
933.082;  133.790;  -13.130;  811.440
933.640;  134.209;  -13.210;  925.900
934.197;  133.012;  -11.060;  886.360
934.754;  134.411;   -9.580;  897.780
935.312;  136.891;  -14.000;  863.340
935.869;  142.085;  -10.710; 1012.980
936.426;  140.879;   -9.860;  872.800
936.983;  141.267;   -9.710;  889.020
937.540;  140.142;  -13.990;  838.280
938.097;  139.929;  -14.040;  940.120
938.654;  140.564;  -10.310;  898.860
939.211;  143.004;  -10.560;  952.480
939.768;  145.787;  -13.900;  915.420
940.324;  149.866;  -14.760;  904.200
940.881;  150.625;  -10.370;  878.500
941.438;  152.735;   -8.260; 1021.200
941.995;  147.590;  -12.540;  992.560
942.551;  144.793;  -14.670;  875.620
943.108;  145.268;  -10.450;  937.920
943.664;  146.519;  -10.750;  869.340
944.221;  151.049;  -11.550; 1088.140
944.777;  148.833;  -14.770;  869.680
945.334;  150.984;  -12.820;  884.840
945.890;  152.226;  -10.130;  946.480
946.446;  151.938;  -13.470;  947.020
947.003;  153.117;  -12.120;  964.940
947.559;  155.190;   -9.980; 1063.040
948.115;  154.099;   -9.080; 1026.540
948.671;  152.452;  -10.830;  967.300
949.227;  149.640;  -12.440;  859.560
949.783;  147.463;  -12.910;  858.900
950.339;  149.062;  -10.270;  991.000
950.895;  148.809;  -13.630; 1023.840
951.451;  149.096;  -15.100;  925.280
952.007;  150.638;  -11.330;  998.540
952.563;  151.310;  -10.580;  937.780
953.118;  149.523;  -13.440;  904.940
953.674;  149.544;  -12.710;  935.780
954.230;  150.734;  -10.350;  949.640
954.785;  149.224;   -9.190;  936.640
955.341;  145.307;  -11.200;  998.160
955.897;  144.115;  -16.560;  834.660
956.452;  144.392;  -12.570;  953.840
957.008;  142.449;   -7.970; 1083.640
957.563;  139.959;  -11.940; 1009.540
958.118;  135.791;  -13.450;  877.700
958.674;  137.155;  -12.030;  946.780
959.229;  137.791;   -9.410; 1013.980
959.784;  134.546;  -12.000;  832.400
960.339;  133.405;  -14.780; 1001.280
960.894;  129.071;   -9.860;  963.760
961.449;  125.474;   -9.970;  859.960
962.004;  126.132;  -10.900; 1212.840
962.559;  122.320;  -13.150;  860.140
963.114;  120.189;  -13.740;  742.480
963.669;  119.943;   -9.820;  915.500
964.224;  117.962;  -13.890;  874.340
964.779;  117.227;  -12.600;  828.420
965.334;  117.541;  -10.950; 1017.860
965.888;  117.572;  -11.170;  875.360
966.443;  118.906;  -12.540;  972.380
966.998;  117.431;  -15.780;  819.460
967.552;  116.595;   -9.760;  908.380
968.107;  112.577;   -9.060;  868.300
968.661;  113.910;  -11.950;  922.440
969.216;  115.538;  -12.800;  856.280
969.770;  114.826;  -11.210;  917.200
970.324;  113.069;  -11.610;  923.140
970.879;  110.638;  -11.370;  947.180
971.433;  107.828;  -12.540;  952.720
971.987;  102.879;  -11.320;  895.340
972.541;   99.124;  -10.720;  917.100
973.095;   99.416;   -9.680; 1009.460
973.649;   98.366;  -11.440;  809.480
974.203;   98.149;  -11.210;  829.040
974.757;   99.249;  -10.240;  855.220
975.311;   99.335;  -13.720;  872.600
975.865;   98.965;  -13.770;  881.820
976.419;   96.536;  -11.690;  857.400
976.973;   97.478;   -9.510;  849.620
977.526;   98.746;  -12.620;  949.920
978.080;   98.808;  -12.010;  796.780
978.634;   99.865;  -10.170;  921.320
979.187;   97.526;   -9.020;  905.400
979.741;   94.973;   -9.820; 1018.380
980.294;   89.593;  -14.870;  789.160
980.848;   87.075;  -12.380;  717.220
981.401;   89.597;  -10.350;  816.540
981.955;   90.529;  -13.720;  844.300
982.508;   89.191;  -11.490;  746.340
983.061;   90.756;  -10.000;  915.260
983.615;   87.464;  -11.480;  798.800
984.168;   84.922;  -13.220;  770.080
984.721;   83.430;  -13.960;  880.760
985.274;   83.102;  -10.870;  867.500
985.827;   82.289;   -9.790;  834.220
986.380;   80.699;  -13.120;  721.340
986.933;   79.637;  -12.450;  864.800
987.486;   77.937;  -10.210;  861.920
988.039;   76.284;   -8.430;  863.100
988.591;   73.617;  -10.520;  893.260
989.144;   71.197;  -14.860;  737.260
989.697;   70.981;  -13.080;  758.740
990.250;   71.600;  -10.150;  858.100
990.802;   70.765;  -13.430;  755.860
991.355;   71.782;  -12.750;  974.880
991.907;   69.171;  -12.040;  864.320
992.460;   66.560;  -11.330;  753.760
993.012;   65.915;  -13.610;  749.540
993.565;   64.416;  -13.460;  711.360
994.117;   66.766;   -9.360;  950.780
994.669;   62.742;  -11.300;  701.320
995.221;   61.479;  -13.540;  791.920
995.774;   59.403;  -13.430;  787.580
996.326;   57.877;  -12.520;  740.220
996.878;   57.352;  -10.950;  838.420
997.430;   55.548;  -14.300;  699.860
997.982;   54.861;  -13.760;  750.140
998.534;   54.605;  -11.530;  739.060
999.086;   52.919;  -10.310;  738.220
999.638;   52.260;  -12.530;  661.380
1000.190;   51.081;  -11.840;  699.320
1000.741;   51.284;  -10.260;  742.700
1001.293;   50.064;   -8.860;  686.020
1001.845;   48.927;  -13.700;  676.640
1002.396;   49.447;  -12.100;  743.400
1002.948;   48.678;  -12.760;  737.400
1003.500;   47.163;  -10.380;  723.780
1004.051;   47.389;  -11.900;  907.580
1004.603;   45.815;  -12.250;  791.820
1005.154;   42.659;  -13.210;  608.980
1005.705;   41.419;  -10.950;  723.960
1006.257;   40.682;  -13.880;  707.220
1006.808;   40.469;  -12.840;  685.460
1007.359;   39.777;  -10.570;  763.240
1007.910;   38.829;   -9.620;  646.640
1008.461;   38.297;  -13.630;  732.940
1009.013;   38.267;  -17.200;  588.340
1009.564;   38.775;  -10.200;  793.520
1010.115;   35.560;  -12.570;  597.040
1010.665;   36.195;  -15.150;  602.160
1011.216;   36.793;  -14.480;  667.920
1011.767;   35.307;  -11.340;  697.920
1012.318;   35.492;   -9.780;  736.980
1012.869;   35.315;  -12.380;  679.000
1013.419;   33.584;  -15.560;  603.120
1013.970;   34.826;  -11.010;  666.640
1014.521;   33.451;  -11.610;  620.620
1015.071;   34.068;  -13.450;  670.380
1015.622;   33.840;  -13.870;  635.460
1016.172;   32.952;  -11.610;  596.820
1016.723;   32.857;  -12.120;  614.380
1017.273;   32.336;  -13.620;  604.160
1017.823;   33.024;  -14.140;  650.340
1018.374;   31.877;  -12.800;  611.760
1018.924;   32.200;  -12.340;  716.880
1019.474;   32.216;  -11.410;  718.880
1020.024;   30.913;  -14.770;  657.580
1020.574;   32.280;   -9.780;  726.160
1021.124;   32.168;   -8.560;  673.580
1021.674;   29.812;  -15.190;  559.120
1022.224;   32.071;  -13.530;  708.940
1022.774;   30.946;  -13.280;  668.820
1023.324;   30.854;  -10.690;  753.520
1023.874;   32.397;  -10.240;  875.760
1024.423;   29.571;  -12.540;  613.700
1024.973;   29.388;  -10.010;  610.760
1025.523;   29.489;  -10.550;  620.960
1026.072;   28.474;  -13.560;  606.420
1026.622;   29.130;  -15.120;  675.740
1027.172;   29.794;  -11.260;  715.660
1027.721;   28.418;  -11.410;  601.220
1028.270;   28.355;  -13.530;  663.400
1028.820;   28.853;  -13.680;  638.080
1029.369;   28.700;  -13.520;  612.700
1029.918;   28.546;  -10.980;  649.840
1030.468;   27.522;  -13.530;  564.780
1031.017;   27.878;  -13.170;  634.800
1031.566;   26.492;  -12.200;  608.900
1032.115;   26.958;   -9.960;  694.500
1032.664;   25.682;  -13.210;  596.480
1033.213;   27.582;  -12.500;  735.420
1033.762;   26.225;  -11.910;  635.620
1034.311;   26.169;   -9.640;  677.220
1034.860;   26.588;  -13.310;  691.000
1035.408;   26.386;  -11.830;  722.720
1035.957;   26.836;  -12.000;  719.540
1036.506;   24.285;  -11.690;  530.800
1037.055;   27.120;  -10.990;  844.320
1037.603;   26.078;  -15.120;  664.000
1038.152;   23.769;  -12.450;  534.760
1038.700;   24.476;  -10.560;  585.740
1039.249;   24.045;  -11.080;  681.220
1039.797;   25.182;  -12.540;  633.360
1040.345;   24.653;  -11.920;  705.420
1040.894;   24.573;  -11.410;  625.300
1041.442;   24.088;  -14.320;  632.200
1041.990;   21.993;  -16.240;  559.160
1042.538;   22.967;  -11.680;  536.180
1043.087;   22.162;  -10.760;  570.860
1043.635;   24.070;  -11.850;  670.500
1044.183;   22.968;  -15.480;  586.400
1044.731;   22.508;  -11.770;  576.000
1045.279;   22.146;  -13.090;  674.920
1045.827;   24.015;  -12.440;  892.400
1046.374;   21.973;  -13.840;  515.420
1046.922;   21.266;  -13.220;  590.580
1047.470;   23.233;  -10.230;  691.300
1048.018;   22.141;  -14.590;  647.960
1048.565;   23.191;  -12.050;  708.600
1049.113;   21.230;  -11.650;  557.000
1049.660;   20.848;  -10.510;  629.660
1050.208;   21.572;  -13.310;  675.640
1050.755;   20.650;  -15.900;  606.580
1051.303;   22.161;  -11.430;  686.820
1051.850;   20.551;   -8.480;  635.120
1052.397;   19.405;  -15.010;  473.960
1052.945;   20.394;  -13.960;  617.760
1053.492;   22.036;  -13.150;  741.840
1054.039;   21.340;   -9.630;  720.180
1054.586;   20.112;  -13.680;  557.240
1055.133;   20.684;  -14.570;  693.140
1055.680;   20.055;  -13.820;  646.620
1056.227;   19.401;  -11.730;  542.780
1056.774;   20.246;  -12.480;  794.980
1057.321;   18.896;  -13.930;  523.260
1057.868;   19.139;  -11.690;  651.320
1058.415;   19.467;   -9.520;  651.980
1058.961;   19.866;  -13.160;  678.940
1059.508;   19.350;  -12.920;  643.820
1060.055;   18.792;  -11.920;  581.780
1060.601;   19.517;  -11.500;  624.300
1061.148;   17.901;  -14.330;  616.820
1061.694;   18.879;  -16.870;  592.580
1062.241;   18.481;  -10.330;  596.320
1062.787;   18.650;  -10.620;  663.140
1063.334;   19.797;  -10.110;  808.560
1063.880;   18.685;  -13.400;  668.360
1064.426;   18.189;  -10.680;  706.820
1064.972;   17.111;   -9.920;  601.340
1065.518;   15.997;  -10.980;  566.640
1066.065;   17.423;  -14.890;  624.460
1066.611;   16.826;  -12.870;  598.800
1067.157;   17.560;  -12.950;  641.860
1067.703;   17.139;  -13.540;  668.480
1068.249;   17.185;  -13.540;  605.220
1068.794;   16.826;  -12.600;  626.880
1069.340;   15.099;  -10.620;  578.960
1069.886;   16.454;  -12.830;  590.700
1070.432;   15.355;  -14.870;  541.720
1070.977;   16.136;  -11.980;  601.080
1071.523;   15.475;   -8.200;  573.060
1072.068;   15.997;  -12.330;  582.000
1072.614;   15.567;  -16.370;  527.760
1073.160;   16.047;  -11.100;  687.040
1073.705;   14.661;  -10.480;  572.520
1074.250;   14.874;  -14.520;  559.900
1074.796;   16.833;  -11.460;  655.160
1075.341;   15.738;  -11.950;  664.100
1075.886;   14.722;  -11.460;  594.240
1076.431;   14.787;  -13.770;  649.880
1076.976;   14.196;  -12.680;  639.220
1077.521;   14.318;  -13.170;  583.080
1078.067;   13.322;  -10.860;  579.400
1078.612;   14.695;  -13.920;  661.620
1079.156;   13.909;  -13.880;  601.540
1079.701;   14.478;  -13.120;  693.260
1080.246;   14.729;   -9.940;  696.300
1080.791;   14.072;  -14.740;  625.020
1081.336;   14.292;  -13.750;  659.320
1081.880;   13.991;  -13.400;  649.680
1082.425;   12.777;  -12.220;  573.480
1082.970;   14.799;  -11.610;  717.040
1083.514;   13.635;  -13.580;  597.000
1084.059;   12.672;  -12.810;  586.720
1084.603;   12.403;  -12.320;  565.840
1085.147;   12.848;  -13.190;  645.220
1085.692;   13.738;  -12.480;  716.800
1086.236;   11.641;  -13.020;  503.140
1086.780;   14.232;   -9.190;  751.440
1087.325;   12.813;  -12.480;  654.620
1087.869;   12.672;  -12.450;  610.700
1088.413;   13.112;  -12.240;  705.040
1088.957;   10.922;   -9.020;  543.400
1089.501;   13.090;  -10.320;  766.640
1090.045;   13.047;  -12.720;  726.480
1090.589;   10.461;  -13.690;  569.920
1091.133;   12.133;  -10.020;  673.340
1091.676;   12.054;  -12.330;  591.940
1092.220;   11.444;  -14.970;  600.920
1092.764;   12.641;  -12.430;  706.960
1093.307;   11.430;   -9.800;  673.780
1093.851;    9.980;  -14.970;  556.540
1094.395;   11.775;  -15.310;  683.140
1094.938;   10.869;  -10.370;  632.520
1095.482;   11.236;  -11.050;  559.800
1096.025;   11.267;  -11.840;  710.880
1096.568;   11.130;  -12.840;  779.280
1097.112;    8.965;  -14.700;  508.180
1097.655;   10.416;   -8.720;  603.000
1098.198;    9.224;  -13.610;  600.180
1098.741;    8.832;  -13.350;  612.860
1099.285;   10.709;  -11.230;  657.300
1099.828;    9.009;  -11.840;  439.400
1100.371;   10.184;  -10.840;  608.160
1100.914;    9.597;  -14.190;  682.660
1101.457;   10.312;  -11.240;  679.900
1101.999;    8.699;  -11.270;  584.680
1102.542;    9.089;  -11.480;  641.440
1103.085;    9.307;  -11.750;  658.500
1103.628;    9.811;  -11.400;  762.060
1104.170;    8.495;  -10.490;  588.280
1104.713;    9.398;  -10.600;  646.700
1105.256;    8.778;  -14.360;  557.440
1105.798;    7.910;  -13.210;  499.980
1106.341;    9.214;  -10.270;  728.900
1106.883;    7.579;  -12.200;  521.340
1107.425;    8.418;  -13.110;  668.180
1107.968;    8.322;  -12.840;  612.380
1108.510;    8.491;   -6.480;  684.960
1109.052;    7.045;  -13.940;  612.620
1109.594;    7.287;  -13.690;  554.440
1110.136;    7.614;  -11.880;  643.220
1110.679;    7.293;   -9.500;  633.080
1111.221;    7.937;  -14.160;  604.460
1111.763;    7.197;  -13.980;  559.220
1112.304;    6.994;  -13.880;  547.140
1112.846;    7.380;  -12.210;  666.240
1113.388;   10.275;  -11.390;  942.180
1113.930;    7.521;  -14.540;  694.200
1114.472;    6.256;  -12.640;  606.540
1115.013;    5.943;  -11.620;  551.280
1115.555;    6.200;  -13.640;  587.100
1116.097;    5.888;  -15.380;  579.480
1116.638;    6.727;  -12.640;  684.600
1117.180;    6.563;   -9.850;  667.740
1117.721;    6.221;  -13.690;  568.580
1118.262;    6.830;  -12.680;  677.960
1118.804;    6.961;  -12.530;  637.340
1119.345;    5.800;  -11.690;  578.400
1119.886;    6.596;  -13.380;  704.040
1120.427;    5.384;  -14.070;  589.020
1120.969;    5.477;  -13.500;  597.920
1121.510;    5.263;  -11.480;  563.060
1122.051;    5.619;  -12.830;  723.580
1122.592;    5.226;  -14.290;  655.420
1123.133;    4.034;  -12.400;  547.940
1123.673;    5.455;  -10.130;  706.480
1124.214;    5.147;  -12.930;  612.460
1124.755;    5.361;  -14.380;  639.460
1125.296;    5.536;  -14.000;  627.320
1125.836;    5.811;  -10.070;  691.500
1126.377;    4.370;  -12.640;  599.660
1126.918;    5.012;  -12.960;  614.980
1127.458;    4.409;  -13.350;  622.220
1127.999;    5.344;  -10.750;  656.980
1128.539;    4.850;  -12.350;  694.240
1129.079;    3.831;  -14.860;  632.720
1129.620;    3.561;  -13.840;  558.100
1130.160;    3.979;  -12.330;  539.480
1130.700;    4.182;  -14.530;  640.840
1131.240;    5.113;  -12.530;  643.700
1131.781;    3.392;  -14.450;  619.680
1132.321;    3.533;   -9.790;  599.120
1132.861;    2.835;  -14.860;  564.200
1133.401;    2.715;  -14.290;  593.940
1133.941;    3.547;  -11.750;  626.280
1134.481;    2.843;   -9.920;  597.580
1135.020;    2.273;  -12.290;  609.160
1135.560;    3.494;  -11.650;  674.940
1136.100;    2.787;  -16.270;  501.160
1136.640;    2.649;  -10.890;  510.480
1137.179;    2.503;  -14.180;  537.960
1137.719;    2.894;  -16.250;  605.400
1138.258;    3.231;  -14.230;  587.360
1138.798;    3.548;   -9.090;  663.780
1139.337;    1.770;  -15.130;  482.840
1139.877;    2.992;  -13.680;  642.360
1140.416;    4.796;  -11.320;  878.060
1140.955;    1.544;  -10.860;  535.380
1141.494;    1.903;  -12.920;  669.280
1142.034;    1.779;  -13.930;  583.520
1142.573;    3.265;  -11.440;  646.280
1143.112;    1.784;  -12.000;  553.480
1143.651;    1.883;  -13.670;  536.480
1144.190;    2.607;  -12.730;  691.640
1144.729;    1.378;  -14.560;  607.420
1145.267;    1.797;  -11.830;  584.900
1145.806;    2.480;  -12.230;  637.040
1146.345;    1.732;  -14.130;  635.020
1146.884;    2.058;  -11.590;  622.500
1147.422;    1.079;  -12.550;  533.060
1147.961;    2.506;  -11.180;  708.460
1148.500;    2.514;  -11.510;  669.720
1149.038;    2.553;  -11.640;  632.500
1149.577;    2.487;  -10.130;  698.640
1150.115;   -0.644;  -13.970;  452.280
1150.653;    1.873;  -14.520;  607.340
1151.192;    0.840;  -12.810;  552.920
1151.730;    0.715;   -9.100;  652.560
1152.268;    0.376;  -12.220;  589.520
1152.806;    0.544;  -14.140;  571.180
1153.344;   -0.699;  -12.350;  577.640
1153.882;    0.715;   -8.980;  600.060
1154.421;   -0.499;  -15.190;  470.620
1154.958;    0.367;  -15.210;  595.240
1155.496;    1.922;  -12.850;  645.280
1156.034;    0.578;   -9.940;  721.880
1156.572;    1.522;  -13.570;  667.060
1157.110;   -1.158;  -14.590;  473.940
1157.647;    1.141;  -13.030;  676.960
1158.185;   -0.816;  -12.140;  564.320
1158.723;   -0.579;  -14.390;  509.200
1159.260;   -0.257;  -14.090;  701.700
1159.798;    0.198;  -11.920;  658.160
1160.335;   -0.238;  -11.110;  631.820

