
Integration time [ms]:   3.276
Averaging Nr. [scans]: 1000
Smoothing Nr. [pixels]: 0
Data measured with spectrometer [name]: 7414430SP
Wave   ;Sample   ;Dark     ;Reference
[nm]   ;[counts] ;[counts] ;[counts] 

288.544;  150.094;    7.793;  793.890
289.143;  154.304;    7.462;  681.602
289.742;  154.625;    8.602;  828.814
290.341;  140.419;    1.321;  789.841
290.940;  129.079;   -0.709;  730.702
291.538;  130.000;    0.881;  881.108
292.137;  130.376;    0.122;  792.581
292.736;  134.826;   -1.929;  975.101
293.335;  131.023;   -8.229;  735.086
293.934;  131.585;   -5.279;  781.677
294.532;  129.901;   -1.369; 1031.958
295.131;  116.331;   -7.641;  834.394
295.730;  116.223;   -8.420;  809.588
296.328;  115.589;   -5.611;  783.442
296.927;  116.165;   -5.781;  779.652
297.525;  117.441;   -6.361;  781.236
298.124;  107.339;  -11.382;  654.009
298.722;  110.932;   -7.641;  761.933
299.321;  109.120;   -6.811;  708.597
299.919;  107.173;   -6.991;  751.918
300.518;  104.174;  -10.362;  689.338
301.116;  106.133;   -9.581;  691.381
301.715;  104.986;   -4.891;  730.222
302.313;  104.674;   -8.801;  704.943
302.911;  100.260;   -8.522;  733.830
303.509;  105.538;   -6.171;  925.627
304.108;  102.509;   -7.311;  760.383
304.706;  102.564;   -8.321;  801.664
305.304;   96.745;  -10.222;  796.707
305.902;  102.090;   -6.021;  784.484
306.500;   97.729;   -4.971;  728.200
307.098;   96.302;   -7.061;  746.560
307.696;   94.997;   -8.801;  780.432
308.294;   94.606;   -6.411;  731.359
308.892;   96.850;   -2.901;  759.769
309.490;   93.754;   -5.041;  712.161
310.088;   92.174;   -5.002;  788.444
310.686;   96.157;   -2.041;  821.749
311.284;   91.058;   -2.351;  766.040
311.882;   89.423;   -4.422;  731.225
312.480;   85.646;   -4.192;  697.167
313.078;   87.723;   -1.172;  808.331
313.675;   87.883;   -2.601;  691.600
314.273;   83.826;   -1.312;  797.837
314.871;   82.672;   -3.942;  589.829
315.468;   80.938;   -2.802;  652.090
316.066;   83.523;   -0.701;  694.427
316.664;   76.889;   -4.362;  656.351
317.261;   80.413;   -2.872;  910.128
317.859;   75.823;   -2.022;  768.735
318.456;   76.463;   -0.531;  830.096
319.054;   72.745;   -3.912;  787.828
319.651;   71.212;   -4.752;  759.928
320.249;   70.200;   -2.602;  810.188
320.846;   68.417;   -0.821;  714.286
321.443;   65.700;   -4.642;  832.135
322.041;   62.602;   -5.002;  812.315
322.638;   59.847;   -3.982;  701.456
323.235;   61.955;   -3.411;  665.683
323.833;   58.275;   -7.361;  740.354
324.430;   53.774;   -8.611;  615.900
325.027;   55.506;   -4.061;  876.855
325.624;   54.751;   -4.031;  644.532
326.221;   51.785;   -7.481;  689.717
326.818;   51.915;   -5.281;  818.332
327.415;   54.763;   -7.460;  748.828
328.012;   54.321;   -5.510;  690.585
328.609;   53.133;   -7.880;  731.389
329.206;   51.054;   -8.331;  778.621
329.803;   51.288;   -5.121;  737.841
330.400;   53.398;   -4.510;  704.260
330.997;   55.525;   -6.441;  817.147
331.594;   53.727;   -8.831;  788.185
332.191;   58.981;   -7.621;  728.722
332.787;   62.301;   -4.591;  844.463
333.384;   60.739;   -7.412;  763.093
333.981;   59.728;   -8.293;  815.687
334.578;   62.562;   -7.052;  708.378
335.174;   65.721;   -3.102;  731.469
335.771;   64.153;   -5.943;  836.456
336.367;   61.220;   -7.393;  710.631
336.964;   65.053;   -4.063;  793.266
337.561;   64.096;   -3.813;  731.112
338.157;   58.723;   -4.654;  911.916
338.754;   56.115;   -7.934;  796.589
339.350;   54.890;   -4.414;  722.493
339.946;   56.901;   -4.664;  773.135
340.543;   48.169;   -6.375;  846.136
341.139;   43.547;   -9.815;  720.836
341.735;   40.911;   -4.526;  772.593
342.332;   39.533;   -4.895;  691.472
342.928;   39.242;   -4.295;  795.394
343.524;   34.236;   -5.476;  761.684
344.120;   30.584;   -5.856;  738.562
344.716;   33.553;   -2.155;  723.717
345.313;   30.438;   -6.275;  795.342
345.909;   27.060;   -8.815;  627.336
346.505;   28.174;   -5.305;  740.247
347.101;   28.920;   -2.674;  827.864
347.697;   29.070;   -4.344;  785.398
348.293;   23.656;   -9.975;  627.244
348.889;   24.493;   -5.774;  745.914
349.485;   24.152;   -5.004;  688.205
350.081;   24.388;   -4.704;  772.592
350.676;   19.293;   -6.635;  691.606
351.272;   23.617;   -4.504;  809.530
351.868;   24.514;   -3.914;  780.497
352.464;   21.562;   -9.044;  723.932
353.059;   17.537;   -8.314;  646.017
353.655;   20.607;   -7.024;  777.063
354.251;   22.126;   -5.343;  759.845
354.846;   15.880;   -8.604;  740.646
355.442;   14.047;   -6.945;  753.071
356.038;   16.319;   -7.564;  751.708
356.633;   17.107;   -5.814;  728.594
357.229;   14.448;   -7.364;  724.757
357.824;   12.941;   -8.024;  703.600
358.420;   12.215;   -9.384;  679.726
359.015;   12.010;   -5.104;  695.357
359.610;   13.665;   -6.854;  763.920
360.206;    7.640;  -10.185;  603.240
360.801;    9.785;   -7.054;  646.503
361.396;   12.098;   -5.034;  725.975
361.992;    7.805;   -8.284;  668.220
362.587;    5.388;   -8.625;  670.160
363.182;    7.275;   -7.674;  689.631
363.777;    7.853;   -5.164;  738.242
364.372;    7.244;   -8.604;  737.314
364.967;    3.681;   -9.055;  680.744
365.563;    8.233;   -6.114;  815.567
366.158;    4.515;   -5.814;  685.161
366.753;    5.439;   -7.854;  649.263
367.348;    3.982;   -7.804;  746.056
367.942;    4.062;   -7.954;  697.298
368.537;    3.637;   -4.984;  754.245
369.132;    3.040;   -8.564;  703.428
369.727;   -0.677;   -8.855;  638.079
370.322;    1.493;   -6.245;  580.186
370.917;    0.087;   -6.425;  710.646
371.511;    3.204;   -6.294;  861.834
372.106;   -0.201;   -7.685;  776.964
372.701;   -3.190;   -7.335;  585.988
373.296;    2.659;   -4.564;  863.135
373.890;   -2.505;  -10.235;  647.840
374.485;   -4.593;   -7.885;  691.199
375.079;   -0.711;   -7.324;  738.685
375.674;    0.868;   -3.494;  812.970
376.268;   -3.902;   -8.525;  691.759
376.863;   -9.844;  -10.086;  580.327
377.457;   -3.710;   -7.025;  662.490
378.052;   -5.372;   -3.585;  764.884
378.646;   -5.696;   -7.595;  741.167
379.240;   -6.057;   -8.335;  721.176
379.835;   -5.689;   -5.785;  636.978
380.429;   -6.922;   -4.335;  562.557
381.023;   -8.029;   -6.805;  779.205
381.617;   -9.876;   -9.195;  680.106
382.212;   -6.082;   -6.905;  685.303
382.806;   -5.125;   -3.745;  760.690
383.400;   -9.389;   -7.745;  672.281
383.994;  -10.180;   -9.765;  664.870
384.588;   -6.367;   -6.564;  697.701
385.182;   -5.274;   -5.344;  726.624
385.776;   -7.086;   -8.514;  706.875
386.370;   -9.786;   -9.555;  681.968
386.964;   -8.990;   -8.715;  684.155
387.558;   -6.485;   -6.174;  598.360
388.152;  -10.275;   -8.725;  681.959
388.745;   -9.145;   -7.965;  814.707
389.339;   -6.797;   -5.924;  747.642
389.933;   -5.698;   -5.524;  695.370
390.527;   -7.115;   -7.114;  859.029
391.120;  -12.872;  -10.725;  595.318
391.714;  -10.116;   -8.035;  711.633
392.308;   -7.801;   -3.574;  780.253
392.901;  -11.297;   -7.245;  642.460
393.495;  -13.044;   -9.285;  595.414
394.089;  -10.829;   -5.895;  760.452
394.682;  -11.137;   -4.295;  697.188
395.275;  -11.347;   -9.875;  719.927
395.869;  -12.918;   -8.485;  667.314
396.462;  -11.576;   -7.455;  616.609
397.056;   -7.060;   -5.424;  776.621
397.649;  -11.963;   -6.605;  731.575
398.242;   -9.487;   -8.224;  712.645
398.836;   -9.337;   -7.474;  766.408
399.429;   -9.487;   -7.094;  631.041
400.022;  -13.353;   -9.475;  665.902
400.615;  -10.720;   -7.145;  805.609
401.208;   -8.731;   -7.174;  691.451
401.802;  -10.807;   -5.515;  699.329
402.395;  -11.829;   -9.875;  683.502
402.988;  -13.082;   -8.845;  696.627
403.581;  -10.269;   -8.874;  646.878
404.174;   -7.420;   -5.324;  686.568
404.767;  -10.367;   -9.575;  638.583
405.360;  -12.742;  -10.965;  621.445
405.953;   -8.240;   -8.764;  759.034
406.545;   -7.723;   -7.514;  725.342
407.138;  -11.038;  -10.025;  618.350
407.731;   -9.471;  -10.034;  613.303
408.324;   -6.223;   -9.374;  660.554
408.917;   -6.761;   -6.534;  681.864
409.509;   -8.405;   -8.004;  740.396
410.102;  -10.974;   -9.875;  643.948
410.695;   -4.498;   -8.604;  665.758
411.287;   -5.702;   -6.794;  599.821
411.880;   -7.396;   -9.334;  585.421
412.472;   -9.601;  -10.254;  613.092
413.065;   -7.252;   -6.714;  629.408
413.657;   -4.601;   -7.234;  576.678
414.250;   -4.562;  -10.544;  646.681
414.842;   -6.560;   -9.744;  676.353
415.434;   -4.078;   -6.994;  570.463
416.027;   -0.172;   -5.893;  652.196
416.619;   -2.219;   -7.264;  713.400
417.211;   -2.607;  -10.374;  599.352
417.804;    0.322;   -7.993;  628.499
418.396;   -3.311;   -7.234;  607.643
418.988;   -0.150;   -9.443;  659.238
419.580;   -4.471;  -10.724;  568.276
420.172;   -1.987;  -10.323;  536.196
420.764;    1.750;   -8.793;  672.482
421.356;    1.181;  -11.143;  636.898
421.948;    0.182;   -8.293;  677.661
422.540;    5.542;   -7.893;  680.027
423.132;    4.871;   -7.082;  600.641
423.724;    1.506;   -8.653;  561.267
424.316;    3.401;  -10.213;  621.345
424.908;    7.154;   -9.762;  591.517
425.500;    7.192;   -5.572;  647.978
426.092;    8.103;   -8.422;  648.268
426.683;    7.093;   -9.283;  684.836
427.275;    9.194;   -7.852;  641.471
427.867;   11.047;   -5.272;  668.948
428.458;   12.371;   -7.682;  732.344
429.050;   10.484;  -10.612;  680.749
429.642;   12.606;   -9.882;  743.124
430.233;   12.932;   -6.962;  569.356
430.825;   14.818;   -6.842;  724.809
431.416;   11.590;   -9.672;  698.241
432.008;   15.031;   -6.552;  651.723
432.599;   16.730;   -6.891;  656.073
433.190;   13.213;  -10.912;  637.670
433.782;   12.108;  -11.172;  590.395
434.373;   18.826;   -6.061;  884.765
434.964;   18.832;   -8.251;  602.920
435.556;   16.183;   -9.722;  634.537
436.147;   19.293;   -9.082;  758.490
436.738;   19.123;   -8.041;  701.099
437.329;   24.333;   -7.341;  721.723
437.920;   17.192;   -8.162;  666.688
438.511;   17.780;  -11.802;  564.526
439.103;   23.990;  -10.191;  623.998
439.694;   25.700;   -7.601;  681.583
440.285;   27.249;   -8.541;  764.432
440.876;   24.552;   -9.751;  845.738
441.466;   23.918;   -9.401;  575.162
442.057;   29.608;   -7.760;  665.814
442.648;   28.065;   -9.971;  746.255
443.239;   26.824;  -11.001;  620.477
443.830;   31.859;   -7.990;  704.958
444.421;   33.657;   -7.910;  655.474
445.011;   29.979;   -8.131;  693.619
445.602;   29.316;   -7.111;  743.126
446.193;   31.981;  -10.920;  488.117
446.783;   36.305;   -6.500;  640.397
447.374;   31.047;   -8.671;  692.759
447.964;   31.843;  -10.781;  713.770
448.555;   40.185;   -9.650;  822.742
449.145;   37.817;   -8.660;  662.853
449.736;   37.976;   -8.990;  803.179
450.326;   38.179;   -9.500;  713.626
450.917;   42.702;   -8.680;  675.324
451.507;   41.917;   -7.520;  600.661
452.097;   42.388;   -8.590;  746.267
452.688;   44.160;  -11.340;  742.160
453.278;   43.598;  -10.100;  566.840
453.868;   48.182;   -6.019;  793.550
454.458;   46.205;   -9.440;  651.141
455.048;   46.595;  -10.560;  711.783
455.639;   48.404;  -11.799;  567.096
456.229;   51.709;   -6.899;  710.694
456.819;   53.193;   -7.389;  751.158
457.409;   53.480;  -11.119;  773.993
457.999;   56.403;   -9.289;  737.505
458.589;   57.046;   -6.139;  686.606
459.179;   56.071;   -8.729;  717.658
459.769;   54.706;   -9.789;  627.099
460.358;   60.213;  -10.259;  797.262
460.948;   60.043;   -7.299;  689.503
461.538;   59.995;  -10.289;  660.677
462.128;   59.261;  -11.269;  664.934
462.717;   66.227;   -9.368;  710.326
463.307;   69.099;   -7.908;  705.846
463.897;   65.062;   -9.599;  656.942
464.486;   63.676;   -9.769;  837.128
465.076;   68.572;   -8.048;  733.776
465.666;   72.334;   -9.358;  652.900
466.255;   70.259;   -7.919;  785.651
466.845;   69.420;  -11.689;  666.749
467.434;   72.576;   -7.818;  725.873
468.023;   74.312;   -7.678;  658.357
468.613;   70.476;  -10.939;  713.946
469.202;   75.699;  -10.118;  646.507
469.791;   79.457;   -9.108;  737.811
470.381;   81.954;   -6.058;  742.813
470.970;   81.299;  -10.428;  711.099
471.559;   80.364;  -10.268;  733.291
472.148;   84.143;   -8.448;  675.737
472.738;   87.082;   -6.917;  765.466
473.327;   86.433;  -11.978;  637.529
473.916;   86.367;  -11.888;  737.446
474.505;   90.942;   -9.437;  751.703
475.094;   93.943;   -6.747;  806.570
475.683;   93.019;   -9.367;  797.699
476.272;   94.238;  -12.637;  730.632
476.861;   96.808;  -10.027;  706.754
477.449;  103.520;   -8.716;  728.487
478.038;   97.890;   -9.577;  692.513
478.627;   99.409;   -9.718;  714.852
479.216;  105.868;   -8.947;  769.441
479.805;  108.881;   -6.256;  783.375
480.393;  108.786;   -7.937; 1008.945
480.982;  108.178;   -7.717;  874.501
481.571;  114.614;   -9.266;  858.333
482.159;  114.458;   -7.636;  705.386
482.748;  115.068;   -9.667;  821.385
483.336;  119.759;  -10.376;  858.209
483.925;  120.889;   -7.147;  774.373
484.513;  127.481;   -7.996;  758.962
485.102;  124.241;  -10.027;  810.965
485.690;  132.865;  -10.446; 1011.050
486.278;  135.395;   -8.446;  979.329
486.867;  136.718;   -6.356;  809.662
487.455;  138.730;   -9.136;  898.229
488.043;  140.106;  -10.646;  748.361
488.631;  149.472;   -7.456; 1005.079
489.220;  153.950;   -6.636;  908.626
489.808;  154.835;  -11.036;  741.415
490.396;  162.479;  -10.246;  914.645
490.984;  169.920;   -8.556;  830.161
491.572;  182.296;   -5.886;  940.315
492.160;  189.271;   -9.486;  919.081
492.748;  203.754;  -10.976;  884.341
493.336;  230.343;   -8.776; 1019.693
493.924;  259.989;   -5.465;  958.077
494.512;  295.385;   -9.986; 1066.638
495.100;  342.524;  -10.636; 1103.280
495.687;  403.240;  -10.885; 1206.373
496.275;  471.421;   -8.126; 1150.796
496.863;  546.722;  -10.586; 1281.171
497.451;  662.273;  -11.926; 1386.805
498.038;  830.272;  -10.885; 1556.729
498.626;  966.376;   -6.315; 1741.407
499.214; 1115.621;   -7.326; 2016.609
499.801; 1357.040;  -11.906; 2220.633
500.389; 1646.201;  -10.466; 2312.494
500.976; 2053.576;   -5.236; 2744.849
501.564; 2494.932;   -8.936; 3148.565
502.151; 2918.255;  -13.176; 3515.999
502.738; 3516.608;  -10.646; 3971.274
503.326; 3945.845;   -9.525; 4403.796
503.913; 4439.598;  -10.856; 5161.749
504.500; 4847.101;  -11.586; 5986.420
505.088; 5294.732;  -10.336; 6381.201
505.675; 5866.127;   -6.355; 6925.547
506.262; 6508.865;   -9.046; 7619.060
506.849; 7308.257;  -10.416; 8733.969
507.436; 7844.069;  -10.305; 9790.121
508.023; 8247.485;   -5.496; 9985.472
508.610; 8620.586;   -7.856;10434.618
509.197; 9467.845;  -10.097;11198.435
509.784;11129.477;  -10.886;12391.194
510.371;12338.284;   -9.315;13603.713
510.958;13135.113;   -9.936;14426.586
511.545;13890.781;   -9.326;15243.775
512.132;14502.653;  -10.075;15945.876
512.719;15169.156;   -7.796;16340.369
513.305;16552.174;  -10.606;18011.766
513.892;17553.611;  -11.486;19754.971
514.479;19053.469;   -9.126;20967.805
515.066;20183.652;   -6.026;22299.793
515.652;21123.697;   -8.466;22908.660
516.239;22720.777;  -10.886;23798.875
516.825;23344.506;  -11.496;25567.275
517.412;24273.498;   -5.796;28154.959
517.998;25401.410;  -10.506;28344.111
518.585;25421.887;  -10.076;27134.219
519.171;25508.828;   -8.315;27268.576
519.758;27313.221;   -8.596;28964.129
520.344;28692.930;   -8.466;30664.494
520.930;28823.639;  -11.006;32550.605
521.516;30940.059;  -10.495;35422.895
522.103;33536.711;   -5.526;38280.004
522.689;34325.313;   -8.746;37835.117
523.275;33296.309;  -11.376;37288.613
523.861;33186.023;  -11.156;37281.395
524.447;34894.859;   -8.135;37846.949
525.033;34653.340;   -7.896;38321.949
525.619;35226.395;  -12.476;38579.285
526.205;36827.461;   -9.516;40622.875
526.791;39451.324;   -6.926;42258.836
527.377;39543.250;   -8.346;42966.902
527.963;41810.480;   -8.717;42018.949
528.549;41055.109;  -11.016;42476.828
529.135;38709.922;   -8.536;41854.852
529.721;38125.992;   -9.666;41237.711
530.306;37688.238;  -10.066;41259.445
530.892;37943.914;  -11.356;41506.047
531.478;39028.461;   -6.596;43559.613
532.063;40988.035;   -8.836;47695.563
532.649;40978.895;  -10.047;50808.324
533.235;43411.824;   -9.746;51787.500
533.820;45609.188;   -6.566;52145.035
534.406;45562.934;  -10.817;51133.488
534.991;44572.031;   -9.416;49996.805
535.576;43068.270;   -9.036;48882.852
536.162;43572.102;   -6.156;46942.285
536.747;44647.961;  -11.607;45711.746
537.333;47814.887;  -11.787;48510.180
537.918;49988.664;  -12.437;50439.891
538.503;48868.734;   -7.196;50863.711
539.088;46557.754;  -10.556;50906.922
539.673;48092.117;   -8.767;52621.965
540.259;48064.340;  -10.026;52368.094
540.844;44445.176;   -7.416;50879.109
541.429;44207.527;   -9.467;52077.777
542.014;48031.766;   -9.527;52716.695
542.599;48979.313;   -9.946;52363.281
543.184;45550.543;   -7.927;53187.137
543.769;46780.359;   -9.297;54697.605
544.354;47013.926;  -10.127;53913.914
544.938;46190.637;   -9.267;49680.164
545.523;48267.750;   -6.506;47386.277
546.108;49489.594;   -9.787;49151.949
546.693;51389.676;  -11.587;51384.637
547.278;51847.535;  -10.986;51853.254
547.862;47731.207;   -8.206;51173.750
548.447;43030.152;  -10.067;51691.395
549.031;42547.820;   -9.637;52456.703
549.616;47484.512;   -9.926;52714.516
550.201;47210.547;   -6.347;52414.598
550.785;46701.691;   -7.917;52355.059
551.370;46999.879;  -10.867;54589.453
551.954;48492.563;   -9.047;58267.348
552.538;50449.691;   -7.827;59062.176
553.123;49120.402;  -10.287;58115.285
553.707;46927.246;  -12.178;56556.285
554.291;46792.125;   -8.717;56201.668
554.876;46205.027;   -7.457;55335.762
555.460;47163.074;  -10.387;54155.703
556.044;49995.734;   -9.618;53721.484
556.628;47667.828;  -11.567;53731.016
557.212;46998.801;   -8.097;54312.531
557.796;45586.371;  -11.077;53797.773
558.380;45844.684;  -11.108;56145.984
558.964;46135.727;   -9.057;57277.930
559.548;45923.625;   -6.977;56459.641
560.132;44323.547;  -11.457;54434.543
560.716;43725.691;  -11.378;54800.617
561.300;43576.379;   -9.577;57606.945
561.884;44849.020;   -7.127;58972.445
562.467;44960.313;   -7.118;57327.570
563.051;44139.094;  -13.358;54962.434
563.635;44569.195;  -10.178;52594.473
564.219;46290.754;   -7.837;50610.410
564.802;47099.953;  -11.398;49551.180
565.386;46881.039;  -12.788;48370.953
565.969;46021.766;   -9.077;48178.871
566.553;46061.098;   -6.207;49957.305
567.136;45925.766;   -8.568;50369.594
567.720;41859.504;  -11.868;49492.004
568.303;40624.398;   -8.268;50616.352
568.887;40913.996;   -8.698;50727.148
569.470;41105.277;   -6.808;51698.379
570.053;39331.871;  -13.188;52122.078
570.637;38021.563;  -12.037;52536.438
571.220;37542.500;   -8.577;51186.098
571.803;37515.891;   -8.498;51032.762
572.386;39888.457;  -10.498;49609.887
572.969;43054.875;   -9.388;48285.926
573.552;41667.527;   -8.338;47624.285
574.135;41051.418;   -8.518;45498.641
574.718;37675.602;  -13.628;41970.434
575.301;36255.879;  -10.893;41447.137
575.884;34836.156;   -8.158;40923.836
576.467;35322.324;  -10.328;45267.723
577.050;38679.211;  -13.058;48175.543
577.633;40630.684;   -9.458;47729.328
578.216;38981.582;   -8.928;47579.793
578.799;37682.984;   -9.358;47820.996
579.381;35915.973;  -11.388;48115.551
579.964;34561.383;  -11.718;47333.766
580.547;35744.336;   -8.588;46668.969
581.129;36114.223;   -8.859;44466.141
581.712;35887.438;  -10.729;44164.922
582.294;36549.270;  -11.118;46477.855
582.877;37656.953;   -5.218;48244.254
583.459;36311.324;   -8.679;47437.895
584.042;34658.504;  -10.709;46943.219
584.624;34853.633;  -11.669;46792.227
585.206;33818.031;   -8.218;46557.250
585.789;34834.406;  -10.569;45793.773
586.371;38005.910;  -11.859;43836.391
586.953;38088.383;  -10.719;42972.492
587.536;38589.238;   -7.198;42487.211
588.118;37932.453;   -8.720;42086.414
588.700;35264.840;  -10.439;43389.930
589.282;34631.426;   -9.198;43646.039
589.864;35215.504;   -9.199;43438.109
590.446;36568.125;  -11.319;43151.926
591.028;35955.391;  -11.159;42781.867
591.610;35036.766;  -11.779;42839.098
592.192;32396.389;   -7.668;42820.402
592.774;30869.098;  -11.949;40724.277
593.356;30065.361;  -12.129;39874.789
593.937;30501.756;  -10.669;39980.648
594.519;32966.313;   -6.509;42069.633
595.101;34446.715;  -10.849;42976.031
595.683;34312.066;  -11.679;44084.441
596.264;35470.266;   -9.049;43478.797
596.846;33864.617;   -8.849;43803.672
597.427;32538.754;   -9.570;42986.934
598.009;34322.086;  -12.620;42832.219
598.591;34494.383;  -10.039;42580.086
599.172;33975.641;  -10.369;43061.805
599.753;34171.684;   -9.140;41691.469
600.335;35588.449;  -11.430;40692.520
600.916;34038.578;   -9.939;39982.422
601.498;32581.730;   -8.479;40318.617
602.079;31900.438;  -10.920;40670.609
602.660;31860.406;  -11.480;41450.898
603.241;31544.445;  -11.699;41137.738
603.823;29723.930;   -9.579;38868.797
604.404;30775.475;  -10.620;38182.785
604.985;32047.828;  -10.450;38078.047
605.566;31101.367;   -9.129;38056.633
606.147;30873.406;   -7.510;37020.418
606.728;33554.203;  -10.660;37883.359
607.309;32545.201;  -11.740;38748.273
607.890;31422.049;   -9.759;38850.230
608.471;31215.795;   -8.250;37457.918
609.051;31011.193;   -9.240;36066.457
609.632;30017.863;  -12.120;35991.074
610.213;30715.619;   -9.110;37402.641
610.794;30680.250;   -8.030;38383.363
611.374;29503.582;   -8.110;40562.387
611.955;29367.043;  -13.560;38533.727
612.536;30956.512;  -11.400;36951.789
613.116;31643.326;   -8.070;37197.891
613.697;32188.555;  -10.830;38411.125
614.277;30593.566;  -11.641;38673.938
614.858;31170.465;  -13.310;37075.863
615.438;31442.176;   -7.460;35092.906
616.019;28732.162;   -7.601;33666.301
616.599;28966.434;  -12.020;34189.023
617.179;30850.211;  -11.780;36952.047
617.760;31026.883;   -8.570;39582.574
618.340;32194.754;  -11.471;38943.977
618.920;33741.320;  -11.170;37594.156
619.500;33527.785;  -11.071;37866.938
620.080;33142.656;   -7.750;37869.043
620.660;34093.387;  -12.711;36868.617
621.241;34803.262;  -10.211;36352.309
621.821;34048.754;  -10.961;35459.520
622.401;33511.711;   -7.720;35207.414
622.980;32183.656;   -8.981;35980.422
623.560;30753.631;   -9.331;37351.328
624.140;30938.342;   -9.850;34388.582
624.720;26875.041;   -7.451;32368.764
625.300;22734.357;   -9.070;32638.629
625.880;25421.596;  -12.601;34599.035
626.459;29053.590;  -11.751;36831.738
627.039;31769.844;   -9.281;38299.098
627.619;31751.434;   -8.801;38289.574
628.198;29902.398;  -12.071;37220.695
628.778;29720.938;   -9.461;37632.563
629.357;30733.469;   -8.491;38003.012
629.937;30650.639;   -9.721;38402.039
630.516;29580.264;   -9.951;37868.801
631.096;29342.961;  -11.731;35760.410
631.675;33082.156;   -8.572;35225.219
632.254;38228.551;  -11.282;35130.289
632.834;37481.945;  -13.322;35794.570
633.413;35999.457;  -10.301;35788.922
633.992;32942.531;   -8.582;34532.863
634.571;33892.113;   -8.352;33590.113
635.151;35227.547;  -11.912;34943.863
635.730;33218.949;  -10.511;35352.523
636.309;30659.152;   -7.731;35366.605
636.888;28715.504;   -9.952;36165.637
637.467;29222.953;  -11.672;37515.902
638.046;31337.387;   -8.901;39288.695
638.625;34031.602;   -7.912;38279.699
639.204;33631.867;  -10.022;37741.598
639.782;32098.344;  -12.252;38364.551
640.361;28587.824;  -10.041;36740.621
640.940;25898.947;  -11.161;34950.082
641.519;25457.920;   -9.701;34137.398
642.097;27706.365;  -11.271;35654.258
642.676;30898.705;   -8.651;35637.957
643.255;32542.768;   -8.711;36567.074
643.833;31478.676;   -9.581;37809.434
644.412;32064.025;  -13.711;37337.293
644.990;31731.303;  -11.811;37018.531
645.569;32036.727;   -9.411;36518.469
646.147;30545.877;  -10.291;36186.430
646.726;29027.186;  -12.401;36267.688
647.304;29773.666;  -10.411;36647.625
647.882;31215.705;   -9.651;39286.742
648.461;33025.438;   -9.631;39157.703
649.039;32612.475;  -11.881;35412.883
649.617;32336.980;   -9.661;34744.918
650.195;32222.867;   -9.301;35403.098
650.773;31534.086;  -10.511;35053.797
651.352;29709.467;  -11.521;33756.816
651.930;26821.986;  -12.211;31868.773
652.508;23899.627;   -9.171;33121.551
653.086;27355.588;   -9.371;33564.793
653.663;30944.563;  -13.161;34054.668
654.241;30021.125;  -13.031;35693.309
654.819;31139.209;   -9.371;36422.906
655.397;30183.514;  -10.511;38213.484
655.975;30235.928;  -10.371;39507.625
656.553;30605.102;  -10.051;39498.223
657.130;29474.959;  -10.061;40395.480
657.708;29354.617;   -9.561;39242.020
658.286;29153.270;  -11.511;38920.020
658.863;29438.895;  -10.261;40202.898
659.441;31134.566;   -7.531;39677.938
660.018;30225.031;   -9.501;40413.355
660.596;29753.508;  -13.301;39931.414
661.173;31897.969;  -11.211;39604.531
661.750;32300.318;   -9.951;39700.070
662.328;31819.092;   -9.390;39292.809
662.905;30878.223;  -11.330;38235.648
663.482;25989.016;   -9.050;36212.305
664.060;23898.861;   -8.240;35944.945
664.637;26771.410;  -10.050;35170.785
665.214;28405.855;  -11.760;34197.523
665.791;30077.344;  -10.530;34549.520
666.368;29384.369;   -9.690;35118.578
666.945;30414.629;   -9.320;36019.418
667.522;31441.045;  -11.860;36048.438
668.099;31852.289;  -10.770;36243.914
668.676;31548.428;   -6.260;35958.875
669.253;29817.992;   -7.000;37384.730
669.830;29531.535;  -10.190;36779.629
670.407;29048.152;   -9.550;35231.289
670.984;30246.162;   -9.260;35544.270
671.560;29758.607;   -9.280;35466.867
672.137;28025.998;  -11.810;34280.863
672.714;29158.539;  -11.490;34632.863
673.290;29338.736;   -7.740;35135.422
673.867;29635.584;  -10.660;36114.480
674.443;29697.709;  -12.230;36152.859
675.020;27805.852;  -10.450;35327.238
675.596;29304.428;   -9.260;35795.176
676.173;30120.836;  -10.780;35430.355
676.749;29370.662;  -13.690;33549.516
677.326;29297.982;  -11.980;32210.012
677.902;29554.340;   -8.630;32068.871
678.478;28774.604;  -10.730;32583.891
679.054;29280.631;  -10.520;32088.928
679.631;30735.217;  -11.920;30978.848
680.207;31164.953;   -7.490;33160.887
680.783;32190.318;   -9.860;35570.363
681.359;31158.531;  -13.380;36125.184
681.935;29426.459;  -12.480;35240.922
682.511;27806.477;   -7.900;34429.961
683.087;27835.459;   -7.710;34463.680
683.663;28883.410;  -11.480;34648.898
684.239;28886.035;  -14.090;34546.457
684.815;28747.635;   -7.560;35586.375
685.390;28886.910;   -9.910;35821.895
685.966;28944.676;  -11.159;35085.871
686.542;31453.488;  -11.169;34198.230
687.118;33470.332;   -5.959;32847.707
687.693;33153.336;  -10.329;32794.027
688.269;32101.084;  -12.059;33072.367
688.844;29175.135;  -10.909;33141.664
689.420;27530.643;   -8.019;33965.742
689.995;26269.234;   -8.399;34655.523
690.571;25691.920;  -10.949;33576.742
691.146;26421.854;   -9.619;32657.219
691.722;25411.965;   -8.999;32526.979
692.297;25192.328;  -11.589;33014.617
692.872;27156.904;  -11.739;34012.254
693.448;27067.820;  -11.059;34237.434
694.023;25795.182;  -10.139;34142.672
694.598;27679.412;   -9.029;34132.031
695.173;27478.699;  -13.319;34205.250
695.748;26903.504;  -10.169;32882.488
696.323;26327.531;   -8.339;32864.906
696.898;26110.652;   -8.169;33170.004
697.473;26216.211;  -12.309;32432.984
698.048;26474.164;  -10.989;31649.303
698.623;27337.805;   -9.329;30778.141
699.198;28981.654;   -9.849;31140.119
699.773;29634.344;  -12.329;31764.299
700.348;28821.924;  -10.389;31780.816
700.922;29182.416;   -9.269;32046.375
701.497;29126.945;   -9.329;32603.574
702.072;28814.381;  -10.789;34799.871
702.646;28616.908;  -10.839;35793.172
703.221;27942.355;   -9.099;35201.590
703.795;29659.564;  -10.939;34764.527
704.370;29064.609;  -12.859;34307.367
704.944;28907.482;  -11.559;33509.887
705.519;30282.324;   -7.939;31388.584
706.093;31596.215;  -10.499;31340.104
706.668;31146.588;  -11.289;32630.281
707.242;29627.824;  -11.509;32728.779
707.816;28449.084;   -9.639;32947.238
708.390;26800.092;  -11.429;33277.855
708.965;27752.953;  -11.869;33834.336
709.539;28943.543;  -11.689;33709.273
710.113;29030.410;  -10.478;33044.313
710.687;27689.219;  -10.228;31953.992
711.261;25216.506;  -13.698;30505.949
711.835;25281.156;  -13.378;30262.369
712.409;26741.951;   -9.698;31254.447
712.983;27897.391;  -11.898;32754.986
713.557;28787.721;  -15.138;34018.824
714.131;28841.994;  -14.098;34579.625
714.704;27967.131;   -9.958;33890.262
715.278;25610.945;  -10.028;33531.102
715.852;25890.139;  -11.148;33601.660
716.425;27148.750;   -9.068;33515.117
716.999;27484.889;  -10.038;33185.555
717.573;28255.299;   -9.798;33905.996
718.146;29280.686;  -12.378;35199.293
718.720;28843.465;  -11.918;35060.551
719.293;28575.705;   -8.088;34973.230
719.867;31039.252;  -10.888;36394.449
720.440;30945.512;  -11.938;36663.008
721.013;29872.744;  -12.818;35102.426
721.587;28829.344;  -10.298;33985.266
722.160;26637.295;  -10.048;33524.965
722.733;25435.830;  -12.108;32987.043
723.306;26342.750;  -10.818;33066.301
723.880;27907.795;   -8.908;33399.500
724.453;29253.889;   -9.878;33468.297
725.026;28090.820;  -11.188;33816.637
725.599;25469.205;  -11.678;32797.996
726.172;26345.045;   -9.618;33187.434
726.745;28225.680;   -8.258;35136.613
727.318;30077.484;  -12.978;35751.730
727.891;30399.365;  -12.148;35890.430
728.463;30043.313;   -8.968;34822.090
729.036;28794.473;  -10.188;32895.086
729.609;28795.336;  -11.788;31823.225
730.182;25296.035;  -11.788;31445.283
730.754;23091.207;  -10.268;32373.223
731.327;23260.852;   -9.998;33676.820
731.900;23304.508;  -12.228;33417.000
732.472;24788.949;  -13.848;31978.498
733.045;27229.221;   -8.698;30368.777
733.617;27471.086;  -10.607;30574.215
734.190;26610.633;  -11.507;31280.975
734.762;23416.227;  -13.647;31674.412
735.334;22186.447;   -9.767;31247.291
735.907;23004.072;   -9.897;29876.211
736.479;22739.154;  -11.637;29808.488
737.051;22073.418;   -9.567;30233.547
737.623;23133.926;   -8.187;31469.086
738.195;24334.566;  -11.187;31784.225
738.768;26053.781;  -12.337;32120.523
739.340;25276.746;  -12.227;32094.342
739.912;23529.494;  -11.057;31312.680
740.484;23151.336;  -10.207;31946.238
741.056;22608.871;  -10.047;32984.059
741.628;24034.738;  -13.627;33897.715
742.199;26624.100;   -7.177;33213.016
742.771;25492.707;  -10.797;31369.113
743.343;22933.785;  -11.997;31865.473
743.915;21507.469;  -12.867;32388.631
744.487;21589.031;   -7.617;31079.568
745.058;22056.299;   -9.557;30570.107
745.630;23192.900;   -9.877;29970.127
746.201;24300.219;  -14.177;29186.766
746.773;24139.844;   -9.237;28805.723
747.344;23622.869;   -9.847;29591.223
747.916;22172.293;  -11.657;31412.201
748.487;21826.350;  -10.587;32194.898
749.059;23253.748;   -8.707;32533.719
749.630;24581.783;  -10.537;32158.518
750.201;24213.711;  -11.687;30855.395
750.773;23007.805;  -11.647;28622.555
751.344;23010.277;   -7.147;28405.732
751.915;23775.697;   -9.757;28461.551
752.486;22355.559;  -12.427;27842.850
753.057;20201.223;  -12.227;27845.008
753.628;19396.705;  -10.417;27728.107
754.199;20101.986;  -11.767;27381.086
754.770;20929.939;  -11.187;25882.203
755.341;21007.195;  -10.507;25886.184
755.912;20965.605;   -9.387;26050.861
756.483;20401.910;  -10.647;26798.779
757.054;18635.209;  -11.837;27048.238
757.625;17503.947;  -12.716;26294.838
758.195;17466.971;   -9.666;26142.076
758.766;17273.793;   -8.656;26392.234
759.337;18096.629;  -12.856;26334.594
759.907;19853.449;  -13.366;27579.652
760.478;20879.639;   -8.576;28352.770
761.048;20676.668;  -10.526;27325.088
761.619;20044.123;  -11.116;26460.428
762.189;19646.967;  -12.136;26029.826
762.760;20270.414;   -9.456;26430.145
763.330;21031.498;   -7.136;26670.902
763.900;20118.867;  -11.786;26603.021
764.471;17180.863;  -11.546;25542.740
765.041;16104.738;   -8.096;24358.459
765.611;16871.139;   -8.876;23991.297
766.181;17534.188;  -12.196;24470.236
766.751;18204.785;  -11.636;24845.975
767.321;17760.639;  -10.156;24533.633
767.891;15528.077;  -11.766;24916.492
768.461;14928.348;  -14.936;24776.771
769.031;15363.315;  -12.356;24757.988
769.601;17005.189;   -7.526;24181.088
770.171;17235.080;  -10.766;23670.387
770.741;16851.367;  -13.176;22960.045
771.311;17026.637;  -10.616;22917.523
771.880;16976.990;   -9.576;23562.941
772.450;16530.148;  -10.336;24216.500
773.020;16720.248;  -13.516;24140.398
773.589;16486.535;  -13.466;24414.857
774.159;16281.763;   -8.686;23858.717
774.729;15918.348;   -9.476;22942.135
775.298;15068.846;  -13.666;22324.033
775.867;14467.366;  -11.716;21140.313
776.437;14446.500;   -9.906;20838.092
777.006;14194.319;  -12.166;20599.510
777.576;14214.460;  -12.356;20508.809
778.145;14602.982;  -11.646;20732.947
778.714;14431.484;   -8.226;21062.465
779.283;13362.705;   -9.556;20949.664
779.853;13105.389;  -14.116;20508.623
780.422;13585.063;  -11.506;20649.082
780.991;13127.755;   -9.556;21527.520
781.560;12303.994;   -9.095;22632.658
782.129;12218.722;  -12.135;23048.277
782.698;11980.283;  -10.865;23438.555
783.267;11585.967;   -9.335;23267.734
783.836;11653.340;  -11.045;22415.133
784.404;12374.221;  -13.865;20443.152
784.973;12292.190;  -13.095;19699.150
785.542;12079.178;  -11.575;19763.828
786.111;12162.364;   -9.705;20341.408
786.679;12007.482;  -12.105;20207.967
787.248;11948.902;  -12.455;19516.465
787.817;11524.675;  -11.535;18900.363
788.385;10840.693;   -9.765;17879.121
788.954;10067.839;  -14.005;17658.301
789.522; 9857.317;  -11.955;17788.879
790.090;10516.483;  -10.135;18118.277
790.659;10855.940;  -10.975;18338.736
791.227;10301.476;  -13.375;18508.615
791.795;10732.335;  -12.375;17898.254
792.364;11006.583;  -10.725;17295.133
792.932;11110.562;   -9.715;16822.051
793.500;11263.404;  -12.675;17040.148
794.068;11558.417;  -13.495;17179.787
794.636;11706.513;  -10.885;16664.246
795.204;11358.296;  -11.045;16524.545
795.772;11188.389;  -13.175;17274.564
796.340;10653.156;  -12.445;17891.002
796.908;10502.654;   -9.735;17648.561
797.476;10401.935;   -9.815;17064.080
798.044; 9904.451;  -13.985;16672.777
798.612; 9190.619;  -13.115;17023.996
799.180; 8945.175;  -10.185;16561.615
799.747; 8892.464;   -9.055;15962.773
800.315; 8645.906;  -12.385;15296.992
800.883; 8276.272;  -15.035;14801.771
801.450; 8155.657;  -10.365;14534.430
802.018; 8164.609;   -9.855;14173.248
802.585; 8212.845;  -11.905;14029.547
803.153; 8365.772;  -11.585;13836.846
803.720; 8399.081;   -9.095;13567.324
804.287; 8029.607;   -9.135;13360.622
804.855; 7614.548;  -11.604;13681.981
805.422; 7441.565;  -11.794;13536.560
805.989; 7238.696;  -10.734;13355.958
806.556; 7388.290;  -10.444;13747.896
807.124; 7859.275;  -12.764;13987.376
807.691; 7939.634;  -12.964;14038.674
808.258; 7725.886;  -11.134;14120.152
808.825; 7336.234;   -9.854;13860.111
809.392; 7356.136;  -10.504;13268.790
809.959; 7021.411;  -13.054;12680.389
810.526; 6691.799;   -8.294;12427.308
811.093; 6683.762;   -8.394;12030.105
811.659; 7104.006;  -12.304;11653.664
812.226; 7412.971;  -13.944;11637.183
812.793; 7081.310;  -10.484;11611.521
813.360; 6520.896;  -10.144;11885.181
813.926; 6088.623;  -11.684;12770.539
814.493; 5846.387;  -13.644;12677.638
815.060; 5506.038;   -9.724;11974.336
815.626; 5536.515;   -9.854;11594.715
816.193; 5968.914;  -13.254;11579.474
816.759; 6096.759;  -13.204;11666.972
817.325; 6334.164;   -9.434;11325.530
817.892; 6705.129;  -10.134;11105.369
818.458; 7063.786;  -13.474;10843.928
819.024; 6710.980;  -11.854;10714.406
819.591; 6373.150;  -10.244;10469.165
820.157; 6143.973;  -10.704;10235.523
820.723; 5837.864;  -12.324;10847.563
821.289; 5702.081;   -9.444;11040.980
821.855; 5636.117;   -8.374;10357.100
822.421; 5624.620;  -10.234; 9978.918
822.987; 5485.272;  -13.294; 9754.177
823.553; 5172.690;  -10.884;10065.755
824.119; 5086.252;   -8.884;10036.294
824.685; 5206.518;   -6.784;10029.192
825.251; 5258.064;  -12.004;10199.230
825.816; 5210.285;  -11.474; 9820.189
826.382; 5113.206;   -9.174; 9297.248
826.948; 5388.651;   -9.214; 9381.347
827.513; 5717.333;  -10.774; 9450.726
828.079; 5517.697;  -11.924; 9472.444
828.645; 5050.287;  -10.543; 9292.643
829.210; 5031.266;  -10.533; 9065.341
829.776; 4999.885;  -10.753; 9132.620
830.341; 4908.442;  -10.173; 9092.878
830.906; 5105.129;  -10.743; 9078.557
831.472; 5441.958;  -11.113; 8534.535
832.037; 5249.282;  -10.603; 8677.874
832.602; 4718.380;  -13.323; 8628.692
833.167; 4353.251;  -10.823; 8879.031
833.733; 4265.088;  -10.113; 9189.790
834.298; 4336.329;  -13.583; 9052.608
834.863; 4268.625;  -12.703; 8895.087
835.428; 4280.028;  -10.523; 8824.266
835.993; 4410.092;   -6.963; 8845.385
836.558; 4392.682;  -10.763; 8888.563
837.123; 4457.829;   -9.903; 8966.582
837.688; 4561.750;   -9.913; 8617.860
838.253; 4679.772;  -10.283; 8590.699
838.817; 4865.451;  -12.963; 8443.797
839.382; 4868.044;  -14.243; 8799.356
839.947; 4631.236;  -10.733; 8810.595
840.511; 4349.700;   -9.383; 8796.394
841.076; 3990.714;  -12.563; 8347.231
841.641; 4003.321;  -12.953; 8224.330
842.205; 4044.908;   -7.043; 8223.349
842.770; 4201.699;   -8.163; 8622.107
843.334; 4561.909;  -12.503; 8410.386
843.898; 4607.290;  -11.693; 8337.465
844.463; 4571.163;  -10.203; 8506.283
845.027; 4276.917;   -9.533; 8280.962
845.591; 4080.251;  -13.443; 8231.141
846.156; 4077.663;  -13.143; 7969.179
846.720; 3966.391;   -9.433; 7768.278
847.284; 3851.252;  -11.033; 7630.957
847.848; 3645.716;  -10.403; 7472.395
848.412; 3487.297;  -11.553; 7437.394
848.976; 3514.137;   -8.393; 7674.592
849.540; 3491.370;   -8.713; 7836.011
850.104; 3570.730;  -12.463; 7913.669
850.668; 3839.907;  -12.973; 7694.508
851.232; 3902.783;  -10.793; 7756.887
851.796; 3735.296;  -10.662; 7926.545
852.359; 3432.471;  -13.082; 7827.844
852.923; 3319.081;  -12.192; 7641.163
853.487; 3200.130;  -11.912; 7342.501
854.050; 3130.874;  -10.892; 7042.820
854.614; 3248.282;  -13.992; 7151.338
855.177; 3348.674;  -11.732; 7105.077
855.741; 3369.665;   -8.962; 6989.675
856.304; 3231.003;   -9.442; 6596.634
856.868; 3198.541;  -14.192; 6356.272
857.431; 3350.934;  -12.702; 6468.571
857.995; 3451.426;   -9.942; 6373.210
858.558; 3495.798;   -9.112; 6324.448
859.121; 3251.313;  -12.932; 6408.327
859.684; 3108.940;  -13.442; 6347.886
860.247; 3172.389;  -10.632; 6321.264
860.810; 3096.431;  -11.272; 6301.903
861.374; 2798.666;   -9.832; 6607.881
861.937; 2518.365;  -11.762; 6408.200
862.500; 2474.086;   -9.722; 6572.639
863.062; 2590.401;  -10.512; 6387.297
863.625; 2701.909;  -11.232; 6190.836
864.188; 2836.546;  -14.112; 5807.254
864.751; 2927.834;  -11.302; 5682.413
865.314; 2841.430;  -10.112; 5547.492
865.876; 2698.328;  -12.182; 5500.150
866.439; 2719.350;  -10.722; 5415.909
867.002; 2630.800;   -9.252; 5501.567
867.564; 2394.149;   -9.572; 5413.946
868.127; 2179.234;  -13.142; 5160.325
868.689; 2133.600;  -12.902; 5133.183
869.252; 2083.235;   -9.732; 5252.382
869.814; 1991.141;   -9.432; 5297.141
870.377; 1989.200;  -11.552; 5390.919
870.939; 2070.237;   -9.052; 5599.898
871.501; 2121.763;  -10.982; 5248.336
872.063; 2122.811;  -12.292; 4854.235
872.626; 2089.878;  -14.912; 4817.074
873.188; 2067.028;  -13.112; 4987.732
873.750; 2014.323;  -13.442; 4868.651
874.312; 1944.405;   -9.402; 4779.330
874.874; 1877.509;  -11.062; 4866.348
875.436; 1821.289;  -13.931; 4718.887
875.998; 1813.493;   -9.561; 4660.005
876.560; 1800.590;  -11.321; 4462.964
877.122; 1744.959;  -12.221; 4145.042
877.683; 1666.512;  -12.191; 4056.481
878.245; 1599.227;  -12.101; 3950.740
878.807; 1609.672;   -8.971; 4058.958
879.369; 1594.603;  -12.071; 3954.677
879.930; 1504.196;  -14.621; 3941.495
880.492; 1469.020;  -10.311; 4067.014
881.053; 1433.518;  -10.901; 3859.633
881.615; 1331.017;  -14.411; 3776.071
882.176; 1278.023;  -13.761; 3734.750
882.738; 1278.693;   -9.181; 3678.489
883.299; 1280.817;  -11.791; 3405.407
883.860; 1291.543;  -13.121; 3351.106
884.422; 1282.890;  -11.211; 3394.044
884.983; 1229.586;  -10.091; 3166.443
885.544; 1130.089;   -8.461; 3189.802
886.105; 1059.922;  -12.361; 3160.360
886.666; 1024.601;  -14.141; 3093.059
887.227;  978.039;  -11.361; 2941.957
887.788;  901.146;  -11.401; 2974.836
888.349;  834.243;  -13.791; 2721.214
888.910;  842.394;  -13.191; 2696.493
889.471;  854.357;   -9.881; 2560.172
890.032;  825.110;   -9.881; 2558.190
890.593;  791.356;  -10.371; 2567.669
891.153;  771.269;  -13.301; 2460.307
891.714;  732.627;  -11.431; 2372.046
892.275;  696.453;  -11.291; 2309.505
892.835;  653.876;  -11.471; 2382.543
893.396;  598.383;  -11.541; 2295.502
893.956;  548.216;  -11.181; 2162.420
894.517;  513.100;  -11.741; 2125.439
895.077;  511.349;  -11.671; 2086.978
895.638;  515.999;  -11.311; 2126.316
896.198;  490.951;   -9.831; 1838.275
896.758;  446.233;   -8.421; 1892.813
897.319;  416.085;  -12.351; 1792.232
897.879;  401.823;  -13.511; 1762.751
898.439;  376.404;  -12.001; 1661.149
898.999;  348.497;  -10.180; 1781.468
899.559;  337.143;  -12.030; 1703.347
900.119;  333.355;  -15.710; 1537.525
900.679;  331.276;   -8.900; 1638.384
901.239;  319.074;   -8.340; 1527.902
901.799;  309.206;  -13.910; 1456.441
902.359;  301.733;  -13.460; 1357.140
902.919;  292.996;  -11.490; 1331.118
903.479;  277.967;  -12.110; 1317.257
904.038;  255.897;  -11.720; 1262.595
904.598;  242.115;  -13.610; 1152.034
905.158;  237.758;  -11.040; 1240.893
905.717;  228.689;  -10.900; 1233.691
906.277;  216.909;  -15.080; 1217.330
906.836;  208.257;  -13.380; 1222.408
907.396;  201.200;  -10.780; 1193.047
907.955;  194.639;   -8.500; 1182.526
908.515;  188.505;  -12.760; 1099.364
909.074;  183.482;  -11.900; 1092.863
909.633;  177.936;   -8.950; 1069.121
910.192;  173.119;   -8.770; 1196.460
910.752;  168.948;  -12.390; 1029.960
911.311;  164.395;  -13.680; 1009.780
911.870;  162.396;  -12.370;  971.460
912.429;  162.515;  -10.900; 1094.080
912.988;  160.534;  -11.690; 1081.060
913.547;  156.596;  -13.240;  940.380
914.106;  151.034;  -11.990;  999.420
914.665;  148.781;   -9.990;  984.020
915.224;  147.416;  -12.880; 1035.760
915.782;  146.874;  -12.350;  922.560
916.341;  147.285;   -9.110; 1049.840
916.900;  142.782;   -9.270;  925.260
917.458;  141.661;  -13.240;  884.220
918.017;  140.298;  -13.550;  942.600
918.576;  140.035;  -12.320;  904.440
919.134;  138.134;  -11.490;  837.980
919.693;  136.554;  -13.670;  893.060
920.251;  133.682;  -15.470;  876.500
920.809;  132.494;  -11.290;  839.580
921.368;  133.015;  -10.210;  885.360
921.926;  132.036;  -12.140;  842.940
922.484;  130.243;  -13.080;  903.360
923.042;  130.646;  -11.720;  880.340
923.601;  133.053;   -7.480;  998.680
924.159;  131.057;  -11.570;  935.560
924.717;  127.651;  -13.840;  841.080
925.275;  127.907;  -10.640;  903.240
925.833;  127.856;  -11.540;  779.320
926.391;  128.977;  -12.960;  938.380
926.949;  126.131;  -14.130;  857.680
927.506;  127.004;  -11.750;  903.500
928.064;  127.280;  -10.250;  877.580
928.622;  125.734;  -13.030;  880.100
929.180;  125.488;  -13.400;  814.180
929.737;  126.645;  -10.700;  808.540
930.295;  130.619;  -10.070;  928.480
930.853;  133.031;  -11.960;  849.100
931.410;  133.849;  -13.120;  821.120
931.968;  132.238;  -10.770;  940.660
932.525;  132.673;  -10.680;  909.380
933.082;  132.414;  -13.130;  811.440
933.640;  132.255;  -13.210;  925.900
934.197;  130.368;  -11.060;  886.360
934.754;  132.279;   -9.580;  897.780
935.312;  135.373;  -14.000;  863.340
935.869;  139.637;  -10.710; 1012.980
936.426;  139.016;   -9.860;  872.800
936.983;  139.181;   -9.710;  889.020
937.540;  137.664;  -13.990;  838.280
938.097;  137.065;  -14.040;  940.120
938.654;  137.940;  -10.310;  898.860
939.211;  140.930;  -10.560;  952.480
939.768;  143.696;  -13.900;  915.420
940.324;  147.443;  -14.760;  904.200
940.881;  147.219;  -10.370;  878.500
941.438;  148.396;   -8.260; 1021.200
941.995;  144.349;  -12.540;  992.560
942.551;  140.975;  -14.670;  875.620
943.108;  141.495;  -10.450;  937.920
943.664;  144.122;  -10.750;  869.340
944.221;  148.279;  -11.550; 1088.140
944.777;  146.484;  -14.770;  869.680
945.334;  148.589;  -12.820;  884.840
945.890;  150.819;  -10.130;  946.480
946.446;  150.205;  -13.470;  947.020
947.003;  150.941;  -12.120;  964.940
947.559;  152.672;   -9.980; 1063.040
948.115;  152.077;   -9.080; 1026.540
948.671;  149.541;  -10.830;  967.300
949.227;  147.274;  -12.440;  859.560
949.783;  143.939;  -12.910;  858.900
950.339;  146.849;  -10.270;  991.000
950.895;  146.755;  -13.630; 1023.840
951.451;  146.120;  -15.100;  925.280
952.007;  147.365;  -11.330;  998.540
952.563;  148.285;  -10.580;  937.780
953.118;  146.963;  -13.440;  904.940
953.674;  146.298;  -12.710;  935.780
954.230;  147.060;  -10.350;  949.640
954.785;  146.300;   -9.190;  936.640
955.341;  143.857;  -11.200;  998.160
955.897;  141.479;  -16.560;  834.660
956.452;  142.012;  -12.570;  953.840
957.008;  140.165;   -7.970; 1083.640
957.563;  138.763;  -11.940; 1009.540
958.118;  135.158;  -13.450;  877.700
958.674;  136.155;  -12.030;  946.780
959.229;  136.852;   -9.410; 1013.980
959.784;  134.003;  -12.000;  832.400
960.339;  131.918;  -14.780; 1001.280
960.894;  127.298;   -9.860;  963.760
961.449;  124.054;   -9.970;  859.960
962.004;  124.334;  -10.900; 1212.840
962.559;  120.454;  -13.150;  860.140
963.114;  118.743;  -13.740;  742.480
963.669;  117.817;   -9.820;  915.500
964.224;  115.608;  -13.890;  874.340
964.779;  113.790;  -12.600;  828.420
965.334;  116.041;  -10.950; 1017.860
965.888;  114.729;  -11.170;  875.360
966.443;  116.655;  -12.540;  972.380
966.998;  115.683;  -15.780;  819.460
967.552;  114.011;   -9.760;  908.380
968.107;  111.417;   -9.060;  868.300
968.661;  112.028;  -11.950;  922.440
969.216;  112.954;  -12.800;  856.280
969.770;  112.654;  -11.210;  917.200
970.324;  112.706;  -11.610;  923.140
970.879;  108.270;  -11.370;  947.180
971.433;  105.059;  -12.540;  952.720
971.987;  100.439;  -11.320;  895.340
972.541;   98.039;  -10.720;  917.100
973.095;   96.980;   -9.680; 1009.460
973.649;   96.065;  -11.440;  809.480
974.203;   96.360;  -11.210;  829.040
974.757;   97.206;  -10.240;  855.220
975.311;   97.503;  -13.720;  872.600
975.865;   96.775;  -13.770;  881.820
976.419;   94.470;  -11.690;  857.400
976.973;   94.107;   -9.510;  849.620
977.526;   96.232;  -12.620;  949.920
978.080;   96.179;  -12.010;  796.780
978.634;   97.417;  -10.170;  921.320
979.187;   95.044;   -9.020;  905.400
979.741;   92.492;   -9.820; 1018.380
980.294;   88.362;  -14.870;  789.160
980.848;   85.937;  -12.380;  717.220
981.401;   87.781;  -10.350;  816.540
981.955;   89.067;  -13.720;  844.300
982.508;   87.884;  -11.490;  746.340
983.061;   89.496;  -10.000;  915.260
983.615;   86.623;  -11.480;  798.800
984.168;   83.191;  -13.220;  770.080
984.721;   82.501;  -13.960;  880.760
985.274;   81.305;  -10.870;  867.500
985.827;   80.268;   -9.790;  834.220
986.380;   78.913;  -13.120;  721.340
986.933;   77.930;  -12.450;  864.800
987.486;   75.336;  -10.210;  861.920
988.039;   75.429;   -8.430;  863.100
988.591;   72.598;  -10.520;  893.260
989.144;   70.128;  -14.860;  737.260
989.697;   69.177;  -13.080;  758.740
990.250;   70.511;  -10.150;  858.100
990.802;   69.368;  -13.430;  755.860
991.355;   70.328;  -12.750;  974.880
991.907;   68.001;  -12.040;  864.320
992.460;   65.673;  -11.330;  753.760
993.012;   64.965;  -13.610;  749.540
993.565;   64.009;  -13.460;  711.360
994.117;   65.479;   -9.360;  950.780
994.669;   62.557;  -11.300;  701.320
995.221;   60.245;  -13.540;  791.920
995.774;   57.928;  -13.430;  787.580
996.326;   56.605;  -12.520;  740.220
996.878;   56.399;  -10.950;  838.420
997.430;   54.188;  -14.300;  699.860
997.982;   53.545;  -13.760;  750.140
998.534;   52.516;  -11.530;  739.060
999.086;   52.377;  -10.310;  738.220
999.638;   51.006;  -12.530;  661.380
1000.190;   50.754;  -11.840;  699.320
1000.741;   50.552;  -10.260;  742.700
1001.293;   50.158;   -8.860;  686.020
1001.845;   48.662;  -13.700;  676.640
1002.396;   49.129;  -12.100;  743.400
1002.948;   48.370;  -12.760;  737.400
1003.500;   47.003;  -10.380;  723.780
1004.051;   46.998;  -11.900;  907.580
1004.603;   45.123;  -12.250;  791.820
1005.154;   41.201;  -13.210;  608.980
1005.705;   40.748;  -10.950;  723.960
1006.257;   40.008;  -13.880;  707.220
1006.808;   39.614;  -12.840;  685.460
1007.359;   39.404;  -10.570;  763.240
1007.910;   38.337;   -9.620;  646.640
1008.461;   38.220;  -13.630;  732.940
1009.013;   36.762;  -17.200;  588.340
1009.564;   37.468;  -10.200;  793.520
1010.115;   35.828;  -12.570;  597.040
1010.665;   35.957;  -15.150;  602.160
1011.216;   35.695;  -14.480;  667.920
1011.767;   34.815;  -11.340;  697.920
1012.318;   35.742;   -9.780;  736.980
1012.869;   34.135;  -12.380;  679.000
1013.419;   33.404;  -15.560;  603.120
1013.970;   33.902;  -11.010;  666.640
1014.521;   33.827;  -11.610;  620.620
1015.071;   33.958;  -13.450;  670.380
1015.622;   33.061;  -13.870;  635.460
1016.172;   32.869;  -11.610;  596.820
1016.723;   32.855;  -12.120;  614.380
1017.273;   31.562;  -13.620;  604.160
1017.823;   31.970;  -14.140;  650.340
1018.374;   31.259;  -12.800;  611.760
1018.924;   31.193;  -12.340;  716.880
1019.474;   31.682;  -11.410;  718.880
1020.024;   30.181;  -14.770;  657.580
1020.574;   31.112;   -9.780;  726.160
1021.124;   31.544;   -8.560;  673.580
1021.674;   29.893;  -15.190;  559.120
1022.224;   31.580;  -13.530;  708.940
1022.774;   30.679;  -13.280;  668.820
1023.324;   30.967;  -10.690;  753.520
1023.874;   32.253;  -10.240;  875.760
1024.423;   28.697;  -12.540;  613.700
1024.973;   28.902;  -10.010;  610.760
1025.523;   28.311;  -10.550;  620.960
1026.072;   27.966;  -13.560;  606.420
1026.622;   28.360;  -15.120;  675.740
1027.172;   29.364;  -11.260;  715.660
1027.721;   28.559;  -11.410;  601.220
1028.270;   28.422;  -13.530;  663.400
1028.820;   28.521;  -13.680;  638.080
1029.369;   27.331;  -13.520;  612.700
1029.918;   27.991;  -10.980;  649.840
1030.468;   26.838;  -13.530;  564.780
1031.017;   27.503;  -13.170;  634.800
1031.566;   26.244;  -12.200;  608.900
1032.115;   27.244;   -9.960;  694.500
1032.664;   25.937;  -13.210;  596.480
1033.213;   27.052;  -12.500;  735.420
1033.762;   25.672;  -11.910;  635.620
1034.311;   26.310;   -9.640;  677.220
1034.860;   25.727;  -13.310;  691.000
1035.408;   25.828;  -11.830;  722.720
1035.957;   26.409;  -12.000;  719.540
1036.506;   24.916;  -11.690;  530.800
1037.055;   26.677;  -10.990;  844.320
1037.603;   25.010;  -15.120;  664.000
1038.152;   23.621;  -12.450;  534.760
1038.700;   25.034;  -10.560;  585.740
1039.249;   23.907;  -11.080;  681.220
1039.797;   24.553;  -12.540;  633.360
1040.345;   23.846;  -11.920;  705.420
1040.894;   23.605;  -11.410;  625.300
1041.442;   23.736;  -14.320;  632.200
1041.990;   22.589;  -16.240;  559.160
1042.538;   22.827;  -11.680;  536.180
1043.087;   23.122;  -10.760;  570.860
1043.635;   24.099;  -11.850;  670.500
1044.183;   22.418;  -15.480;  586.400
1044.731;   22.366;  -11.770;  576.000
1045.279;   22.052;  -13.090;  674.920
1045.827;   24.406;  -12.440;  892.400
1046.374;   21.385;  -13.840;  515.420
1046.922;   21.691;  -13.220;  590.580
1047.470;   22.392;  -10.230;  691.300
1048.018;   22.415;  -14.590;  647.960
1048.565;   22.873;  -12.050;  708.600
1049.113;   20.943;  -11.650;  557.000
1049.660;   21.485;  -10.510;  629.660
1050.208;   21.431;  -13.310;  675.640
1050.755;   20.441;  -15.900;  606.580
1051.303;   21.023;  -11.430;  686.820
1051.850;   20.362;   -8.480;  635.120
1052.397;   19.158;  -15.010;  473.960
1052.945;   19.472;  -13.960;  617.760
1053.492;   21.363;  -13.150;  741.840
1054.039;   21.329;   -9.630;  720.180
1054.586;   19.538;  -13.680;  557.240
1055.133;   19.498;  -14.570;  693.140
1055.680;   19.752;  -13.820;  646.620
1056.227;   19.041;  -11.730;  542.780
1056.774;   20.670;  -12.480;  794.980
1057.321;   17.737;  -13.930;  523.260
1057.868;   18.582;  -11.690;  651.320
1058.415;   18.663;   -9.520;  651.980
1058.961;   18.875;  -13.160;  678.940
1059.508;   18.608;  -12.920;  643.820
1060.055;   18.022;  -11.920;  581.780
1060.601;   19.274;  -11.500;  624.300
1061.148;   18.321;  -14.330;  616.820
1061.694;   17.606;  -16.870;  592.580
1062.241;   18.306;  -10.330;  596.320
1062.787;   18.400;  -10.620;  663.140
1063.334;   19.120;  -10.110;  808.560
1063.880;   18.173;  -13.400;  668.360
1064.426;   18.125;  -10.680;  706.820
1064.972;   16.685;   -9.920;  601.340
1065.518;   15.971;  -10.980;  566.640
1066.065;   16.851;  -14.890;  624.460
1066.611;   16.046;  -12.870;  598.800
1067.157;   17.973;  -12.950;  641.860
1067.703;   17.149;  -13.540;  668.480
1068.249;   17.237;  -13.540;  605.220
1068.794;   16.642;  -12.600;  626.880
1069.340;   15.581;  -10.620;  578.960
1069.886;   16.073;  -12.830;  590.700
1070.432;   15.115;  -14.870;  541.720
1070.977;   15.262;  -11.980;  601.080
1071.523;   15.916;   -8.200;  573.060
1072.068;   15.119;  -12.330;  582.000
1072.614;   15.673;  -16.370;  527.760
1073.160;   15.843;  -11.100;  687.040
1073.705;   14.578;  -10.480;  572.520
1074.250;   15.144;  -14.520;  559.900
1074.796;   15.605;  -11.460;  655.160
1075.341;   15.732;  -11.950;  664.100
1075.886;   15.193;  -11.460;  594.240
1076.431;   14.495;  -13.770;  649.880
1076.976;   14.833;  -12.680;  639.220
1077.521;   14.268;  -13.170;  583.080
1078.067;   13.648;  -10.860;  579.400
1078.612;   14.005;  -13.920;  661.620
1079.156;   14.222;  -13.880;  601.540
1079.701;   14.592;  -13.120;  693.260
1080.246;   14.731;   -9.940;  696.300
1080.791;   14.199;  -14.740;  625.020
1081.336;   13.526;  -13.750;  659.320
1081.880;   13.544;  -13.400;  649.680
1082.425;   13.461;  -12.220;  573.480
1082.970;   14.763;  -11.610;  717.040
1083.514;   12.933;  -13.580;  597.000
1084.059;   11.620;  -12.810;  586.720
1084.603;   12.775;  -12.320;  565.840
1085.147;   12.257;  -13.190;  645.220
1085.692;   13.847;  -12.480;  716.800
1086.236;   11.221;  -13.020;  503.140
1086.780;   14.088;   -9.190;  751.440
1087.325;   12.780;  -12.480;  654.620
1087.869;   12.669;  -12.450;  610.700
1088.413;   12.864;  -12.240;  705.040
1088.957;   11.169;   -9.020;  543.400
1089.501;   12.771;  -10.320;  766.640
1090.045;   12.345;  -12.720;  726.480
1090.589;   10.370;  -13.690;  569.920
1091.133;   11.848;  -10.020;  673.340
1091.676;   11.076;  -12.330;  591.940
1092.220;   10.928;  -14.970;  600.920
1092.764;   11.911;  -12.430;  706.960
1093.307;   11.444;   -9.800;  673.780
1093.851;    9.487;  -14.970;  556.540
1094.395;   11.216;  -15.310;  683.140
1094.938;   10.239;  -10.370;  632.520
1095.482;   10.741;  -11.050;  559.800
1096.025;   11.559;  -11.840;  710.880
1096.568;   11.598;  -12.840;  779.280
1097.112;    9.104;  -14.700;  508.180
1097.655;   10.959;   -8.720;  603.000
1098.198;    9.544;  -13.610;  600.180
1098.741;    9.635;  -13.350;  612.860
1099.285;   10.251;  -11.230;  657.300
1099.828;    8.412;  -11.840;  439.400
1100.371;    9.200;  -10.840;  608.160
1100.914;    9.753;  -14.190;  682.660
1101.457;    9.646;  -11.240;  679.900
1101.999;    8.521;  -11.270;  584.680
1102.542;    9.605;  -11.480;  641.440
1103.085;    9.049;  -11.750;  658.500
1103.628;    9.135;  -11.400;  762.060
1104.170;    8.730;  -10.490;  588.280
1104.713;    9.309;  -10.600;  646.700
1105.256;    8.922;  -14.360;  557.440
1105.798;    7.085;  -13.210;  499.980
1106.341;    9.521;  -10.270;  728.900
1106.883;    7.809;  -12.200;  521.340
1107.425;    8.458;  -13.110;  668.180
1107.968;    8.405;  -12.840;  612.380
1108.510;    8.963;   -6.480;  684.960
1109.052;    6.965;  -13.940;  612.620
1109.594;    7.436;  -13.690;  554.440
1110.136;    8.208;  -11.880;  643.220
1110.679;    6.753;   -9.500;  633.080
1111.221;    7.874;  -14.160;  604.460
1111.763;    7.234;  -13.980;  559.220
1112.304;    6.089;  -13.880;  547.140
1112.846;    7.612;  -12.210;  666.240
1113.388;   10.152;  -11.390;  942.180
1113.930;    7.565;  -14.540;  694.200
1114.472;    6.452;  -12.640;  606.540
1115.013;    5.191;  -11.620;  551.280
1115.555;    5.788;  -13.640;  587.100
1116.097;    5.241;  -15.380;  579.480
1116.638;    6.514;  -12.640;  684.600
1117.180;    7.047;   -9.850;  667.740
1117.721;    6.047;  -13.690;  568.580
1118.262;    6.502;  -12.680;  677.960
1118.804;    6.927;  -12.530;  637.340
1119.345;    5.847;  -11.690;  578.400
1119.886;    6.810;  -13.380;  704.040
1120.427;    6.056;  -14.070;  589.020
1120.969;    4.865;  -13.500;  597.920
1121.510;    4.877;  -11.480;  563.060
1122.051;    5.219;  -12.830;  723.580
1122.592;    4.598;  -14.290;  655.420
1123.133;    3.924;  -12.400;  547.940
1123.673;    6.544;  -10.130;  706.480
1124.214;    4.896;  -12.930;  612.460
1124.755;    4.744;  -14.380;  639.460
1125.296;    4.996;  -14.000;  627.320
1125.836;    6.566;  -10.070;  691.500
1126.377;    4.814;  -12.640;  599.660
1126.918;    5.169;  -12.960;  614.980
1127.458;    4.489;  -13.350;  622.220
1127.999;    4.793;  -10.750;  656.980
1128.539;    4.829;  -12.350;  694.240
1129.079;    3.649;  -14.860;  632.720
1129.620;    3.878;  -13.840;  558.100
1130.160;    3.608;  -12.330;  539.480
1130.700;    3.724;  -14.530;  640.840
1131.240;    4.948;  -12.530;  643.700
1131.781;    3.652;  -14.450;  619.680
1132.321;    4.571;   -9.790;  599.120
1132.861;    2.862;  -14.860;  564.200
1133.401;    2.571;  -14.290;  593.940
1133.941;    3.197;  -11.750;  626.280
1134.481;    3.131;   -9.920;  597.580
1135.020;    2.481;  -12.290;  609.160
1135.560;    3.221;  -11.650;  674.940
1136.100;    3.110;  -16.270;  501.160
1136.640;    2.654;  -10.890;  510.480
1137.179;    3.346;  -14.180;  537.960
1137.719;    3.246;  -16.250;  605.400
1138.258;    2.796;  -14.230;  587.360
1138.798;    3.461;   -9.090;  663.780
1139.337;    1.603;  -15.130;  482.840
1139.877;    2.737;  -13.680;  642.360
1140.416;    4.726;  -11.320;  878.060
1140.955;    1.854;  -10.860;  535.380
1141.494;    2.423;  -12.920;  669.280
1142.034;    2.315;  -13.930;  583.520
1142.573;    3.147;  -11.440;  646.280
1143.112;    2.626;  -12.000;  553.480
1143.651;    1.290;  -13.670;  536.480
1144.190;    2.049;  -12.730;  691.640
1144.729;    1.532;  -14.560;  607.420
1145.267;    1.609;  -11.830;  584.900
1145.806;    2.812;  -12.230;  637.040
1146.345;    1.683;  -14.130;  635.020
1146.884;    1.498;  -11.590;  622.500
1147.422;    0.842;  -12.550;  533.060
1147.961;    2.479;  -11.180;  708.460
1148.500;    2.523;  -11.510;  669.720
1149.038;    1.995;  -11.640;  632.500
1149.577;    2.284;  -10.130;  698.640
1150.115;   -0.022;  -13.970;  452.280
1150.653;    1.133;  -14.520;  607.340
1151.192;    0.869;  -12.810;  552.920
1151.730;    1.623;   -9.100;  652.560
1152.268;    0.973;  -12.220;  589.520
1152.806;    0.941;  -14.140;  571.180
1153.344;   -0.268;  -12.350;  577.640
1153.882;    1.165;   -8.980;  600.060
1154.421;   -0.033;  -15.190;  470.620
1154.958;    0.315;  -15.210;  595.240
1155.496;    1.779;  -12.850;  645.280
1156.034;    0.802;   -9.940;  721.880
1156.572;    1.768;  -13.570;  667.060
1157.110;   -0.813;  -14.590;  473.940
1157.647;    0.705;  -13.030;  676.960
1158.185;   -0.455;  -12.140;  564.320
1158.723;   -1.345;  -14.390;  509.200
1159.260;    0.258;  -14.090;  701.700
1159.798;    0.846;  -11.920;  658.160
1160.335;    0.197;  -11.110;  631.820

