
Integration time [ms]:   3.276
Averaging Nr. [scans]: 1000
Smoothing Nr. [pixels]: 0
Data measured with spectrometer [name]: 7414430SP
Wave   ;Sample   ;Dark     ;Reference
[nm]   ;[counts] ;[counts] ;[counts] 

288.544;  159.092;    7.793;  793.890
289.143;  163.410;    7.462;  681.602
289.742;  162.914;    8.602;  828.814
290.341;  150.256;    1.321;  789.841
290.940;  141.011;   -0.709;  730.702
291.538;  140.745;    0.881;  881.108
292.137;  140.680;    0.122;  792.581
292.736;  143.385;   -1.929;  975.101
293.335;  140.917;   -8.229;  735.086
293.934;  140.890;   -5.279;  781.677
294.532;  141.545;   -1.369; 1031.958
295.131;  128.364;   -7.641;  834.394
295.730;  128.861;   -8.420;  809.588
296.328;  124.913;   -5.611;  783.442
296.927;  123.509;   -5.781;  779.652
297.525;  126.328;   -6.361;  781.236
298.124;  118.088;  -11.382;  654.009
298.722;  122.147;   -7.641;  761.933
299.321;  118.533;   -6.811;  708.597
299.919;  114.779;   -6.991;  751.918
300.518;  112.513;  -10.362;  689.338
301.116;  114.417;   -9.581;  691.381
301.715;  115.339;   -4.891;  730.222
302.313;  113.611;   -8.801;  704.943
302.911;  107.984;   -8.522;  733.830
303.509;  113.033;   -6.171;  925.627
304.108;  110.848;   -7.311;  760.383
304.706;  110.440;   -8.321;  801.664
305.304;  104.781;  -10.222;  796.707
305.902;  109.487;   -6.021;  784.484
306.500;  105.825;   -4.971;  728.200
307.098;  104.285;   -7.061;  746.560
307.696;  102.452;   -8.801;  780.432
308.294;  101.884;   -6.411;  731.359
308.892;  103.844;   -2.901;  759.769
309.490;  100.566;   -5.041;  712.161
310.088;   99.232;   -5.002;  788.444
310.686;  103.048;   -2.041;  821.749
311.284;   98.078;   -2.351;  766.040
311.882;   95.776;   -4.422;  731.225
312.480;   93.465;   -4.192;  697.167
313.078;   93.554;   -1.172;  808.331
313.675;   95.049;   -2.601;  691.600
314.273;   89.322;   -1.312;  797.837
314.871;   89.151;   -3.942;  589.829
315.468;   88.063;   -2.802;  652.090
316.066;   89.772;   -0.701;  694.427
316.664;   82.662;   -4.362;  656.351
317.261;   87.313;   -2.872;  910.128
317.859;   82.337;   -2.022;  768.735
318.456;   82.660;   -0.531;  830.096
319.054;   79.229;   -3.912;  787.828
319.651;   78.295;   -4.752;  759.928
320.249;   75.909;   -2.602;  810.188
320.846;   73.302;   -0.821;  714.286
321.443;   72.336;   -4.642;  832.135
322.041;   68.792;   -5.002;  812.315
322.638;   65.706;   -3.982;  701.456
323.235;   66.938;   -3.411;  665.683
323.833;   64.320;   -7.361;  740.354
324.430;   59.555;   -8.611;  615.900
325.027;   59.707;   -4.061;  876.855
325.624;   59.560;   -4.031;  644.532
326.221;   56.562;   -7.481;  689.717
326.818;   56.808;   -5.281;  818.332
327.415;   59.461;   -7.460;  748.828
328.012;   57.636;   -5.510;  690.585
328.609;   57.597;   -7.880;  731.389
329.206;   55.782;   -8.331;  778.621
329.803;   55.161;   -5.121;  737.841
330.400;   57.581;   -4.510;  704.260
330.997;   59.257;   -6.441;  817.147
331.594;   57.185;   -8.831;  788.185
332.191;   63.223;   -7.621;  728.722
332.787;   65.705;   -4.591;  844.463
333.384;   65.572;   -7.412;  763.093
333.981;   65.159;   -8.293;  815.687
334.578;   67.748;   -7.052;  708.378
335.174;   69.692;   -3.102;  731.469
335.771;   68.696;   -5.943;  836.456
336.367;   66.849;   -7.393;  710.631
336.964;   71.592;   -4.063;  793.266
337.561;   68.729;   -3.813;  731.112
338.157;   64.300;   -4.654;  911.916
338.754;   63.093;   -7.934;  796.589
339.350;   61.811;   -4.414;  722.493
339.946;   63.143;   -4.664;  773.135
340.543;   55.645;   -6.375;  846.136
341.139;   49.058;   -9.815;  720.836
341.735;   46.661;   -4.526;  772.593
342.332;   46.301;   -4.895;  691.472
342.928;   45.222;   -4.295;  795.394
343.524;   37.803;   -5.476;  761.684
344.120;   35.086;   -5.856;  738.562
344.716;   37.579;   -2.155;  723.717
345.313;   35.960;   -6.275;  795.342
345.909;   30.725;   -8.815;  627.336
346.505;   31.342;   -5.305;  740.247
347.101;   32.403;   -2.674;  827.864
347.697;   32.340;   -4.344;  785.398
348.293;   26.750;   -9.975;  627.244
348.889;   27.256;   -5.774;  745.914
349.485;   27.250;   -5.004;  688.205
350.081;   27.981;   -4.704;  772.592
350.676;   23.141;   -6.635;  691.606
351.272;   26.780;   -4.504;  809.530
351.868;   26.387;   -3.914;  780.497
352.464;   23.616;   -9.044;  723.932
353.059;   20.315;   -8.314;  646.017
353.655;   23.173;   -7.024;  777.063
354.251;   24.679;   -5.343;  759.845
354.846;   18.501;   -8.604;  740.646
355.442;   17.813;   -6.945;  753.071
356.038;   18.805;   -7.564;  751.708
356.633;   18.224;   -5.814;  728.594
357.229;   16.035;   -7.364;  724.757
357.824;   15.736;   -8.024;  703.600
358.420;   13.188;   -9.384;  679.726
359.015;   14.116;   -5.104;  695.357
359.610;   14.647;   -6.854;  763.920
360.206;    9.223;  -10.185;  603.240
360.801;   11.743;   -7.054;  646.503
361.396;   14.076;   -5.034;  725.975
361.992;    9.060;   -8.284;  668.220
362.587;    6.848;   -8.625;  670.160
363.182;    8.767;   -7.674;  689.631
363.777;    9.417;   -5.164;  738.242
364.372;    8.804;   -8.604;  737.314
364.967;    5.103;   -9.055;  680.744
365.563;    9.492;   -6.114;  815.567
366.158;    6.788;   -5.814;  685.161
366.753;    6.342;   -7.854;  649.263
367.348;    5.226;   -7.804;  746.056
367.942;    4.079;   -7.954;  697.298
368.537;    3.668;   -4.984;  754.245
369.132;    3.779;   -8.564;  703.428
369.727;    0.347;   -8.855;  638.079
370.322;    1.097;   -6.245;  580.186
370.917;    1.136;   -6.425;  710.646
371.511;    4.592;   -6.294;  861.834
372.106;    0.238;   -7.685;  776.964
372.701;   -3.042;   -7.335;  585.988
373.296;    1.940;   -4.564;  863.135
373.890;   -2.373;  -10.235;  647.840
374.485;   -4.389;   -7.885;  691.199
375.079;   -0.256;   -7.324;  738.685
375.674;   -0.023;   -3.494;  812.970
376.268;   -3.452;   -8.525;  691.759
376.863;   -9.401;  -10.086;  580.327
377.457;   -3.233;   -7.025;  662.490
378.052;   -4.667;   -3.585;  764.884
378.646;   -5.438;   -7.595;  741.167
379.240;   -5.811;   -8.335;  721.176
379.835;   -5.997;   -5.785;  636.978
380.429;   -8.375;   -4.335;  562.557
381.023;   -6.808;   -6.805;  779.205
381.617;   -9.423;   -9.195;  680.106
382.212;   -6.942;   -6.905;  685.303
382.806;   -5.973;   -3.745;  760.690
383.400;   -9.711;   -7.745;  672.281
383.994;  -10.950;   -9.765;  664.870
384.588;   -7.352;   -6.564;  697.701
385.182;   -5.848;   -5.344;  726.624
385.776;   -7.790;   -8.514;  706.875
386.370;  -10.406;   -9.555;  681.968
386.964;  -10.317;   -8.715;  684.155
387.558;   -8.412;   -6.174;  598.360
388.152;  -11.341;   -8.725;  681.959
388.745;   -8.816;   -7.965;  814.707
389.339;   -7.701;   -5.924;  747.642
389.933;   -7.462;   -5.524;  695.370
390.527;   -8.630;   -7.114;  859.029
391.120;  -14.174;  -10.725;  595.318
391.714;  -10.871;   -8.035;  711.633
392.308;   -8.708;   -3.574;  780.253
392.901;  -11.972;   -7.245;  642.460
393.495;  -13.412;   -9.285;  595.414
394.089;  -12.724;   -5.895;  760.452
394.682;  -12.806;   -4.295;  697.188
395.275;  -13.116;   -9.875;  719.927
395.869;  -14.186;   -8.485;  667.314
396.462;  -12.656;   -7.455;  616.609
397.056;   -8.517;   -5.424;  776.621
397.649;  -13.525;   -6.605;  731.575
398.242;  -10.733;   -8.224;  712.645
398.836;  -10.410;   -7.474;  766.408
399.429;  -11.400;   -7.094;  631.041
400.022;  -14.910;   -9.475;  665.902
400.615;  -11.086;   -7.145;  805.609
401.208;  -11.012;   -7.174;  691.451
401.802;  -13.172;   -5.515;  699.329
402.395;  -14.020;   -9.875;  683.502
402.988;  -15.282;   -8.845;  696.627
403.581;  -11.766;   -8.874;  646.878
404.174;   -9.545;   -5.324;  686.568
404.767;  -12.562;   -9.575;  638.583
405.360;  -14.179;  -10.965;  621.445
405.953;   -9.913;   -8.764;  759.034
406.545;   -9.360;   -7.514;  725.342
407.138;  -12.788;  -10.025;  618.350
407.731;  -11.336;  -10.034;  613.303
408.324;   -8.437;   -9.374;  660.554
408.917;   -9.427;   -6.534;  681.864
409.509;  -10.727;   -8.004;  740.396
410.102;  -12.404;   -9.875;  643.948
410.695;   -7.192;   -8.604;  665.758
411.287;   -7.774;   -6.794;  599.821
411.880;   -9.086;   -9.334;  585.421
412.472;  -11.208;  -10.254;  613.092
413.065;   -9.501;   -6.714;  629.408
413.657;   -7.595;   -7.234;  576.678
414.250;   -7.179;  -10.544;  646.681
414.842;   -7.634;   -9.744;  676.353
415.434;   -7.300;   -6.994;  570.463
416.027;   -2.558;   -5.893;  652.196
416.619;   -4.546;   -7.264;  713.400
417.211;   -5.110;  -10.374;  599.352
417.804;   -1.753;   -7.993;  628.499
418.396;   -6.051;   -7.234;  607.643
418.988;   -3.836;   -9.443;  659.238
419.580;   -6.468;  -10.724;  568.276
420.172;   -4.463;  -10.323;  536.196
420.764;   -0.448;   -8.793;  672.482
421.356;   -1.228;  -11.143;  636.898
421.948;   -2.099;   -8.293;  677.661
422.540;    1.790;   -7.893;  680.027
423.132;    2.154;   -7.082;  600.641
423.724;   -1.134;   -8.653;  561.267
424.316;    1.114;  -10.213;  621.345
424.908;    4.670;   -9.762;  591.517
425.500;    3.608;   -5.572;  647.978
426.092;    4.814;   -8.422;  648.268
426.683;    4.073;   -9.283;  684.836
427.275;    6.601;   -7.852;  641.471
427.867;    8.718;   -5.272;  668.948
428.458;    8.710;   -7.682;  732.344
429.050;    7.758;  -10.612;  680.749
429.642;    9.559;   -9.882;  743.124
430.233;   10.334;   -6.962;  569.356
430.825;   11.680;   -6.842;  724.809
431.416;    9.321;   -9.672;  698.241
432.008;   12.079;   -6.552;  651.723
432.599;   13.322;   -6.891;  656.073
433.190;    9.649;  -10.912;  637.670
433.782;    9.493;  -11.172;  590.395
434.373;   16.269;   -6.061;  884.765
434.964;   15.037;   -8.251;  602.920
435.556;   13.162;   -9.722;  634.537
436.147;   16.199;   -9.082;  758.490
436.738;   15.520;   -8.041;  701.099
437.329;   21.232;   -7.341;  721.723
437.920;   13.929;   -8.162;  666.688
438.511;   14.182;  -11.802;  564.526
439.103;   20.251;  -10.191;  623.998
439.694;   22.667;   -7.601;  681.583
440.285;   22.959;   -8.541;  764.432
440.876;   21.835;   -9.751;  845.738
441.466;   21.023;   -9.401;  575.162
442.057;   25.665;   -7.760;  665.814
442.648;   23.978;   -9.971;  746.255
443.239;   23.473;  -11.001;  620.477
443.830;   27.708;   -7.990;  704.958
444.421;   28.961;   -7.910;  655.474
445.011;   26.413;   -8.131;  693.619
445.602;   26.628;   -7.111;  743.126
446.193;   27.847;  -10.920;  488.117
446.783;   31.727;   -6.500;  640.397
447.374;   27.475;   -8.671;  692.759
447.964;   27.977;  -10.781;  713.770
448.555;   36.966;   -9.650;  822.742
449.145;   33.072;   -8.660;  662.853
449.736;   34.048;   -8.990;  803.179
450.326;   34.273;   -9.500;  713.626
450.917;   38.968;   -8.680;  675.324
451.507;   37.496;   -7.520;  600.661
452.097;   39.226;   -8.590;  746.267
452.688;   40.492;  -11.340;  742.160
453.278;   39.499;  -10.100;  566.840
453.868;   43.374;   -6.019;  793.550
454.458;   41.484;   -9.440;  651.141
455.048;   42.793;  -10.560;  711.783
455.639;   44.160;  -11.799;  567.096
456.229;   46.508;   -6.899;  710.694
456.819;   49.330;   -7.389;  751.158
457.409;   50.185;  -11.119;  773.993
457.999;   52.212;   -9.289;  737.505
458.589;   52.068;   -6.139;  686.606
459.179;   52.196;   -8.729;  717.658
459.769;   50.561;   -9.789;  627.099
460.358;   55.347;  -10.259;  797.262
460.948;   54.521;   -7.299;  689.503
461.538;   56.680;  -10.289;  660.677
462.128;   54.148;  -11.269;  664.934
462.717;   60.579;   -9.368;  710.326
463.307;   63.900;   -7.908;  705.846
463.897;   60.333;   -9.599;  656.942
464.486;   60.549;   -9.769;  837.128
465.076;   64.221;   -8.048;  733.776
465.666;   67.324;   -9.358;  652.900
466.255;   64.779;   -7.919;  785.651
466.845;   63.940;  -11.689;  666.749
467.434;   66.895;   -7.818;  725.873
468.023;   67.546;   -7.678;  658.357
468.613;   65.310;  -10.939;  713.946
469.202;   70.216;  -10.118;  646.507
469.791;   74.350;   -9.108;  737.811
470.381;   76.278;   -6.058;  742.813
470.970;   75.049;  -10.428;  711.099
471.559;   75.999;  -10.268;  733.291
472.148;   79.072;   -8.448;  675.737
472.738;   81.260;   -6.917;  765.466
473.327;   81.292;  -11.978;  637.529
473.916;   80.225;  -11.888;  737.446
474.505;   84.473;   -9.437;  751.703
475.094;   86.626;   -6.747;  806.570
475.683;   87.123;   -9.367;  797.699
476.272;   88.656;  -12.637;  730.632
476.861;   90.776;  -10.027;  706.754
477.449;   96.378;   -8.716;  728.487
478.038;   90.627;   -9.577;  692.513
478.627;   93.305;   -9.718;  714.852
479.216;   99.594;   -8.947;  769.441
479.805;  102.382;   -6.256;  783.375
480.393;  101.827;   -7.937; 1008.945
480.982;  100.802;   -7.717;  874.501
481.571;  107.619;   -9.266;  858.333
482.159;  107.643;   -7.636;  705.386
482.748;  107.939;   -9.667;  821.385
483.336;  112.785;  -10.376;  858.209
483.925;  112.848;   -7.147;  774.373
484.513;  119.190;   -7.996;  758.962
485.102;  117.152;  -10.027;  810.965
485.690;  125.025;  -10.446; 1011.050
486.278;  127.283;   -8.446;  979.329
486.867;  127.335;   -6.356;  809.662
487.455;  130.287;   -9.136;  898.229
488.043;  131.560;  -10.646;  748.361
488.631;  140.664;   -7.456; 1005.079
489.220;  143.712;   -6.636;  908.626
489.808;  142.932;  -11.036;  741.415
490.396;  152.176;  -10.246;  914.645
490.984;  159.121;   -8.556;  830.161
491.572;  168.893;   -5.886;  940.315
492.160;  176.745;   -9.486;  919.081
492.748;  189.193;  -10.976;  884.341
493.336;  211.175;   -8.776; 1019.693
493.924;  237.767;   -5.465;  958.077
494.512;  267.806;   -9.986; 1066.638
495.100;  312.532;  -10.636; 1103.280
495.687;  369.741;  -10.885; 1206.373
496.275;  429.491;   -8.126; 1150.796
496.863;  496.364;  -10.586; 1281.171
497.451;  603.694;  -11.926; 1386.805
498.038;  706.188;  -10.885; 1556.729
498.626;  811.360;   -6.315; 1741.407
499.214;  969.734;   -7.326; 2016.609
499.801; 1158.212;  -11.906; 2220.633
500.389; 1370.085;  -10.466; 2312.494
500.976; 1641.526;   -5.236; 2744.849
501.564; 2067.026;   -8.936; 3148.565
502.151; 2537.288;  -13.176; 3515.999
502.738; 2986.639;  -10.646; 3971.274
503.326; 3384.263;   -9.525; 4403.796
503.913; 3765.003;  -10.856; 5161.749
504.500; 4241.447;  -11.586; 5986.420
505.088; 4636.106;  -10.336; 6381.201
505.675; 5002.970;   -6.355; 6925.547
506.262; 5448.062;   -9.046; 7619.060
506.849; 5809.967;  -10.416; 8733.969
507.436; 6207.117;  -10.305; 9790.121
508.023; 6693.983;   -5.496; 9985.472
508.610; 7466.089;   -7.856;10434.618
509.197; 9106.935;  -10.097;11198.435
509.784;10682.264;  -10.886;12391.194
510.371;11642.639;   -9.315;13603.713
510.958;12377.418;   -9.936;14426.586
511.545;12716.629;   -9.326;15243.775
512.132;13564.489;  -10.075;15945.876
512.719;14020.208;   -7.796;16340.369
513.305;15231.608;  -10.606;18011.766
513.892;16454.455;  -11.486;19754.971
514.479;18109.895;   -9.126;20967.805
515.066;19292.107;   -6.026;22299.793
515.652;19622.357;   -8.466;22908.660
516.239;20911.898;  -10.886;23798.875
516.825;22818.557;  -11.496;25567.275
517.412;23963.043;   -5.796;28154.959
517.998;25482.041;  -10.506;28344.111
518.585;25929.316;  -10.076;27134.219
519.171;25207.551;   -8.315;27268.576
519.758;24877.676;   -8.596;28964.129
520.344;25718.961;   -8.466;30664.494
520.930;28921.213;  -11.006;32550.605
521.516;29553.045;  -10.495;35422.895
522.103;28955.711;   -5.526;38280.004
522.689;29761.416;   -8.746;37835.117
523.275;31888.256;  -11.376;37288.613
523.861;33914.637;  -11.156;37281.395
524.447;36230.309;   -8.135;37846.949
525.033;36902.633;   -7.896;38321.949
525.619;36493.867;  -12.476;38579.285
526.205;36869.090;   -9.516;40622.875
526.791;36302.691;   -6.926;42258.836
527.377;38523.512;   -8.346;42966.902
527.963;40264.254;   -8.717;42018.949
528.549;38681.652;  -11.016;42476.828
529.135;38275.660;   -8.536;41854.852
529.721;37556.297;   -9.666;41237.711
530.306;36063.875;  -10.066;41259.445
530.892;36259.648;  -11.356;41506.047
531.478;37049.898;   -6.596;43559.613
532.063;37624.973;   -8.836;47695.563
532.649;40580.277;  -10.047;50808.324
533.235;42826.473;   -9.746;51787.500
533.820;42163.199;   -6.566;52145.035
534.406;41229.633;  -10.817;51133.488
534.991;43540.234;   -9.416;49996.805
535.576;44166.102;   -9.036;48882.852
536.162;45140.715;   -6.156;46942.285
536.747;45374.063;  -11.607;45711.746
537.333;44881.586;  -11.787;48510.180
537.918;43922.219;  -12.437;50439.891
538.503;43545.660;   -7.196;50863.711
539.088;42518.566;  -10.556;50906.922
539.673;43144.461;   -8.767;52621.965
540.259;44228.160;  -10.026;52368.094
540.844;45917.875;   -7.416;50879.109
541.429;44896.652;   -9.467;52077.777
542.014;45436.609;   -9.527;52716.695
542.599;47699.344;   -9.946;52363.281
543.184;49176.020;   -7.927;53187.137
543.769;48242.066;   -9.297;54697.605
544.354;44909.418;  -10.127;53913.914
544.938;41854.137;   -9.267;49680.164
545.523;43475.938;   -6.506;47386.277
546.108;48668.590;   -9.787;49151.949
546.693;49402.020;  -11.587;51384.637
547.278;49500.527;  -10.986;51853.254
547.862;45562.461;   -8.206;51173.750
548.447;42729.078;  -10.067;51691.395
549.031;45172.262;   -9.637;52456.703
549.616;47426.203;   -9.926;52714.516
550.201;44813.180;   -6.347;52414.598
550.785;42314.441;   -7.917;52355.059
551.370;40261.547;  -10.867;54589.453
551.954;41602.520;   -9.047;58267.348
552.538;45010.148;   -7.827;59062.176
553.123;44740.672;  -10.287;58115.285
553.707;41055.793;  -12.178;56556.285
554.291;42549.992;   -8.717;56201.668
554.876;44792.895;   -7.457;55335.762
555.460;46143.973;  -10.387;54155.703
556.044;46589.664;   -9.618;53721.484
556.628;46097.203;  -11.567;53731.016
557.212;45688.875;   -8.097;54312.531
557.796;45626.219;  -11.077;53797.773
558.380;44014.031;  -11.108;56145.984
558.964;41932.977;   -9.057;57277.930
559.548;41405.629;   -6.977;56459.641
560.132;41909.203;  -11.457;54434.543
560.716;40000.273;  -11.378;54800.617
561.300;40970.402;   -9.577;57606.945
561.884;43496.766;   -7.127;58972.445
562.467;43873.840;   -7.118;57327.570
563.051;43846.871;  -13.358;54962.434
563.635;42615.637;  -10.178;52594.473
564.219;42886.563;   -7.837;50610.410
564.802;42694.730;  -11.398;49551.180
565.386;43932.633;  -12.788;48370.953
565.969;43419.832;   -9.077;48178.871
566.553;42639.992;   -6.207;49957.305
567.136;40425.477;   -8.568;50369.594
567.720;39738.254;  -11.868;49492.004
568.303;40731.496;   -8.268;50616.352
568.887;39763.738;   -8.698;50727.148
569.470;38552.781;   -6.808;51698.379
570.053;37356.508;  -13.188;52122.078
570.637;35095.230;  -12.037;52536.438
571.220;34079.219;   -8.577;51186.098
571.803;35060.488;   -8.498;51032.762
572.386;36108.098;  -10.498;49609.887
572.969;35876.633;   -9.388;48285.926
573.552;32193.824;   -8.338;47624.285
574.135;32058.797;   -8.518;45498.641
574.718;32389.611;  -13.628;41970.434
575.301;31448.729;  -10.893;41447.137
575.884;30507.848;   -8.158;40923.836
576.467;34273.012;  -10.328;45267.723
577.050;33728.980;  -13.058;48175.543
577.633;32354.682;   -9.458;47729.328
578.216;32728.795;   -8.928;47579.793
578.799;33356.234;   -9.358;47820.996
579.381;33708.965;  -11.388;48115.551
579.964;32349.104;  -11.718;47333.766
580.547;32967.000;   -8.588;46668.969
581.129;34266.527;   -8.859;44466.141
581.712;33652.793;  -10.729;44164.922
582.294;34743.406;  -11.118;46477.855
582.877;32684.463;   -5.218;48244.254
583.459;32252.096;   -8.679;47437.895
584.042;33382.258;  -10.709;46943.219
584.624;36504.500;  -11.669;46792.227
585.206;36771.566;   -8.218;46557.250
585.789;34811.758;  -10.569;45793.773
586.371;33780.965;  -11.859;43836.391
586.953;32488.318;  -10.719;42972.492
587.536;33242.699;   -7.198;42487.211
588.118;34941.855;   -8.720;42086.414
588.700;34636.277;  -10.439;43389.930
589.282;33921.176;   -9.198;43646.039
589.864;33601.488;   -9.199;43438.109
590.446;31507.244;  -11.319;43151.926
591.028;30084.352;  -11.159;42781.867
591.610;29340.891;  -11.779;42839.098
592.192;26812.529;   -7.668;42820.402
592.774;27468.484;  -11.949;40724.277
593.356;28076.408;  -12.129;39874.789
593.937;26894.271;  -10.669;39980.648
594.519;26628.119;   -6.509;42069.633
595.101;28125.525;  -10.849;42976.031
595.683;29105.482;  -11.679;44084.441
596.264;29082.570;   -9.049;43478.797
596.846;30381.906;   -8.849;43803.672
597.427;31824.885;   -9.570;42986.934
598.009;31487.076;  -12.620;42832.219
598.591;31085.420;  -10.039;42580.086
599.172;31243.791;  -10.369;43061.805
599.753;31015.883;   -9.140;41691.469
600.335;30801.633;  -11.430;40692.520
600.916;31734.111;   -9.939;39982.422
601.498;31386.150;   -8.479;40318.617
602.079;30060.066;  -10.920;40670.609
602.660;31411.242;  -11.480;41450.898
603.241;32203.824;  -11.699;41137.738
603.823;32460.279;   -9.579;38868.797
604.404;32531.961;  -10.620;38182.785
604.985;31058.646;  -10.450;38078.047
605.566;30181.330;   -9.129;38056.633
606.147;30235.705;   -7.510;37020.418
606.728;31377.537;  -10.660;37883.359
607.309;31842.539;  -11.740;38748.273
607.890;30606.984;   -9.759;38850.230
608.471;29066.809;   -8.250;37457.918
609.051;30555.008;   -9.240;36066.457
609.632;29325.834;  -12.120;35991.074
610.213;27453.988;   -9.110;37402.641
610.794;28033.852;   -8.030;38383.363
611.374;30381.646;   -8.110;40562.387
611.955;31223.512;  -13.560;38533.727
612.536;29369.234;  -11.400;36951.789
613.116;28956.734;   -8.070;37197.891
613.697;30627.633;  -10.830;38411.125
614.277;31072.490;  -11.641;38673.938
614.858;29808.225;  -13.310;37075.863
615.438;28787.877;   -7.460;35092.906
616.019;28055.811;   -7.601;33666.301
616.599;28557.449;  -12.020;34189.023
617.179;29964.791;  -11.780;36952.047
617.760;32235.920;   -8.570;39582.574
618.340;32197.002;  -11.471;38943.977
618.920;29943.318;  -11.170;37594.156
619.500;31119.617;  -11.071;37866.938
620.080;31766.844;   -7.750;37869.043
620.660;31100.043;  -12.711;36868.617
621.241;30435.018;  -10.211;36352.309
621.821;29194.367;  -10.961;35459.520
622.401;27882.004;   -7.720;35207.414
622.980;28865.105;   -8.981;35980.422
623.560;29240.664;   -9.331;37351.328
624.140;27829.979;   -9.850;34388.582
624.720;25444.088;   -7.451;32368.764
625.300;24224.910;   -9.070;32638.629
625.880;27868.598;  -12.601;34599.035
626.459;30764.012;  -11.751;36831.738
627.039;31482.023;   -9.281;38299.098
627.619;32633.283;   -8.801;38289.574
628.198;32816.203;  -12.071;37220.695
628.778;30953.848;   -9.461;37632.563
629.357;31267.453;   -8.491;38003.012
629.937;31330.119;   -9.721;38402.039
630.516;31316.518;   -9.951;37868.801
631.096;30951.869;  -11.731;35760.410
631.675;32748.283;   -8.572;35225.219
632.254;32990.105;  -11.282;35130.289
632.834;32474.328;  -13.322;35794.570
633.413;32729.020;  -10.301;35788.922
633.992;32370.260;   -8.582;34532.863
634.571;32657.639;   -8.352;33590.113
635.151;31843.313;  -11.912;34943.863
635.730;30605.523;  -10.511;35352.523
636.309;32289.523;   -7.731;35366.605
636.888;32417.367;   -9.952;36165.637
637.467;31794.371;  -11.672;37515.902
638.046;31069.600;   -8.901;39288.695
638.625;31155.734;   -7.912;38279.699
639.204;31899.488;  -10.022;37741.598
639.782;30693.531;  -12.252;38364.551
640.361;28828.014;  -10.041;36740.621
640.940;27452.361;  -11.161;34950.082
641.519;28808.215;   -9.701;34137.398
642.097;31806.707;  -11.271;35654.258
642.676;32878.625;   -8.651;35637.957
643.255;34521.813;   -8.711;36567.074
643.833;32933.160;   -9.581;37809.434
644.412;29870.875;  -13.711;37337.293
644.990;29847.010;  -11.811;37018.531
645.569;31810.387;   -9.411;36518.469
646.147;31417.406;  -10.291;36186.430
646.726;30189.910;  -12.401;36267.688
647.304;29445.193;  -10.411;36647.625
647.882;29896.393;   -9.651;39286.742
648.461;31308.275;   -9.631;39157.703
649.039;33835.152;  -11.881;35412.883
649.617;35114.652;   -9.661;34744.918
650.195;33782.695;   -9.301;35403.098
650.773;31935.250;  -10.511;35053.797
651.352;30480.621;  -11.521;33756.816
651.930;27626.975;  -12.211;31868.773
652.508;24404.145;   -9.171;33121.551
653.086;25339.506;   -9.371;33564.793
653.663;30086.160;  -13.161;34054.668
654.241;32087.990;  -13.031;35693.309
654.819;34051.695;   -9.371;36422.906
655.397;34456.465;  -10.511;38213.484
655.975;32683.990;  -10.371;39507.625
656.553;31505.455;  -10.051;39498.223
657.130;31158.594;  -10.061;40395.480
657.708;29498.113;   -9.561;39242.020
658.286;26188.336;  -11.511;38920.020
658.863;26005.014;  -10.261;40202.898
659.441;30074.490;   -7.531;39677.938
660.018;32187.078;   -9.501;40413.355
660.596;30948.123;  -13.301;39931.414
661.173;29047.357;  -11.211;39604.531
661.750;30172.143;   -9.951;39700.070
662.328;30624.650;   -9.390;39292.809
662.905;29606.830;  -11.330;38235.648
663.482;26705.561;   -9.050;36212.305
664.060;24435.297;   -8.240;35944.945
664.637;26161.813;  -10.050;35170.785
665.214;29360.150;  -11.760;34197.523
665.791;30664.266;  -10.530;34549.520
666.368;29847.014;   -9.690;35118.578
666.945;30516.484;   -9.320;36019.418
667.522;30052.887;  -11.860;36048.438
668.099;31076.609;  -10.770;36243.914
668.676;32236.178;   -6.260;35958.875
669.253;34291.391;   -7.000;37384.730
669.830;35569.293;  -10.190;36779.629
670.407;32950.633;   -9.550;35231.289
670.984;32285.375;   -9.260;35544.270
671.560;29242.836;   -9.280;35466.867
672.137;23791.395;  -11.810;34280.863
672.714;24738.934;  -11.490;34632.863
673.290;30776.121;   -7.740;35135.422
673.867;31748.746;  -10.660;36114.480
674.443;31474.486;  -12.230;36152.859
675.020;30827.787;  -10.450;35327.238
675.596;31287.865;   -9.260;35795.176
676.173;31488.850;  -10.780;35430.355
676.749;29938.225;  -13.690;33549.516
677.326;28922.479;  -11.980;32210.012
677.902;28315.336;   -8.630;32068.871
678.478;29319.463;  -10.730;32583.891
679.054;30222.063;  -10.520;32088.928
679.631;30780.719;  -11.920;30978.848
680.207;30809.039;   -7.490;33160.887
680.783;32162.488;   -9.860;35570.363
681.359;32864.727;  -13.380;36125.184
681.935;32451.430;  -12.480;35240.922
682.511;30949.475;   -7.900;34429.961
683.087;30360.922;   -7.710;34463.680
683.663;30128.213;  -11.480;34648.898
684.239;29626.982;  -14.090;34546.457
684.815;29052.115;   -7.560;35586.375
685.390;29259.350;   -9.910;35821.895
685.966;30172.787;  -11.159;35085.871
686.542;30591.420;  -11.169;34198.230
687.118;31814.455;   -5.959;32847.707
687.693;31350.102;  -10.329;32794.027
688.269;31129.406;  -12.059;33072.367
688.844;32645.506;  -10.909;33141.664
689.420;32188.375;   -8.019;33965.742
689.995;30563.096;   -8.399;34655.523
690.571;31390.924;  -10.949;33576.742
691.146;31335.783;   -9.619;32657.219
691.722;29985.717;   -8.999;32526.979
692.297;28646.816;  -11.589;33014.617
692.872;28812.359;  -11.739;34012.254
693.448;31739.760;  -11.059;34237.434
694.023;32032.836;  -10.139;34142.672
694.598;28369.146;   -9.029;34132.031
695.173;29200.482;  -13.319;34205.250
695.748;30978.043;  -10.169;32882.488
696.323;29213.383;   -8.339;32864.906
696.898;27796.375;   -8.169;33170.004
697.473;27656.387;  -12.309;32432.984
698.048;27413.436;  -10.989;31649.303
698.623;27276.416;   -9.329;30778.141
699.198;28349.625;   -9.849;31140.119
699.773;29152.920;  -12.329;31764.299
700.348;30698.178;  -10.389;31780.816
700.922;30340.037;   -9.269;32046.375
701.497;30567.035;   -9.329;32603.574
702.072;31887.223;  -10.789;34799.871
702.646;30813.742;  -10.839;35793.172
703.221;31204.061;   -9.099;35201.590
703.795;32920.418;  -10.939;34764.527
704.370;30622.199;  -12.859;34307.367
704.944;28774.061;  -11.559;33509.887
705.519;29122.363;   -7.939;31388.584
706.093;30933.584;  -10.499;31340.104
706.668;32732.828;  -11.289;32630.281
707.242;32656.051;  -11.509;32728.779
707.816;29891.549;   -9.639;32947.238
708.390;29009.732;  -11.429;33277.855
708.965;29634.555;  -11.869;33834.336
709.539;31661.006;  -11.689;33709.273
710.113;31523.885;  -10.478;33044.313
710.687;30180.840;  -10.228;31953.992
711.261;28989.672;  -13.698;30505.949
711.835;29207.885;  -13.378;30262.369
712.409;28944.553;   -9.698;31254.447
712.983;27388.479;  -11.898;32754.986
713.557;29046.043;  -15.138;34018.824
714.131;28095.998;  -14.098;34579.625
714.704;28148.914;   -9.958;33890.262
715.278;29449.131;  -10.028;33531.102
715.852;28060.607;  -11.148;33601.660
716.425;27230.039;   -9.068;33515.117
716.999;26568.961;  -10.038;33185.555
717.573;26062.234;   -9.798;33905.996
718.146;25469.912;  -12.378;35199.293
718.720;25447.180;  -11.918;35060.551
719.293;26237.053;   -8.088;34973.230
719.867;28827.801;  -10.888;36394.449
720.440;31518.031;  -11.938;36663.008
721.013;31846.477;  -12.818;35102.426
721.587;29086.625;  -10.298;33985.266
722.160;27754.830;  -10.048;33524.965
722.733;26864.484;  -12.108;32987.043
723.306;26522.080;  -10.818;33066.301
723.880;27755.830;   -8.908;33399.500
724.453;26479.953;   -9.878;33468.297
725.026;26821.121;  -11.188;33816.637
725.599;30634.207;  -11.678;32797.996
726.172;30686.982;   -9.618;33187.434
726.745;27278.133;   -8.258;35136.613
727.318;26301.734;  -12.978;35751.730
727.891;26162.438;  -12.148;35890.430
728.463;26065.254;   -8.968;34822.090
729.036;25522.201;  -10.188;32895.086
729.609;25683.959;  -11.788;31823.225
730.182;24421.865;  -11.788;31445.283
730.754;22592.336;  -10.268;32373.223
731.327;22158.447;   -9.998;33676.820
731.900;23564.188;  -12.228;33417.000
732.472;24876.602;  -13.848;31978.498
733.045;24867.094;   -8.698;30368.777
733.617;23296.723;  -10.607;30574.215
734.190;24437.811;  -11.507;31280.975
734.762;25679.975;  -13.647;31674.412
735.334;25408.652;   -9.767;31247.291
735.907;25316.641;   -9.897;29876.211
736.479;25182.113;  -11.637;29808.488
737.051;27186.836;   -9.567;30233.547
737.623;27853.904;   -8.187;31469.086
738.195;26906.563;  -11.187;31784.225
738.768;25555.281;  -12.337;32120.523
739.340;23246.199;  -12.227;32094.342
739.912;22285.846;  -11.057;31312.680
740.484;21679.342;  -10.207;31946.238
741.056;20892.170;  -10.047;32984.059
741.628;21840.625;  -13.627;33897.715
742.199;23853.191;   -7.177;33213.016
742.771;26867.002;  -10.797;31369.113
743.343;28437.686;  -11.997;31865.473
743.915;27867.314;  -12.867;32388.631
744.487;24915.830;   -7.617;31079.568
745.058;21737.627;   -9.557;30570.107
745.630;21843.740;   -9.877;29970.127
746.201;23258.633;  -14.177;29186.766
746.773;23823.877;   -9.237;28805.723
747.344;23280.557;   -9.847;29591.223
747.916;22122.199;  -11.657;31412.201
748.487;22541.592;  -10.587;32194.898
749.059;23635.367;   -8.707;32533.719
749.630;23999.092;  -10.537;32158.518
750.201;23382.000;  -11.687;30855.395
750.773;21920.076;  -11.647;28622.555
751.344;20915.932;   -7.147;28405.732
751.915;21883.432;   -9.757;28461.551
752.486;23201.766;  -12.427;27842.850
753.057;22798.045;  -12.227;27845.008
753.628;22921.025;  -10.417;27728.107
754.199;21880.631;  -11.767;27381.086
754.770;21795.070;  -11.187;25882.203
755.341;21991.455;  -10.507;25886.184
755.912;20602.311;   -9.387;26050.861
756.483;18734.035;  -10.647;26798.779
757.054;19087.709;  -11.837;27048.238
757.625;19221.424;  -12.716;26294.838
758.195;19420.104;   -9.666;26142.076
758.766;20177.146;   -8.656;26392.234
759.337;19674.506;  -12.856;26334.594
759.907;19712.701;  -13.366;27579.652
760.478;19540.986;   -8.576;28352.770
761.048;19786.033;  -10.526;27325.088
761.619;19884.990;  -11.116;26460.428
762.189;18539.572;  -12.136;26029.826
762.760;18095.279;   -9.456;26430.145
763.330;18675.348;   -7.136;26670.902
763.900;19084.434;  -11.786;26603.021
764.471;18306.488;  -11.546;25542.740
765.041;17138.314;   -8.096;24358.459
765.611;16534.152;   -8.876;23991.297
766.181;16447.879;  -12.196;24470.236
766.751;16283.059;  -11.636;24845.975
767.321;16714.623;  -10.156;24533.633
767.891;16664.219;  -11.766;24916.492
768.461;16998.586;  -14.936;24776.771
769.031;18079.250;  -12.356;24757.988
769.601;18630.641;   -7.526;24181.088
770.171;18315.486;  -10.766;23670.387
770.741;17260.781;  -13.176;22960.045
771.311;16852.135;  -10.616;22917.523
771.880;16970.588;   -9.576;23562.941
772.450;16588.695;  -10.336;24216.500
773.020;16501.918;  -13.516;24140.398
773.589;17190.484;  -13.466;24414.857
774.159;16853.990;   -8.686;23858.717
774.729;16094.157;   -9.476;22942.135
775.298;14671.941;  -13.666;22324.033
775.867;14233.176;  -11.716;21140.313
776.437;14569.066;   -9.906;20838.092
777.006;13747.521;  -12.166;20599.510
777.576;12960.829;  -12.356;20508.809
778.145;13059.526;  -11.646;20732.947
778.714;13288.563;   -8.226;21062.465
779.283;13888.604;   -9.556;20949.664
779.853;14490.630;  -14.116;20508.623
780.422;14108.536;  -11.506;20649.082
780.991;13756.615;   -9.556;21527.520
781.560;13466.838;   -9.095;22632.658
782.129;12900.303;  -12.135;23048.277
782.698;12850.585;  -10.865;23438.555
783.267;12808.553;   -9.335;23267.734
783.836;12928.699;  -11.045;22415.133
784.404;13679.329;  -13.865;20443.152
784.973;13247.197;  -13.095;19699.150
785.542;12038.526;  -11.575;19763.828
786.111;11355.044;   -9.705;20341.408
786.679;11801.221;  -12.105;20207.967
787.248;12087.067;  -12.455;19516.465
787.817;11455.177;  -11.535;18900.363
788.385;11577.030;   -9.765;17879.121
788.954;12082.772;  -14.005;17658.301
789.522;11747.313;  -11.955;17788.879
790.090;11683.678;  -10.135;18118.277
790.659;12725.039;  -10.975;18338.736
791.227;12926.926;  -13.375;18508.615
791.795;12264.944;  -12.375;17898.254
792.364;11691.799;  -10.725;17295.133
792.932;11652.054;   -9.715;16822.051
793.500;11669.479;  -12.675;17040.148
794.068;11263.686;  -13.495;17179.787
794.636;10124.686;  -10.885;16664.246
795.204; 9147.893;  -11.045;16524.545
795.772; 9661.335;  -13.175;17274.564
796.340;11024.752;  -12.445;17891.002
796.908;10918.498;   -9.735;17648.561
797.476;10861.215;   -9.815;17064.080
798.044;11280.370;  -13.985;16672.777
798.612;11074.470;  -13.115;17023.996
799.180;10093.336;  -10.185;16561.615
799.747; 8936.792;   -9.055;15962.773
800.315; 8071.590;  -12.385;15296.992
800.883; 8330.904;  -15.035;14801.771
801.450; 9043.511;  -10.365;14534.430
802.018; 9438.426;   -9.855;14173.248
802.585; 9810.949;  -11.905;14029.547
803.153; 9435.710;  -11.585;13836.846
803.720; 8612.476;   -9.095;13567.324
804.287; 8721.060;   -9.135;13360.622
804.855; 9393.940;  -11.604;13681.981
805.422; 9535.192;  -11.794;13536.560
805.989; 9077.485;  -10.734;13355.958
806.556; 8570.395;  -10.444;13747.896
807.124; 8426.114;  -12.764;13987.376
807.691; 8983.920;  -12.964;14038.674
808.258; 9309.285;  -11.134;14120.152
808.825; 9255.175;   -9.854;13860.111
809.392; 8798.054;  -10.504;13268.790
809.959; 8271.419;  -13.054;12680.389
810.526; 7976.571;   -8.294;12427.308
811.093; 7783.631;   -8.394;12030.105
811.659; 7271.382;  -12.304;11653.664
812.226; 7030.236;  -13.944;11637.183
812.793; 7531.377;  -10.484;11611.521
813.360; 7807.060;  -10.144;11885.181
813.926; 7331.029;  -11.684;12770.539
814.493; 6629.408;  -13.644;12677.638
815.060; 6373.633;   -9.724;11974.336
815.626; 6588.775;   -9.854;11594.715
816.193; 6653.088;  -13.254;11579.474
816.759; 6534.809;  -13.204;11666.972
817.325; 6460.325;   -9.434;11325.530
817.892; 6303.009;  -10.134;11105.369
818.458; 6248.273;  -13.474;10843.928
819.024; 6022.220;  -11.854;10714.406
819.591; 6089.957;  -10.244;10469.165
820.157; 6253.098;  -10.704;10235.523
820.723; 6597.238;  -12.324;10847.563
821.289; 7051.982;   -9.444;11040.980
821.855; 7091.109;   -8.374;10357.100
822.421; 6766.349;  -10.234; 9978.918
822.987; 6595.715;  -13.294; 9754.177
823.553; 6657.524;  -10.884;10065.755
824.119; 6360.365;   -8.884;10036.294
824.685; 6133.163;   -6.784;10029.192
825.251; 6017.535;  -12.004;10199.230
825.816; 6249.558;  -11.474; 9820.189
826.382; 6231.124;   -9.174; 9297.248
826.948; 5844.795;   -9.214; 9381.347
827.513; 5407.452;  -10.774; 9450.726
828.079; 5258.989;  -11.924; 9472.444
828.645; 5233.773;  -10.543; 9292.643
829.210; 5234.331;  -10.533; 9065.341
829.776; 5244.197;  -10.753; 9132.620
830.341; 5303.758;  -10.173; 9092.878
830.906; 5490.480;  -10.743; 9078.557
831.472; 5580.179;  -11.113; 8534.535
832.037; 5154.846;  -10.603; 8677.874
832.602; 4916.206;  -13.323; 8628.692
833.167; 5151.556;  -10.823; 8879.031
833.733; 5108.669;  -10.113; 9189.790
834.298; 4989.647;  -13.583; 9052.608
834.863; 4932.947;  -12.703; 8895.087
835.428; 4770.846;  -10.523; 8824.266
835.993; 4611.180;   -6.963; 8845.385
836.558; 4595.881;  -10.763; 8888.563
837.123; 4720.396;   -9.903; 8966.582
837.688; 4612.643;   -9.913; 8617.860
838.253; 4566.650;  -10.283; 8590.699
838.817; 4789.620;  -12.963; 8443.797
839.382; 4977.431;  -14.243; 8799.356
839.947; 4747.431;  -10.733; 8810.595
840.511; 4603.275;   -9.383; 8796.394
841.076; 4672.826;  -12.563; 8347.231
841.641; 4539.639;  -12.953; 8224.330
842.205; 4201.479;   -7.043; 8223.349
842.770; 4111.810;   -8.163; 8622.107
843.334; 4225.853;  -12.503; 8410.386
843.898; 4330.036;  -11.693; 8337.465
844.463; 4276.690;  -10.203; 8506.283
845.027; 4129.752;   -9.533; 8280.962
845.591; 4144.158;  -13.443; 8231.141
846.156; 4102.392;  -13.143; 7969.179
846.720; 3880.496;   -9.433; 7768.278
847.284; 3448.500;  -11.033; 7630.957
847.848; 3237.510;  -10.403; 7472.395
848.412; 3378.238;  -11.553; 7437.394
848.976; 3682.919;   -8.393; 7674.592
849.540; 3819.955;   -8.713; 7836.011
850.104; 3786.342;  -12.463; 7913.669
850.668; 3811.189;  -12.973; 7694.508
851.232; 3765.446;  -10.793; 7756.887
851.796; 3685.413;  -10.662; 7926.545
852.359; 3744.849;  -13.082; 7827.844
852.923; 3556.547;  -12.192; 7641.163
853.487; 3396.793;  -11.912; 7342.501
854.050; 3507.482;  -10.892; 7042.820
854.614; 3458.120;  -13.992; 7151.338
855.177; 3267.386;  -11.732; 7105.077
855.741; 3174.073;   -8.962; 6989.675
856.304; 3157.072;   -9.442; 6596.634
856.868; 3028.502;  -14.192; 6356.272
857.431; 2905.564;  -12.702; 6468.571
857.995; 3011.901;   -9.942; 6373.210
858.558; 3059.311;   -9.112; 6324.448
859.121; 2775.659;  -12.932; 6408.327
859.684; 2522.762;  -13.442; 6347.886
860.247; 2765.888;  -10.632; 6321.264
860.810; 3190.156;  -11.272; 6301.903
861.374; 3308.003;   -9.832; 6607.881
861.937; 3301.543;  -11.762; 6408.200
862.500; 3241.958;   -9.722; 6572.639
863.062; 2938.532;  -10.512; 6387.297
863.625; 2688.999;  -11.232; 6190.836
864.188; 2592.270;  -14.112; 5807.254
864.751; 2517.373;  -11.302; 5682.413
865.314; 2647.864;  -10.112; 5547.492
865.876; 2852.141;  -12.182; 5500.150
866.439; 2917.534;  -10.722; 5415.909
867.002; 2807.988;   -9.252; 5501.567
867.564; 2666.904;   -9.572; 5413.946
868.127; 2525.460;  -13.142; 5160.325
868.689; 2256.133;  -12.902; 5133.183
869.252; 2031.120;   -9.732; 5252.382
869.814; 2001.805;   -9.432; 5297.141
870.377; 2164.667;  -11.552; 5390.919
870.939; 2216.729;   -9.052; 5599.898
871.501; 2136.489;  -10.982; 5248.336
872.063; 2166.983;  -12.292; 4854.235
872.626; 2135.117;  -14.912; 4817.074
873.188; 2103.335;  -13.112; 4987.732
873.750; 2060.184;  -13.442; 4868.651
874.312; 2065.226;   -9.402; 4779.330
874.874; 2169.178;  -11.062; 4866.348
875.436; 2115.638;  -13.931; 4718.887
875.998; 1856.873;   -9.561; 4660.005
876.560; 1665.297;  -11.321; 4462.964
877.122; 1645.992;  -12.221; 4145.042
877.683; 1615.482;  -12.191; 4056.481
878.245; 1680.477;  -12.101; 3950.740
878.807; 1827.383;   -8.971; 4058.958
879.369; 1859.044;  -12.071; 3954.677
879.930; 1783.873;  -14.621; 3941.495
880.492; 1650.998;  -10.311; 4067.014
881.053; 1503.699;  -10.901; 3859.633
881.615; 1452.988;  -14.411; 3776.071
882.176; 1459.403;  -13.761; 3734.750
882.738; 1485.670;   -9.181; 3678.489
883.299; 1455.838;  -11.791; 3405.407
883.860; 1365.141;  -13.121; 3351.106
884.422; 1256.665;  -11.211; 3394.044
884.983; 1195.857;  -10.091; 3166.443
885.544; 1183.165;   -8.461; 3189.802
886.105; 1140.500;  -12.361; 3160.360
886.666; 1079.072;  -14.141; 3093.059
887.227; 1053.053;  -11.361; 2941.957
887.788; 1063.570;  -11.401; 2974.836
888.349; 1023.957;  -13.791; 2721.214
888.910;  933.706;  -13.191; 2696.493
889.471;  834.290;   -9.881; 2560.172
890.032;  753.911;   -9.881; 2558.190
890.593;  736.404;  -10.371; 2567.669
891.153;  738.785;  -13.301; 2460.307
891.714;  683.692;  -11.431; 2372.046
892.275;  628.479;  -11.291; 2309.505
892.835;  627.118;  -11.471; 2382.543
893.396;  619.388;  -11.541; 2295.502
893.956;  592.950;  -11.181; 2162.420
894.517;  555.096;  -11.741; 2125.439
895.077;  499.798;  -11.671; 2086.978
895.638;  453.685;  -11.311; 2126.316
896.198;  440.349;   -9.831; 1838.275
896.758;  436.308;   -8.421; 1892.813
897.319;  424.407;  -12.351; 1792.232
897.879;  403.010;  -13.511; 1762.751
898.439;  379.401;  -12.001; 1661.149
898.999;  359.119;  -10.180; 1781.468
899.559;  344.054;  -12.030; 1703.347
900.119;  338.706;  -15.710; 1537.525
900.679;  327.523;   -8.900; 1638.384
901.239;  301.811;   -8.340; 1527.902
901.799;  281.513;  -13.910; 1456.441
902.359;  269.999;  -13.460; 1357.140
902.919;  263.855;  -11.490; 1331.118
903.479;  261.798;  -12.110; 1317.257
904.038;  255.500;  -11.720; 1262.595
904.598;  239.552;  -13.610; 1152.034
905.158;  225.342;  -11.040; 1240.893
905.717;  218.197;  -10.900; 1233.691
906.277;  214.091;  -15.080; 1217.330
906.836;  209.914;  -13.380; 1222.408
907.396;  206.904;  -10.780; 1193.047
907.955;  201.291;   -8.500; 1182.526
908.515;  193.415;  -12.760; 1099.364
909.074;  189.712;  -11.900; 1092.863
909.633;  187.302;   -8.950; 1069.121
910.192;  183.419;   -8.770; 1196.460
910.752;  178.315;  -12.390; 1029.960
911.311;  174.365;  -13.680; 1009.780
911.870;  169.743;  -12.370;  971.460
912.429;  166.838;  -10.900; 1094.080
912.988;  165.032;  -11.690; 1081.060
913.547;  161.051;  -13.240;  940.380
914.106;  159.339;  -11.990;  999.420
914.665;  158.960;   -9.990;  984.020
915.224;  157.060;  -12.880; 1035.760
915.782;  156.222;  -12.350;  922.560
916.341;  156.590;   -9.110; 1049.840
916.900;  154.484;   -9.270;  925.260
917.458;  152.000;  -13.240;  884.220
918.017;  149.553;  -13.550;  942.600
918.576;  148.549;  -12.320;  904.440
919.134;  148.550;  -11.490;  837.980
919.693;  147.647;  -13.670;  893.060
920.251;  145.859;  -15.470;  876.500
920.809;  145.082;  -11.290;  839.580
921.368;  144.721;  -10.210;  885.360
921.926;  144.657;  -12.140;  842.940
922.484;  143.198;  -13.080;  903.360
923.042;  142.579;  -11.720;  880.340
923.601;  144.535;   -7.480;  998.680
924.159;  143.844;  -11.570;  935.560
924.717;  142.345;  -13.840;  841.080
925.275;  143.211;  -10.640;  903.240
925.833;  142.670;  -11.540;  779.320
926.391;  143.007;  -12.960;  938.380
926.949;  142.382;  -14.130;  857.680
927.506;  143.263;  -11.750;  903.500
928.064;  141.563;  -10.250;  877.580
928.622;  141.544;  -13.030;  880.100
929.180;  142.306;  -13.400;  814.180
929.737;  143.690;  -10.700;  808.540
930.295;  144.973;  -10.070;  928.480
930.853;  145.305;  -11.960;  849.100
931.410;  144.832;  -13.120;  821.120
931.968;  144.916;  -10.770;  940.660
932.525;  145.262;  -10.680;  909.380
933.082;  148.142;  -13.130;  811.440
933.640;  155.964;  -13.210;  925.900
934.197;  158.054;  -11.060;  886.360
934.754;  159.284;   -9.580;  897.780
935.312;  160.716;  -14.000;  863.340
935.869;  162.900;  -10.710; 1012.980
936.426;  162.184;   -9.860;  872.800
936.983;  160.744;   -9.710;  889.020
937.540;  159.802;  -13.990;  838.280
938.097;  159.288;  -14.040;  940.120
938.654;  159.706;  -10.310;  898.860
939.211;  160.187;  -10.560;  952.480
939.768;  157.625;  -13.900;  915.420
940.324;  159.258;  -14.760;  904.200
940.881;  163.374;  -10.370;  878.500
941.438;  168.221;   -8.260; 1021.200
941.995;  170.223;  -12.540;  992.560
942.551;  169.207;  -14.670;  875.620
943.108;  169.407;  -10.450;  937.920
943.664;  170.662;  -10.750;  869.340
944.221;  175.373;  -11.550; 1088.140
944.777;  177.783;  -14.770;  869.680
945.334;  179.622;  -12.820;  884.840
945.890;  178.874;  -10.130;  946.480
946.446;  177.806;  -13.470;  947.020
947.003;  179.148;  -12.120;  964.940
947.559;  180.474;   -9.980; 1063.040
948.115;  179.576;   -9.080; 1026.540
948.671;  177.486;  -10.830;  967.300
949.227;  172.096;  -12.440;  859.560
949.783;  169.898;  -12.910;  858.900
950.339;  171.144;  -10.270;  991.000
950.895;  173.002;  -13.630; 1023.840
951.451;  171.099;  -15.100;  925.280
952.007;  169.789;  -11.330;  998.540
952.563;  168.912;  -10.580;  937.780
953.118;  166.263;  -13.440;  904.940
953.674;  163.360;  -12.710;  935.780
954.230;  163.327;  -10.350;  949.640
954.785;  165.653;   -9.190;  936.640
955.341;  165.628;  -11.200;  998.160
955.897;  161.757;  -16.560;  834.660
956.452;  159.208;  -12.570;  953.840
957.008;  156.746;   -7.970; 1083.640
957.563;  156.426;  -11.940; 1009.540
958.118;  156.107;  -13.450;  877.700
958.674;  157.759;  -12.030;  946.780
959.229;  158.810;   -9.410; 1013.980
959.784;  159.274;  -12.000;  832.400
960.339;  157.940;  -14.780; 1001.280
960.894;  150.714;   -9.860;  963.760
961.449;  143.784;   -9.970;  859.960
962.004;  139.054;  -10.900; 1212.840
962.559;  125.358;  -13.150;  860.140
963.114;  112.714;  -13.740;  742.480
963.669;  106.197;   -9.820;  915.500
964.224;  101.453;  -13.890;  874.340
964.779;   99.294;  -12.600;  828.420
965.334;  100.884;  -10.950; 1017.860
965.888;  102.087;  -11.170;  875.360
966.443;  106.609;  -12.540;  972.380
966.998;  108.946;  -15.780;  819.460
967.552;  111.270;   -9.760;  908.380
968.107;  108.182;   -9.060;  868.300
968.661;  108.107;  -11.950;  922.440
969.216;  107.568;  -12.800;  856.280
969.770;  107.983;  -11.210;  917.200
970.324;  107.427;  -11.610;  923.140
970.879;  105.721;  -11.370;  947.180
971.433;  106.296;  -12.540;  952.720
971.987;  104.739;  -11.320;  895.340
972.541;  104.851;  -10.720;  917.100
973.095;  106.582;   -9.680; 1009.460
973.649;  105.520;  -11.440;  809.480
974.203;  104.800;  -11.210;  829.040
974.757;  104.864;  -10.240;  855.220
975.311;  104.410;  -13.720;  872.600
975.865;  105.671;  -13.770;  881.820
976.419;  105.943;  -11.690;  857.400
976.973;  106.176;   -9.510;  849.620
977.526;  106.277;  -12.620;  949.920
978.080;  102.442;  -12.010;  796.780
978.634;  101.077;  -10.170;  921.320
979.187;   97.134;   -9.020;  905.400
979.741;   97.281;   -9.820; 1018.380
980.294;   94.515;  -14.870;  789.160
980.848;   90.683;  -12.380;  717.220
981.401;   90.472;  -10.350;  816.540
981.955;   90.451;  -13.720;  844.300
982.508;   88.462;  -11.490;  746.340
983.061;   88.597;  -10.000;  915.260
983.615;   86.337;  -11.480;  798.800
984.168;   86.050;  -13.220;  770.080
984.721;   85.620;  -13.960;  880.760
985.274;   83.104;  -10.870;  867.500
985.827;   82.215;   -9.790;  834.220
986.380;   80.781;  -13.120;  721.340
986.933;   81.068;  -12.450;  864.800
987.486;   81.082;  -10.210;  861.920
988.039;   79.645;   -8.430;  863.100
988.591;   78.363;  -10.520;  893.260
989.144;   75.230;  -14.860;  737.260
989.697;   73.804;  -13.080;  758.740
990.250;   72.409;  -10.150;  858.100
990.802;   70.099;  -13.430;  755.860
991.355;   69.265;  -12.750;  974.880
991.907;   66.532;  -12.040;  864.320
992.460;   63.798;  -11.330;  753.760
993.012;   62.679;  -13.610;  749.540
993.565;   61.707;  -13.460;  711.360
994.117;   63.058;   -9.360;  950.780
994.669;   60.413;  -11.300;  701.320
995.221;   60.581;  -13.540;  791.920
995.774;   59.928;  -13.430;  787.580
996.326;   59.328;  -12.520;  740.220
996.878;   58.651;  -10.950;  838.420
997.430;   57.213;  -14.300;  699.860
997.982;   56.063;  -13.760;  750.140
998.534;   55.977;  -11.530;  739.060
999.086;   53.450;  -10.310;  738.220
999.638;   52.323;  -12.530;  661.380
1000.190;   52.236;  -11.840;  699.320
1000.741;   50.779;  -10.260;  742.700
1001.293;   51.258;   -8.860;  686.020
1001.845;   50.403;  -13.700;  676.640
1002.396;   50.658;  -12.100;  743.400
1002.948;   50.285;  -12.760;  737.400
1003.500;   47.905;  -10.380;  723.780
1004.051;   49.222;  -11.900;  907.580
1004.603;   47.911;  -12.250;  791.820
1005.154;   44.486;  -13.210;  608.980
1005.705;   43.280;  -10.950;  723.960
1006.257;   43.360;  -13.880;  707.220
1006.808;   42.986;  -12.840;  685.460
1007.359;   42.192;  -10.570;  763.240
1007.910;   40.208;   -9.620;  646.640
1008.461;   40.493;  -13.630;  732.940
1009.013;   39.580;  -17.200;  588.340
1009.564;   39.933;  -10.200;  793.520
1010.115;   38.435;  -12.570;  597.040
1010.665;   38.182;  -15.150;  602.160
1011.216;   38.381;  -14.480;  667.920
1011.767;   38.194;  -11.340;  697.920
1012.318;   37.913;   -9.780;  736.980
1012.869;   36.393;  -12.380;  679.000
1013.419;   36.951;  -15.560;  603.120
1013.970;   36.281;  -11.010;  666.640
1014.521;   36.081;  -11.610;  620.620
1015.071;   36.347;  -13.450;  670.380
1015.622;   35.756;  -13.870;  635.460
1016.172;   34.882;  -11.610;  596.820
1016.723;   34.276;  -12.120;  614.380
1017.273;   34.245;  -13.620;  604.160
1017.823;   35.064;  -14.140;  650.340
1018.374;   34.161;  -12.800;  611.760
1018.924;   33.246;  -12.340;  716.880
1019.474;   33.992;  -11.410;  718.880
1020.024;   33.366;  -14.770;  657.580
1020.574;   33.399;   -9.780;  726.160
1021.124;   34.092;   -8.560;  673.580
1021.674;   32.037;  -15.190;  559.120
1022.224;   33.536;  -13.530;  708.940
1022.774;   33.492;  -13.280;  668.820
1023.324;   33.598;  -10.690;  753.520
1023.874;   34.161;  -10.240;  875.760
1024.423;   31.551;  -12.540;  613.700
1024.973;   31.154;  -10.010;  610.760
1025.523;   30.257;  -10.550;  620.960
1026.072;   30.170;  -13.560;  606.420
1026.622;   30.362;  -15.120;  675.740
1027.172;   31.018;  -11.260;  715.660
1027.721;   29.621;  -11.410;  601.220
1028.270;   30.309;  -13.530;  663.400
1028.820;   30.657;  -13.680;  638.080
1029.369;   30.167;  -13.520;  612.700
1029.918;   30.158;  -10.980;  649.840
1030.468;   29.995;  -13.530;  564.780
1031.017;   30.177;  -13.170;  634.800
1031.566;   27.992;  -12.200;  608.900
1032.115;   29.167;   -9.960;  694.500
1032.664;   28.077;  -13.210;  596.480
1033.213;   29.302;  -12.500;  735.420
1033.762;   27.633;  -11.910;  635.620
1034.311;   27.205;   -9.640;  677.220
1034.860;   28.684;  -13.310;  691.000
1035.408;   29.205;  -11.830;  722.720
1035.957;   28.103;  -12.000;  719.540
1036.506;   25.683;  -11.690;  530.800
1037.055;   29.110;  -10.990;  844.320
1037.603;   27.516;  -15.120;  664.000
1038.152;   26.141;  -12.450;  534.760
1038.700;   26.252;  -10.560;  585.740
1039.249;   26.285;  -11.080;  681.220
1039.797;   26.919;  -12.540;  633.360
1040.345;   26.183;  -11.920;  705.420
1040.894;   25.111;  -11.410;  625.300
1041.442;   25.660;  -14.320;  632.200
1041.990;   24.909;  -16.240;  559.160
1042.538;   24.572;  -11.680;  536.180
1043.087;   24.492;  -10.760;  570.860
1043.635;   25.496;  -11.850;  670.500
1044.183;   24.684;  -15.480;  586.400
1044.731;   23.768;  -11.770;  576.000
1045.279;   23.680;  -13.090;  674.920
1045.827;   26.146;  -12.440;  892.400
1046.374;   23.606;  -13.840;  515.420
1046.922;   22.920;  -13.220;  590.580
1047.470;   24.682;  -10.230;  691.300
1048.018;   24.570;  -14.590;  647.960
1048.565;   24.865;  -12.050;  708.600
1049.113;   22.893;  -11.650;  557.000
1049.660;   22.917;  -10.510;  629.660
1050.208;   22.962;  -13.310;  675.640
1050.755;   23.404;  -15.900;  606.580
1051.303;   23.191;  -11.430;  686.820
1051.850;   22.872;   -8.480;  635.120
1052.397;   20.513;  -15.010;  473.960
1052.945;   21.678;  -13.960;  617.760
1053.492;   23.253;  -13.150;  741.840
1054.039;   22.450;   -9.630;  720.180
1054.586;   20.815;  -13.680;  557.240
1055.133;   22.930;  -14.570;  693.140
1055.680;   21.929;  -13.820;  646.620
1056.227;   21.066;  -11.730;  542.780
1056.774;   22.970;  -12.480;  794.980
1057.321;   20.880;  -13.930;  523.260
1057.868;   21.024;  -11.690;  651.320
1058.415;   20.804;   -9.520;  651.980
1058.961;   20.696;  -13.160;  678.940
1059.508;   20.404;  -12.920;  643.820
1060.055;   19.868;  -11.920;  581.780
1060.601;   20.195;  -11.500;  624.300
1061.148;   20.229;  -14.330;  616.820
1061.694;   20.263;  -16.870;  592.580
1062.241;   20.297;  -10.330;  596.320
1062.787;   20.561;  -10.620;  663.140
1063.334;   21.144;  -10.110;  808.560
1063.880;   20.170;  -13.400;  668.360
1064.426;   19.735;  -10.680;  706.820
1064.972;   18.699;   -9.920;  601.340
1065.518;   17.859;  -10.980;  566.640
1066.065;   20.055;  -14.890;  624.460
1066.611;   18.305;  -12.870;  598.800
1067.157;   18.865;  -12.950;  641.860
1067.703;   18.609;  -13.540;  668.480
1068.249;   19.381;  -13.540;  605.220
1068.794;   18.988;  -12.600;  626.880
1069.340;   17.249;  -10.620;  578.960
1069.886;   18.798;  -12.830;  590.700
1070.432;   16.766;  -14.870;  541.720
1070.977;   16.842;  -11.980;  601.080
1071.523;   17.134;   -8.200;  573.060
1072.068;   17.366;  -12.330;  582.000
1072.614;   17.487;  -16.370;  527.760
1073.160;   18.349;  -11.100;  687.040
1073.705;   16.199;  -10.480;  572.520
1074.250;   16.508;  -14.520;  559.900
1074.796;   17.110;  -11.460;  655.160
1075.341;   17.039;  -11.950;  664.100
1075.886;   15.919;  -11.460;  594.240
1076.431;   16.508;  -13.770;  649.880
1076.976;   16.321;  -12.680;  639.220
1077.521;   15.793;  -13.170;  583.080
1078.067;   15.272;  -10.860;  579.400
1078.612;   15.798;  -13.920;  661.620
1079.156;   15.882;  -13.880;  601.540
1079.701;   15.674;  -13.120;  693.260
1080.246;   16.364;   -9.940;  696.300
1080.791;   15.753;  -14.740;  625.020
1081.336;   17.132;  -13.750;  659.320
1081.880;   15.443;  -13.400;  649.680
1082.425;   14.758;  -12.220;  573.480
1082.970;   16.435;  -11.610;  717.040
1083.514;   14.348;  -13.580;  597.000
1084.059;   13.884;  -12.810;  586.720
1084.603;   13.689;  -12.320;  565.840
1085.147;   14.783;  -13.190;  645.220
1085.692;   15.739;  -12.480;  716.800
1086.236;   13.233;  -13.020;  503.140
1086.780;   15.241;   -9.190;  751.440
1087.325;   13.968;  -12.480;  654.620
1087.869;   14.773;  -12.450;  610.700
1088.413;   14.230;  -12.240;  705.040
1088.957;   12.758;   -9.020;  543.400
1089.501;   14.990;  -10.320;  766.640
1090.045;   14.450;  -12.720;  726.480
1090.589;   11.907;  -13.690;  569.920
1091.133;   13.497;  -10.020;  673.340
1091.676;   13.010;  -12.330;  591.940
1092.220;   12.500;  -14.970;  600.920
1092.764;   13.345;  -12.430;  706.960
1093.307;   13.664;   -9.800;  673.780
1093.851;   12.137;  -14.970;  556.540
1094.395;   13.721;  -15.310;  683.140
1094.938;   12.415;  -10.370;  632.520
1095.482;   12.101;  -11.050;  559.800
1096.025;   13.038;  -11.840;  710.880
1096.568;   13.174;  -12.840;  779.280
1097.112;    9.941;  -14.700;  508.180
1097.655;   11.953;   -8.720;  603.000
1098.198;   10.640;  -13.610;  600.180
1098.741;   11.258;  -13.350;  612.860
1099.285;   11.899;  -11.230;  657.300
1099.828;   10.232;  -11.840;  439.400
1100.371;   11.739;  -10.840;  608.160
1100.914;   11.734;  -14.190;  682.660
1101.457;   11.447;  -11.240;  679.900
1101.999;   10.236;  -11.270;  584.680
1102.542;   10.891;  -11.480;  641.440
1103.085;   11.323;  -11.750;  658.500
1103.628;   11.020;  -11.400;  762.060
1104.170;   10.729;  -10.490;  588.280
1104.713;   11.088;  -10.600;  646.700
1105.256;   10.568;  -14.360;  557.440
1105.798;    9.225;  -13.210;  499.980
1106.341;   11.488;  -10.270;  728.900
1106.883;    9.707;  -12.200;  521.340
1107.425;   10.418;  -13.110;  668.180
1107.968;    9.183;  -12.840;  612.380
1108.510;   10.093;   -6.480;  684.960
1109.052;    8.148;  -13.940;  612.620
1109.594;    9.629;  -13.690;  554.440
1110.136;    9.830;  -11.880;  643.220
1110.679;    8.295;   -9.500;  633.080
1111.221;    9.128;  -14.160;  604.460
1111.763;    9.066;  -13.980;  559.220
1112.304;    9.051;  -13.880;  547.140
1112.846;    9.159;  -12.210;  666.240
1113.388;   12.137;  -11.390;  942.180
1113.930;    9.023;  -14.540;  694.200
1114.472;    7.863;  -12.640;  606.540
1115.013;    6.568;  -11.620;  551.280
1115.555;    7.480;  -13.640;  587.100
1116.097;    7.030;  -15.380;  579.480
1116.638;    7.535;  -12.640;  684.600
1117.180;    8.652;   -9.850;  667.740
1117.721;    7.548;  -13.690;  568.580
1118.262;    9.166;  -12.680;  677.960
1118.804;    8.489;  -12.530;  637.340
1119.345;    6.873;  -11.690;  578.400
1119.886;    7.905;  -13.380;  704.040
1120.427;    7.456;  -14.070;  589.020
1120.969;    6.854;  -13.500;  597.920
1121.510;    6.246;  -11.480;  563.060
1122.051;    7.647;  -12.830;  723.580
1122.592;    6.425;  -14.290;  655.420
1123.133;    5.729;  -12.400;  547.940
1123.673;    7.098;  -10.130;  706.480
1124.214;    6.580;  -12.930;  612.460
1124.755;    7.441;  -14.380;  639.460
1125.296;    6.025;  -14.000;  627.320
1125.836;    7.402;  -10.070;  691.500
1126.377;    5.920;  -12.640;  599.660
1126.918;    7.437;  -12.960;  614.980
1127.458;    5.643;  -13.350;  622.220
1127.999;    6.009;  -10.750;  656.980
1128.539;    6.341;  -12.350;  694.240
1129.079;    6.102;  -14.860;  632.720
1129.620;    4.682;  -13.840;  558.100
1130.160;    5.535;  -12.330;  539.480
1130.700;    5.789;  -14.530;  640.840
1131.240;    6.877;  -12.530;  643.700
1131.781;    5.255;  -14.450;  619.680
1132.321;    4.761;   -9.790;  599.120
1132.861;    4.221;  -14.860;  564.200
1133.401;    4.447;  -14.290;  593.940
1133.941;    4.617;  -11.750;  626.280
1134.481;    4.705;   -9.920;  597.580
1135.020;    3.981;  -12.290;  609.160
1135.560;    5.099;  -11.650;  674.940
1136.100;    3.905;  -16.270;  501.160
1136.640;    3.578;  -10.890;  510.480
1137.179;    3.737;  -14.180;  537.960
1137.719;    4.770;  -16.250;  605.400
1138.258;    3.777;  -14.230;  587.360
1138.798;    4.746;   -9.090;  663.780
1139.337;    2.573;  -15.130;  482.840
1139.877;    4.439;  -13.680;  642.360
1140.416;    6.000;  -11.320;  878.060
1140.955;    2.603;  -10.860;  535.380
1141.494;    4.029;  -12.920;  669.280
1142.034;    3.718;  -13.930;  583.520
1142.573;    4.245;  -11.440;  646.280
1143.112;    2.675;  -12.000;  553.480
1143.651;    3.414;  -13.670;  536.480
1144.190;    4.634;  -12.730;  691.640
1144.729;    2.884;  -14.560;  607.420
1145.267;    2.914;  -11.830;  584.900
1145.806;    3.452;  -12.230;  637.040
1146.345;    3.372;  -14.130;  635.020
1146.884;    2.764;  -11.590;  622.500
1147.422;    2.104;  -12.550;  533.060
1147.961;    3.880;  -11.180;  708.460
1148.500;    4.063;  -11.510;  669.720
1149.038;    3.400;  -11.640;  632.500
1149.577;    3.007;  -10.130;  698.640
1150.115;    1.387;  -13.970;  452.280
1150.653;    2.497;  -14.520;  607.340
1151.192;    1.917;  -12.810;  552.920
1151.730;    1.864;   -9.100;  652.560
1152.268;    1.042;  -12.220;  589.520
1152.806;    2.266;  -14.140;  571.180
1153.344;    1.050;  -12.350;  577.640
1153.882;    2.612;   -8.980;  600.060
1154.421;    0.714;  -15.190;  470.620
1154.958;    1.704;  -15.210;  595.240
1155.496;    2.466;  -12.850;  645.280
1156.034;    1.647;   -9.940;  721.880
1156.572;    2.557;  -13.570;  667.060
1157.110;    1.380;  -14.590;  473.940
1157.647;    1.850;  -13.030;  676.960
1158.185;    1.150;  -12.140;  564.320
1158.723;   -0.008;  -14.390;  509.200
1159.260;    1.626;  -14.090;  701.700
1159.798;    2.060;  -11.920;  658.160
1160.335;    0.639;  -11.110;  631.820

