
Integration time [ms]:   3.276
Averaging Nr. [scans]: 1000
Smoothing Nr. [pixels]: 0
Data measured with spectrometer [name]: 7414430SP
Wave   ;Sample   ;Dark     ;Reference
[nm]   ;[counts] ;[counts] ;[counts] 

288.544;  160.541;    7.793;  793.890
289.143;  163.965;    7.462;  681.602
289.742;  164.504;    8.602;  828.814
290.341;  151.259;    1.321;  789.841
290.940;  141.666;   -0.709;  730.702
291.538;  142.827;    0.881;  881.108
292.137;  142.030;    0.122;  792.581
292.736;  145.998;   -1.929;  975.101
293.335;  140.998;   -8.229;  735.086
293.934;  142.235;   -5.279;  781.677
294.532;  142.842;   -1.369; 1031.958
295.131;  129.211;   -7.641;  834.394
295.730;  129.139;   -8.420;  809.588
296.328;  125.220;   -5.611;  783.442
296.927;  124.545;   -5.781;  779.652
297.525;  127.102;   -6.361;  781.236
298.124;  118.571;  -11.382;  654.009
298.722;  122.653;   -7.641;  761.933
299.321;  119.585;   -6.811;  708.597
299.919;  116.402;   -6.991;  751.918
300.518;  112.441;  -10.362;  689.338
301.116;  114.221;   -9.581;  691.381
301.715;  114.672;   -4.891;  730.222
302.313;  113.605;   -8.801;  704.943
302.911;  109.044;   -8.522;  733.830
303.509;  113.920;   -6.171;  925.627
304.108;  111.948;   -7.311;  760.383
304.706;  111.887;   -8.321;  801.664
305.304;  105.633;  -10.222;  796.707
305.902;  109.993;   -6.021;  784.484
306.500;  105.481;   -4.971;  728.200
307.098;  105.080;   -7.061;  746.560
307.696;  103.125;   -8.801;  780.432
308.294;  103.538;   -6.411;  731.359
308.892;  104.984;   -2.901;  759.769
309.490;  101.793;   -5.041;  712.161
310.088;   99.495;   -5.002;  788.444
310.686;  103.633;   -2.041;  821.749
311.284;   98.903;   -2.351;  766.040
311.882;   96.805;   -4.422;  731.225
312.480;   93.737;   -4.192;  697.167
313.078;   95.290;   -1.172;  808.331
313.675;   95.944;   -2.601;  691.600
314.273;   89.724;   -1.312;  797.837
314.871;   89.748;   -3.942;  589.829
315.468;   87.816;   -2.802;  652.090
316.066;   90.734;   -0.701;  694.427
316.664;   83.899;   -4.362;  656.351
317.261;   86.604;   -2.872;  910.128
317.859;   83.163;   -2.022;  768.735
318.456;   83.751;   -0.531;  830.096
319.054;   79.596;   -3.912;  787.828
319.651;   78.482;   -4.752;  759.928
320.249;   76.764;   -2.602;  810.188
320.846;   74.267;   -0.821;  714.286
321.443;   72.027;   -4.642;  832.135
322.041;   69.098;   -5.002;  812.315
322.638;   66.187;   -3.982;  701.456
323.235;   66.863;   -3.411;  665.683
323.833;   64.506;   -7.361;  740.354
324.430;   59.299;   -8.611;  615.900
325.027;   60.098;   -4.061;  876.855
325.624;   60.522;   -4.031;  644.532
326.221;   56.477;   -7.481;  689.717
326.818;   55.637;   -5.281;  818.332
327.415;   59.395;   -7.460;  748.828
328.012;   58.777;   -5.510;  690.585
328.609;   56.996;   -7.880;  731.389
329.206;   55.743;   -8.331;  778.621
329.803;   55.430;   -5.121;  737.841
330.400;   58.080;   -4.510;  704.260
330.997;   59.475;   -6.441;  817.147
331.594;   57.169;   -8.831;  788.185
332.191;   62.589;   -7.621;  728.722
332.787;   66.387;   -4.591;  844.463
333.384;   65.781;   -7.412;  763.093
333.981;   64.938;   -8.293;  815.687
334.578;   67.996;   -7.052;  708.378
335.174;   70.067;   -3.102;  731.469
335.771;   69.552;   -5.943;  836.456
336.367;   67.187;   -7.393;  710.631
336.964;   71.630;   -4.063;  793.266
337.561;   69.063;   -3.813;  731.112
338.157;   64.883;   -4.654;  911.916
338.754;   63.099;   -7.934;  796.589
339.350;   61.876;   -4.414;  722.493
339.946;   63.351;   -4.664;  773.135
340.543;   55.852;   -6.375;  846.136
341.139;   49.149;   -9.815;  720.836
341.735;   46.039;   -4.526;  772.593
342.332;   45.579;   -4.895;  691.472
342.928;   44.880;   -4.295;  795.394
343.524;   37.518;   -5.476;  761.684
344.120;   34.536;   -5.856;  738.562
344.716;   38.034;   -2.155;  723.717
345.313;   34.973;   -6.275;  795.342
345.909;   30.299;   -8.815;  627.336
346.505;   31.005;   -5.305;  740.247
347.101;   32.395;   -2.674;  827.864
347.697;   32.572;   -4.344;  785.398
348.293;   26.742;   -9.975;  627.244
348.889;   27.366;   -5.774;  745.914
349.485;   26.877;   -5.004;  688.205
350.081;   27.923;   -4.704;  772.592
350.676;   23.588;   -6.635;  691.606
351.272;   26.924;   -4.504;  809.530
351.868;   26.577;   -3.914;  780.497
352.464;   23.709;   -9.044;  723.932
353.059;   19.925;   -8.314;  646.017
353.655;   23.394;   -7.024;  777.063
354.251;   24.759;   -5.343;  759.845
354.846;   18.886;   -8.604;  740.646
355.442;   17.236;   -6.945;  753.071
356.038;   18.177;   -7.564;  751.708
356.633;   17.904;   -5.814;  728.594
357.229;   16.771;   -7.364;  724.757
357.824;   15.166;   -8.024;  703.600
358.420;   13.536;   -9.384;  679.726
359.015;   14.050;   -5.104;  695.357
359.610;   14.900;   -6.854;  763.920
360.206;    8.665;  -10.185;  603.240
360.801;   11.321;   -7.054;  646.503
361.396;   14.114;   -5.034;  725.975
361.992;    9.760;   -8.284;  668.220
362.587;    7.039;   -8.625;  670.160
363.182;    8.606;   -7.674;  689.631
363.777;    9.882;   -5.164;  738.242
364.372;    9.126;   -8.604;  737.314
364.967;    4.887;   -9.055;  680.744
365.563;    8.825;   -6.114;  815.567
366.158;    6.051;   -5.814;  685.161
366.753;    7.013;   -7.854;  649.263
367.348;    5.420;   -7.804;  746.056
367.942;    4.091;   -7.954;  697.298
368.537;    3.605;   -4.984;  754.245
369.132;    3.728;   -8.564;  703.428
369.727;    0.163;   -8.855;  638.079
370.322;    1.691;   -6.245;  580.186
370.917;    0.959;   -6.425;  710.646
371.511;    4.062;   -6.294;  861.834
372.106;    0.859;   -7.685;  776.964
372.701;   -3.829;   -7.335;  585.988
373.296;    2.242;   -4.564;  863.135
373.890;   -2.541;  -10.235;  647.840
374.485;   -4.933;   -7.885;  691.199
375.079;   -0.288;   -7.324;  738.685
375.674;    0.509;   -3.494;  812.970
376.268;   -3.855;   -8.525;  691.759
376.863;   -9.695;  -10.086;  580.327
377.457;   -2.803;   -7.025;  662.490
378.052;   -5.150;   -3.585;  764.884
378.646;   -5.782;   -7.595;  741.167
379.240;   -6.324;   -8.335;  721.176
379.835;   -5.340;   -5.785;  636.978
380.429;   -8.275;   -4.335;  562.557
381.023;   -6.934;   -6.805;  779.205
381.617;  -10.060;   -9.195;  680.106
382.212;   -6.617;   -6.905;  685.303
382.806;   -5.723;   -3.745;  760.690
383.400;   -9.666;   -7.745;  672.281
383.994;  -10.994;   -9.765;  664.870
384.588;   -7.130;   -6.564;  697.701
385.182;   -5.946;   -5.344;  726.624
385.776;   -7.565;   -8.514;  706.875
386.370;  -11.234;   -9.555;  681.968
386.964;   -9.807;   -8.715;  684.155
387.558;   -8.214;   -6.174;  598.360
388.152;  -11.950;   -8.725;  681.959
388.745;  -10.179;   -7.965;  814.707
389.339;   -7.811;   -5.924;  747.642
389.933;   -7.263;   -5.524;  695.370
390.527;   -8.483;   -7.114;  859.029
391.120;  -13.864;  -10.725;  595.318
391.714;  -11.669;   -8.035;  711.633
392.308;   -8.570;   -3.574;  780.253
392.901;  -12.291;   -7.245;  642.460
393.495;  -13.921;   -9.285;  595.414
394.089;  -11.633;   -5.895;  760.452
394.682;  -12.469;   -4.295;  697.188
395.275;  -12.487;   -9.875;  719.927
395.869;  -13.989;   -8.485;  667.314
396.462;  -12.620;   -7.455;  616.609
397.056;   -8.546;   -5.424;  776.621
397.649;  -13.748;   -6.605;  731.575
398.242;  -11.658;   -8.224;  712.645
398.836;  -10.523;   -7.474;  766.408
399.429;  -11.397;   -7.094;  631.041
400.022;  -14.173;   -9.475;  665.902
400.615;  -12.716;   -7.145;  805.609
401.208;  -11.370;   -7.174;  691.451
401.802;  -12.400;   -5.515;  699.329
402.395;  -13.975;   -9.875;  683.502
402.988;  -15.414;   -8.845;  696.627
403.581;  -11.756;   -8.874;  646.878
404.174;   -9.348;   -5.324;  686.568
404.767;  -12.007;   -9.575;  638.583
405.360;  -14.661;  -10.965;  621.445
405.953;   -9.042;   -8.764;  759.034
406.545;   -9.048;   -7.514;  725.342
407.138;  -13.300;  -10.025;  618.350
407.731;  -12.659;  -10.034;  613.303
408.324;   -8.318;   -9.374;  660.554
408.917;   -9.052;   -6.534;  681.864
409.509;  -10.332;   -8.004;  740.396
410.102;  -12.392;   -9.875;  643.948
410.695;   -6.696;   -8.604;  665.758
411.287;   -7.800;   -6.794;  599.821
411.880;   -8.875;   -9.334;  585.421
412.472;  -11.807;  -10.254;  613.092
413.065;   -9.806;   -6.714;  629.408
413.657;   -7.060;   -7.234;  576.678
414.250;   -7.013;  -10.544;  646.681
414.842;   -8.975;   -9.744;  676.353
415.434;   -6.872;   -6.994;  570.463
416.027;   -2.761;   -5.893;  652.196
416.619;   -4.648;   -7.264;  713.400
417.211;   -4.695;  -10.374;  599.352
417.804;   -1.924;   -7.993;  628.499
418.396;   -4.827;   -7.234;  607.643
418.988;   -3.363;   -9.443;  659.238
419.580;   -6.502;  -10.724;  568.276
420.172;   -4.560;  -10.323;  536.196
420.764;    0.297;   -8.793;  672.482
421.356;   -1.269;  -11.143;  636.898
421.948;   -2.165;   -8.293;  677.661
422.540;    2.316;   -7.893;  680.027
423.132;    1.747;   -7.082;  600.641
423.724;   -1.385;   -8.653;  561.267
424.316;    0.400;  -10.213;  621.345
424.908;    4.075;   -9.762;  591.517
425.500;    4.802;   -5.572;  647.978
426.092;    5.668;   -8.422;  648.268
426.683;    4.090;   -9.283;  684.836
427.275;    6.770;   -7.852;  641.471
427.867;    8.693;   -5.272;  668.948
428.458;    9.101;   -7.682;  732.344
429.050;    7.253;  -10.612;  680.749
429.642;    9.364;   -9.882;  743.124
430.233;   10.658;   -6.962;  569.356
430.825;   11.954;   -6.842;  724.809
431.416;    8.844;   -9.672;  698.241
432.008;   12.952;   -6.552;  651.723
432.599;   13.561;   -6.891;  656.073
433.190;   11.082;  -10.912;  637.670
433.782;   10.101;  -11.172;  590.395
434.373;   17.005;   -6.061;  884.765
434.964;   15.771;   -8.251;  602.920
435.556;   13.057;   -9.722;  634.537
436.147;   15.854;   -9.082;  758.490
436.738;   16.788;   -8.041;  701.099
437.329;   21.439;   -7.341;  721.723
437.920;   14.724;   -8.162;  666.688
438.511;   14.363;  -11.802;  564.526
439.103;   21.563;  -10.191;  623.998
439.694;   22.668;   -7.601;  681.583
440.285;   23.368;   -8.541;  764.432
440.876;   21.931;   -9.751;  845.738
441.466;   21.169;   -9.401;  575.162
442.057;   26.230;   -7.760;  665.814
442.648;   24.926;   -9.971;  746.255
443.239;   23.301;  -11.001;  620.477
443.830;   28.583;   -7.990;  704.958
444.421;   30.355;   -7.910;  655.474
445.011;   26.518;   -8.131;  693.619
445.602;   25.884;   -7.111;  743.126
446.193;   28.051;  -10.920;  488.117
446.783;   31.799;   -6.500;  640.397
447.374;   27.814;   -8.671;  692.759
447.964;   28.364;  -10.781;  713.770
448.555;   37.322;   -9.650;  822.742
449.145;   34.248;   -8.660;  662.853
449.736;   34.879;   -8.990;  803.179
450.326;   34.563;   -9.500;  713.626
450.917;   38.979;   -8.680;  675.324
451.507;   39.432;   -7.520;  600.661
452.097;   39.344;   -8.590;  746.267
452.688;   41.053;  -11.340;  742.160
453.278;   39.473;  -10.100;  566.840
453.868;   44.773;   -6.019;  793.550
454.458;   42.356;   -9.440;  651.141
455.048;   42.938;  -10.560;  711.783
455.639;   44.673;  -11.799;  567.096
456.229;   47.919;   -6.899;  710.694
456.819;   49.996;   -7.389;  751.158
457.409;   50.333;  -11.119;  773.993
457.999;   53.191;   -9.289;  737.505
458.589;   52.973;   -6.139;  686.606
459.179;   52.364;   -8.729;  717.658
459.769;   50.587;   -9.789;  627.099
460.358;   55.000;  -10.259;  797.262
460.948;   56.301;   -7.299;  689.503
461.538;   56.873;  -10.289;  660.677
462.128;   55.202;  -11.269;  664.934
462.717;   61.735;   -9.368;  710.326
463.307;   64.559;   -7.908;  705.846
463.897;   61.406;   -9.599;  656.942
464.486;   60.818;   -9.769;  837.128
465.076;   65.828;   -8.048;  733.776
465.666;   68.050;   -9.358;  652.900
466.255;   66.180;   -7.919;  785.651
466.845;   64.504;  -11.689;  666.749
467.434;   67.858;   -7.818;  725.873
468.023;   69.092;   -7.678;  658.357
468.613;   66.563;  -10.939;  713.946
469.202;   71.757;  -10.118;  646.507
469.791;   74.815;   -9.108;  737.811
470.381;   77.585;   -6.058;  742.813
470.970;   77.139;  -10.428;  711.099
471.559;   77.891;  -10.268;  733.291
472.148;   79.681;   -8.448;  675.737
472.738;   82.148;   -6.917;  765.466
473.327;   82.263;  -11.978;  637.529
473.916;   81.651;  -11.888;  737.446
474.505;   86.160;   -9.437;  751.703
475.094;   88.436;   -6.747;  806.570
475.683;   88.186;   -9.367;  797.699
476.272;   89.389;  -12.637;  730.632
476.861;   91.942;  -10.027;  706.754
477.449;   98.424;   -8.716;  728.487
478.038;   92.352;   -9.577;  692.513
478.627;   94.317;   -9.718;  714.852
479.216;   99.636;   -8.947;  769.441
479.805;  103.009;   -6.256;  783.375
480.393;  103.458;   -7.937; 1008.945
480.982;  103.058;   -7.717;  874.501
481.571;  109.018;   -9.266;  858.333
482.159;  109.688;   -7.636;  705.386
482.748;  108.878;   -9.667;  821.385
483.336;  113.865;  -10.376;  858.209
483.925;  114.170;   -7.147;  774.373
484.513;  121.386;   -7.996;  758.962
485.102;  118.493;  -10.027;  810.965
485.690;  126.925;  -10.446; 1011.050
486.278;  128.897;   -8.446;  979.329
486.867;  129.044;   -6.356;  809.662
487.455;  131.383;   -9.136;  898.229
488.043;  133.608;  -10.646;  748.361
488.631;  142.480;   -7.456; 1005.079
489.220;  145.563;   -6.636;  908.626
489.808;  145.965;  -11.036;  741.415
490.396;  154.459;  -10.246;  914.645
490.984;  161.273;   -8.556;  830.161
491.572;  171.954;   -5.886;  940.315
492.160;  178.823;   -9.486;  919.081
492.748;  191.373;  -10.976;  884.341
493.336;  214.561;   -8.776; 1019.693
493.924;  241.813;   -5.465;  958.077
494.512;  272.750;   -9.986; 1066.638
495.100;  318.790;  -10.636; 1103.280
495.687;  377.305;  -10.885; 1206.373
496.275;  435.769;   -8.126; 1150.796
496.863;  506.888;  -10.586; 1281.171
497.451;  615.688;  -11.926; 1386.805
498.038;  720.876;  -10.885; 1556.729
498.626;  826.160;   -6.315; 1741.407
499.214;  982.882;   -7.326; 2016.609
499.801; 1174.520;  -11.906; 2220.633
500.389; 1398.923;  -10.466; 2312.494
500.976; 1679.193;   -5.236; 2744.849
501.564; 2120.199;   -8.936; 3148.565
502.151; 2593.123;  -13.176; 3515.999
502.738; 3041.173;  -10.646; 3971.274
503.326; 3441.873;   -9.525; 4403.796
503.913; 3809.942;  -10.856; 5161.749
504.500; 4299.704;  -11.586; 5986.420
505.088; 4696.880;  -10.336; 6381.201
505.675; 5096.072;   -6.355; 6925.547
506.262; 5542.061;   -9.046; 7619.060
506.849; 5900.845;  -10.416; 8733.969
507.436; 6363.604;  -10.305; 9790.121
508.023; 6844.072;   -5.496; 9985.472
508.610; 7678.020;   -7.856;10434.618
509.197; 9292.823;  -10.097;11198.435
509.784;10834.219;  -10.886;12391.194
510.371;11766.547;   -9.315;13603.713
510.958;12512.896;   -9.936;14426.586
511.545;12986.952;   -9.326;15243.775
512.132;13829.079;  -10.075;15945.876
512.719;14285.654;   -7.796;16340.369
513.305;15451.669;  -10.606;18011.766
513.892;16726.936;  -11.486;19754.971
514.479;18482.248;   -9.126;20967.805
515.066;19672.977;   -6.026;22299.793
515.652;19790.662;   -8.466;22908.660
516.239;20989.906;  -10.886;23798.875
516.825;23173.682;  -11.496;25567.275
517.412;24493.111;   -5.796;28154.959
517.998;25980.008;  -10.506;28344.111
518.585;26311.102;  -10.076;27134.219
519.171;25580.521;   -8.315;27268.576
519.758;25237.176;   -8.596;28964.129
520.344;25974.527;   -8.466;30664.494
520.930;28830.014;  -11.006;32550.605
521.516;29162.748;  -10.495;35422.895
522.103;28430.230;   -5.526;38280.004
522.689;28745.121;   -8.746;37835.117
523.275;29839.006;  -11.376;37288.613
523.861;30037.570;  -11.156;37281.395
524.447;30044.895;   -8.135;37846.949
525.033;30768.068;   -7.896;38321.949
525.619;33584.160;  -12.476;38579.285
526.205;36934.078;   -9.516;40622.875
526.791;37806.691;   -6.926;42258.836
527.377;40223.094;   -8.346;42966.902
527.963;41946.402;   -8.717;42018.949
528.549;40163.262;  -11.016;42476.828
529.135;39754.285;   -8.536;41854.852
529.721;39010.809;   -9.666;41237.711
530.306;37255.645;  -10.066;41259.445
530.892;37689.480;  -11.356;41506.047
531.478;38334.910;   -6.596;43559.613
532.063;38782.664;   -8.836;47695.563
532.649;41757.051;  -10.047;50808.324
533.235;43806.242;   -9.746;51787.500
533.820;42868.711;   -6.566;52145.035
534.406;42240.516;  -10.817;51133.488
534.991;44674.461;   -9.416;49996.805
535.576;45260.145;   -9.036;48882.852
536.162;45860.895;   -6.156;46942.285
536.747;46254.082;  -11.607;45711.746
537.333;45677.219;  -11.787;48510.180
537.918;44743.563;  -12.437;50439.891
538.503;44482.980;   -7.196;50863.711
539.088;43101.004;  -10.556;50906.922
539.673;42889.344;   -8.767;52621.965
540.259;43522.039;  -10.026;52368.094
540.844;44453.711;   -7.416;50879.109
541.429;41929.164;   -9.467;52077.777
542.014;39695.758;   -9.527;52716.695
542.599;39014.414;   -9.946;52363.281
543.184;39953.680;   -7.927;53187.137
543.769;41920.199;   -9.297;54697.605
544.354;43246.008;  -10.127;53913.914
544.938;43515.797;   -9.267;49680.164
545.523;46448.656;   -6.506;47386.277
546.108;51190.105;   -9.787;49151.949
546.693;51740.035;  -11.587;51384.637
547.278;52487.133;  -10.986;51853.254
547.862;48389.059;   -8.206;51173.750
548.447;44928.859;  -10.067;51691.395
549.031;46776.316;   -9.637;52456.703
549.616;49062.016;   -9.926;52714.516
550.201;46867.449;   -6.347;52414.598
550.785;44228.961;   -7.917;52355.059
551.370;42381.730;  -10.867;54589.453
551.954;43950.426;   -9.047;58267.348
552.538;47303.164;   -7.827;59062.176
553.123;46896.508;  -10.287;58115.285
553.707;43111.902;  -12.178;56556.285
554.291;44666.785;   -8.717;56201.668
554.876;46916.063;   -7.457;55335.762
555.460;48082.785;  -10.387;54155.703
556.044;48733.398;   -9.618;53721.484
556.628;48223.859;  -11.567;53731.016
557.212;47591.313;   -8.097;54312.531
557.796;47668.293;  -11.077;53797.773
558.380;45953.156;  -11.108;56145.984
558.964;43758.262;   -9.057;57277.930
559.548;43164.598;   -6.977;56459.641
560.132;43238.461;  -11.457;54434.543
560.716;41256.781;  -11.378;54800.617
561.300;42285.285;   -9.577;57606.945
561.884;45084.957;   -7.127;58972.445
562.467;45688.930;   -7.118;57327.570
563.051;46010.863;  -13.358;54962.434
563.635;43983.211;  -10.178;52594.473
564.219;43892.035;   -7.837;50610.410
564.802;43759.211;  -11.398;49551.180
565.386;45019.930;  -12.788;48370.953
565.969;44843.461;   -9.077;48178.871
566.553;44291.160;   -6.207;49957.305
567.136;42181.625;   -8.568;50369.594
567.720;41415.105;  -11.868;49492.004
568.303;42494.227;   -8.268;50616.352
568.887;41376.316;   -8.698;50727.148
569.470;40051.277;   -6.808;51698.379
570.053;38728.473;  -13.188;52122.078
570.637;36580.426;  -12.037;52536.438
571.220;35997.164;   -8.577;51186.098
571.803;37652.707;   -8.498;51032.762
572.386;39534.090;  -10.498;49609.887
572.969;40451.320;   -9.388;48285.926
573.552;36672.305;   -8.338;47624.285
574.135;35644.902;   -8.518;45498.641
574.718;34243.313;  -13.628;41970.434
575.301;32806.746;  -10.893;41447.137
575.884;31370.182;   -8.158;40923.836
576.467;35128.441;  -10.328;45267.723
577.050;34393.629;  -13.058;48175.543
577.633;32901.543;   -9.458;47729.328
578.216;33809.414;   -8.928;47579.793
578.799;34742.566;   -9.358;47820.996
579.381;34818.391;  -11.388;48115.551
579.964;33039.555;  -11.718;47333.766
580.547;33527.184;   -8.588;46668.969
581.129;34907.117;   -8.859;44466.141
581.712;34285.695;  -10.729;44164.922
582.294;35815.262;  -11.118;46477.855
582.877;33682.000;   -5.218;48244.254
583.459;33441.324;   -8.679;47437.895
584.042;34734.168;  -10.709;46943.219
584.624;37779.855;  -11.669;46792.227
585.206;37258.641;   -8.218;46557.250
585.789;35570.625;  -10.569;45793.773
586.371;35013.051;  -11.859;43836.391
586.953;33850.383;  -10.719;42972.492
587.536;35115.457;   -7.198;42487.211
588.118;36843.559;   -8.720;42086.414
588.700;36086.961;  -10.439;43389.930
589.282;35115.254;   -9.198;43646.039
589.864;34785.609;   -9.199;43438.109
590.446;32756.512;  -11.319;43151.926
591.028;31481.457;  -11.159;42781.867
591.610;30979.328;  -11.779;42839.098
592.192;28301.854;   -7.668;42820.402
592.774;29356.979;  -11.949;40724.277
593.356;30755.223;  -12.129;39874.789
593.937;30661.186;  -10.669;39980.648
594.519;32097.512;   -6.509;42069.633
595.101;33841.531;  -10.849;42976.031
595.683;32609.918;  -11.679;44084.441
596.264;30496.154;   -9.049;43478.797
596.846;31245.303;   -8.849;43803.672
597.427;32294.836;   -9.570;42986.934
598.009;32302.643;  -12.620;42832.219
598.591;31930.688;  -10.039;42580.086
599.172;31890.910;  -10.369;43061.805
599.753;31616.953;   -9.140;41691.469
600.335;31492.002;  -11.430;40692.520
600.916;32205.355;   -9.939;39982.422
601.498;31258.969;   -8.479;40318.617
602.079;29967.324;  -10.920;40670.609
602.660;31255.646;  -11.480;41450.898
603.241;32067.922;  -11.699;41137.738
603.823;32594.287;   -9.579;38868.797
604.404;32756.873;  -10.620;38182.785
604.985;31231.828;  -10.450;38078.047
605.566;30436.162;   -9.129;38056.633
606.147;30444.068;   -7.510;37020.418
606.728;31713.225;  -10.660;37883.359
607.309;32308.650;  -11.740;38748.273
607.890;30974.809;   -9.759;38850.230
608.471;29566.764;   -8.250;37457.918
609.051;31192.340;   -9.240;36066.457
609.632;29634.484;  -12.120;35991.074
610.213;27454.762;   -9.110;37402.641
610.794;28479.535;   -8.030;38383.363
611.374;31230.479;   -8.110;40562.387
611.955;31727.617;  -13.560;38533.727
612.536;29798.354;  -11.400;36951.789
613.116;29349.980;   -8.070;37197.891
613.697;30903.004;  -10.830;38411.125
614.277;31262.498;  -11.641;38673.938
614.858;30098.467;  -13.310;37075.863
615.438;28951.822;   -7.460;35092.906
616.019;28136.752;   -7.601;33666.301
616.599;28653.336;  -12.020;34189.023
617.179;30282.574;  -11.780;36952.047
617.760;32784.281;   -8.570;39582.574
618.340;32752.637;  -11.471;38943.977
618.920;30352.912;  -11.170;37594.156
619.500;31624.000;  -11.071;37866.938
620.080;32070.398;   -7.750;37869.043
620.660;31135.389;  -12.711;36868.617
621.241;30590.213;  -10.211;36352.309
621.821;29506.141;  -10.961;35459.520
622.401;28182.059;   -7.720;35207.414
622.980;29228.174;   -8.981;35980.422
623.560;29723.227;   -9.331;37351.328
624.140;28347.777;   -9.850;34388.582
624.720;25744.271;   -7.451;32368.764
625.300;24291.686;   -9.070;32638.629
625.880;27968.670;  -12.601;34599.035
626.459;30962.488;  -11.751;36831.738
627.039;32023.584;   -9.281;38299.098
627.619;33415.184;   -8.801;38289.574
628.198;33121.402;  -12.071;37220.695
628.778;31085.691;   -9.461;37632.563
629.357;31520.758;   -8.491;38003.012
629.937;31601.832;   -9.721;38402.039
630.516;31508.650;   -9.951;37868.801
631.096;31199.162;  -11.731;35760.410
631.675;32970.988;   -8.572;35225.219
632.254;33178.820;  -11.282;35130.289
632.834;32620.547;  -13.322;35794.570
633.413;32966.859;  -10.301;35788.922
633.992;32575.299;   -8.582;34532.863
634.571;32980.617;   -8.352;33590.113
635.151;32213.271;  -11.912;34943.863
635.730;31137.016;  -10.511;35352.523
636.309;33048.059;   -7.731;35366.605
636.888;32677.238;   -9.952;36165.637
637.467;31883.148;  -11.672;37515.902
638.046;31442.848;   -8.901;39288.695
638.625;31829.047;   -7.912;38279.699
639.204;32092.900;  -10.022;37741.598
639.782;30744.883;  -12.252;38364.551
640.361;29142.740;  -10.041;36740.621
640.940;27839.701;  -11.161;34950.082
641.519;29402.166;   -9.701;34137.398
642.097;32348.416;  -11.271;35654.258
642.676;33392.824;   -8.651;35637.957
643.255;34932.582;   -8.711;36567.074
643.833;33192.281;   -9.581;37809.434
644.412;30008.990;  -13.711;37337.293
644.990;30333.656;  -11.811;37018.531
645.569;32576.867;   -9.411;36518.469
646.147;32049.574;  -10.291;36186.430
646.726;30665.836;  -12.401;36267.688
647.304;30086.969;  -10.411;36647.625
647.882;30537.002;   -9.651;39286.742
648.461;31873.244;   -9.631;39157.703
649.039;34620.238;  -11.881;35412.883
649.617;35861.855;   -9.661;34744.918
650.195;34168.848;   -9.301;35403.098
650.773;32246.615;  -10.511;35053.797
651.352;30521.379;  -11.521;33756.816
651.930;27892.234;  -12.211;31868.773
652.508;25077.678;   -9.171;33121.551
653.086;26134.031;   -9.371;33564.793
653.663;31059.723;  -13.161;34054.668
654.241;33097.387;  -13.031;35693.309
654.819;34739.938;   -9.371;36422.906
655.397;35092.402;  -10.511;38213.484
655.975;33301.508;  -10.371;39507.625
656.553;31822.342;  -10.051;39498.223
657.130;31193.625;  -10.061;40395.480
657.708;29486.209;   -9.561;39242.020
658.286;26248.613;  -11.511;38920.020
658.863;26484.371;  -10.261;40202.898
659.441;30421.285;   -7.531;39677.938
660.018;32514.951;   -9.501;40413.355
660.596;31318.408;  -13.301;39931.414
661.173;29522.887;  -11.211;39604.531
661.750;30911.244;   -9.951;39700.070
662.328;31260.643;   -9.390;39292.809
662.905;29966.348;  -11.330;38235.648
663.482;26902.686;   -9.050;36212.305
664.060;24394.938;   -8.240;35944.945
664.637;26154.227;  -10.050;35170.785
665.214;29605.117;  -11.760;34197.523
665.791;30822.078;  -10.530;34549.520
666.368;29793.422;   -9.690;35118.578
666.945;30622.920;   -9.320;36019.418
667.522;30463.578;  -11.860;36048.438
668.099;31615.672;  -10.770;36243.914
668.676;32556.852;   -6.260;35958.875
669.253;34495.566;   -7.000;37384.730
669.830;35644.402;  -10.190;36779.629
670.407;32927.645;   -9.550;35231.289
670.984;32500.191;   -9.260;35544.270
671.560;29459.760;   -9.280;35466.867
672.137;24183.012;  -11.810;34280.863
672.714;25543.814;  -11.490;34632.863
673.290;31428.322;   -7.740;35135.422
673.867;31968.877;  -10.660;36114.480
674.443;31721.957;  -12.230;36152.859
675.020;31066.404;  -10.450;35327.238
675.596;31526.711;   -9.260;35795.176
676.173;31489.988;  -10.780;35430.355
676.749;29895.211;  -13.690;33549.516
677.326;29200.420;  -11.980;32210.012
677.902;28552.154;   -8.630;32068.871
678.478;29493.064;  -10.730;32583.891
679.054;30189.787;  -10.520;32088.928
679.631;30671.900;  -11.920;30978.848
680.207;30913.615;   -7.490;33160.887
680.783;32492.699;   -9.860;35570.363
681.359;33212.105;  -13.380;36125.184
681.935;32972.973;  -12.480;35240.922
682.511;31615.785;   -7.900;34429.961
683.087;31072.293;   -7.710;34463.680
683.663;30681.912;  -11.480;34648.898
684.239;29809.850;  -14.090;34546.457
684.815;28925.412;   -7.560;35586.375
685.390;29312.777;   -9.910;35821.895
685.966;30494.408;  -11.159;35085.871
686.542;31190.295;  -11.169;34198.230
687.118;32296.336;   -5.959;32847.707
687.693;31627.043;  -10.329;32794.027
688.269;31709.656;  -12.059;33072.367
688.844;33191.762;  -10.909;33141.664
689.420;32285.457;   -8.019;33965.742
689.995;30800.141;   -8.399;34655.523
690.571;31464.717;  -10.949;33576.742
691.146;30815.184;   -9.619;32657.219
691.722;29399.518;   -8.999;32526.979
692.297;28268.971;  -11.589;33014.617
692.872;28762.682;  -11.739;34012.254
693.448;31890.031;  -11.059;34237.434
694.023;31970.385;  -10.139;34142.672
694.598;28376.869;   -9.029;34132.031
695.173;29498.527;  -13.319;34205.250
695.748;30975.990;  -10.169;32882.488
696.323;29105.338;   -8.339;32864.906
696.898;28042.531;   -8.169;33170.004
697.473;28120.555;  -12.309;32432.984
698.048;27907.059;  -10.989;31649.303
698.623;27687.258;   -9.329;30778.141
699.198;28882.807;   -9.849;31140.119
699.773;29475.652;  -12.329;31764.299
700.348;30911.320;  -10.389;31780.816
700.922;30472.496;   -9.269;32046.375
701.497;30818.426;   -9.329;32603.574
702.072;32314.713;  -10.789;34799.871
702.646;31329.592;  -10.839;35793.172
703.221;31647.018;   -9.099;35201.590
703.795;33428.191;  -10.939;34764.527
704.370;30983.654;  -12.859;34307.367
704.944;29018.418;  -11.559;33509.887
705.519;29577.229;   -7.939;31388.584
706.093;31353.404;  -10.499;31340.104
706.668;33030.445;  -11.289;32630.281
707.242;32694.902;  -11.509;32728.779
707.816;29898.186;   -9.639;32947.238
708.390;29233.385;  -11.429;33277.855
708.965;29939.570;  -11.869;33834.336
709.539;31993.555;  -11.689;33709.273
710.113;31740.271;  -10.478;33044.313
710.687;30350.965;  -10.228;31953.992
711.261;29226.771;  -13.698;30505.949
711.835;29528.928;  -13.378;30262.369
712.409;29187.127;   -9.698;31254.447
712.983;27827.324;  -11.898;32754.986
713.557;29673.557;  -15.138;34018.824
714.131;28478.459;  -14.098;34579.625
714.704;28409.262;   -9.958;33890.262
715.278;29688.594;  -10.028;33531.102
715.852;28135.014;  -11.148;33601.660
716.425;27149.166;   -9.068;33515.117
716.999;26528.805;  -10.038;33185.555
717.573;26133.463;   -9.798;33905.996
718.146;25627.793;  -12.378;35199.293
718.720;25631.938;  -11.918;35060.551
719.293;26327.135;   -8.088;34973.230
719.867;28953.096;  -10.888;36394.449
720.440;31830.604;  -11.938;36663.008
721.013;32214.740;  -12.818;35102.426
721.587;29372.268;  -10.298;33985.266
722.160;27804.301;  -10.048;33524.965
722.733;26628.223;  -12.108;32987.043
723.306;26245.174;  -10.818;33066.301
723.880;27644.354;   -8.908;33399.500
724.453;26608.992;   -9.878;33468.297
725.026;27273.137;  -11.188;33816.637
725.599;31190.398;  -11.678;32797.996
726.172;30871.920;   -9.618;33187.434
726.745;27439.428;   -8.258;35136.613
727.318;26628.586;  -12.978;35751.730
727.891;26515.898;  -12.148;35890.430
728.463;26472.896;   -8.968;34822.090
729.036;25832.424;  -10.188;32895.086
729.609;25836.275;  -11.788;31823.225
730.182;24517.061;  -11.788;31445.283
730.754;22807.879;  -10.268;32373.223
731.327;22674.305;   -9.998;33676.820
731.900;24208.584;  -12.228;33417.000
732.472;25169.986;  -13.848;31978.498
733.045;24785.822;   -8.698;30368.777
733.617;23306.586;  -10.607;30574.215
734.190;24802.391;  -11.507;31280.975
734.762;26093.402;  -13.647;31674.412
735.334;25902.871;   -9.767;31247.291
735.907;25743.758;   -9.897;29876.211
736.479;25685.010;  -11.637;29808.488
737.051;27773.010;   -9.567;30233.547
737.623;28083.305;   -8.187;31469.086
738.195;26872.877;  -11.187;31784.225
738.768;25382.182;  -12.337;32120.523
739.340;23212.615;  -12.227;32094.342
739.912;22391.559;  -11.057;31312.680
740.484;21858.561;  -10.207;31946.238
741.056;21070.742;  -10.047;32984.059
741.628;22114.678;  -13.627;33897.715
742.199;24065.084;   -7.177;33213.016
742.771;27108.838;  -10.797;31369.113
743.343;28649.861;  -11.997;31865.473
743.915;28074.818;  -12.867;32388.631
744.487;24988.725;   -7.617;31079.568
745.058;21662.074;   -9.557;30570.107
745.630;21856.590;   -9.877;29970.127
746.201;23276.586;  -14.177;29186.766
746.773;23804.801;   -9.237;28805.723
747.344;22998.949;   -9.847;29591.223
747.916;21781.803;  -11.657;31412.201
748.487;22215.551;  -10.587;32194.898
749.059;23412.707;   -8.707;32533.719
749.630;24010.449;  -10.537;32158.518
750.201;23386.846;  -11.687;30855.395
750.773;21973.492;  -11.647;28622.555
751.344;21079.406;   -7.147;28405.732
751.915;22348.988;   -9.757;28461.551
752.486;23761.117;  -12.427;27842.850
753.057;23228.367;  -12.227;27845.008
753.628;23316.320;  -10.417;27728.107
754.199;22206.045;  -11.767;27381.086
754.770;22076.416;  -11.187;25882.203
755.341;22126.412;  -10.507;25886.184
755.912;20696.855;   -9.387;26050.861
756.483;18912.699;  -10.647;26798.779
757.054;19373.439;  -11.837;27048.238
757.625;19604.250;  -12.716;26294.838
758.195;19642.621;   -9.666;26142.076
758.766;20106.676;   -8.656;26392.234
759.337;19432.955;  -12.856;26334.594
759.907;19347.826;  -13.366;27579.652
760.478;19225.791;   -8.576;28352.770
761.048;19722.086;  -10.526;27325.088
761.619;19867.725;  -11.116;26460.428
762.189;18571.674;  -12.136;26029.826
762.760;18219.854;   -9.456;26430.145
763.330;18712.678;   -7.136;26670.902
763.900;18950.689;  -11.786;26603.021
764.471;18140.117;  -11.546;25542.740
765.041;17069.488;   -8.096;24358.459
765.611;16549.314;   -8.876;23991.297
766.181;16542.221;  -12.196;24470.236
766.751;16317.247;  -11.636;24845.975
767.321;16730.811;  -10.156;24533.633
767.891;16603.123;  -11.766;24916.492
768.461;16968.041;  -14.936;24776.771
769.031;18249.459;  -12.356;24757.988
769.601;18864.705;   -7.526;24181.088
770.171;18409.430;  -10.766;23670.387
770.741;17215.242;  -13.176;22960.045
771.311;16798.369;  -10.616;22917.523
771.880;17062.375;   -9.576;23562.941
772.450;16700.424;  -10.336;24216.500
773.020;16741.584;  -13.516;24140.398
773.589;17568.781;  -13.466;24414.857
774.159;17071.613;   -8.686;23858.717
774.729;16104.357;   -9.476;22942.135
775.298;14525.519;  -13.666;22324.033
775.867;14066.309;  -11.716;21140.313
776.437;14423.588;   -9.906;20838.092
777.006;13618.415;  -12.166;20599.510
777.576;12984.929;  -12.356;20508.809
778.145;13115.388;  -11.646;20732.947
778.714;13289.628;   -8.226;21062.465
779.283;13926.628;   -9.556;20949.664
779.853;14539.646;  -14.116;20508.623
780.422;14100.503;  -11.506;20649.082
780.991;13713.854;   -9.556;21527.520
781.560;13458.739;   -9.095;22632.658
782.129;13061.564;  -12.135;23048.277
782.698;12990.106;  -10.865;23438.555
783.267;12873.719;   -9.335;23267.734
783.836;13085.091;  -11.045;22415.133
784.404;13903.491;  -13.865;20443.152
784.973;13360.331;  -13.095;19699.150
785.542;12080.112;  -11.575;19763.828
786.111;11379.069;   -9.705;20341.408
786.679;11928.476;  -12.105;20207.967
787.248;12210.418;  -12.455;19516.465
787.817;11532.117;  -11.535;18900.363
788.385;11630.609;   -9.765;17879.121
788.954;12115.493;  -14.005;17658.301
789.522;11757.871;  -11.955;17788.879
790.090;11750.548;  -10.135;18118.277
790.659;12790.447;  -10.975;18338.736
791.227;12942.215;  -13.375;18508.615
791.795;12296.857;  -12.375;17898.254
792.364;11742.629;  -10.725;17295.133
792.932;11691.645;   -9.715;16822.051
793.500;11745.363;  -12.675;17040.148
794.068;11355.375;  -13.495;17179.787
794.636;10140.191;  -10.885;16664.246
795.204; 9111.405;  -11.045;16524.545
795.772; 9735.522;  -13.175;17274.564
796.340;11163.024;  -12.445;17891.002
796.908;10940.238;   -9.735;17648.561
797.476;10886.047;   -9.815;17064.080
798.044;11339.645;  -13.985;16672.777
798.612;11107.369;  -13.115;17023.996
799.180;10049.837;  -10.185;16561.615
799.747; 8940.127;   -9.055;15962.773
800.315; 8192.287;  -12.385;15296.992
800.883; 8526.172;  -15.035;14801.771
801.450; 9214.315;  -10.365;14534.430
802.018; 9564.462;   -9.855;14173.248
802.585; 9946.590;  -11.905;14029.547
803.153; 9582.971;  -11.585;13836.846
803.720; 8804.139;   -9.095;13567.324
804.287; 8973.017;   -9.135;13360.622
804.855; 9623.756;  -11.604;13681.981
805.422; 9692.670;  -11.794;13536.560
805.989; 9178.601;  -10.734;13355.958
806.556; 8618.579;  -10.444;13747.896
807.124; 8460.963;  -12.764;13987.376
807.691; 9025.853;  -12.964;14038.674
808.258; 9304.719;  -11.134;14120.152
808.825; 9278.396;   -9.854;13860.111
809.392; 8819.696;  -10.504;13268.790
809.959; 8207.191;  -13.054;12680.389
810.526; 7914.044;   -8.294;12427.308
811.093; 7760.133;   -8.394;12030.105
811.659; 7276.278;  -12.304;11653.664
812.226; 7044.551;  -13.944;11637.183
812.793; 7523.503;  -10.484;11611.521
813.360; 7744.345;  -10.144;11885.181
813.926; 7220.285;  -11.684;12770.539
814.493; 6559.696;  -13.644;12677.638
815.060; 6370.063;   -9.724;11974.336
815.626; 6602.478;   -9.854;11594.715
816.193; 6616.562;  -13.254;11579.474
816.759; 6495.868;  -13.204;11666.972
817.325; 6426.781;   -9.434;11325.530
817.892; 6293.292;  -10.134;11105.369
818.458; 6281.043;  -13.474;10843.928
819.024; 6066.186;  -11.854;10714.406
819.591; 6142.627;  -10.244;10469.165
820.157; 6308.148;  -10.704;10235.523
820.723; 6661.609;  -12.324;10847.563
821.289; 7138.282;   -9.444;11040.980
821.855; 7164.496;   -8.374;10357.100
822.421; 6801.300;  -10.234; 9978.918
822.987; 6598.239;  -13.294; 9754.177
823.553; 6620.233;  -10.884;10065.755
824.119; 6317.354;   -8.884;10036.294
824.685; 6118.288;   -6.784;10029.192
825.251; 6034.672;  -12.004;10199.230
825.816; 6266.553;  -11.474; 9820.189
826.382; 6215.439;   -9.174; 9297.248
826.948; 5830.172;   -9.214; 9381.347
827.513; 5432.500;  -10.774; 9450.726
828.079; 5283.363;  -11.924; 9472.444
828.645; 5233.537;  -10.543; 9292.643
829.210; 5244.303;  -10.533; 9065.341
829.776; 5274.585;  -10.753; 9132.620
830.341; 5332.036;  -10.173; 9092.878
830.906; 5533.240;  -10.743; 9078.557
831.472; 5599.055;  -11.113; 8534.535
832.037; 5128.867;  -10.603; 8677.874
832.602; 4904.031;  -13.323; 8628.692
833.167; 5186.309;  -10.823; 8879.031
833.733; 5172.233;  -10.113; 9189.790
834.298; 5019.426;  -13.583; 9052.608
834.863; 4927.708;  -12.703; 8895.087
835.428; 4763.016;  -10.523; 8824.266
835.993; 4605.023;   -6.963; 8845.385
836.558; 4613.772;  -10.763; 8888.563
837.123; 4757.390;   -9.903; 8966.582
837.688; 4670.815;   -9.913; 8617.860
838.253; 4616.006;  -10.283; 8590.699
838.817; 4819.247;  -12.963; 8443.797
839.382; 5021.921;  -14.243; 8799.356
839.947; 4803.031;  -10.733; 8810.595
840.511; 4662.862;   -9.383; 8796.394
841.076; 4706.404;  -12.563; 8347.231
841.641; 4560.713;  -12.953; 8224.330
842.205; 4239.674;   -7.043; 8223.349
842.770; 4163.963;   -8.163; 8622.107
843.334; 4258.006;  -12.503; 8410.386
843.898; 4323.500;  -11.693; 8337.465
844.463; 4254.162;  -10.203; 8506.283
845.027; 4119.426;   -9.533; 8280.962
845.591; 4162.488;  -13.443; 8231.141
846.156; 4110.328;  -13.143; 7969.179
846.720; 3868.032;   -9.433; 7768.278
847.284; 3451.322;  -11.033; 7630.957
847.848; 3263.017;  -10.403; 7472.395
848.412; 3409.545;  -11.553; 7437.394
848.976; 3683.586;   -8.393; 7674.592
849.540; 3796.278;   -8.713; 7836.011
850.104; 3765.367;  -12.463; 7913.669
850.668; 3804.324;  -12.973; 7694.508
851.232; 3772.306;  -10.793; 7756.887
851.796; 3694.169;  -10.662; 7926.545
852.359; 3741.179;  -13.082; 7827.844
852.923; 3532.915;  -12.192; 7641.163
853.487; 3379.520;  -11.912; 7342.501
854.050; 3498.111;  -10.892; 7042.820
854.614; 3453.602;  -13.992; 7151.338
855.177; 3280.677;  -11.732; 7105.077
855.741; 3221.238;   -8.962; 6989.675
856.304; 3205.632;   -9.442; 6596.634
856.868; 3051.803;  -14.192; 6356.272
857.431; 2888.073;  -12.702; 6468.571
857.995; 2970.002;   -9.942; 6373.210
858.558; 3021.592;   -9.112; 6324.448
859.121; 2755.282;  -12.932; 6408.327
859.684; 2524.345;  -13.442; 6347.886
860.247; 2797.863;  -10.632; 6321.264
860.810; 3220.271;  -11.272; 6301.903
861.374; 3319.643;   -9.832; 6607.881
861.937; 3306.435;  -11.762; 6408.200
862.500; 3238.646;   -9.722; 6572.639
863.062; 2916.751;  -10.512; 6387.297
863.625; 2676.939;  -11.232; 6190.836
864.188; 2601.943;  -14.112; 5807.254
864.751; 2559.459;  -11.302; 5682.413
865.314; 2718.402;  -10.112; 5547.492
865.876; 2919.532;  -12.182; 5500.150
866.439; 2964.876;  -10.722; 5415.909
867.002; 2837.208;   -9.252; 5501.567
867.564; 2696.948;   -9.572; 5413.946
868.127; 2568.696;  -13.142; 5160.325
868.689; 2297.852;  -12.902; 5133.183
869.252; 2080.372;   -9.732; 5252.382
869.814; 2057.672;   -9.432; 5297.141
870.377; 2224.717;  -11.552; 5390.919
870.939; 2276.253;   -9.052; 5599.898
871.501; 2192.236;  -10.982; 5248.336
872.063; 2223.566;  -12.292; 4854.235
872.626; 2226.963;  -14.912; 4817.074
873.188; 2310.497;  -13.112; 4987.732
873.750; 2394.973;  -13.442; 4868.651
874.312; 2510.490;   -9.402; 4779.330
874.874; 2661.049;  -11.062; 4866.348
875.436; 2377.166;  -13.931; 4718.887
875.998; 1712.261;   -9.561; 4660.005
876.560; 1207.959;  -11.321; 4462.964
877.122;  987.958;  -12.221; 4145.042
877.683;  945.550;  -12.191; 4056.481
878.245; 1088.155;  -12.101; 3950.740
878.807; 1297.819;   -8.971; 4058.958
879.369; 1398.854;  -12.071; 3954.677
879.930; 1393.487;  -14.621; 3941.495
880.492; 1332.774;  -10.311; 4067.014
881.053; 1252.142;  -10.901; 3859.633
881.615; 1252.883;  -14.411; 3776.071
882.176; 1286.092;  -13.761; 3734.750
882.738; 1321.569;   -9.181; 3678.489
883.299; 1309.448;  -11.791; 3405.407
883.860; 1242.725;  -13.121; 3351.106
884.422; 1158.180;  -11.211; 3394.044
884.983; 1108.770;  -10.091; 3166.443
885.544; 1101.546;   -8.461; 3189.802
886.105; 1061.650;  -12.361; 3160.360
886.666; 1010.376;  -14.141; 3093.059
887.227;  994.881;  -11.361; 2941.957
887.788; 1010.360;  -11.401; 2974.836
888.349;  973.996;  -13.791; 2721.214
888.910;  885.706;  -13.191; 2696.493
889.471;  788.911;   -9.881; 2560.172
890.032;  719.234;   -9.881; 2558.190
890.593;  708.647;  -10.371; 2567.669
891.153;  708.431;  -13.301; 2460.307
891.714;  650.481;  -11.431; 2372.046
892.275;  603.227;  -11.291; 2309.505
892.835;  602.653;  -11.471; 2382.543
893.396;  597.295;  -11.541; 2295.502
893.956;  576.067;  -11.181; 2162.420
894.517;  540.955;  -11.741; 2125.439
895.077;  487.911;  -11.671; 2086.978
895.638;  444.339;  -11.311; 2126.316
896.198;  430.796;   -9.831; 1838.275
896.758;  428.897;   -8.421; 1892.813
897.319;  416.164;  -12.351; 1792.232
897.879;  394.992;  -13.511; 1762.751
898.439;  372.474;  -12.001; 1661.149
898.999;  352.312;  -10.180; 1781.468
899.559;  336.422;  -12.030; 1703.347
900.119;  332.627;  -15.710; 1537.525
900.679;  320.309;   -8.900; 1638.384
901.239;  294.771;   -8.340; 1527.902
901.799;  275.735;  -13.910; 1456.441
902.359;  264.685;  -13.460; 1357.140
902.919;  259.705;  -11.490; 1331.118
903.479;  258.346;  -12.110; 1317.257
904.038;  251.180;  -11.720; 1262.595
904.598;  236.246;  -13.610; 1152.034
905.158;  222.670;  -11.040; 1240.893
905.717;  215.692;  -10.900; 1233.691
906.277;  211.237;  -15.080; 1217.330
906.836;  207.574;  -13.380; 1222.408
907.396;  205.388;  -10.780; 1193.047
907.955;  199.143;   -8.500; 1182.526
908.515;  192.505;  -12.760; 1099.364
909.074;  188.886;  -11.900; 1092.863
909.633;  185.556;   -8.950; 1069.121
910.192;  182.399;   -8.770; 1196.460
910.752;  176.875;  -12.390; 1029.960
911.311;  172.083;  -13.680; 1009.780
911.870;  169.174;  -12.370;  971.460
912.429;  165.700;  -10.900; 1094.080
912.988;  164.090;  -11.690; 1081.060
913.547;  160.442;  -13.240;  940.380
914.106;  157.979;  -11.990;  999.420
914.665;  158.318;   -9.990;  984.020
915.224;  156.723;  -12.880; 1035.760
915.782;  156.629;  -12.350;  922.560
916.341;  156.106;   -9.110; 1049.840
916.900;  153.419;   -9.270;  925.260
917.458;  148.437;  -13.240;  884.220
918.017;  144.063;  -13.550;  942.600
918.576;  141.742;  -12.320;  904.440
919.134;  141.665;  -11.490;  837.980
919.693;  140.802;  -13.670;  893.060
920.251;  140.617;  -15.470;  876.500
920.809;  140.749;  -11.290;  839.580
921.368;  141.129;  -10.210;  885.360
921.926;  140.257;  -12.140;  842.940
922.484;  139.899;  -13.080;  903.360
923.042;  140.137;  -11.720;  880.340
923.601;  141.945;   -7.480;  998.680
924.159;  140.744;  -11.570;  935.560
924.717;  140.104;  -13.840;  841.080
925.275;  141.578;  -10.640;  903.240
925.833;  140.559;  -11.540;  779.320
926.391;  140.792;  -12.960;  938.380
926.949;  140.101;  -14.130;  857.680
927.506;  141.068;  -11.750;  903.500
928.064;  139.991;  -10.250;  877.580
928.622;  138.775;  -13.030;  880.100
929.180;  139.693;  -13.400;  814.180
929.737;  140.931;  -10.700;  808.540
930.295;  143.114;  -10.070;  928.480
930.853;  142.978;  -11.960;  849.100
931.410;  142.239;  -13.120;  821.120
931.968;  142.494;  -10.770;  940.660
932.525;  143.252;  -10.680;  909.380
933.082;  146.061;  -13.130;  811.440
933.640;  152.702;  -13.210;  925.900
934.197;  154.219;  -11.060;  886.360
934.754;  155.393;   -9.580;  897.780
935.312;  156.023;  -14.000;  863.340
935.869;  159.349;  -10.710; 1012.980
936.426;  158.404;   -9.860;  872.800
936.983;  157.358;   -9.710;  889.020
937.540;  155.452;  -13.990;  838.280
938.097;  154.476;  -14.040;  940.120
938.654;  156.463;  -10.310;  898.860
939.211;  156.928;  -10.560;  952.480
939.768;  154.962;  -13.900;  915.420
940.324;  155.302;  -14.760;  904.200
940.881;  159.059;  -10.370;  878.500
941.438;  164.268;   -8.260; 1021.200
941.995;  164.533;  -12.540;  992.560
942.551;  163.624;  -14.670;  875.620
943.108;  164.654;  -10.450;  937.920
943.664;  166.243;  -10.750;  869.340
944.221;  170.793;  -11.550; 1088.140
944.777;  171.465;  -14.770;  869.680
945.334;  173.709;  -12.820;  884.840
945.890;  173.087;  -10.130;  946.480
946.446;  171.388;  -13.470;  947.020
947.003;  172.825;  -12.120;  964.940
947.559;  173.232;   -9.980; 1063.040
948.115;  171.667;   -9.080; 1026.540
948.671;  168.814;  -10.830;  967.300
949.227;  164.416;  -12.440;  859.560
949.783;  162.484;  -12.910;  858.900
950.339;  163.639;  -10.270;  991.000
950.895;  164.510;  -13.630; 1023.840
951.451;  163.205;  -15.100;  925.280
952.007;  162.091;  -11.330;  998.540
952.563;  161.822;  -10.580;  937.780
953.118;  158.296;  -13.440;  904.940
953.674;  154.785;  -12.710;  935.780
954.230;  155.174;  -10.350;  949.640
954.785;  157.412;   -9.190;  936.640
955.341;  158.471;  -11.200;  998.160
955.897;  154.749;  -16.560;  834.660
956.452;  152.176;  -12.570;  953.840
957.008;  149.946;   -7.970; 1083.640
957.563;  149.047;  -11.940; 1009.540
958.118;  148.857;  -13.450;  877.700
958.674;  148.776;  -12.030;  946.780
959.229;  149.405;   -9.410; 1013.980
959.784;  147.012;  -12.000;  832.400
960.339;  142.934;  -14.780; 1001.280
960.894;  136.844;   -9.860;  963.760
961.449;  131.623;   -9.970;  859.960
962.004;  131.128;  -10.900; 1212.840
962.559;  124.956;  -13.150;  860.140
963.114;  121.795;  -13.740;  742.480
963.669;  125.750;   -9.820;  915.500
964.224;  127.091;  -13.890;  874.340
964.779;  126.267;  -12.600;  828.420
965.334;  126.362;  -10.950; 1017.860
965.888;  122.121;  -11.170;  875.360
966.443;  121.471;  -12.540;  972.380
966.998;  121.355;  -15.780;  819.460
967.552;  122.597;   -9.760;  908.380
968.107;  117.862;   -9.060;  868.300
968.661;  116.265;  -11.950;  922.440
969.216;  114.212;  -12.800;  856.280
969.770;  114.179;  -11.210;  917.200
970.324;  113.492;  -11.610;  923.140
970.879;  110.441;  -11.370;  947.180
971.433;  110.139;  -12.540;  952.720
971.987;  108.278;  -11.320;  895.340
972.541;  107.253;  -10.720;  917.100
973.095;  108.706;   -9.680; 1009.460
973.649;  108.392;  -11.440;  809.480
974.203;  107.853;  -11.210;  829.040
974.757;  107.701;  -10.240;  855.220
975.311;  107.365;  -13.720;  872.600
975.865;  107.385;  -13.770;  881.820
976.419;  107.024;  -11.690;  857.400
976.973;  107.409;   -9.510;  849.620
977.526;  107.679;  -12.620;  949.920
978.080;  102.871;  -12.010;  796.780
978.634;  101.555;  -10.170;  921.320
979.187;   98.408;   -9.020;  905.400
979.741;   97.603;   -9.820; 1018.380
980.294;   93.632;  -14.870;  789.160
980.848;   91.095;  -12.380;  717.220
981.401;   90.874;  -10.350;  816.540
981.955;   91.130;  -13.720;  844.300
982.508;   88.666;  -11.490;  746.340
983.061;   88.072;  -10.000;  915.260
983.615;   85.965;  -11.480;  798.800
984.168;   85.797;  -13.220;  770.080
984.721;   85.721;  -13.960;  880.760
985.274;   83.470;  -10.870;  867.500
985.827;   81.783;   -9.790;  834.220
986.380;   80.765;  -13.120;  721.340
986.933;   81.362;  -12.450;  864.800
987.486;   80.104;  -10.210;  861.920
988.039;   80.255;   -8.430;  863.100
988.591;   77.680;  -10.520;  893.260
989.144;   74.659;  -14.860;  737.260
989.697;   72.449;  -13.080;  758.740
990.250;   71.662;  -10.150;  858.100
990.802;   69.525;  -13.430;  755.860
991.355;   68.802;  -12.750;  974.880
991.907;   65.894;  -12.040;  864.320
992.460;   62.986;  -11.330;  753.760
993.012;   62.474;  -13.610;  749.540
993.565;   60.922;  -13.460;  711.360
994.117;   62.779;   -9.360;  950.780
994.669;   59.750;  -11.300;  701.320
995.221;   59.823;  -13.540;  791.920
995.774;   59.080;  -13.430;  787.580
996.326;   57.720;  -12.520;  740.220
996.878;   58.146;  -10.950;  838.420
997.430;   56.042;  -14.300;  699.860
997.982;   55.305;  -13.760;  750.140
998.534;   54.159;  -11.530;  739.060
999.086;   53.153;  -10.310;  738.220
999.638;   52.352;  -12.530;  661.380
1000.190;   50.979;  -11.840;  699.320
1000.741;   50.387;  -10.260;  742.700
1001.293;   50.340;   -8.860;  686.020
1001.845;   49.985;  -13.700;  676.640
1002.396;   50.035;  -12.100;  743.400
1002.948;   49.527;  -12.760;  737.400
1003.500;   48.136;  -10.380;  723.780
1004.051;   49.002;  -11.900;  907.580
1004.603;   46.996;  -12.250;  791.820
1005.154;   43.185;  -13.210;  608.980
1005.705;   43.266;  -10.950;  723.960
1006.257;   42.566;  -13.880;  707.220
1006.808;   42.141;  -12.840;  685.460
1007.359;   41.760;  -10.570;  763.240
1007.910;   40.470;   -9.620;  646.640
1008.461;   39.737;  -13.630;  732.940
1009.013;   39.222;  -17.200;  588.340
1009.564;   40.025;  -10.200;  793.520
1010.115;   37.714;  -12.570;  597.040
1010.665;   38.134;  -15.150;  602.160
1011.216;   37.842;  -14.480;  667.920
1011.767;   37.760;  -11.340;  697.920
1012.318;   37.725;   -9.780;  736.980
1012.869;   36.263;  -12.380;  679.000
1013.419;   36.349;  -15.560;  603.120
1013.970;   36.171;  -11.010;  666.640
1014.521;   35.293;  -11.610;  620.620
1015.071;   36.376;  -13.450;  670.380
1015.622;   35.936;  -13.870;  635.460
1016.172;   34.256;  -11.610;  596.820
1016.723;   33.966;  -12.120;  614.380
1017.273;   35.006;  -13.620;  604.160
1017.823;   34.583;  -14.140;  650.340
1018.374;   33.867;  -12.800;  611.760
1018.924;   33.919;  -12.340;  716.880
1019.474;   34.141;  -11.410;  718.880
1020.024;   32.009;  -14.770;  657.580
1020.574;   32.761;   -9.780;  726.160
1021.124;   33.437;   -8.560;  673.580
1021.674;   31.708;  -15.190;  559.120
1022.224;   33.442;  -13.530;  708.940
1022.774;   32.557;  -13.280;  668.820
1023.324;   33.250;  -10.690;  753.520
1023.874;   34.605;  -10.240;  875.760
1024.423;   31.554;  -12.540;  613.700
1024.973;   31.104;  -10.010;  610.760
1025.523;   30.018;  -10.550;  620.960
1026.072;   29.855;  -13.560;  606.420
1026.622;   30.351;  -15.120;  675.740
1027.172;   30.708;  -11.260;  715.660
1027.721;   29.856;  -11.410;  601.220
1028.270;   29.934;  -13.530;  663.400
1028.820;   29.805;  -13.680;  638.080
1029.369;   29.439;  -13.520;  612.700
1029.918;   29.900;  -10.980;  649.840
1030.468;   29.074;  -13.530;  564.780
1031.017;   29.686;  -13.170;  634.800
1031.566;   27.411;  -12.200;  608.900
1032.115;   28.941;   -9.960;  694.500
1032.664;   27.651;  -13.210;  596.480
1033.213;   28.721;  -12.500;  735.420
1033.762;   27.326;  -11.910;  635.620
1034.311;   27.368;   -9.640;  677.220
1034.860;   29.257;  -13.310;  691.000
1035.408;   28.051;  -11.830;  722.720
1035.957;   28.214;  -12.000;  719.540
1036.506;   26.192;  -11.690;  530.800
1037.055;   28.893;  -10.990;  844.320
1037.603;   26.834;  -15.120;  664.000
1038.152;   25.332;  -12.450;  534.760
1038.700;   26.016;  -10.560;  585.740
1039.249;   26.295;  -11.080;  681.220
1039.797;   26.188;  -12.540;  633.360
1040.345;   25.880;  -11.920;  705.420
1040.894;   25.950;  -11.410;  625.300
1041.442;   25.178;  -14.320;  632.200
1041.990;   24.787;  -16.240;  559.160
1042.538;   23.822;  -11.680;  536.180
1043.087;   24.282;  -10.760;  570.860
1043.635;   25.406;  -11.850;  670.500
1044.183;   24.128;  -15.480;  586.400
1044.731;   24.412;  -11.770;  576.000
1045.279;   22.549;  -13.090;  674.920
1045.827;   26.086;  -12.440;  892.400
1046.374;   22.822;  -13.840;  515.420
1046.922;   22.425;  -13.220;  590.580
1047.470;   24.038;  -10.230;  691.300
1048.018;   23.769;  -14.590;  647.960
1048.565;   24.614;  -12.050;  708.600
1049.113;   22.441;  -11.650;  557.000
1049.660;   22.515;  -10.510;  629.660
1050.208;   22.935;  -13.310;  675.640
1050.755;   22.960;  -15.900;  606.580
1051.303;   22.962;  -11.430;  686.820
1051.850;   22.581;   -8.480;  635.120
1052.397;   20.417;  -15.010;  473.960
1052.945;   20.918;  -13.960;  617.760
1053.492;   22.989;  -13.150;  741.840
1054.039;   22.482;   -9.630;  720.180
1054.586;   21.469;  -13.680;  557.240
1055.133;   22.235;  -14.570;  693.140
1055.680;   21.726;  -13.820;  646.620
1056.227;   21.065;  -11.730;  542.780
1056.774;   22.429;  -12.480;  794.980
1057.321;   20.276;  -13.930;  523.260
1057.868;   20.643;  -11.690;  651.320
1058.415;   20.287;   -9.520;  651.980
1058.961;   20.863;  -13.160;  678.940
1059.508;   20.317;  -12.920;  643.820
1060.055;   20.412;  -11.920;  581.780
1060.601;   20.502;  -11.500;  624.300
1061.148;   20.240;  -14.330;  616.820
1061.694;   19.913;  -16.870;  592.580
1062.241;   20.054;  -10.330;  596.320
1062.787;   19.942;  -10.620;  663.140
1063.334;   21.164;  -10.110;  808.560
1063.880;   19.011;  -13.400;  668.360
1064.426;   19.120;  -10.680;  706.820
1064.972;   19.029;   -9.920;  601.340
1065.518;   17.933;  -10.980;  566.640
1066.065;   19.124;  -14.890;  624.460
1066.611;   17.988;  -12.870;  598.800
1067.157;   18.595;  -12.950;  641.860
1067.703;   18.747;  -13.540;  668.480
1068.249;   18.775;  -13.540;  605.220
1068.794;   17.773;  -12.600;  626.880
1069.340;   16.777;  -10.620;  578.960
1069.886;   18.189;  -12.830;  590.700
1070.432;   16.287;  -14.870;  541.720
1070.977;   16.296;  -11.980;  601.080
1071.523;   16.979;   -8.200;  573.060
1072.068;   17.238;  -12.330;  582.000
1072.614;   16.750;  -16.370;  527.760
1073.160;   17.562;  -11.100;  687.040
1073.705;   16.714;  -10.480;  572.520
1074.250;   16.995;  -14.520;  559.900
1074.796;   17.795;  -11.460;  655.160
1075.341;   17.452;  -11.950;  664.100
1075.886;   16.050;  -11.460;  594.240
1076.431;   15.703;  -13.770;  649.880
1076.976;   15.938;  -12.680;  639.220
1077.521;   15.417;  -13.170;  583.080
1078.067;   15.495;  -10.860;  579.400
1078.612;   16.052;  -13.920;  661.620
1079.156;   15.885;  -13.880;  601.540
1079.701;   15.400;  -13.120;  693.260
1080.246;   16.460;   -9.940;  696.300
1080.791;   16.087;  -14.740;  625.020
1081.336;   15.875;  -13.750;  659.320
1081.880;   15.233;  -13.400;  649.680
1082.425;   13.971;  -12.220;  573.480
1082.970;   16.518;  -11.610;  717.040
1083.514;   14.645;  -13.580;  597.000
1084.059;   14.134;  -12.810;  586.720
1084.603;   13.607;  -12.320;  565.840
1085.147;   14.536;  -13.190;  645.220
1085.692;   15.155;  -12.480;  716.800
1086.236;   13.848;  -13.020;  503.140
1086.780;   15.470;   -9.190;  751.440
1087.325;   13.969;  -12.480;  654.620
1087.869;   14.436;  -12.450;  610.700
1088.413;   13.755;  -12.240;  705.040
1088.957;   12.429;   -9.020;  543.400
1089.501;   14.384;  -10.320;  766.640
1090.045;   14.075;  -12.720;  726.480
1090.589;   11.111;  -13.690;  569.920
1091.133;   13.181;  -10.020;  673.340
1091.676;   13.774;  -12.330;  591.940
1092.220;   12.999;  -14.970;  600.920
1092.764;   14.201;  -12.430;  706.960
1093.307;   13.144;   -9.800;  673.780
1093.851;   12.248;  -14.970;  556.540
1094.395;   13.329;  -15.310;  683.140
1094.938;   12.170;  -10.370;  632.520
1095.482;   11.719;  -11.050;  559.800
1096.025;   13.518;  -11.840;  710.880
1096.568;   12.680;  -12.840;  779.280
1097.112;   10.148;  -14.700;  508.180
1097.655;   12.120;   -8.720;  603.000
1098.198;   10.534;  -13.610;  600.180
1098.741;   11.047;  -13.350;  612.860
1099.285;   11.827;  -11.230;  657.300
1099.828;    9.487;  -11.840;  439.400
1100.371;   11.170;  -10.840;  608.160
1100.914;   11.673;  -14.190;  682.660
1101.457;   11.385;  -11.240;  679.900
1101.999;    9.679;  -11.270;  584.680
1102.542;   10.563;  -11.480;  641.440
1103.085;   10.492;  -11.750;  658.500
1103.628;   11.022;  -11.400;  762.060
1104.170;    9.637;  -10.490;  588.280
1104.713;   11.005;  -10.600;  646.700
1105.256;    8.767;  -14.360;  557.440
1105.798;    9.350;  -13.210;  499.980
1106.341;   10.525;  -10.270;  728.900
1106.883;    9.027;  -12.200;  521.340
1107.425;    9.888;  -13.110;  668.180
1107.968;    8.752;  -12.840;  612.380
1108.510;   10.017;   -6.480;  684.960
1109.052;    8.184;  -13.940;  612.620
1109.594;    8.943;  -13.690;  554.440
1110.136;    9.061;  -11.880;  643.220
1110.679;    8.232;   -9.500;  633.080
1111.221;    9.676;  -14.160;  604.460
1111.763;    7.978;  -13.980;  559.220
1112.304;    7.984;  -13.880;  547.140
1112.846;    8.753;  -12.210;  666.240
1113.388;   11.919;  -11.390;  942.180
1113.930;    8.958;  -14.540;  694.200
1114.472;    7.419;  -12.640;  606.540
1115.013;    6.500;  -11.620;  551.280
1115.555;    7.384;  -13.640;  587.100
1116.097;    6.733;  -15.380;  579.480
1116.638;    8.094;  -12.640;  684.600
1117.180;    7.540;   -9.850;  667.740
1117.721;    7.698;  -13.690;  568.580
1118.262;    8.209;  -12.680;  677.960
1118.804;    7.953;  -12.530;  637.340
1119.345;    6.713;  -11.690;  578.400
1119.886;    7.560;  -13.380;  704.040
1120.427;    7.139;  -14.070;  589.020
1120.969;    6.093;  -13.500;  597.920
1121.510;    5.586;  -11.480;  563.060
1122.051;    6.475;  -12.830;  723.580
1122.592;    5.877;  -14.290;  655.420
1123.133;    4.996;  -12.400;  547.940
1123.673;    6.828;  -10.130;  706.480
1124.214;    6.275;  -12.930;  612.460
1124.755;    7.170;  -14.380;  639.460
1125.296;    6.428;  -14.000;  627.320
1125.836;    7.519;  -10.070;  691.500
1126.377;    5.637;  -12.640;  599.660
1126.918;    6.336;  -12.960;  614.980
1127.458;    5.091;  -13.350;  622.220
1127.999;    5.997;  -10.750;  656.980
1128.539;    6.113;  -12.350;  694.240
1129.079;    5.321;  -14.860;  632.720
1129.620;    4.286;  -13.840;  558.100
1130.160;    5.378;  -12.330;  539.480
1130.700;    5.934;  -14.530;  640.840
1131.240;    6.226;  -12.530;  643.700
1131.781;    4.876;  -14.450;  619.680
1132.321;    4.761;   -9.790;  599.120
1132.861;    4.339;  -14.860;  564.200
1133.401;    3.633;  -14.290;  593.940
1133.941;    4.565;  -11.750;  626.280
1134.481;    4.163;   -9.920;  597.580
1135.020;    4.221;  -12.290;  609.160
1135.560;    4.320;  -11.650;  674.940
1136.100;    3.171;  -16.270;  501.160
1136.640;    3.423;  -10.890;  510.480
1137.179;    3.789;  -14.180;  537.960
1137.719;    4.397;  -16.250;  605.400
1138.258;    3.362;  -14.230;  587.360
1138.798;    4.035;   -9.090;  663.780
1139.337;    3.001;  -15.130;  482.840
1139.877;    3.483;  -13.680;  642.360
1140.416;    5.790;  -11.320;  878.060
1140.955;    3.091;  -10.860;  535.380
1141.494;    3.826;  -12.920;  669.280
1142.034;    2.874;  -13.930;  583.520
1142.573;    3.894;  -11.440;  646.280
1143.112;    2.779;  -12.000;  553.480
1143.651;    2.913;  -13.670;  536.480
1144.190;    3.614;  -12.730;  691.640
1144.729;    2.802;  -14.560;  607.420
1145.267;    3.182;  -11.830;  584.900
1145.806;    3.785;  -12.230;  637.040
1146.345;    2.953;  -14.130;  635.020
1146.884;    2.339;  -11.590;  622.500
1147.422;    1.596;  -12.550;  533.060
1147.961;    3.857;  -11.180;  708.460
1148.500;    3.257;  -11.510;  669.720
1149.038;    3.260;  -11.640;  632.500
1149.577;    2.831;  -10.130;  698.640
1150.115;    1.232;  -13.970;  452.280
1150.653;    2.523;  -14.520;  607.340
1151.192;    2.557;  -12.810;  552.920
1151.730;    2.528;   -9.100;  652.560
1152.268;    1.212;  -12.220;  589.520
1152.806;    1.613;  -14.140;  571.180
1153.344;    0.398;  -12.350;  577.640
1153.882;    2.179;   -8.980;  600.060
1154.421;    0.650;  -15.190;  470.620
1154.958;    0.818;  -15.210;  595.240
1155.496;    2.314;  -12.850;  645.280
1156.034;    2.143;   -9.940;  721.880
1156.572;    2.350;  -13.570;  667.060
1157.110;    1.044;  -14.590;  473.940
1157.647;    1.938;  -13.030;  676.960
1158.185;    0.806;  -12.140;  564.320
1158.723;    0.180;  -14.390;  509.200
1159.260;    1.054;  -14.090;  701.700
1159.798;    1.423;  -11.920;  658.160
1160.335;    0.283;  -11.110;  631.820

