
Integration time [ms]:   3.276
Averaging Nr. [scans]: 1000
Smoothing Nr. [pixels]: 0
Data measured with spectrometer [name]: 7414430SP
Wave   ;Sample   ;Dark     ;Reference
[nm]   ;[counts] ;[counts] ;[counts] 

288.544;  147.864;    7.793;  793.890
289.143;  150.672;    7.462;  681.602
289.742;  151.263;    8.602;  828.814
290.341;  136.379;    1.321;  789.841
290.940;  125.019;   -0.709;  730.702
291.538;  126.340;    0.881;  881.108
292.137;  127.398;    0.122;  792.581
292.736;  132.167;   -1.929;  975.101
293.335;  129.034;   -8.229;  735.086
293.934;  128.839;   -5.279;  781.677
294.532;  127.259;   -1.369; 1031.958
295.131;  113.978;   -7.641;  834.394
295.730;  114.356;   -8.420;  809.588
296.328;  113.735;   -5.611;  783.442
296.927;  114.209;   -5.781;  779.652
297.525;  114.852;   -6.361;  781.236
298.124;  103.936;  -11.382;  654.009
298.722;  108.085;   -7.641;  761.933
299.321;  106.412;   -6.811;  708.597
299.919;  105.193;   -6.991;  751.918
300.518;  101.871;  -10.362;  689.338
301.116;  102.874;   -9.581;  691.381
301.715;  101.970;   -4.891;  730.222
302.313;  102.008;   -8.801;  704.943
302.911;   98.352;   -8.522;  733.830
303.509;  102.607;   -6.171;  925.627
304.108;  100.176;   -7.311;  760.383
304.706;   99.253;   -8.321;  801.664
305.304;   95.046;  -10.222;  796.707
305.902;   99.615;   -6.021;  784.484
306.500;   95.271;   -4.971;  728.200
307.098;   93.641;   -7.061;  746.560
307.696;   92.933;   -8.801;  780.432
308.294;   92.502;   -6.411;  731.359
308.892;   94.355;   -2.901;  759.769
309.490;   90.920;   -5.041;  712.161
310.088;   89.726;   -5.002;  788.444
310.686;   93.045;   -2.041;  821.749
311.284;   89.405;   -2.351;  766.040
311.882;   86.778;   -4.422;  731.225
312.480;   83.407;   -4.192;  697.167
313.078;   85.192;   -1.172;  808.331
313.675;   85.820;   -2.601;  691.600
314.273;   81.094;   -1.312;  797.837
314.871;   80.429;   -3.942;  589.829
315.468;   78.356;   -2.802;  652.090
316.066;   80.819;   -0.701;  694.427
316.664;   74.018;   -4.362;  656.351
317.261;   78.274;   -2.872;  910.128
317.859;   74.324;   -2.022;  768.735
318.456;   73.805;   -0.531;  830.096
319.054;   70.518;   -3.912;  787.828
319.651;   68.968;   -4.752;  759.928
320.249;   67.992;   -2.602;  810.188
320.846;   65.157;   -0.821;  714.286
321.443;   62.952;   -4.642;  832.135
322.041;   60.407;   -5.002;  812.315
322.638;   57.161;   -3.982;  701.456
323.235;   59.102;   -3.411;  665.683
323.833;   56.909;   -7.361;  740.354
324.430;   52.603;   -8.611;  615.900
325.027;   53.131;   -4.061;  876.855
325.624;   52.249;   -4.031;  644.532
326.221;   51.125;   -7.481;  689.717
326.818;   49.332;   -5.281;  818.332
327.415;   53.285;   -7.460;  748.828
328.012;   53.083;   -5.510;  690.585
328.609;   51.142;   -7.880;  731.389
329.206;   49.237;   -8.331;  778.621
329.803;   49.196;   -5.121;  737.841
330.400;   51.290;   -4.510;  704.260
330.997;   54.203;   -6.441;  817.147
331.594;   52.830;   -8.831;  788.185
332.191;   57.447;   -7.621;  728.722
332.787;   60.656;   -4.591;  844.463
333.384;   59.690;   -7.412;  763.093
333.981;   56.439;   -8.293;  815.687
334.578;   59.346;   -7.052;  708.378
335.174;   60.810;   -3.102;  731.469
335.771;   61.255;   -5.943;  836.456
336.367;   58.775;   -7.393;  710.631
336.964;   62.399;   -4.063;  793.266
337.561;   60.464;   -3.813;  731.112
338.157;   56.490;   -4.654;  911.916
338.754;   53.145;   -7.934;  796.589
339.350;   51.520;   -4.414;  722.493
339.946;   54.404;   -4.664;  773.135
340.543;   46.119;   -6.375;  846.136
341.139;   41.593;   -9.815;  720.836
341.735;   38.395;   -4.526;  772.593
342.332;   37.956;   -4.895;  691.472
342.928;   37.693;   -4.295;  795.394
343.524;   32.864;   -5.476;  761.684
344.120;   28.965;   -5.856;  738.562
344.716;   31.748;   -2.155;  723.717
345.313;   30.428;   -6.275;  795.342
345.909;   25.086;   -8.815;  627.336
346.505;   26.016;   -5.305;  740.247
347.101;   27.073;   -2.674;  827.864
347.697;   27.032;   -4.344;  785.398
348.293;   21.418;   -9.975;  627.244
348.889;   22.995;   -5.774;  745.914
349.485;   22.181;   -5.004;  688.205
350.081;   21.968;   -4.704;  772.592
350.676;   18.417;   -6.635;  691.606
351.272;   21.785;   -4.504;  809.530
351.868;   21.981;   -3.914;  780.497
352.464;   19.363;   -9.044;  723.932
353.059;   15.819;   -8.314;  646.017
353.655;   18.190;   -7.024;  777.063
354.251;   19.553;   -5.343;  759.845
354.846;   14.628;   -8.604;  740.646
355.442;   12.921;   -6.945;  753.071
356.038;   14.269;   -7.564;  751.708
356.633;   14.227;   -5.814;  728.594
357.229;   12.188;   -7.364;  724.757
357.824;   11.234;   -8.024;  703.600
358.420;    9.916;   -9.384;  679.726
359.015;   10.709;   -5.104;  695.357
359.610;   11.355;   -6.854;  763.920
360.206;    5.900;  -10.185;  603.240
360.801;    8.557;   -7.054;  646.503
361.396;    9.939;   -5.034;  725.975
361.992;    6.964;   -8.284;  668.220
362.587;    3.810;   -8.625;  670.160
363.182;    6.289;   -7.674;  689.631
363.777;    5.345;   -5.164;  738.242
364.372;    6.559;   -8.604;  737.314
364.967;    2.244;   -9.055;  680.744
365.563;    6.443;   -6.114;  815.567
366.158;    3.464;   -5.814;  685.161
366.753;    3.925;   -7.854;  649.263
367.348;    2.137;   -7.804;  746.056
367.942;    1.940;   -7.954;  697.298
368.537;    1.011;   -4.984;  754.245
369.132;    0.950;   -8.564;  703.428
369.727;   -2.097;   -8.855;  638.079
370.322;   -1.063;   -6.245;  580.186
370.917;   -1.411;   -6.425;  710.646
371.511;    2.151;   -6.294;  861.834
372.106;   -2.212;   -7.685;  776.964
372.701;   -5.508;   -7.335;  585.988
373.296;    0.448;   -4.564;  863.135
373.890;   -4.232;  -10.235;  647.840
374.485;   -5.853;   -7.885;  691.199
375.079;   -2.793;   -7.324;  738.685
375.674;   -0.665;   -3.494;  812.970
376.268;   -4.904;   -8.525;  691.759
376.863;  -11.686;  -10.086;  580.327
377.457;   -5.348;   -7.025;  662.490
378.052;   -7.050;   -3.585;  764.884
378.646;   -7.305;   -7.595;  741.167
379.240;   -7.542;   -8.335;  721.176
379.835;   -6.937;   -5.785;  636.978
380.429;   -8.806;   -4.335;  562.557
381.023;   -8.452;   -6.805;  779.205
381.617;  -11.731;   -9.195;  680.106
382.212;   -8.245;   -6.905;  685.303
382.806;   -7.113;   -3.745;  760.690
383.400;  -11.342;   -7.745;  672.281
383.994;  -12.041;   -9.765;  664.870
384.588;   -8.248;   -6.564;  697.701
385.182;   -7.271;   -5.344;  726.624
385.776;   -8.881;   -8.514;  706.875
386.370;  -11.774;   -9.555;  681.968
386.964;  -10.795;   -8.715;  684.155
387.558;   -8.566;   -6.174;  598.360
388.152;  -12.581;   -8.725;  681.959
388.745;  -10.290;   -7.965;  814.707
389.339;   -9.467;   -5.924;  747.642
389.933;   -8.238;   -5.524;  695.370
390.527;   -8.533;   -7.114;  859.029
391.120;  -14.610;  -10.725;  595.318
391.714;  -12.139;   -8.035;  711.633
392.308;   -9.285;   -3.574;  780.253
392.901;  -12.546;   -7.245;  642.460
393.495;  -14.472;   -9.285;  595.414
394.089;  -12.460;   -5.895;  760.452
394.682;  -13.013;   -4.295;  697.188
395.275;  -13.546;   -9.875;  719.927
395.869;  -13.582;   -8.485;  667.314
396.462;  -13.255;   -7.455;  616.609
397.056;   -9.592;   -5.424;  776.621
397.649;  -14.190;   -6.605;  731.575
398.242;  -10.980;   -8.224;  712.645
398.836;  -11.634;   -7.474;  766.408
399.429;  -11.367;   -7.094;  631.041
400.022;  -15.387;   -9.475;  665.902
400.615;  -13.005;   -7.145;  805.609
401.208;  -10.946;   -7.174;  691.451
401.802;  -13.101;   -5.515;  699.329
402.395;  -14.386;   -9.875;  683.502
402.988;  -15.782;   -8.845;  696.627
403.581;  -11.963;   -8.874;  646.878
404.174;  -10.657;   -5.324;  686.568
404.767;  -12.627;   -9.575;  638.583
405.360;  -14.998;  -10.965;  621.445
405.953;   -9.922;   -8.764;  759.034
406.545;   -9.767;   -7.514;  725.342
407.138;  -13.178;  -10.025;  618.350
407.731;  -12.312;  -10.034;  613.303
408.324;   -8.063;   -9.374;  660.554
408.917;  -10.168;   -6.534;  681.864
409.509;  -10.880;   -8.004;  740.396
410.102;  -12.879;   -9.875;  643.948
410.695;   -7.193;   -8.604;  665.758
411.287;   -7.593;   -6.794;  599.821
411.880;   -9.595;   -9.334;  585.421
412.472;  -11.703;  -10.254;  613.092
413.065;   -9.214;   -6.714;  629.408
413.657;   -6.697;   -7.234;  576.678
414.250;   -7.385;  -10.544;  646.681
414.842;   -9.030;   -9.744;  676.353
415.434;   -8.122;   -6.994;  570.463
416.027;   -2.926;   -5.893;  652.196
416.619;   -4.914;   -7.264;  713.400
417.211;   -5.347;  -10.374;  599.352
417.804;   -2.220;   -7.993;  628.499
418.396;   -5.904;   -7.234;  607.643
418.988;   -3.329;   -9.443;  659.238
419.580;   -6.033;  -10.724;  568.276
420.172;   -4.250;  -10.323;  536.196
420.764;   -0.573;   -8.793;  672.482
421.356;   -2.488;  -11.143;  636.898
421.948;   -1.955;   -8.293;  677.661
422.540;    2.278;   -7.893;  680.027
423.132;    1.069;   -7.082;  600.641
423.724;   -1.332;   -8.653;  561.267
424.316;    0.080;  -10.213;  621.345
424.908;    3.038;   -9.762;  591.517
425.500;    4.430;   -5.572;  647.978
426.092;    5.231;   -8.422;  648.268
426.683;    4.028;   -9.283;  684.836
427.275;    6.238;   -7.852;  641.471
427.867;    7.434;   -5.272;  668.948
428.458;    8.955;   -7.682;  732.344
429.050;    7.174;  -10.612;  680.749
429.642;    9.208;   -9.882;  743.124
430.233;    9.870;   -6.962;  569.356
430.825;   11.094;   -6.842;  724.809
431.416;    8.699;   -9.672;  698.241
432.008;   11.877;   -6.552;  651.723
432.599;   12.738;   -6.891;  656.073
433.190;    9.639;  -10.912;  637.670
433.782;    9.013;  -11.172;  590.395
434.373;   16.149;   -6.061;  884.765
434.964;   14.986;   -8.251;  602.920
435.556;   12.545;   -9.722;  634.537
436.147;   15.256;   -9.082;  758.490
436.738;   15.369;   -8.041;  701.099
437.329;   20.431;   -7.341;  721.723
437.920;   13.443;   -8.162;  666.688
438.511;   13.785;  -11.802;  564.526
439.103;   20.096;  -10.191;  623.998
439.694;   21.458;   -7.601;  681.583
440.285;   22.515;   -8.541;  764.432
440.876;   21.007;   -9.751;  845.738
441.466;   20.695;   -9.401;  575.162
442.057;   25.071;   -7.760;  665.814
442.648;   24.298;   -9.971;  746.255
443.239;   23.378;  -11.001;  620.477
443.830;   27.804;   -7.990;  704.958
444.421;   28.845;   -7.910;  655.474
445.011;   25.816;   -8.131;  693.619
445.602;   25.099;   -7.111;  743.126
446.193;   26.678;  -10.920;  488.117
446.783;   31.708;   -6.500;  640.397
447.374;   27.408;   -8.671;  692.759
447.964;   27.717;  -10.781;  713.770
448.555;   35.825;   -9.650;  822.742
449.145;   32.224;   -8.660;  662.853
449.736;   33.260;   -8.990;  803.179
450.326;   33.828;   -9.500;  713.626
450.917;   37.959;   -8.680;  675.324
451.507;   36.881;   -7.520;  600.661
452.097;   37.906;   -8.590;  746.267
452.688;   39.352;  -11.340;  742.160
453.278;   38.010;  -10.100;  566.840
453.868;   42.814;   -6.019;  793.550
454.458;   41.104;   -9.440;  651.141
455.048;   41.917;  -10.560;  711.783
455.639;   43.820;  -11.799;  567.096
456.229;   46.483;   -6.899;  710.694
456.819;   47.774;   -7.389;  751.158
457.409;   47.537;  -11.119;  773.993
457.999;   50.531;   -9.289;  737.505
458.589;   51.186;   -6.139;  686.606
459.179;   50.430;   -8.729;  717.658
459.769;   49.382;   -9.789;  627.099
460.358;   54.589;  -10.259;  797.262
460.948;   53.546;   -7.299;  689.503
461.538;   55.910;  -10.289;  660.677
462.128;   52.982;  -11.269;  664.934
462.717;   60.479;   -9.368;  710.326
463.307;   62.775;   -7.908;  705.846
463.897;   58.210;   -9.599;  656.942
464.486;   58.579;   -9.769;  837.128
465.076;   63.132;   -8.048;  733.776
465.666;   65.763;   -9.358;  652.900
466.255;   63.347;   -7.919;  785.651
466.845;   62.731;  -11.689;  666.749
467.434;   65.345;   -7.818;  725.873
468.023;   67.374;   -7.678;  658.357
468.613;   63.904;  -10.939;  713.946
469.202;   68.589;  -10.118;  646.507
469.791;   72.546;   -9.108;  737.811
470.381;   74.520;   -6.058;  742.813
470.970;   74.019;  -10.428;  711.099
471.559;   74.325;  -10.268;  733.291
472.148;   76.767;   -8.448;  675.737
472.738;   79.871;   -6.917;  765.466
473.327;   79.736;  -11.978;  637.529
473.916;   79.358;  -11.888;  737.446
474.505;   83.236;   -9.437;  751.703
475.094;   86.243;   -6.747;  806.570
475.683;   85.487;   -9.367;  797.699
476.272;   86.873;  -12.637;  730.632
476.861;   88.984;  -10.027;  706.754
477.449;   95.166;   -8.716;  728.487
478.038;   90.576;   -9.577;  692.513
478.627;   91.093;   -9.718;  714.852
479.216;   97.978;   -8.947;  769.441
479.805;  101.073;   -6.256;  783.375
480.393;  100.424;   -7.937; 1008.945
480.982;  100.087;   -7.717;  874.501
481.571;  106.747;   -9.266;  858.333
482.159;  106.272;   -7.636;  705.386
482.748;  106.139;   -9.667;  821.385
483.336;  110.644;  -10.376;  858.209
483.925;  111.572;   -7.147;  774.373
484.513;  118.266;   -7.996;  758.962
485.102;  116.157;  -10.027;  810.965
485.690;  124.695;  -10.446; 1011.050
486.278;  126.306;   -8.446;  979.329
486.867;  127.031;   -6.356;  809.662
487.455;  129.290;   -9.136;  898.229
488.043;  130.882;  -10.646;  748.361
488.631;  139.633;   -7.456; 1005.079
489.220;  144.079;   -6.636;  908.626
489.808;  145.306;  -11.036;  741.415
490.396;  154.481;  -10.246;  914.645
490.984;  161.259;   -8.556;  830.161
491.572;  173.177;   -5.886;  940.315
492.160;  182.233;   -9.486;  919.081
492.748;  196.482;  -10.976;  884.341
493.336;  224.353;   -8.776; 1019.693
493.924;  257.211;   -5.465;  958.077
494.512;  296.032;   -9.986; 1066.638
495.100;  350.943;  -10.636; 1103.280
495.687;  416.953;  -10.885; 1206.373
496.275;  487.805;   -8.126; 1150.796
496.863;  561.018;  -10.586; 1281.171
497.451;  671.750;  -11.926; 1386.805
498.038;  844.204;  -10.885; 1556.729
498.626; 1002.661;   -6.315; 1741.407
499.214; 1154.681;   -7.326; 2016.609
499.801; 1397.992;  -11.906; 2220.633
500.389; 1682.607;  -10.466; 2312.494
500.976; 2079.583;   -5.236; 2744.849
501.564; 2554.797;   -8.936; 3148.565
502.151; 3023.375;  -13.176; 3515.999
502.738; 3581.354;  -10.646; 3971.274
503.326; 3987.737;   -9.525; 4403.796
503.913; 4556.014;  -10.856; 5161.749
504.500; 4867.747;  -11.586; 5986.420
505.088; 5253.726;  -10.336; 6381.201
505.675; 5860.109;   -6.355; 6925.547
506.262; 6427.262;   -9.046; 7619.060
506.849; 7235.068;  -10.416; 8733.969
507.436; 7680.672;  -10.305; 9790.121
508.023; 7824.359;   -5.496; 9985.472
508.610; 8391.541;   -7.856;10434.618
509.197; 9207.912;  -10.097;11198.435
509.784;10717.710;  -10.886;12391.194
510.371;12400.980;   -9.315;13603.713
510.958;13319.945;   -9.936;14426.586
511.545;13813.902;   -9.326;15243.775
512.132;14434.262;  -10.075;15945.876
512.719;14938.722;   -7.796;16340.369
513.305;16304.893;  -10.606;18011.766
513.892;17384.473;  -11.486;19754.971
514.479;18395.951;   -9.126;20967.805
515.066;18949.107;   -6.026;22299.793
515.652;19681.166;   -8.466;22908.660
516.239;20988.246;  -10.886;23798.875
516.825;21267.670;  -11.496;25567.275
517.412;22241.273;   -5.796;28154.959
517.998;23776.412;  -10.506;28344.111
518.585;24669.186;  -10.076;27134.219
519.171;24404.516;   -8.315;27268.576
519.758;25739.373;   -8.596;28964.129
520.344;26420.936;   -8.466;30664.494
520.930;26774.201;  -11.006;32550.605
521.516;27772.939;  -10.495;35422.895
522.103;30666.076;   -5.526;38280.004
522.689;32402.043;   -8.746;37835.117
523.275;32004.982;  -11.376;37288.613
523.861;31159.625;  -11.156;37281.395
524.447;32983.621;   -8.135;37846.949
525.033;32445.891;   -7.896;38321.949
525.619;32753.764;  -12.476;38579.285
526.205;34612.871;   -9.516;40622.875
526.791;37614.355;   -6.926;42258.836
527.377;38154.574;   -8.346;42966.902
527.963;39489.113;   -8.717;42018.949
528.549;37985.965;  -11.016;42476.828
529.135;35189.730;   -8.536;41854.852
529.721;34631.750;   -9.666;41237.711
530.306;34428.859;  -10.066;41259.445
530.892;35308.379;  -11.356;41506.047
531.478;36200.465;   -6.596;43559.613
532.063;36759.586;   -8.836;47695.563
532.649;37193.539;  -10.047;50808.324
533.235;40913.250;   -9.746;51787.500
533.820;42551.418;   -6.566;52145.035
534.406;41886.203;  -10.817;51133.488
534.991;41492.125;   -9.416;49996.805
535.576;40088.703;   -9.036;48882.852
536.162;40469.563;   -6.156;46942.285
536.747;41261.871;  -11.607;45711.746
537.333;43405.934;  -11.787;48510.180
537.918;43976.637;  -12.437;50439.891
538.503;42517.055;   -7.196;50863.711
539.088;40579.875;  -10.556;50906.922
539.673;42986.891;   -8.767;52621.965
540.259;43758.316;  -10.026;52368.094
540.844;40680.582;   -7.416;50879.109
541.429;38960.707;   -9.467;52077.777
542.014;42938.871;   -9.527;52716.695
542.599;44747.898;   -9.946;52363.281
543.184;42351.246;   -7.927;53187.137
543.769;43928.234;   -9.297;54697.605
544.354;43443.855;  -10.127;53913.914
544.938;42536.059;   -9.267;49680.164
545.523;43697.750;   -6.506;47386.277
546.108;44379.523;   -9.787;49151.949
546.693;45736.871;  -11.587;51384.637
547.278;46228.348;  -10.986;51853.254
547.862;41875.586;   -8.206;51173.750
548.447;38379.020;  -10.067;51691.395
549.031;38412.523;   -9.637;52456.703
549.616;42414.977;   -9.926;52714.516
550.201;42128.848;   -6.347;52414.598
550.785;40674.375;   -7.917;52355.059
551.370;41080.016;  -10.867;54589.453
551.954;43312.438;   -9.047;58267.348
552.538;44808.633;   -7.827;59062.176
553.123;43826.422;  -10.287;58115.285
553.707;42244.391;  -12.178;56556.285
554.291;43181.879;   -8.717;56201.668
554.876;41049.742;   -7.457;55335.762
555.460;41822.676;  -10.387;54155.703
556.044;44290.203;   -9.618;53721.484
556.628;42040.578;  -11.567;53731.016
557.212;42535.777;   -8.097;54312.531
557.796;41582.715;  -11.077;53797.773
558.380;40893.914;  -11.108;56145.984
558.964;40649.711;   -9.057;57277.930
559.548;40882.406;   -6.977;56459.641
560.132;40006.641;  -11.457;54434.543
560.716;39289.441;  -11.378;54800.617
561.300;38432.629;   -9.577;57606.945
561.884;38683.984;   -7.127;58972.445
562.467;38762.375;   -7.118;57327.570
563.051;39410.359;  -13.358;54962.434
563.635;40758.996;  -10.178;52594.473
564.219;42584.551;   -7.837;50610.410
564.802;43109.207;  -11.398;49551.180
565.386;42788.879;  -12.788;48370.953
565.969;41658.328;   -9.077;48178.871
566.553;42379.180;   -6.207;49957.305
567.136;41644.082;   -8.568;50369.594
567.720;37913.902;  -11.868;49492.004
568.303;36724.547;   -8.268;50616.352
568.887;36177.762;   -8.698;50727.148
569.470;36730.762;   -6.808;51698.379
570.053;35214.160;  -13.188;52122.078
570.637;34538.809;  -12.037;52536.438
571.220;34688.621;   -8.577;51186.098
571.803;35028.016;   -8.498;51032.762
572.386;37160.219;  -10.498;49609.887
572.969;39560.566;   -9.388;48285.926
573.552;37692.977;   -8.338;47624.285
574.135;36192.422;   -8.518;45498.641
574.718;32346.754;  -13.628;41970.434
575.301;31234.086;  -10.893;41447.137
575.884;30121.420;   -8.158;40923.836
576.467;31989.232;  -10.328;45267.723
577.050;35678.027;  -13.058;48175.543
577.633;37073.234;   -9.458;47729.328
578.216;36101.066;   -8.928;47579.793
578.799;35181.074;   -9.358;47820.996
579.381;34224.523;  -11.388;48115.551
579.964;33256.770;  -11.718;47333.766
580.547;33594.172;   -8.588;46668.969
581.129;33105.938;   -8.859;44466.141
581.712;32114.850;  -10.729;44164.922
582.294;33104.785;  -11.118;46477.855
582.877;35078.063;   -5.218;48244.254
583.459;34795.141;   -8.679;47437.895
584.042;34252.762;  -10.709;46943.219
584.624;33150.641;  -11.669;46792.227
585.206;31602.070;   -8.218;46557.250
585.789;32536.611;  -10.569;45793.773
586.371;35206.551;  -11.859;43836.391
586.953;35852.488;  -10.719;42972.492
587.536;36100.465;   -7.198;42487.211
588.118;34869.910;   -8.720;42086.414
588.700;33230.137;  -10.439;43389.930
589.282;32341.859;   -9.198;43646.039
589.864;32037.221;   -9.199;43438.109
590.446;31947.980;  -11.319;43151.926
591.028;30324.031;  -11.159;42781.867
591.610;27995.740;  -11.779;42839.098
592.192;24687.500;   -7.668;42820.402
592.774;24386.176;  -11.949;40724.277
593.356;26347.105;  -12.129;39874.789
593.937;29649.445;  -10.669;39980.648
594.519;32662.406;   -6.509;42069.633
595.101;33963.512;  -10.849;42976.031
595.683;33676.105;  -11.679;44084.441
596.264;35162.313;   -9.049;43478.797
596.846;34196.871;   -8.849;43803.672
597.427;32579.580;   -9.570;42986.934
598.009;34783.977;  -12.620;42832.219
598.591;34920.055;  -10.039;42580.086
599.172;34509.527;  -10.369;43061.805
599.753;34563.406;   -9.140;41691.469
600.335;34705.977;  -11.430;40692.520
600.916;33354.602;   -9.939;39982.422
601.498;33488.641;   -8.479;40318.617
602.079;33476.223;  -10.920;40670.609
602.660;32959.898;  -11.480;41450.898
603.241;31959.322;  -11.699;41137.738
603.823;30460.064;   -9.579;38868.797
604.404;31427.420;  -10.620;38182.785
604.985;31621.723;  -10.450;38078.047
605.566;31467.266;   -9.129;38056.633
606.147;31976.250;   -7.510;37020.418
606.728;34356.719;  -10.660;37883.359
607.309;33104.652;  -11.740;38748.273
607.890;32134.973;   -9.759;38850.230
608.471;31419.879;   -8.250;37457.918
609.051;31237.689;   -9.240;36066.457
609.632;30290.951;  -12.120;35991.074
610.213;31079.133;   -9.110;37402.641
610.794;31027.211;   -8.030;38383.363
611.374;29409.697;   -8.110;40562.387
611.955;28553.604;  -13.560;38533.727
612.536;30003.656;  -11.400;36951.789
613.116;31360.646;   -8.070;37197.891
613.697;31923.250;  -10.830;38411.125
614.277;30514.295;  -11.641;38673.938
614.858;30708.529;  -13.310;37075.863
615.438;30787.473;   -7.460;35092.906
616.019;28123.020;   -7.601;33666.301
616.599;28197.145;  -12.020;34189.023
617.179;30862.211;  -11.780;36952.047
617.760;31465.117;   -8.570;39582.574
618.340;32802.391;  -11.471;38943.977
618.920;34658.988;  -11.170;37594.156
619.500;34125.930;  -11.071;37866.938
620.080;33265.668;   -7.750;37869.043
620.660;33756.359;  -12.711;36868.617
621.241;33951.328;  -10.211;36352.309
621.821;33439.496;  -10.961;35459.520
622.401;32807.270;   -7.720;35207.414
622.980;30979.234;   -8.981;35980.422
623.560;30277.752;   -9.331;37351.328
624.140;31257.527;   -9.850;34388.582
624.720;27354.375;   -7.451;32368.764
625.300;23186.311;   -9.070;32638.629
625.880;25400.072;  -12.601;34599.035
626.459;28521.287;  -11.751;36831.738
627.039;31270.324;   -9.281;38299.098
627.619;31855.004;   -8.801;38289.574
628.198;29719.311;  -12.071;37220.695
628.778;30400.246;   -9.461;37632.563
629.357;31527.455;   -8.491;38003.012
629.937;30734.469;   -9.721;38402.039
630.516;29384.303;   -9.951;37868.801
631.096;29539.402;  -11.731;35760.410
631.675;32840.559;   -8.572;35225.219
632.254;37577.406;  -11.282;35130.289
632.834;37337.977;  -13.322;35794.570
633.413;37109.477;  -10.301;35788.922
633.992;34939.410;   -8.582;34532.863
634.571;35171.184;   -8.352;33590.113
635.151;35729.629;  -11.912;34943.863
635.730;34001.176;  -10.511;35352.523
636.309;31352.934;   -7.731;35366.605
636.888;28861.545;   -9.952;36165.637
637.467;29675.527;  -11.672;37515.902
638.046;31688.139;   -8.901;39288.695
638.625;34365.902;   -7.912;38279.699
639.204;34033.395;  -10.022;37741.598
639.782;32746.844;  -12.252;38364.551
640.361;29742.693;  -10.041;36740.621
640.940;26855.656;  -11.161;34950.082
641.519;26007.418;   -9.701;34137.398
642.097;28070.307;  -11.271;35654.258
642.676;31125.813;   -8.651;35637.957
643.255;32755.037;   -8.711;36567.074
643.833;31744.668;   -9.581;37809.434
644.412;32809.004;  -13.711;37337.293
644.990;32358.924;  -11.811;37018.531
645.569;32264.953;   -9.411;36518.469
646.147;30513.963;  -10.291;36186.430
646.726;28791.102;  -12.401;36267.688
647.304;29318.775;  -10.411;36647.625
647.882;30608.967;   -9.651;39286.742
648.461;33215.156;   -9.631;39157.703
649.039;33052.102;  -11.881;35412.883
649.617;33011.414;   -9.661;34744.918
650.195;33063.641;   -9.301;35403.098
650.773;32111.066;  -10.511;35053.797
651.352;30691.529;  -11.521;33756.816
651.930;27888.188;  -12.211;31868.773
652.508;24704.449;   -9.171;33121.551
653.086;27730.795;   -9.371;33564.793
653.663;31450.801;  -13.161;34054.668
654.241;30881.703;  -13.031;35693.309
654.819;30341.508;   -9.371;36422.906
655.397;28969.615;  -10.511;38213.484
655.975;29886.959;  -10.371;39507.625
656.553;31288.053;  -10.051;39498.223
657.130;30663.529;  -10.061;40395.480
657.708;29633.734;   -9.561;39242.020
658.286;29375.107;  -11.511;38920.020
658.863;29593.375;  -10.261;40202.898
659.441;30308.254;   -7.531;39677.938
660.018;29113.586;   -9.501;40413.355
660.596;28508.713;  -13.301;39931.414
661.173;31074.977;  -11.211;39604.531
661.750;32176.633;   -9.951;39700.070
662.328;31364.490;   -9.390;39292.809
662.905;30028.648;  -11.330;38235.648
663.482;25491.598;   -9.050;36212.305
664.060;24271.631;   -8.240;35944.945
664.637;27770.836;  -10.050;35170.785
665.214;29323.199;  -11.760;34197.523
665.791;30815.939;  -10.530;34549.520
666.368;30529.541;   -9.690;35118.578
666.945;32036.848;   -9.320;36019.418
667.522;32497.123;  -11.860;36048.438
668.099;32087.891;  -10.770;36243.914
668.676;32375.021;   -6.260;35958.875
669.253;31507.486;   -7.000;37384.730
669.830;31788.494;  -10.190;36779.629
670.407;31064.523;   -9.550;35231.289
670.984;31582.852;   -9.260;35544.270
671.560;29720.457;   -9.280;35466.867
672.137;27386.172;  -11.810;34280.863
672.714;28346.682;  -11.490;34632.863
673.290;28676.646;   -7.740;35135.422
673.867;29372.729;  -10.660;36114.480
674.443;30244.414;  -12.230;36152.859
675.020;29094.789;  -10.450;35327.238
675.596;29770.854;   -9.260;35795.176
676.173;30413.592;  -10.780;35430.355
676.749;29521.463;  -13.690;33549.516
677.326;29122.938;  -11.980;32210.012
677.902;28781.551;   -8.630;32068.871
678.478;27579.748;  -10.730;32583.891
679.054;28814.334;  -10.520;32088.928
679.631;31367.006;  -11.920;30978.848
680.207;31190.082;   -7.490;33160.887
680.783;31601.428;   -9.860;35570.363
681.359;30717.420;  -13.380;36125.184
681.935;27990.412;  -12.480;35240.922
682.511;25789.846;   -7.900;34429.961
683.087;26071.193;   -7.710;34463.680
683.663;27946.230;  -11.480;34648.898
684.239;29384.594;  -14.090;34546.457
684.815;29434.730;   -7.560;35586.375
685.390;29171.412;   -9.910;35821.895
685.966;29299.121;  -11.159;35085.871
686.542;31671.822;  -11.169;34198.230
687.118;33347.797;   -5.959;32847.707
687.693;32872.387;  -10.329;32794.027
688.269;31283.600;  -12.059;33072.367
688.844;27587.990;  -10.909;33141.664
689.420;25928.875;   -8.019;33965.742
689.995;25539.162;   -8.399;34655.523
690.571;25648.689;  -10.949;33576.742
691.146;27192.756;   -9.619;32657.219
691.722;26278.207;   -8.999;32526.979
692.297;25597.619;  -11.589;33014.617
692.872;26952.729;  -11.739;34012.254
693.448;26984.693;  -11.059;34237.434
694.023;25834.633;  -10.139;34142.672
694.598;26949.529;   -9.029;34132.031
695.173;26390.785;  -13.319;34205.250
695.748;26218.205;  -10.169;32882.488
696.323;26354.859;   -8.339;32864.906
696.898;25807.791;   -8.169;33170.004
697.473;25539.855;  -12.309;32432.984
698.048;26305.344;  -10.989;31649.303
698.623;27897.938;   -9.329;30778.141
699.198;29181.150;   -9.849;31140.119
699.773;29347.201;  -12.329;31764.299
700.348;28811.984;  -10.389;31780.816
700.922;29214.111;   -9.269;32046.375
701.497;28340.285;   -9.329;32603.574
702.072;27784.674;  -10.789;34799.871
702.646;28434.080;  -10.839;35793.172
703.221;28506.717;   -9.099;35201.590
703.795;30794.338;  -10.939;34764.527
704.370;29704.949;  -12.859;34307.367
704.944;28243.896;  -11.559;33509.887
705.519;29683.572;   -7.939;31388.584
706.093;31352.410;  -10.499;31340.104
706.668;31381.172;  -11.289;32630.281
707.242;29458.451;  -11.509;32728.779
707.816;28410.426;   -9.639;32947.238
708.390;26974.430;  -11.429;33277.855
708.965;27725.326;  -11.869;33834.336
709.539;28784.637;  -11.689;33709.273
710.113;28750.395;  -10.478;33044.313
710.687;27539.334;  -10.228;31953.992
711.261;25254.201;  -13.698;30505.949
711.835;25443.814;  -13.378;30262.369
712.409;27047.051;   -9.698;31254.447
712.983;28235.256;  -11.898;32754.986
713.557;28867.100;  -15.138;34018.824
714.131;28588.805;  -14.098;34579.625
714.704;27877.547;   -9.958;33890.262
715.278;25943.547;  -10.028;33531.102
715.852;26681.137;  -11.148;33601.660
716.425;28231.469;   -9.068;33515.117
716.999;27540.615;  -10.038;33185.555
717.573;27302.115;   -9.798;33905.996
718.146;28502.537;  -12.378;35199.293
718.720;28763.418;  -11.918;35060.551
719.293;29187.855;   -8.088;34973.230
719.867;31138.469;  -10.888;36394.449
720.440;31377.611;  -11.938;36663.008
721.013;30856.629;  -12.818;35102.426
721.587;29735.893;  -10.298;33985.266
722.160;27813.510;  -10.048;33524.965
722.733;26781.064;  -12.108;32987.043
723.306;27379.594;  -10.818;33066.301
723.880;28309.527;   -8.908;33399.500
724.453;29623.871;   -9.878;33468.297
725.026;28591.555;  -11.188;33816.637
725.599;26201.807;  -11.678;32797.996
726.172;27368.041;   -9.618;33187.434
726.745;29727.582;   -8.258;35136.613
727.318;31122.730;  -12.978;35751.730
727.891;30787.318;  -12.148;35890.430
728.463;30478.256;   -8.968;34822.090
729.036;30150.744;  -10.188;32895.086
729.609;30674.873;  -11.788;31823.225
730.182;26915.119;  -11.788;31445.283
730.754;24295.912;  -10.268;32373.223
731.327;24098.609;   -9.998;33676.820
731.900;23704.965;  -12.228;33417.000
732.472;25400.563;  -13.848;31978.498
733.045;28611.377;   -8.698;30368.777
733.617;28921.619;  -10.607;30574.215
734.190;27323.807;  -11.507;31280.975
734.762;24449.396;  -13.647;31674.412
735.334;23758.281;   -9.767;31247.291
735.907;24087.193;   -9.897;29876.211
736.479;24121.537;  -11.637;29808.488
737.051;23608.646;   -9.567;30233.547
737.623;24952.176;   -8.187;31469.086
738.195;26760.586;  -11.187;31784.225
738.768;28181.689;  -12.337;32120.523
739.340;26862.219;  -12.227;32094.342
739.912;24838.107;  -11.057;31312.680
740.484;24526.018;  -10.207;31946.238
741.056;23659.576;  -10.047;32984.059
741.628;24700.496;  -13.627;33897.715
742.199;27587.494;   -7.177;33213.016
742.771;27211.035;  -10.797;31369.113
743.343;24618.086;  -11.997;31865.473
743.915;22571.652;  -12.867;32388.631
744.487;22373.631;   -7.617;31079.568
745.058;23572.441;   -9.557;30570.107
745.630;24895.838;   -9.877;29970.127
746.201;25353.895;  -14.177;29186.766
746.773;24977.268;   -9.237;28805.723
747.344;24785.229;   -9.847;29591.223
747.916;23282.992;  -11.657;31412.201
748.487;22625.500;  -10.587;32194.898
749.059;24338.203;   -8.707;32533.719
749.630;25578.738;  -10.537;32158.518
750.201;25228.766;  -11.687;30855.395
750.773;23782.502;  -11.647;28622.555
751.344;23188.443;   -7.147;28405.732
751.915;23889.566;   -9.757;28461.551
752.486;22586.615;  -12.427;27842.850
753.057;20352.383;  -12.227;27845.008
753.628;19809.971;  -10.417;27728.107
754.199;20145.463;  -11.767;27381.086
754.770;20718.021;  -11.187;25882.203
755.341;20512.447;  -10.507;25886.184
755.912;20088.557;   -9.387;26050.861
756.483;19518.795;  -10.647;26798.779
757.054;18223.932;  -11.837;27048.238
757.625;17853.186;  -12.716;26294.838
758.195;17962.725;   -9.666;26142.076
758.766;17642.822;   -8.656;26392.234
759.337;18433.270;  -12.856;26334.594
759.907;19705.768;  -13.366;27579.652
760.478;20250.586;   -8.576;28352.770
761.048;20666.490;  -10.526;27325.088
761.619;20328.697;  -11.116;26460.428
762.189;19216.223;  -12.136;26029.826
762.760;18879.689;   -9.456;26430.145
763.330;19035.234;   -7.136;26670.902
763.900;18231.117;  -11.786;26603.021
764.471;15899.708;  -11.546;25542.740
765.041;15387.737;   -8.096;24358.459
765.611;16440.383;   -8.876;23991.297
766.181;16635.508;  -12.196;24470.236
766.751;16694.018;  -11.636;24845.975
767.321;16576.543;  -10.156;24533.633
767.891;15120.431;  -11.766;24916.492
768.461;14494.539;  -14.936;24776.771
769.031;14437.204;  -12.356;24757.988
769.601;15532.462;   -7.526;24181.088
770.171;15533.014;  -10.766;23670.387
770.741;15316.465;  -13.176;22960.045
771.311;15540.942;  -10.616;22917.523
771.880;15474.596;   -9.576;23562.941
772.450;15218.308;  -10.336;24216.500
773.020;15865.385;  -13.516;24140.398
773.589;15592.803;  -13.466;24414.857
774.159;14943.696;   -8.686;23858.717
774.729;14300.011;   -9.476;22942.135
775.298;13454.170;  -13.666;22324.033
775.867;12956.844;  -11.716;21140.313
776.437;12991.731;   -9.906;20838.092
777.006;12873.660;  -12.166;20599.510
777.576;13056.904;  -12.356;20508.809
778.145;13345.393;  -11.646;20732.947
778.714;12891.063;   -8.226;21062.465
779.283;11696.023;   -9.556;20949.664
779.853;11477.189;  -14.116;20508.623
780.422;11703.174;  -11.506;20649.082
780.991;11157.537;   -9.556;21527.520
781.560;10763.545;   -9.095;22632.658
782.129;10953.397;  -12.135;23048.277
782.698;10676.029;  -10.865;23438.555
783.267;10284.055;   -9.335;23267.734
783.836;10331.535;  -11.045;22415.133
784.404;10729.300;  -13.865;20443.152
784.973;10259.729;  -13.095;19699.150
785.542; 9848.341;  -11.575;19763.828
786.111; 9987.912;   -9.705;20341.408
786.679;10072.471;  -12.105;20207.967
787.248;10174.566;  -12.455;19516.465
787.817; 9848.396;  -11.535;18900.363
788.385; 9120.559;   -9.765;17879.121
788.954; 8317.243;  -14.005;17658.301
789.522; 8296.373;  -11.955;17788.879
790.090; 9067.639;  -10.135;18118.277
790.659; 9453.847;  -10.975;18338.736
791.227; 9116.063;  -13.375;18508.615
791.795; 9523.358;  -12.375;17898.254
792.364; 9723.938;  -10.725;17295.133
792.932; 9743.710;   -9.715;16822.051
793.500; 9746.556;  -12.675;17040.148
794.068; 9884.408;  -13.495;17179.787
794.636;10034.167;  -10.885;16664.246
795.204; 9864.711;  -11.045;16524.545
795.772; 9894.308;  -13.175;17274.564
796.340; 9684.727;  -12.445;17891.002
796.908; 9580.940;   -9.735;17648.561
797.476; 9470.996;   -9.815;17064.080
798.044; 8968.674;  -13.985;16672.777
798.612; 8250.563;  -13.115;17023.996
799.180; 8038.961;  -10.185;16561.615
799.747; 8195.635;   -9.055;15962.773
800.315; 8247.029;  -12.385;15296.992
800.883; 7985.240;  -15.035;14801.771
801.450; 7826.699;  -10.365;14534.430
802.018; 7760.244;   -9.855;14173.248
802.585; 7951.372;  -11.905;14029.547
803.153; 8375.738;  -11.585;13836.846
803.720; 8451.638;   -9.095;13567.324
804.287; 8030.667;   -9.135;13360.622
804.855; 7805.402;  -11.604;13681.981
805.422; 7610.375;  -11.794;13536.560
805.989; 7391.274;  -10.734;13355.958
806.556; 7564.471;  -10.444;13747.896
807.124; 8089.731;  -12.764;13987.376
807.691; 8316.229;  -12.964;14038.674
808.258; 8328.798;  -11.134;14120.152
808.825; 8070.718;   -9.854;13860.111
809.392; 7916.728;  -10.504;13268.790
809.959; 7370.218;  -13.054;12680.389
810.526; 7083.147;   -8.294;12427.308
811.093; 7169.470;   -8.394;12030.105
811.659; 7690.818;  -12.304;11653.664
812.226; 8015.901;  -13.944;11637.183
812.793; 7700.401;  -10.484;11611.521
813.360; 7232.808;  -10.144;11885.181
813.926; 6843.341;  -11.684;12770.539
814.493; 6698.020;  -13.644;12677.638
815.060; 6329.808;   -9.724;11974.336
815.626; 6203.191;   -9.854;11594.715
816.193; 6579.077;  -13.254;11579.474
816.759; 6885.505;  -13.204;11666.972
817.325; 7306.426;   -9.434;11325.530
817.892; 7612.296;  -10.134;11105.369
818.458; 7896.458;  -13.474;10843.928
819.024; 7546.303;  -11.854;10714.406
819.591; 7180.262;  -10.244;10469.165
820.157; 7151.592;  -10.704;10235.523
820.723; 7044.919;  -12.324;10847.563
821.289; 6922.197;   -9.444;11040.980
821.855; 6824.334;   -8.374;10357.100
822.421; 6816.018;  -10.234; 9978.918
822.987; 6510.333;  -13.294; 9754.177
823.553; 6150.357;  -10.884;10065.755
824.119; 6201.664;   -8.884;10036.294
824.685; 6412.950;   -6.784;10029.192
825.251; 6356.978;  -12.004;10199.230
825.816; 6097.848;  -11.474; 9820.189
826.382; 5873.586;   -9.174; 9297.248
826.948; 6118.900;   -9.214; 9381.347
827.513; 6488.133;  -10.774; 9450.726
828.079; 6343.734;  -11.924; 9472.444
828.645; 5913.918;  -10.543; 9292.643
829.210; 5943.179;  -10.533; 9065.341
829.776; 5912.577;  -10.753; 9132.620
830.341; 5749.612;  -10.173; 9092.878
830.906; 5760.196;  -10.743; 9078.557
831.472; 6061.107;  -11.113; 8534.535
832.037; 5950.944;  -10.603; 8677.874
832.602; 5482.235;  -13.323; 8628.692
833.167; 5008.928;  -10.823; 8879.031
833.733; 4771.380;  -10.113; 9189.790
834.298; 4763.179;  -13.583; 9052.608
834.863; 4625.575;  -12.703; 8895.087
835.428; 4666.284;  -10.523; 8824.266
835.993; 4943.670;   -6.963; 8845.385
836.558; 4963.914;  -10.763; 8888.563
837.123; 4929.489;   -9.903; 8966.582
837.688; 4823.948;   -9.913; 8617.860
838.253; 4751.771;  -10.283; 8590.699
838.817; 4763.662;  -12.963; 8443.797
839.382; 4769.955;  -14.243; 8799.356
839.947; 4649.625;  -10.733; 8810.595
840.511; 4406.078;   -9.383; 8796.394
841.076; 4056.041;  -12.563; 8347.231
841.641; 4051.481;  -12.953; 8224.330
842.205; 4091.149;   -7.043; 8223.349
842.770; 4247.885;   -8.163; 8622.107
843.334; 4576.896;  -12.503; 8410.386
843.898; 4602.748;  -11.693; 8337.465
844.463; 4580.082;  -10.203; 8506.283
845.027; 4314.442;   -9.533; 8280.962
845.591; 4137.369;  -13.443; 8231.141
846.156; 4078.512;  -13.143; 7969.179
846.720; 3884.835;   -9.433; 7768.278
847.284; 3779.543;  -11.033; 7630.957
847.848; 3590.084;  -10.403; 7472.395
848.412; 3425.156;  -11.553; 7437.394
848.976; 3428.909;   -8.393; 7674.592
849.540; 3385.531;   -8.713; 7836.011
850.104; 3441.477;  -12.463; 7913.669
850.668; 3671.385;  -12.973; 7694.508
851.232; 3732.895;  -10.793; 7756.887
851.796; 3586.378;  -10.662; 7926.545
852.359; 3344.740;  -13.082; 7827.844
852.923; 3254.282;  -12.192; 7641.163
853.487; 3144.855;  -11.912; 7342.501
854.050; 3066.269;  -10.892; 7042.820
854.614; 3119.915;  -13.992; 7151.338
855.177; 3200.717;  -11.732; 7105.077
855.741; 3267.080;   -8.962; 6989.675
856.304; 3205.289;   -9.442; 6596.634
856.868; 3232.152;  -14.192; 6356.272
857.431; 3383.631;  -12.702; 6468.571
857.995; 3456.267;   -9.942; 6373.210
858.558; 3518.530;   -9.112; 6324.448
859.121; 3319.906;  -12.932; 6408.327
859.684; 3230.402;  -13.442; 6347.886
860.247; 3331.794;  -10.632; 6321.264
860.810; 3229.768;  -11.272; 6301.903
861.374; 2877.412;   -9.832; 6607.881
861.937; 2578.209;  -11.762; 6408.200
862.500; 2515.802;   -9.722; 6572.639
863.062; 2607.683;  -10.512; 6387.297
863.625; 2670.076;  -11.232; 6190.836
864.188; 2787.988;  -14.112; 5807.254
864.751; 2950.810;  -11.302; 5682.413
865.314; 2912.925;  -10.112; 5547.492
865.876; 2831.690;  -12.182; 5500.150
866.439; 2907.807;  -10.722; 5415.909
867.002; 2796.587;   -9.252; 5501.567
867.564; 2535.417;   -9.572; 5413.946
868.127; 2310.912;  -13.142; 5160.325
868.689; 2317.442;  -12.902; 5133.183
869.252; 2323.530;   -9.732; 5252.382
869.814; 2246.780;   -9.432; 5297.141
870.377; 2229.264;  -11.552; 5390.919
870.939; 2303.110;   -9.052; 5599.898
871.501; 2343.782;  -10.982; 5248.336
872.063; 2373.519;  -12.292; 4854.235
872.626; 2367.501;  -14.912; 4817.074
873.188; 2330.503;  -13.112; 4987.732
873.750; 2216.856;  -13.442; 4868.651
874.312; 2113.903;   -9.402; 4779.330
874.874; 2050.403;  -11.062; 4866.348
875.436; 2004.061;  -13.931; 4718.887
875.998; 1996.845;   -9.561; 4660.005
876.560; 1981.463;  -11.321; 4462.964
877.122; 1923.151;  -12.221; 4145.042
877.683; 1836.865;  -12.191; 4056.481
878.245; 1781.445;  -12.101; 3950.740
878.807; 1800.639;   -8.971; 4058.958
879.369; 1764.946;  -12.071; 3954.677
879.930; 1666.802;  -14.621; 3941.495
880.492; 1650.196;  -10.311; 4067.014
881.053; 1609.953;  -10.901; 3859.633
881.615; 1494.100;  -14.411; 3776.071
882.176; 1433.427;  -13.761; 3734.750
882.738; 1457.360;   -9.181; 3678.489
883.299; 1494.459;  -11.791; 3405.407
883.860; 1523.809;  -13.121; 3351.106
884.422; 1508.165;  -11.211; 3394.044
884.983; 1416.883;  -10.091; 3166.443
885.544; 1279.934;   -8.461; 3189.802
886.105; 1200.755;  -12.361; 3160.360
886.666; 1169.284;  -14.141; 3093.059
887.227; 1124.625;  -11.361; 2941.957
887.788; 1030.215;  -11.401; 2974.836
888.349;  943.602;  -13.791; 2721.214
888.910;  962.941;  -13.191; 2696.493
889.471;  989.795;   -9.881; 2560.172
890.032;  947.034;   -9.881; 2558.190
890.593;  896.881;  -10.371; 2567.669
891.153;  869.448;  -13.301; 2460.307
891.714;  823.475;  -11.431; 2372.046
892.275;  774.838;  -11.291; 2309.505
892.835;  724.106;  -11.471; 2382.543
893.396;  664.829;  -11.541; 2295.502
893.956;  615.293;  -11.181; 2162.420
894.517;  574.280;  -11.741; 2125.439
895.077;  562.983;  -11.671; 2086.978
895.638;  561.972;  -11.311; 2126.316
896.198;  532.359;   -9.831; 1838.275
896.758;  484.583;   -8.421; 1892.813
897.319;  459.266;  -12.351; 1792.232
897.879;  453.698;  -13.511; 1762.751
898.439;  427.144;  -12.001; 1661.149
898.999;  390.343;  -10.180; 1781.468
899.559;  374.730;  -12.030; 1703.347
900.119;  368.142;  -15.710; 1537.525
900.679;  364.228;   -8.900; 1638.384
901.239;  351.589;   -8.340; 1527.902
901.799;  340.092;  -13.910; 1456.441
902.359;  330.670;  -13.460; 1357.140
902.919;  315.857;  -11.490; 1331.118
903.479;  298.324;  -12.110; 1317.257
904.038;  274.267;  -11.720; 1262.595
904.598;  258.288;  -13.610; 1152.034
905.158;  251.979;  -11.040; 1240.893
905.717;  240.676;  -10.900; 1233.691
906.277;  230.712;  -15.080; 1217.330
906.836;  223.487;  -13.380; 1222.408
907.396;  216.410;  -10.780; 1193.047
907.955;  207.778;   -8.500; 1182.526
908.515;  200.600;  -12.760; 1099.364
909.074;  191.996;  -11.900; 1092.863
909.633;  185.842;   -8.950; 1069.121
910.192;  181.870;   -8.770; 1196.460
910.752;  177.964;  -12.390; 1029.960
911.311;  173.870;  -13.680; 1009.780
911.870;  170.805;  -12.370;  971.460
912.429;  170.637;  -10.900; 1094.080
912.988;  168.108;  -11.690; 1081.060
913.547;  163.804;  -13.240;  940.380
914.106;  158.102;  -11.990;  999.420
914.665;  153.809;   -9.990;  984.020
915.224;  152.569;  -12.880; 1035.760
915.782;  153.097;  -12.350;  922.560
916.341;  152.102;   -9.110; 1049.840
916.900;  148.130;   -9.270;  925.260
917.458;  147.032;  -13.240;  884.220
918.017;  145.068;  -13.550;  942.600
918.576;  145.163;  -12.320;  904.440
919.134;  142.623;  -11.490;  837.980
919.693;  140.617;  -13.670;  893.060
920.251;  137.750;  -15.470;  876.500
920.809;  135.916;  -11.290;  839.580
921.368;  136.441;  -10.210;  885.360
921.926;  135.697;  -12.140;  842.940
922.484;  134.769;  -13.080;  903.360
923.042;  133.302;  -11.720;  880.340
923.601;  136.242;   -7.480;  998.680
924.159;  134.812;  -11.570;  935.560
924.717;  131.244;  -13.840;  841.080
925.275;  132.057;  -10.640;  903.240
925.833;  131.680;  -11.540;  779.320
926.391;  133.052;  -12.960;  938.380
926.949;  130.326;  -14.130;  857.680
927.506;  131.114;  -11.750;  903.500
928.064;  131.738;  -10.250;  877.580
928.622;  130.876;  -13.030;  880.100
929.180;  130.686;  -13.400;  814.180
929.737;  132.158;  -10.700;  808.540
930.295;  137.081;  -10.070;  928.480
930.853;  140.168;  -11.960;  849.100
931.410;  140.048;  -13.120;  821.120
931.968;  138.472;  -10.770;  940.660
932.525;  137.888;  -10.680;  909.380
933.082;  138.442;  -13.130;  811.440
933.640;  137.609;  -13.210;  925.900
934.197;  136.238;  -11.060;  886.360
934.754;  137.956;   -9.580;  897.780
935.312;  141.062;  -14.000;  863.340
935.869;  145.212;  -10.710; 1012.980
936.426;  145.052;   -9.860;  872.800
936.983;  144.491;   -9.710;  889.020
937.540;  142.798;  -13.990;  838.280
938.097;  143.115;  -14.040;  940.120
938.654;  145.141;  -10.310;  898.860
939.211;  147.806;  -10.560;  952.480
939.768;  150.399;  -13.900;  915.420
940.324;  153.545;  -14.760;  904.200
940.881;  154.183;  -10.370;  878.500
941.438;  156.079;   -8.260; 1021.200
941.995;  152.827;  -12.540;  992.560
942.551;  150.848;  -14.670;  875.620
943.108;  151.347;  -10.450;  937.920
943.664;  152.693;  -10.750;  869.340
944.221;  155.906;  -11.550; 1088.140
944.777;  154.801;  -14.770;  869.680
945.334;  157.975;  -12.820;  884.840
945.890;  160.328;  -10.130;  946.480
946.446;  160.863;  -13.470;  947.020
947.003;  161.237;  -12.120;  964.940
947.559;  159.990;   -9.980; 1063.040
948.115;  158.473;   -9.080; 1026.540
948.671;  156.549;  -10.830;  967.300
949.227;  153.828;  -12.440;  859.560
949.783;  151.231;  -12.910;  858.900
950.339;  152.788;  -10.270;  991.000
950.895;  152.881;  -13.630; 1023.840
951.451;  153.953;  -15.100;  925.280
952.007;  157.037;  -11.330;  998.540
952.563;  158.339;  -10.580;  937.780
953.118;  156.468;  -13.440;  904.940
953.674;  154.571;  -12.710;  935.780
954.230;  155.669;  -10.350;  949.640
954.785;  155.056;   -9.190;  936.640
955.341;  154.599;  -11.200;  998.160
955.897;  151.579;  -16.560;  834.660
956.452;  150.937;  -12.570;  953.840
957.008;  148.967;   -7.970; 1083.640
957.563;  147.227;  -11.940; 1009.540
958.118;  144.291;  -13.450;  877.700
958.674;  146.393;  -12.030;  946.780
959.229;  146.803;   -9.410; 1013.980
959.784;  143.625;  -12.000;  832.400
960.339;  140.917;  -14.780; 1001.280
960.894;  136.451;   -9.860;  963.760
961.449;  133.657;   -9.970;  859.960
962.004;  134.747;  -10.900; 1212.840
962.559;  130.936;  -13.150;  860.140
963.114;  128.136;  -13.740;  742.480
963.669;  126.477;   -9.820;  915.500
964.224;  124.424;  -13.890;  874.340
964.779;  125.093;  -12.600;  828.420
965.334;  126.736;  -10.950; 1017.860
965.888;  126.937;  -11.170;  875.360
966.443;  126.755;  -12.540;  972.380
966.998;  118.097;  -15.780;  819.460
967.552;  108.131;   -9.760;  908.380
968.107;   95.991;   -9.060;  868.300
968.661;   91.016;  -11.950;  922.440
969.216;   88.241;  -12.800;  856.280
969.770;   89.843;  -11.210;  917.200
970.324;   93.265;  -11.610;  923.140
970.879;   95.741;  -11.370;  947.180
971.433;   95.805;  -12.540;  952.720
971.987;   92.671;  -11.320;  895.340
972.541;   91.275;  -10.720;  917.100
973.095;   91.511;   -9.680; 1009.460
973.649;   91.127;  -11.440;  809.480
974.203;   92.631;  -11.210;  829.040
974.757;   92.826;  -10.240;  855.220
975.311;   94.112;  -13.720;  872.600
975.865;   94.345;  -13.770;  881.820
976.419;   92.023;  -11.690;  857.400
976.973;   91.774;   -9.510;  849.620
977.526;   92.672;  -12.620;  949.920
978.080;   93.136;  -12.010;  796.780
978.634;   94.727;  -10.170;  921.320
979.187;   92.536;   -9.020;  905.400
979.741;   92.069;   -9.820; 1018.380
980.294;   87.383;  -14.870;  789.160
980.848;   85.030;  -12.380;  717.220
981.401;   87.069;  -10.350;  816.540
981.955;   88.433;  -13.720;  844.300
982.508;   87.964;  -11.490;  746.340
983.061;   89.869;  -10.000;  915.260
983.615;   87.369;  -11.480;  798.800
984.168;   84.607;  -13.220;  770.080
984.721;   83.679;  -13.960;  880.760
985.274;   82.617;  -10.870;  867.500
985.827;   81.523;   -9.790;  834.220
986.380;   79.077;  -13.120;  721.340
986.933;   78.964;  -12.450;  864.800
987.486;   76.844;  -10.210;  861.920
988.039;   75.875;   -8.430;  863.100
988.591;   73.864;  -10.520;  893.260
989.144;   71.087;  -14.860;  737.260
989.697;   71.246;  -13.080;  758.740
990.250;   72.748;  -10.150;  858.100
990.802;   71.900;  -13.430;  755.860
991.355;   72.481;  -12.750;  974.880
991.907;   69.932;  -12.040;  864.320
992.460;   67.383;  -11.330;  753.760
993.012;   66.579;  -13.610;  749.540
993.565;   66.147;  -13.460;  711.360
994.117;   66.995;   -9.360;  950.780
994.669;   62.777;  -11.300;  701.320
995.221;   61.441;  -13.540;  791.920
995.774;   60.217;  -13.430;  787.580
996.326;   58.704;  -12.520;  740.220
996.878;   57.279;  -10.950;  838.420
997.430;   57.245;  -14.300;  699.860
997.982;   55.213;  -13.760;  750.140
998.534;   54.561;  -11.530;  739.060
999.086;   53.784;  -10.310;  738.220
999.638;   52.308;  -12.530;  661.380
1000.190;   51.849;  -11.840;  699.320
1000.741;   51.773;  -10.260;  742.700
1001.293;   51.144;   -8.860;  686.020
1001.845;   50.654;  -13.700;  676.640
1002.396;   51.199;  -12.100;  743.400
1002.948;   49.136;  -12.760;  737.400
1003.500;   46.790;  -10.380;  723.780
1004.051;   47.547;  -11.900;  907.580
1004.603;   45.506;  -12.250;  791.820
1005.154;   40.815;  -13.210;  608.980
1005.705;   40.440;  -10.950;  723.960
1006.257;   40.441;  -13.880;  707.220
1006.808;   39.959;  -12.840;  685.460
1007.359;   39.591;  -10.570;  763.240
1007.910;   38.889;   -9.620;  646.640
1008.461;   39.290;  -13.630;  732.940
1009.013;   36.687;  -17.200;  588.340
1009.564;   38.979;  -10.200;  793.520
1010.115;   36.650;  -12.570;  597.040
1010.665;   36.817;  -15.150;  602.160
1011.216;   36.566;  -14.480;  667.920
1011.767;   35.776;  -11.340;  697.920
1012.318;   36.075;   -9.780;  736.980
1012.869;   35.670;  -12.380;  679.000
1013.419;   34.171;  -15.560;  603.120
1013.970;   34.198;  -11.010;  666.640
1014.521;   33.607;  -11.610;  620.620
1015.071;   34.199;  -13.450;  670.380
1015.622;   33.931;  -13.870;  635.460
1016.172;   32.315;  -11.610;  596.820
1016.723;   32.217;  -12.120;  614.380
1017.273;   32.786;  -13.620;  604.160
1017.823;   33.118;  -14.140;  650.340
1018.374;   31.836;  -12.800;  611.760
1018.924;   31.547;  -12.340;  716.880
1019.474;   31.830;  -11.410;  718.880
1020.024;   31.305;  -14.770;  657.580
1020.574;   32.000;   -9.780;  726.160
1021.124;   31.671;   -8.560;  673.580
1021.674;   31.167;  -15.190;  559.120
1022.224;   31.781;  -13.530;  708.940
1022.774;   31.589;  -13.280;  668.820
1023.324;   31.294;  -10.690;  753.520
1023.874;   32.567;  -10.240;  875.760
1024.423;   29.985;  -12.540;  613.700
1024.973;   29.911;  -10.010;  610.760
1025.523;   28.774;  -10.550;  620.960
1026.072;   28.920;  -13.560;  606.420
1026.622;   29.494;  -15.120;  675.740
1027.172;   29.389;  -11.260;  715.660
1027.721;   28.298;  -11.410;  601.220
1028.270;   28.349;  -13.530;  663.400
1028.820;   29.015;  -13.680;  638.080
1029.369;   27.712;  -13.520;  612.700
1029.918;   28.186;  -10.980;  649.840
1030.468;   27.584;  -13.530;  564.780
1031.017;   28.368;  -13.170;  634.800
1031.566;   27.363;  -12.200;  608.900
1032.115;   27.272;   -9.960;  694.500
1032.664;   26.462;  -13.210;  596.480
1033.213;   27.614;  -12.500;  735.420
1033.762;   26.639;  -11.910;  635.620
1034.311;   26.754;   -9.640;  677.220
1034.860;   26.961;  -13.310;  691.000
1035.408;   26.874;  -11.830;  722.720
1035.957;   25.989;  -12.000;  719.540
1036.506;   24.719;  -11.690;  530.800
1037.055;   27.418;  -10.990;  844.320
1037.603;   26.238;  -15.120;  664.000
1038.152;   24.562;  -12.450;  534.760
1038.700;   24.534;  -10.560;  585.740
1039.249;   24.022;  -11.080;  681.220
1039.797;   24.977;  -12.540;  633.360
1040.345;   24.502;  -11.920;  705.420
1040.894;   24.091;  -11.410;  625.300
1041.442;   24.551;  -14.320;  632.200
1041.990;   22.870;  -16.240;  559.160
1042.538;   22.616;  -11.680;  536.180
1043.087;   23.073;  -10.760;  570.860
1043.635;   24.726;  -11.850;  670.500
1044.183;   23.433;  -15.480;  586.400
1044.731;   22.869;  -11.770;  576.000
1045.279;   22.872;  -13.090;  674.920
1045.827;   24.362;  -12.440;  892.400
1046.374;   21.507;  -13.840;  515.420
1046.922;   21.230;  -13.220;  590.580
1047.470;   22.476;  -10.230;  691.300
1048.018;   22.868;  -14.590;  647.960
1048.565;   22.989;  -12.050;  708.600
1049.113;   21.111;  -11.650;  557.000
1049.660;   21.432;  -10.510;  629.660
1050.208;   22.084;  -13.310;  675.640
1050.755;   21.011;  -15.900;  606.580
1051.303;   21.447;  -11.430;  686.820
1051.850;   20.330;   -8.480;  635.120
1052.397;   19.627;  -15.010;  473.960
1052.945;   20.564;  -13.960;  617.760
1053.492;   21.665;  -13.150;  741.840
1054.039;   21.227;   -9.630;  720.180
1054.586;   19.548;  -13.680;  557.240
1055.133;   20.647;  -14.570;  693.140
1055.680;   20.785;  -13.820;  646.620
1056.227;   19.370;  -11.730;  542.780
1056.774;   20.677;  -12.480;  794.980
1057.321;   19.255;  -13.930;  523.260
1057.868;   18.922;  -11.690;  651.320
1058.415;   18.899;   -9.520;  651.980
1058.961;   20.109;  -13.160;  678.940
1059.508;   19.455;  -12.920;  643.820
1060.055;   19.100;  -11.920;  581.780
1060.601;   18.978;  -11.500;  624.300
1061.148;   19.662;  -14.330;  616.820
1061.694;   18.453;  -16.870;  592.580
1062.241;   18.712;  -10.330;  596.320
1062.787;   18.507;  -10.620;  663.140
1063.334;   20.292;  -10.110;  808.560
1063.880;   18.085;  -13.400;  668.360
1064.426;   18.161;  -10.680;  706.820
1064.972;   17.744;   -9.920;  601.340
1065.518;   15.892;  -10.980;  566.640
1066.065;   17.819;  -14.890;  624.460
1066.611;   16.549;  -12.870;  598.800
1067.157;   17.677;  -12.950;  641.860
1067.703;   17.223;  -13.540;  668.480
1068.249;   17.275;  -13.540;  605.220
1068.794;   16.981;  -12.600;  626.880
1069.340;   15.789;  -10.620;  578.960
1069.886;   16.571;  -12.830;  590.700
1070.432;   15.463;  -14.870;  541.720
1070.977;   15.313;  -11.980;  601.080
1071.523;   15.644;   -8.200;  573.060
1072.068;   16.122;  -12.330;  582.000
1072.614;   15.912;  -16.370;  527.760
1073.160;   16.058;  -11.100;  687.040
1073.705;   15.090;  -10.480;  572.520
1074.250;   15.245;  -14.520;  559.900
1074.796;   16.908;  -11.460;  655.160
1075.341;   15.730;  -11.950;  664.100
1075.886;   15.224;  -11.460;  594.240
1076.431;   14.515;  -13.770;  649.880
1076.976;   14.921;  -12.680;  639.220
1077.521;   14.188;  -13.170;  583.080
1078.067;   13.091;  -10.860;  579.400
1078.612;   14.556;  -13.920;  661.620
1079.156;   14.692;  -13.880;  601.540
1079.701;   14.963;  -13.120;  693.260
1080.246;   15.005;   -9.940;  696.300
1080.791;   14.523;  -14.740;  625.020
1081.336;   14.593;  -13.750;  659.320
1081.880;   14.319;  -13.400;  649.680
1082.425;   12.501;  -12.220;  573.480
1082.970;   14.617;  -11.610;  717.040
1083.514;   13.684;  -13.580;  597.000
1084.059;   12.370;  -12.810;  586.720
1084.603;   12.566;  -12.320;  565.840
1085.147;   13.367;  -13.190;  645.220
1085.692;   13.631;  -12.480;  716.800
1086.236;   12.406;  -13.020;  503.140
1086.780;   14.001;   -9.190;  751.440
1087.325;   13.317;  -12.480;  654.620
1087.869;   13.238;  -12.450;  610.700
1088.413;   13.274;  -12.240;  705.040
1088.957;   11.176;   -9.020;  543.400
1089.501;   13.563;  -10.320;  766.640
1090.045;   13.059;  -12.720;  726.480
1090.589;   10.276;  -13.690;  569.920
1091.133;   11.861;  -10.020;  673.340
1091.676;   12.727;  -12.330;  591.940
1092.220;   11.390;  -14.970;  600.920
1092.764;   12.330;  -12.430;  706.960
1093.307;   11.705;   -9.800;  673.780
1093.851;   10.685;  -14.970;  556.540
1094.395;   11.685;  -15.310;  683.140
1094.938;   11.269;  -10.370;  632.520
1095.482;   10.970;  -11.050;  559.800
1096.025;   11.212;  -11.840;  710.880
1096.568;   12.436;  -12.840;  779.280
1097.112;    9.606;  -14.700;  508.180
1097.655;   10.294;   -8.720;  603.000
1098.198;    9.433;  -13.610;  600.180
1098.741;    9.767;  -13.350;  612.860
1099.285;   11.073;  -11.230;  657.300
1099.828;    8.175;  -11.840;  439.400
1100.371;    9.808;  -10.840;  608.160
1100.914;   10.608;  -14.190;  682.660
1101.457;    9.498;  -11.240;  679.900
1101.999;    8.114;  -11.270;  584.680
1102.542;    9.401;  -11.480;  641.440
1103.085;    9.927;  -11.750;  658.500
1103.628;   10.169;  -11.400;  762.060
1104.170;    9.425;  -10.490;  588.280
1104.713;    9.186;  -10.600;  646.700
1105.256;    9.055;  -14.360;  557.440
1105.798;    7.856;  -13.210;  499.980
1106.341;    9.262;  -10.270;  728.900
1106.883;    9.221;  -12.200;  521.340
1107.425;    8.920;  -13.110;  668.180
1107.968;    8.222;  -12.840;  612.380
1108.510;    8.756;   -6.480;  684.960
1109.052;    7.459;  -13.940;  612.620
1109.594;    7.917;  -13.690;  554.440
1110.136;    8.370;  -11.880;  643.220
1110.679;    7.242;   -9.500;  633.080
1111.221;    8.560;  -14.160;  604.460
1111.763;    7.835;  -13.980;  559.220
1112.304;    7.006;  -13.880;  547.140
1112.846;    7.626;  -12.210;  666.240
1113.388;   10.628;  -11.390;  942.180
1113.930;    7.839;  -14.540;  694.200
1114.472;    6.504;  -12.640;  606.540
1115.013;    5.200;  -11.620;  551.280
1115.555;    6.442;  -13.640;  587.100
1116.097;    6.071;  -15.380;  579.480
1116.638;    7.130;  -12.640;  684.600
1117.180;    7.115;   -9.850;  667.740
1117.721;    6.534;  -13.690;  568.580
1118.262;    6.871;  -12.680;  677.960
1118.804;    7.425;  -12.530;  637.340
1119.345;    5.803;  -11.690;  578.400
1119.886;    7.113;  -13.380;  704.040
1120.427;    5.858;  -14.070;  589.020
1120.969;    5.424;  -13.500;  597.920
1121.510;    4.878;  -11.480;  563.060
1122.051;    6.247;  -12.830;  723.580
1122.592;    6.196;  -14.290;  655.420
1123.133;    4.410;  -12.400;  547.940
1123.673;    6.502;  -10.130;  706.480
1124.214;    5.629;  -12.930;  612.460
1124.755;    5.929;  -14.380;  639.460
1125.296;    5.606;  -14.000;  627.320
1125.836;    5.776;  -10.070;  691.500
1126.377;    5.487;  -12.640;  599.660
1126.918;    5.583;  -12.960;  614.980
1127.458;    5.120;  -13.350;  622.220
1127.999;    5.042;  -10.750;  656.980
1128.539;    5.557;  -12.350;  694.240
1129.079;    5.006;  -14.860;  632.720
1129.620;    4.130;  -13.840;  558.100
1130.160;    3.546;  -12.330;  539.480
1130.700;    5.015;  -14.530;  640.840
1131.240;    4.804;  -12.530;  643.700
1131.781;    4.241;  -14.450;  619.680
1132.321;    3.794;   -9.790;  599.120
1132.861;    3.466;  -14.860;  564.200
1133.401;    3.006;  -14.290;  593.940
1133.941;    3.706;  -11.750;  626.280
1134.481;    3.399;   -9.920;  597.580
1135.020;    2.997;  -12.290;  609.160
1135.560;    3.632;  -11.650;  674.940
1136.100;    2.582;  -16.270;  501.160
1136.640;    1.732;  -10.890;  510.480
1137.179;    3.377;  -14.180;  537.960
1137.719;    3.400;  -16.250;  605.400
1138.258;    3.329;  -14.230;  587.360
1138.798;    3.770;   -9.090;  663.780
1139.337;    2.473;  -15.130;  482.840
1139.877;    3.642;  -13.680;  642.360
1140.416;    5.005;  -11.320;  878.060
1140.955;    2.827;  -10.860;  535.380
1141.494;    3.191;  -12.920;  669.280
1142.034;    2.392;  -13.930;  583.520
1142.573;    2.738;  -11.440;  646.280
1143.112;    2.437;  -12.000;  553.480
1143.651;    2.486;  -13.670;  536.480
1144.190;    3.164;  -12.730;  691.640
1144.729;    2.161;  -14.560;  607.420
1145.267;    2.780;  -11.830;  584.900
1145.806;    3.545;  -12.230;  637.040
1146.345;    2.158;  -14.130;  635.020
1146.884;    1.620;  -11.590;  622.500
1147.422;    1.397;  -12.550;  533.060
1147.961;    2.650;  -11.180;  708.460
1148.500;    3.008;  -11.510;  669.720
1149.038;    3.160;  -11.640;  632.500
1149.577;    1.577;  -10.130;  698.640
1150.115;    0.952;  -13.970;  452.280
1150.653;    1.734;  -14.520;  607.340
1151.192;    1.088;  -12.810;  552.920
1151.730;    1.538;   -9.100;  652.560
1152.268;    0.496;  -12.220;  589.520
1152.806;    1.179;  -14.140;  571.180
1153.344;    0.166;  -12.350;  577.640
1153.882;    0.948;   -8.980;  600.060
1154.421;   -0.198;  -15.190;  470.620
1154.958;    0.567;  -15.210;  595.240
1155.496;    1.795;  -12.850;  645.280
1156.034;    0.271;   -9.940;  721.880
1156.572;    2.147;  -13.570;  667.060
1157.110;    0.035;  -14.590;  473.940
1157.647;    1.556;  -13.030;  676.960
1158.185;   -0.554;  -12.140;  564.320
1158.723;   -0.579;  -14.390;  509.200
1159.260;    0.173;  -14.090;  701.700
1159.798;    0.847;  -11.920;  658.160
1160.335;   -0.609;  -11.110;  631.820

