
Integration time [ms]:   3.276
Averaging Nr. [scans]: 1000
Smoothing Nr. [pixels]: 0
Data measured with spectrometer [name]: 7414430SP
Wave   ;Sample   ;Dark     ;Reference
[nm]   ;[counts] ;[counts] ;[counts] 

288.544;  147.891;    7.793;  793.890
289.143;  151.750;    7.462;  681.602
289.742;  151.594;    8.602;  828.814
290.341;  136.712;    1.321;  789.841
290.940;  125.822;   -0.709;  730.702
291.538;  127.537;    0.881;  881.108
292.137;  128.269;    0.122;  792.581
292.736;  132.393;   -1.929;  975.101
293.335;  128.889;   -8.229;  735.086
293.934;  128.867;   -5.279;  781.677
294.532;  127.694;   -1.369; 1031.958
295.131;  113.823;   -7.641;  834.394
295.730;  113.672;   -8.420;  809.588
296.328;  113.222;   -5.611;  783.442
296.927;  114.423;   -5.781;  779.652
297.525;  115.393;   -6.361;  781.236
298.124;  104.551;  -11.382;  654.009
298.722;  108.074;   -7.641;  761.933
299.321;  106.564;   -6.811;  708.597
299.919;  105.935;   -6.991;  751.918
300.518;  102.664;  -10.362;  689.338
301.116;  103.865;   -9.581;  691.381
301.715;  102.731;   -4.891;  730.222
302.313;  102.071;   -8.801;  704.943
302.911;   98.261;   -8.522;  733.830
303.509;  103.270;   -6.171;  925.627
304.108;  100.049;   -7.311;  760.383
304.706;  100.090;   -8.321;  801.664
305.304;   94.625;  -10.222;  796.707
305.902;  100.476;   -6.021;  784.484
306.500;   96.387;   -4.971;  728.200
307.098;   94.428;   -7.061;  746.560
307.696;   92.380;   -8.801;  780.432
308.294;   93.561;   -6.411;  731.359
308.892;   95.086;   -2.901;  759.769
309.490;   91.105;   -5.041;  712.161
310.088;   88.807;   -5.002;  788.444
310.686;   94.180;   -2.041;  821.749
311.284;   89.166;   -2.351;  766.040
311.882;   86.582;   -4.422;  731.225
312.480;   83.860;   -4.192;  697.167
313.078;   85.882;   -1.172;  808.331
313.675;   86.449;   -2.601;  691.600
314.273;   81.876;   -1.312;  797.837
314.871;   80.392;   -3.942;  589.829
315.468;   78.982;   -2.802;  652.090
316.066;   81.618;   -0.701;  694.427
316.664;   75.032;   -4.362;  656.351
317.261;   78.272;   -2.872;  910.128
317.859;   74.123;   -2.022;  768.735
318.456;   75.252;   -0.531;  830.096
319.054;   70.404;   -3.912;  787.828
319.651;   69.688;   -4.752;  759.928
320.249;   68.690;   -2.602;  810.188
320.846;   66.313;   -0.821;  714.286
321.443;   64.073;   -4.642;  832.135
322.041;   60.400;   -5.002;  812.315
322.638;   58.548;   -3.982;  701.456
323.235;   60.326;   -3.411;  665.683
323.833;   57.616;   -7.361;  740.354
324.430;   52.951;   -8.611;  615.900
325.027;   53.511;   -4.061;  876.855
325.624;   54.192;   -4.031;  644.532
326.221;   50.891;   -7.481;  689.717
326.818;   51.008;   -5.281;  818.332
327.415;   53.407;   -7.460;  748.828
328.012;   53.439;   -5.510;  690.585
328.609;   51.732;   -7.880;  731.389
329.206;   50.064;   -8.331;  778.621
329.803;   50.263;   -5.121;  737.841
330.400;   53.180;   -4.510;  704.260
330.997;   55.458;   -6.441;  817.147
331.594;   52.927;   -8.831;  788.185
332.191;   58.472;   -7.621;  728.722
332.787;   61.943;   -4.591;  844.463
333.384;   59.620;   -7.412;  763.093
333.981;   57.639;   -8.293;  815.687
334.578;   60.398;   -7.052;  708.378
335.174;   63.180;   -3.102;  731.469
335.771;   62.511;   -5.943;  836.456
336.367;   58.764;   -7.393;  710.631
336.964;   62.969;   -4.063;  793.266
337.561;   60.743;   -3.813;  731.112
338.157;   56.253;   -4.654;  911.916
338.754;   53.929;   -7.934;  796.589
339.350;   52.731;   -4.414;  722.493
339.946;   55.561;   -4.664;  773.135
340.543;   47.512;   -6.375;  846.136
341.139;   41.573;   -9.815;  720.836
341.735;   39.489;   -4.526;  772.593
342.332;   38.782;   -4.895;  691.472
342.928;   38.337;   -4.295;  795.394
343.524;   33.667;   -5.476;  761.684
344.120;   30.241;   -5.856;  738.562
344.716;   32.506;   -2.155;  723.717
345.313;   30.197;   -6.275;  795.342
345.909;   25.568;   -8.815;  627.336
346.505;   28.478;   -5.305;  740.247
347.101;   27.948;   -2.674;  827.864
347.697;   28.538;   -4.344;  785.398
348.293;   23.041;   -9.975;  627.244
348.889;   24.207;   -5.774;  745.914
349.485;   23.739;   -5.004;  688.205
350.081;   24.048;   -4.704;  772.592
350.676;   19.265;   -6.635;  691.606
351.272;   23.596;   -4.504;  809.530
351.868;   23.575;   -3.914;  780.497
352.464;   20.519;   -9.044;  723.932
353.059;   16.743;   -8.314;  646.017
353.655;   20.474;   -7.024;  777.063
354.251;   20.845;   -5.343;  759.845
354.846;   16.883;   -8.604;  740.646
355.442;   14.048;   -6.945;  753.071
356.038;   15.669;   -7.564;  751.708
356.633;   15.700;   -5.814;  728.594
357.229;   13.659;   -7.364;  724.757
357.824;   11.735;   -8.024;  703.600
358.420;   11.124;   -9.384;  679.726
359.015;   12.074;   -5.104;  695.357
359.610;   12.932;   -6.854;  763.920
360.206;    7.437;  -10.185;  603.240
360.801;    9.572;   -7.054;  646.503
361.396;   12.503;   -5.034;  725.975
361.992;    8.193;   -8.284;  668.220
362.587;    4.918;   -8.625;  670.160
363.182;    7.279;   -7.674;  689.631
363.777;    7.769;   -5.164;  738.242
364.372;    7.965;   -8.604;  737.314
364.967;    3.447;   -9.055;  680.744
365.563;    8.359;   -6.114;  815.567
366.158;    5.738;   -5.814;  685.161
366.753;    5.477;   -7.854;  649.263
367.348;    4.011;   -7.804;  746.056
367.942;    3.609;   -7.954;  697.298
368.537;    3.400;   -4.984;  754.245
369.132;    3.077;   -8.564;  703.428
369.727;   -0.408;   -8.855;  638.079
370.322;    0.903;   -6.245;  580.186
370.917;    0.596;   -6.425;  710.646
371.511;    4.156;   -6.294;  861.834
372.106;   -0.707;   -7.685;  776.964
372.701;   -3.134;   -7.335;  585.988
373.296;    1.747;   -4.564;  863.135
373.890;   -2.159;  -10.235;  647.840
374.485;   -4.529;   -7.885;  691.199
375.079;   -0.881;   -7.324;  738.685
375.674;    0.181;   -3.494;  812.970
376.268;   -3.419;   -8.525;  691.759
376.863;   -9.713;  -10.086;  580.327
377.457;   -3.557;   -7.025;  662.490
378.052;   -4.970;   -3.585;  764.884
378.646;   -5.198;   -7.595;  741.167
379.240;   -5.684;   -8.335;  721.176
379.835;   -4.895;   -5.785;  636.978
380.429;   -6.750;   -4.335;  562.557
381.023;   -6.458;   -6.805;  779.205
381.617;   -8.625;   -9.195;  680.106
382.212;   -6.035;   -6.905;  685.303
382.806;   -4.146;   -3.745;  760.690
383.400;   -9.092;   -7.745;  672.281
383.994;  -10.075;   -9.765;  664.870
384.588;   -6.210;   -6.564;  697.701
385.182;   -5.553;   -5.344;  726.624
385.776;   -6.503;   -8.514;  706.875
386.370;   -9.538;   -9.555;  681.968
386.964;   -8.207;   -8.715;  684.155
387.558;   -6.268;   -6.174;  598.360
388.152;  -10.100;   -8.725;  681.959
388.745;   -8.463;   -7.965;  814.707
389.339;   -6.391;   -5.924;  747.642
389.933;   -5.518;   -5.524;  695.370
390.527;   -6.766;   -7.114;  859.029
391.120;  -13.430;  -10.725;  595.318
391.714;   -9.951;   -8.035;  711.633
392.308;   -7.297;   -3.574;  780.253
392.901;  -10.922;   -7.245;  642.460
393.495;  -11.992;   -9.285;  595.414
394.089;  -10.126;   -5.895;  760.452
394.682;  -10.582;   -4.295;  697.188
395.275;  -11.780;   -9.875;  719.927
395.869;  -12.538;   -8.485;  667.314
396.462;  -10.989;   -7.455;  616.609
397.056;   -6.829;   -5.424;  776.621
397.649;  -11.612;   -6.605;  731.575
398.242;   -9.205;   -8.224;  712.645
398.836;   -9.208;   -7.474;  766.408
399.429;   -8.902;   -7.094;  631.041
400.022;  -12.402;   -9.475;  665.902
400.615;   -9.653;   -7.145;  805.609
401.208;   -7.992;   -7.174;  691.451
401.802;  -10.937;   -5.515;  699.329
402.395;  -11.433;   -9.875;  683.502
402.988;  -12.888;   -8.845;  696.627
403.581;   -8.779;   -8.874;  646.878
404.174;   -6.983;   -5.324;  686.568
404.767;  -10.156;   -9.575;  638.583
405.360;  -12.706;  -10.965;  621.445
405.953;   -7.101;   -8.764;  759.034
406.545;   -6.185;   -7.514;  725.342
407.138;  -10.297;  -10.025;  618.350
407.731;   -9.931;  -10.034;  613.303
408.324;   -5.403;   -9.374;  660.554
408.917;   -6.563;   -6.534;  681.864
409.509;   -8.268;   -8.004;  740.396
410.102;   -9.391;   -9.875;  643.948
410.695;   -4.003;   -8.604;  665.758
411.287;   -4.595;   -6.794;  599.821
411.880;   -6.463;   -9.334;  585.421
412.472;   -9.186;  -10.254;  613.092
413.065;   -6.976;   -6.714;  629.408
413.657;   -5.194;   -7.234;  576.678
414.250;   -4.793;  -10.544;  646.681
414.842;   -6.070;   -9.744;  676.353
415.434;   -3.763;   -6.994;  570.463
416.027;    0.167;   -5.893;  652.196
416.619;   -0.938;   -7.264;  713.400
417.211;   -2.546;  -10.374;  599.352
417.804;    0.921;   -7.993;  628.499
418.396;   -2.320;   -7.234;  607.643
418.988;   -0.488;   -9.443;  659.238
419.580;   -3.696;  -10.724;  568.276
420.172;   -1.767;  -10.323;  536.196
420.764;    2.722;   -8.793;  672.482
421.356;    1.259;  -11.143;  636.898
421.948;    0.461;   -8.293;  677.661
422.540;    5.533;   -7.893;  680.027
423.132;    5.121;   -7.082;  600.641
423.724;    1.698;   -8.653;  561.267
424.316;    3.409;  -10.213;  621.345
424.908;    6.843;   -9.762;  591.517
425.500;    8.075;   -5.572;  647.978
426.092;    8.477;   -8.422;  648.268
426.683;    7.000;   -9.283;  684.836
427.275;    9.090;   -7.852;  641.471
427.867;   11.483;   -5.272;  668.948
428.458;   11.997;   -7.682;  732.344
429.050;   10.485;  -10.612;  680.749
429.642;   12.887;   -9.882;  743.124
430.233;   12.903;   -6.962;  569.356
430.825;   14.654;   -6.842;  724.809
431.416;   11.674;   -9.672;  698.241
432.008;   15.284;   -6.552;  651.723
432.599;   16.206;   -6.891;  656.073
433.190;   13.294;  -10.912;  637.670
433.782;   12.490;  -11.172;  590.395
434.373;   20.472;   -6.061;  884.765
434.964;   18.884;   -8.251;  602.920
435.556;   16.404;   -9.722;  634.537
436.147;   19.511;   -9.082;  758.490
436.738;   19.151;   -8.041;  701.099
437.329;   24.076;   -7.341;  721.723
437.920;   17.988;   -8.162;  666.688
438.511;   16.885;  -11.802;  564.526
439.103;   23.948;  -10.191;  623.998
439.694;   26.133;   -7.601;  681.583
440.285;   26.620;   -8.541;  764.432
440.876;   24.746;   -9.751;  845.738
441.466;   24.562;   -9.401;  575.162
442.057;   29.447;   -7.760;  665.814
442.648;   28.589;   -9.971;  746.255
443.239;   26.349;  -11.001;  620.477
443.830;   31.953;   -7.990;  704.958
444.421;   33.962;   -7.910;  655.474
445.011;   30.077;   -8.131;  693.619
445.602;   29.214;   -7.111;  743.126
446.193;   31.708;  -10.920;  488.117
446.783;   36.606;   -6.500;  640.397
447.374;   32.258;   -8.671;  692.759
447.964;   31.906;  -10.781;  713.770
448.555;   40.876;   -9.650;  822.742
449.145;   36.561;   -8.660;  662.853
449.736;   37.794;   -8.990;  803.179
450.326;   37.700;   -9.500;  713.626
450.917;   42.993;   -8.680;  675.324
451.507;   41.911;   -7.520;  600.661
452.097;   42.612;   -8.590;  746.267
452.688;   43.921;  -11.340;  742.160
453.278;   43.663;  -10.100;  566.840
453.868;   48.132;   -6.019;  793.550
454.458;   45.900;   -9.440;  651.141
455.048;   46.630;  -10.560;  711.783
455.639;   48.316;  -11.799;  567.096
456.229;   51.290;   -6.899;  710.694
456.819;   53.517;   -7.389;  751.158
457.409;   53.019;  -11.119;  773.993
457.999;   55.791;   -9.289;  737.505
458.589;   56.976;   -6.139;  686.606
459.179;   56.277;   -8.729;  717.658
459.769;   54.345;   -9.789;  627.099
460.358;   58.976;  -10.259;  797.262
460.948;   59.187;   -7.299;  689.503
461.538;   60.422;  -10.289;  660.677
462.128;   58.673;  -11.269;  664.934
462.717;   65.314;   -9.368;  710.326
463.307;   68.547;   -7.908;  705.846
463.897;   64.532;   -9.599;  656.942
464.486;   63.627;   -9.769;  837.128
465.076;   67.875;   -8.048;  733.776
465.666;   71.307;   -9.358;  652.900
466.255;   69.265;   -7.919;  785.651
466.845;   68.665;  -11.689;  666.749
467.434;   72.888;   -7.818;  725.873
468.023;   73.031;   -7.678;  658.357
468.613;   71.291;  -10.939;  713.946
469.202;   74.178;  -10.118;  646.507
469.791;   79.143;   -9.108;  737.811
470.381;   81.188;   -6.058;  742.813
470.970;   80.899;  -10.428;  711.099
471.559;   80.086;  -10.268;  733.291
472.148;   83.697;   -8.448;  675.737
472.738;   85.510;   -6.917;  765.466
473.327;   85.657;  -11.978;  637.529
473.916;   84.975;  -11.888;  737.446
474.505;   90.322;   -9.437;  751.703
475.094;   92.882;   -6.747;  806.570
475.683;   91.839;   -9.367;  797.699
476.272;   93.104;  -12.637;  730.632
476.861;   96.094;  -10.027;  706.754
477.449;  102.651;   -8.716;  728.487
478.038;   97.459;   -9.577;  692.513
478.627;   98.658;   -9.718;  714.852
479.216;  105.118;   -8.947;  769.441
479.805;  108.225;   -6.256;  783.375
480.393;  107.614;   -7.937; 1008.945
480.982;  106.790;   -7.717;  874.501
481.571;  113.373;   -9.266;  858.333
482.159;  114.137;   -7.636;  705.386
482.748;  114.311;   -9.667;  821.385
483.336;  118.428;  -10.376;  858.209
483.925;  119.714;   -7.147;  774.373
484.513;  127.192;   -7.996;  758.962
485.102;  124.035;  -10.027;  810.965
485.690;  132.374;  -10.446; 1011.050
486.278;  134.399;   -8.446;  979.329
486.867;  135.606;   -6.356;  809.662
487.455;  138.118;   -9.136;  898.229
488.043;  140.207;  -10.646;  748.361
488.631;  149.462;   -7.456; 1005.079
489.220;  153.892;   -6.636;  908.626
489.808;  155.105;  -11.036;  741.415
490.396;  163.233;  -10.246;  914.645
490.984;  171.315;   -8.556;  830.161
491.572;  184.364;   -5.886;  940.315
492.160;  192.250;   -9.486;  919.081
492.748;  208.219;  -10.976;  884.341
493.336;  237.036;   -8.776; 1019.693
493.924;  271.295;   -5.465;  958.077
494.512;  311.914;   -9.986; 1066.638
495.100;  367.111;  -10.636; 1103.280
495.687;  436.806;  -10.885; 1206.373
496.275;  511.379;   -8.126; 1150.796
496.863;  586.632;  -10.586; 1281.171
497.451;  703.876;  -11.926; 1386.805
498.038;  880.382;  -10.885; 1556.729
498.626; 1044.869;   -6.315; 1741.407
499.214; 1214.730;   -7.326; 2016.609
499.801; 1472.481;  -11.906; 2220.633
500.389; 1773.563;  -10.466; 2312.494
500.976; 2193.720;   -5.236; 2744.849
501.564; 2710.497;   -8.936; 3148.565
502.151; 3221.121;  -13.176; 3515.999
502.738; 3817.945;  -10.646; 3971.274
503.326; 4260.887;   -9.525; 4403.796
503.913; 4842.508;  -10.856; 5161.749
504.500; 5158.610;  -11.586; 5986.420
505.088; 5593.594;  -10.336; 6381.201
505.675; 6233.072;   -6.355; 6925.547
506.262; 6852.568;   -9.046; 7619.060
506.849; 7700.741;  -10.416; 8733.969
507.436; 8200.446;  -10.305; 9790.121
508.023; 8415.023;   -5.496; 9985.472
508.610; 8974.533;   -7.856;10434.618
509.197; 9887.437;  -10.097;11198.435
509.784;11573.205;  -10.886;12391.194
510.371;13290.054;   -9.315;13603.713
510.958;14261.028;   -9.936;14426.586
511.545;14815.368;   -9.326;15243.775
512.132;15410.531;  -10.075;15945.876
512.719;15964.970;   -7.796;16340.369
513.305;17475.680;  -10.606;18011.766
513.892;18572.963;  -11.486;19754.971
514.479;19623.725;   -9.126;20967.805
515.066;20333.119;   -6.026;22299.793
515.652;21241.832;   -8.466;22908.660
516.239;22663.236;  -10.886;23798.875
516.825;22890.971;  -11.496;25567.275
517.412;23795.008;   -5.796;28154.959
517.998;25423.615;  -10.506;28344.111
518.585;26333.613;  -10.076;27134.219
519.171;26070.607;   -8.315;27268.576
519.758;27508.174;   -8.596;28964.129
520.344;28432.766;   -8.466;30664.494
520.930;28806.982;  -11.006;32550.605
521.516;29812.793;  -10.495;35422.895
522.103;33017.883;   -5.526;38280.004
522.689;35008.113;   -8.746;37835.117
523.275;34396.477;  -11.376;37288.613
523.861;33477.590;  -11.156;37281.395
524.447;35398.098;   -8.135;37846.949
525.033;34851.723;   -7.896;38321.949
525.619;35119.609;  -12.476;38579.285
526.205;36829.547;   -9.516;40622.875
526.791;40224.262;   -6.926;42258.836
527.377;41054.922;   -8.346;42966.902
527.963;42677.363;   -8.717;42018.949
528.549;41114.422;  -11.016;42476.828
529.135;38058.313;   -8.536;41854.852
529.721;37361.703;   -9.666;41237.711
530.306;36899.625;  -10.066;41259.445
530.892;37606.816;  -11.356;41506.047
531.478;38823.113;   -6.596;43559.613
532.063;39607.945;   -8.836;47695.563
532.649;40131.699;  -10.047;50808.324
533.235;44136.766;   -9.746;51787.500
533.820;45850.176;   -6.566;52145.035
534.406;44931.621;  -10.817;51133.488
534.991;44315.453;   -9.416;49996.805
535.576;42973.574;   -9.036;48882.852
536.162;43437.152;   -6.156;46942.285
536.747;44368.063;  -11.607;45711.746
537.333;46864.336;  -11.787;48510.180
537.918;47395.215;  -12.437;50439.891
538.503;45494.344;   -7.196;50863.711
539.088;43586.723;  -10.556;50906.922
539.673;46609.633;   -8.767;52621.965
540.259;47318.785;  -10.026;52368.094
540.844;43870.328;   -7.416;50879.109
541.429;42373.375;   -9.467;52077.777
542.014;46918.617;   -9.527;52716.695
542.599;48414.254;   -9.946;52363.281
543.184;45377.582;   -7.927;53187.137
543.769;46406.504;   -9.297;54697.605
544.354;45908.730;  -10.127;53913.914
544.938;45506.863;   -9.267;49680.164
545.523;46810.816;   -6.506;47386.277
546.108;47701.836;   -9.787;49151.949
546.693;49375.047;  -11.587;51384.637
547.278;49757.891;  -10.986;51853.254
547.862;45139.590;   -8.206;51173.750
548.447;41533.941;  -10.067;51691.395
549.031;41701.852;   -9.637;52456.703
549.616;45929.211;   -9.926;52714.516
550.201;45504.082;   -6.347;52414.598
550.785;43836.188;   -7.917;52355.059
551.370;44159.109;  -10.867;54589.453
551.954;46436.680;   -9.047;58267.348
552.538;48092.805;   -7.827;59062.176
553.123;47294.988;  -10.287;58115.285
553.707;45458.855;  -12.178;56556.285
554.291;45999.012;   -8.717;56201.668
554.876;43834.578;   -7.457;55335.762
555.460;44688.453;  -10.387;54155.703
556.044;47413.902;   -9.618;53721.484
556.628;45160.504;  -11.567;53731.016
557.212;45842.449;   -8.097;54312.531
557.796;44598.512;  -11.077;53797.773
558.380;44008.121;  -11.108;56145.984
558.964;43581.348;   -9.057;57277.930
559.548;43632.813;   -6.977;56459.641
560.132;42807.969;  -11.457;54434.543
560.716;42060.996;  -11.378;54800.617
561.300;41192.305;   -9.577;57606.945
561.884;41627.480;   -7.127;58972.445
562.467;41483.859;   -7.118;57327.570
563.051;42055.055;  -13.358;54962.434
563.635;43511.402;  -10.178;52594.473
564.219;45273.910;   -7.837;50610.410
564.802;45814.473;  -11.398;49551.180
565.386;45344.500;  -12.788;48370.953
565.969;44223.598;   -9.077;48178.871
566.553;45120.566;   -6.207;49957.305
567.136;44623.191;   -8.568;50369.594
567.720;40550.313;  -11.868;49492.004
568.303;39195.500;   -8.268;50616.352
568.887;38522.164;   -8.698;50727.148
569.470;38842.629;   -6.808;51698.379
570.053;37052.684;  -13.188;52122.078
570.637;36264.129;  -12.037;52536.438
571.220;36341.961;   -8.577;51186.098
571.803;36949.191;   -8.498;51032.762
572.386;39441.848;  -10.498;49609.887
572.969;42245.602;   -9.388;48285.926
573.552;40691.262;   -8.338;47624.285
574.135;39494.434;   -8.518;45498.641
574.718;36096.633;  -13.628;41970.434
575.301;35170.688;  -10.893;41447.137
575.884;34244.746;   -8.158;40923.836
576.467;35095.449;  -10.328;45267.723
577.050;37956.250;  -13.058;48175.543
577.633;39025.203;   -9.458;47729.328
578.216;37879.801;   -8.928;47579.793
578.799;36942.332;   -9.358;47820.996
579.381;35882.316;  -11.388;48115.551
579.964;34575.254;  -11.718;47333.766
580.547;35001.355;   -8.588;46668.969
581.129;34921.172;   -8.859;44466.141
581.712;34078.617;  -10.729;44164.922
582.294;35117.535;  -11.118;46477.855
582.877;37032.656;   -5.218;48244.254
583.459;36365.203;   -8.679;47437.895
584.042;35588.922;  -10.709;46943.219
584.624;34679.793;  -11.669;46792.227
585.206;33125.758;   -8.218;46557.250
585.789;34206.629;  -10.569;45793.773
586.371;37128.461;  -11.859;43836.391
586.953;37732.316;  -10.719;42972.492
587.536;37967.613;   -7.198;42487.211
588.118;36899.793;   -8.720;42086.414
588.700;35019.305;  -10.439;43389.930
589.282;34362.391;   -9.198;43646.039
589.864;34429.078;   -9.199;43438.109
590.446;34667.527;  -11.319;43151.926
591.028;33718.207;  -11.159;42781.867
591.610;32553.488;  -11.779;42839.098
592.192;30154.928;   -7.668;42820.402
592.774;29994.182;  -11.949;40724.277
593.356;30212.047;  -12.129;39874.789
593.937;31456.535;  -10.669;39980.648
594.519;33562.633;   -6.509;42069.633
595.101;34591.926;  -10.849;42976.031
595.683;34400.141;  -11.679;44084.441
596.264;35811.230;   -9.049;43478.797
596.846;34659.180;   -8.849;43803.672
597.427;33396.637;   -9.570;42986.934
598.009;35706.508;  -12.620;42832.219
598.591;35773.602;  -10.039;42580.086
599.172;35182.199;  -10.369;43061.805
599.753;35170.973;   -9.140;41691.469
600.335;35476.395;  -11.430;40692.520
600.916;33921.980;   -9.939;39982.422
601.498;33860.648;   -8.479;40318.617
602.079;33794.723;  -10.920;40670.609
602.660;33485.203;  -11.480;41450.898
603.241;32677.838;  -11.699;41137.738
603.823;31100.912;   -9.579;38868.797
604.404;31822.549;  -10.620;38182.785
604.985;32208.955;  -10.450;38078.047
605.566;32045.951;   -9.129;38056.633
606.147;32340.996;   -7.510;37020.418
606.728;34866.492;  -10.660;37883.359
607.309;33883.645;  -11.740;38748.273
607.890;32908.883;   -9.759;38850.230
608.471;32137.941;   -8.250;37457.918
609.051;32062.869;   -9.240;36066.457
609.632;30963.506;  -12.120;35991.074
610.213;31605.645;   -9.110;37402.641
610.794;31577.363;   -8.030;38383.363
611.374;29865.771;   -8.110;40562.387
611.955;29071.406;  -13.560;38533.727
612.536;30613.877;  -11.400;36951.789
613.116;31758.596;   -8.070;37197.891
613.697;32424.910;  -10.830;38411.125
614.277;31125.646;  -11.641;38673.938
614.858;31546.432;  -13.310;37075.863
615.438;31640.689;   -7.460;35092.906
616.019;28932.943;   -7.601;33666.301
616.599;29074.193;  -12.020;34189.023
617.179;31711.777;  -11.780;36952.047
617.760;32205.449;   -8.570;39582.574
618.340;33617.910;  -11.471;38943.977
618.920;35536.418;  -11.170;37594.156
619.500;34978.652;  -11.071;37866.938
620.080;34115.090;   -7.750;37869.043
620.660;34758.559;  -12.711;36868.617
621.241;34881.160;  -10.211;36352.309
621.821;34355.766;  -10.961;35459.520
622.401;33716.789;   -7.720;35207.414
622.980;31802.771;   -8.981;35980.422
623.560;31185.342;   -9.331;37351.328
624.140;32122.883;   -9.850;34388.582
624.720;27976.146;   -7.451;32368.764
625.300;23623.924;   -9.070;32638.629
625.880;25936.525;  -12.601;34599.035
626.459;29325.299;  -11.751;36831.738
627.039;31990.875;   -9.281;38299.098
627.619;32360.133;   -8.801;38289.574
628.198;30422.174;  -12.071;37220.695
628.778;31099.578;   -9.461;37632.563
629.357;32333.533;   -8.491;38003.012
629.937;31595.023;   -9.721;38402.039
630.516;30254.363;   -9.951;37868.801
631.096;30353.109;  -11.731;35760.410
631.675;33647.070;   -8.572;35225.219
632.254;38721.930;  -11.282;35130.289
632.834;38533.410;  -13.322;35794.570
633.413;38023.148;  -10.301;35788.922
633.992;35577.160;   -8.582;34532.863
634.571;36008.555;   -8.352;33590.113
635.151;36977.133;  -11.912;34943.863
635.730;35084.758;  -10.511;35352.523
636.309;32072.242;   -7.731;35366.605
636.888;29309.346;   -9.952;36165.637
637.467;29941.162;  -11.672;37515.902
638.046;32107.297;   -8.901;39288.695
638.625;35000.031;   -7.912;38279.699
639.204;34749.637;  -10.022;37741.598
639.782;33496.191;  -12.252;38364.551
640.361;30593.734;  -10.041;36740.621
640.940;27666.928;  -11.161;34950.082
641.519;26804.559;   -9.701;34137.398
642.097;28731.262;  -11.271;35654.258
642.676;31824.025;   -8.651;35637.957
643.255;33386.336;   -8.711;36567.074
643.833;32183.580;   -9.581;37809.434
644.412;33124.496;  -13.711;37337.293
644.990;32796.219;  -11.811;37018.531
645.569;32609.570;   -9.411;36518.469
646.147;30707.895;  -10.291;36186.430
646.726;29218.992;  -12.401;36267.688
647.304;29969.783;  -10.411;36647.625
647.882;31368.430;   -9.651;39286.742
648.461;33725.672;   -9.631;39157.703
649.039;33456.848;  -11.881;35412.883
649.617;33463.715;   -9.661;34744.918
650.195;33435.715;   -9.301;35403.098
650.773;32567.258;  -10.511;35053.797
651.352;30902.004;  -11.521;33756.816
651.930;27984.770;  -12.211;31868.773
652.508;24843.258;   -9.171;33121.551
653.086;27832.980;   -9.371;33564.793
653.663;31554.162;  -13.161;34054.668
654.241;30803.158;  -13.031;35693.309
654.819;30526.254;   -9.371;36422.906
655.397;29320.082;  -10.511;38213.484
655.975;30152.641;  -10.371;39507.625
656.553;31639.193;  -10.051;39498.223
657.130;31011.955;  -10.061;40395.480
657.708;29768.732;   -9.561;39242.020
658.286;29475.035;  -11.511;38920.020
658.863;29953.883;  -10.261;40202.898
659.441;30858.787;   -7.531;39677.938
660.018;29774.920;   -9.501;40413.355
660.596;29345.955;  -13.301;39931.414
661.173;31925.953;  -11.211;39604.531
661.750;32581.945;   -9.951;39700.070
662.328;31467.135;   -9.390;39292.809
662.905;30368.281;  -11.330;38235.648
663.482;26043.484;   -9.050;36212.305
664.060;24737.547;   -8.240;35944.945
664.637;27969.764;  -10.050;35170.785
665.214;29381.986;  -11.760;34197.523
665.791;30948.996;  -10.530;34549.520
666.368;30507.982;   -9.690;35118.578
666.945;31886.432;   -9.320;36019.418
667.522;32465.717;  -11.860;36048.438
668.099;32197.762;  -10.770;36243.914
668.676;32427.018;   -6.260;35958.875
669.253;31453.537;   -7.000;37384.730
669.830;31637.461;  -10.190;36779.629
670.407;30883.541;   -9.550;35231.289
670.984;31530.869;   -9.260;35544.270
671.560;29988.771;   -9.280;35466.867
672.137;27941.893;  -11.810;34280.863
672.714;28861.369;  -11.490;34632.863
673.290;28944.828;   -7.740;35135.422
673.867;29575.432;  -10.660;36114.480
674.443;30501.924;  -12.230;36152.859
675.020;29251.266;  -10.450;35327.238
675.596;29989.500;   -9.260;35795.176
676.173;30658.514;  -10.780;35430.355
676.749;29735.479;  -13.690;33549.516
677.326;29269.486;  -11.980;32210.012
677.902;28979.297;   -8.630;32068.871
678.478;27891.799;  -10.730;32583.891
679.054;29041.998;  -10.520;32088.928
679.631;31577.309;  -11.920;30978.848
680.207;31555.715;   -7.490;33160.887
680.783;31956.857;   -9.860;35570.363
681.359;30990.945;  -13.380;36125.184
681.935;28464.547;  -12.480;35240.922
682.511;26256.592;   -7.900;34429.961
683.087;26306.711;   -7.710;34463.680
683.663;27878.332;  -11.480;34648.898
684.239;29057.381;  -14.090;34546.457
684.815;29125.738;   -7.560;35586.375
685.390;28898.090;   -9.910;35821.895
685.966;29128.672;  -11.159;35085.871
686.542;31651.063;  -11.169;34198.230
687.118;33386.469;   -5.959;32847.707
687.693;32994.773;  -10.329;32794.027
688.269;31424.070;  -12.059;33072.367
688.844;27814.678;  -10.909;33141.664
689.420;26178.158;   -8.019;33965.742
689.995;25573.996;   -8.399;34655.523
690.571;25556.389;  -10.949;33576.742
691.146;26976.025;   -9.619;32657.219
691.722;26084.318;   -8.999;32526.979
692.297;25298.861;  -11.589;33014.617
692.872;26748.668;  -11.739;34012.254
693.448;26974.975;  -11.059;34237.434
694.023;25811.129;  -10.139;34142.672
694.598;26962.672;   -9.029;34132.031
695.173;26404.539;  -13.319;34205.250
695.748;26137.801;  -10.169;32882.488
696.323;26248.113;   -8.339;32864.906
696.898;25688.418;   -8.169;33170.004
697.473;25446.182;  -12.309;32432.984
698.048;26354.641;  -10.989;31649.303
698.623;27801.600;   -9.329;30778.141
699.198;29018.119;   -9.849;31140.119
699.773;29113.209;  -12.329;31764.299
700.348;28450.904;  -10.389;31780.816
700.922;28824.473;   -9.269;32046.375
701.497;28108.234;   -9.329;32603.574
702.072;27760.191;  -10.789;34799.871
702.646;28333.859;  -10.839;35793.172
703.221;28193.049;   -9.099;35201.590
703.795;30410.773;  -10.939;34764.527
704.370;29313.078;  -12.859;34307.367
704.944;28017.820;  -11.559;33509.887
705.519;29522.375;   -7.939;31388.584
706.093;31148.705;  -10.499;31340.104
706.668;31076.127;  -11.289;32630.281
707.242;29165.230;  -11.509;32728.779
707.816;28147.510;   -9.639;32947.238
708.390;26791.443;  -11.429;33277.855
708.965;27562.035;  -11.869;33834.336
709.539;28472.854;  -11.689;33709.273
710.113;28579.361;  -10.478;33044.313
710.687;27524.434;  -10.228;31953.992
711.261;25170.252;  -13.698;30505.949
711.835;25103.158;  -13.378;30262.369
712.409;26639.428;   -9.698;31254.447
712.983;27818.699;  -11.898;32754.986
713.557;28417.654;  -15.138;34018.824
714.131;28264.563;  -14.098;34579.625
714.704;27605.096;   -9.958;33890.262
715.278;25535.098;  -10.028;33531.102
715.852;26104.410;  -11.148;33601.660
716.425;27617.684;   -9.068;33515.117
716.999;27097.340;  -10.038;33185.555
717.573;27085.285;   -9.798;33905.996
718.146;28241.387;  -12.378;35199.293
718.720;28559.316;  -11.918;35060.551
719.293;28975.707;   -8.088;34973.230
719.867;31044.508;  -10.888;36394.449
720.440;31235.834;  -11.938;36663.008
721.013;30512.018;  -12.818;35102.426
721.587;29351.311;  -10.298;33985.266
722.160;27454.523;  -10.048;33524.965
722.733;26461.383;  -12.108;32987.043
723.306;26964.801;  -10.818;33066.301
723.880;27964.865;   -8.908;33399.500
724.453;29406.689;   -9.878;33468.297
725.026;28192.877;  -11.188;33816.637
725.599;25631.676;  -11.678;32797.996
726.172;26671.248;   -9.618;33187.434
726.745;28997.844;   -8.258;35136.613
727.318;30645.713;  -12.978;35751.730
727.891;30716.826;  -12.148;35890.430
728.463;30422.818;   -8.968;34822.090
729.036;29910.535;  -10.188;32895.086
729.609;30329.678;  -11.788;31823.225
730.182;26444.506;  -11.788;31445.283
730.754;23819.758;  -10.268;32373.223
731.327;23577.572;   -9.998;33676.820
731.900;23173.646;  -12.228;33417.000
732.472;24882.912;  -13.848;31978.498
733.045;28059.012;   -8.698;30368.777
733.617;28411.166;  -10.607;30574.215
734.190;26776.611;  -11.507;31280.975
734.762;23855.605;  -13.647;31674.412
735.334;23187.400;   -9.767;31247.291
735.907;23595.467;   -9.897;29876.211
736.479;23593.561;  -11.637;29808.488
737.051;23026.895;   -9.567;30233.547
737.623;24365.971;   -8.187;31469.086
738.195;26104.893;  -11.187;31784.225
738.768;27427.473;  -12.337;32120.523
739.340;26317.172;  -12.227;32094.342
739.912;24519.582;  -11.057;31312.680
740.484;24136.303;  -10.207;31946.238
741.056;23246.584;  -10.047;32984.059
741.628;24423.563;  -13.627;33897.715
742.199;27230.777;   -7.177;33213.016
742.771;26779.957;  -10.797;31369.113
743.343;24292.422;  -11.997;31865.473
743.915;22191.180;  -12.867;32388.631
744.487;22008.914;   -7.617;31079.568
745.058;23132.959;   -9.557;30570.107
745.630;24390.543;   -9.877;29970.127
746.201;25056.250;  -14.177;29186.766
746.773;24767.541;   -9.237;28805.723
747.344;24388.992;   -9.847;29591.223
747.916;22837.779;  -11.657;31412.201
748.487;22301.563;  -10.587;32194.898
749.059;23994.545;   -8.707;32533.719
749.630;25179.012;  -10.537;32158.518
750.201;24608.354;  -11.687;30855.395
750.773;23134.422;  -11.647;28622.555
751.344;22657.709;   -7.147;28405.732
751.915;23431.467;   -9.757;28461.551
752.486;22248.773;  -12.427;27842.850
753.057;20017.613;  -12.227;27845.008
753.628;19398.135;  -10.417;27728.107
754.199;19733.744;  -11.767;27381.086
754.770;20364.221;  -11.187;25882.203
755.341;20290.256;  -10.507;25886.184
755.912;20055.953;   -9.387;26050.861
756.483;19559.605;  -10.647;26798.779
757.054;18166.988;  -11.837;27048.238
757.625;17578.217;  -12.716;26294.838
758.195;17511.330;   -9.666;26142.076
758.766;17218.961;   -8.656;26392.234
759.337;18088.545;  -12.856;26334.594
759.907;19464.578;  -13.366;27579.652
760.478;20151.287;   -8.576;28352.770
761.048;20540.922;  -10.526;27325.088
761.619;20162.965;  -11.116;26460.428
762.189;19130.705;  -12.136;26029.826
762.760;18882.426;   -9.456;26430.145
763.330;19130.072;   -7.136;26670.902
763.900;18243.734;  -11.786;26603.021
764.471;15817.354;  -11.546;25542.740
765.041;15260.002;   -8.096;24358.459
765.611;16296.357;   -8.876;23991.297
766.181;16656.996;  -12.196;24470.236
766.751;16858.324;  -11.636;24845.975
767.321;16714.867;  -10.156;24533.633
767.891;15153.896;  -11.766;24916.492
768.461;14477.764;  -14.936;24776.771
769.031;14432.424;  -12.356;24757.988
769.601;15588.745;   -7.526;24181.088
770.171;15555.104;  -10.766;23670.387
770.741;15219.882;  -13.176;22960.045
771.311;15430.778;  -10.616;22917.523
771.880;15449.780;   -9.576;23562.941
772.450;15138.084;  -10.336;24216.500
773.020;15634.844;  -13.516;24140.398
773.589;15387.442;  -13.466;24414.857
774.159;14797.145;   -8.686;23858.717
774.729;14208.009;   -9.476;22942.135
775.298;13374.842;  -13.666;22324.033
775.867;12857.267;  -11.716;21140.313
776.437;12864.324;   -9.906;20838.092
777.006;12777.033;  -12.166;20599.510
777.576;12985.825;  -12.356;20508.809
778.145;13243.533;  -11.646;20732.947
778.714;12781.966;   -8.226;21062.465
779.283;11594.995;   -9.556;20949.664
779.853;11438.809;  -14.116;20508.623
780.422;11688.829;  -11.506;20649.082
780.991;11061.884;   -9.556;21527.520
781.560;10566.354;   -9.095;22632.658
782.129;10733.051;  -12.135;23048.277
782.698;10517.835;  -10.865;23438.555
783.267;10168.729;   -9.335;23267.734
783.836;10137.823;  -11.045;22415.133
784.404;10550.006;  -13.865;20443.152
784.973;10148.161;  -13.095;19699.150
785.542; 9734.457;  -11.575;19763.828
786.111; 9852.463;   -9.705;20341.408
786.679; 9919.345;  -12.105;20207.967
787.248; 9989.160;  -12.455;19516.465
787.817; 9619.997;  -11.535;18900.363
788.385; 8906.566;   -9.765;17879.121
788.954; 8147.514;  -14.005;17658.301
789.522; 8173.591;  -11.955;17788.879
790.090; 8950.277;  -10.135;18118.277
790.659; 9282.692;  -10.975;18338.736
791.227; 8891.269;  -13.375;18508.615
791.795; 9272.995;  -12.375;17898.254
792.364; 9500.182;  -10.725;17295.133
792.932; 9564.982;   -9.715;16822.051
793.500; 9538.550;  -12.675;17040.148
794.068; 9628.531;  -13.495;17179.787
794.636; 9725.868;  -10.885;16664.246
795.204; 9533.050;  -11.045;16524.545
795.772; 9560.771;  -13.175;17274.564
796.340; 9308.051;  -12.445;17891.002
796.908; 9162.871;   -9.735;17648.561
797.476; 9056.850;   -9.815;17064.080
798.044; 8591.309;  -13.985;16672.777
798.612; 7899.540;  -13.115;17023.996
799.180; 7712.673;  -10.185;16561.615
799.747; 7841.565;   -9.055;15962.773
800.315; 7869.793;  -12.385;15296.992
800.883; 7636.232;  -15.035;14801.771
801.450; 7479.345;  -10.365;14534.430
802.018; 7407.108;   -9.855;14173.248
802.585; 7553.074;  -11.905;14029.547
803.153; 7917.124;  -11.585;13836.846
803.720; 8000.601;   -9.095;13567.324
804.287; 7655.945;   -9.135;13360.622
804.855; 7412.498;  -11.604;13681.981
805.422; 7220.111;  -11.794;13536.560
805.989; 7025.350;  -10.734;13355.958
806.556; 7179.385;  -10.444;13747.896
807.124; 7670.559;  -12.764;13987.376
807.691; 7863.583;  -12.964;14038.674
808.258; 7898.183;  -11.134;14120.152
808.825; 7730.935;   -9.854;13860.111
809.392; 7623.189;  -10.504;13268.790
809.959; 7096.094;  -13.054;12680.389
810.526; 6797.254;   -8.294;12427.308
811.093; 6900.075;   -8.394;12030.105
811.659; 7466.714;  -12.304;11653.664
812.226; 7807.141;  -13.944;11637.183
812.793; 7478.343;  -10.484;11611.521
813.360; 6984.030;  -10.144;11885.181
813.926; 6601.198;  -11.684;12770.539
814.493; 6447.341;  -13.644;12677.638
815.060; 6090.383;   -9.724;11974.336
815.626; 5997.545;   -9.854;11594.715
816.193; 6376.419;  -13.254;11579.474
816.759; 6656.665;  -13.204;11666.972
817.325; 7048.393;   -9.434;11325.530
817.892; 7377.596;  -10.134;11105.369
818.458; 7657.214;  -13.474;10843.928
819.024; 7296.860;  -11.854;10714.406
819.591; 6943.113;  -10.244;10469.165
820.157; 6891.620;  -10.704;10235.523
820.723; 6741.064;  -12.324;10847.563
821.289; 6598.878;   -9.444;11040.980
821.855; 6511.595;   -8.374;10357.100
822.421; 6530.975;  -10.234; 9978.918
822.987; 6285.329;  -13.294; 9754.177
823.553; 5942.542;  -10.884;10065.755
824.119; 5956.257;   -8.884;10036.294
824.685; 6151.094;   -6.784;10029.192
825.251; 6108.442;  -12.004;10199.230
825.816; 5874.919;  -11.474; 9820.189
826.382; 5667.616;   -9.174; 9297.248
826.948; 5917.008;   -9.214; 9381.347
827.513; 6275.584;  -10.774; 9450.726
828.079; 6117.921;  -11.924; 9472.444
828.645; 5673.729;  -10.543; 9292.643
829.210; 5697.202;  -10.533; 9065.341
829.776; 5656.954;  -10.753; 9132.620
830.341; 5503.041;  -10.173; 9092.878
830.906; 5565.351;  -10.743; 9078.557
831.472; 5868.741;  -11.113; 8534.535
832.037; 5715.866;  -10.603; 8677.874
832.602; 5217.765;  -13.323; 8628.692
833.167; 4761.970;  -10.823; 8879.031
833.733; 4564.016;  -10.113; 9189.790
834.298; 4599.253;  -13.583; 9052.608
834.863; 4502.835;  -12.703; 8895.087
835.428; 4544.508;  -10.523; 8824.266
835.993; 4777.079;   -6.963; 8845.385
836.558; 4772.426;  -10.763; 8888.563
837.123; 4741.580;   -9.903; 8966.582
837.688; 4655.186;   -9.913; 8617.860
838.253; 4618.188;  -10.283; 8590.699
838.817; 4642.769;  -12.963; 8443.797
839.382; 4619.988;  -14.243; 8799.356
839.947; 4476.060;  -10.733; 8810.595
840.511; 4244.860;   -9.383; 8796.394
841.076; 3911.344;  -12.563; 8347.231
841.641; 3889.027;  -12.953; 8224.330
842.205; 3916.635;   -7.043; 8223.349
842.770; 4070.703;   -8.163; 8622.107
843.334; 4395.794;  -12.503; 8410.386
843.898; 4405.161;  -11.693; 8337.465
844.463; 4367.097;  -10.203; 8506.283
845.027; 4094.207;   -9.533; 8280.962
845.591; 3931.367;  -13.443; 8231.141
846.156; 3897.560;  -13.143; 7969.179
846.720; 3724.248;   -9.433; 7768.278
847.284; 3627.307;  -11.033; 7630.957
847.848; 3448.923;  -10.403; 7472.395
848.412; 3299.106;  -11.553; 7437.394
848.976; 3305.791;   -8.393; 7674.592
849.540; 3268.919;   -8.713; 7836.011
850.104; 3328.382;  -12.463; 7913.669
850.668; 3556.956;  -12.973; 7694.508
851.232; 3618.686;  -10.793; 7756.887
851.796; 3473.276;  -10.662; 7926.545
852.359; 3226.478;  -13.082; 7827.844
852.923; 3115.792;  -12.192; 7641.163
853.487; 2990.150;  -11.912; 7342.501
854.050; 2934.021;  -10.892; 7042.820
854.614; 3022.393;  -13.992; 7151.338
855.177; 3126.603;  -11.732; 7105.077
855.741; 3176.918;   -8.962; 6989.675
856.304; 3087.416;   -9.442; 6596.634
856.868; 3091.700;  -14.192; 6356.272
857.431; 3231.172;  -12.702; 6468.571
857.995; 3291.190;   -9.942; 6373.210
858.558; 3342.665;   -9.112; 6324.448
859.121; 3141.366;  -12.932; 6408.327
859.684; 3063.884;  -13.442; 6347.886
860.247; 3177.151;  -10.632; 6321.264
860.810; 3092.354;  -11.272; 6301.903
861.374; 2761.272;   -9.832; 6607.881
861.937; 2478.297;  -11.762; 6408.200
862.500; 2421.677;   -9.722; 6572.639
863.062; 2510.839;  -10.512; 6387.297
863.625; 2575.016;  -11.232; 6190.836
864.188; 2696.259;  -14.112; 5807.254
864.751; 2844.676;  -11.302; 5682.413
865.314; 2807.805;  -10.112; 5547.492
865.876; 2727.044;  -12.182; 5500.150
866.439; 2783.379;  -10.722; 5415.909
867.002; 2667.576;   -9.252; 5501.567
867.564; 2414.921;   -9.572; 5413.946
868.127; 2206.049;  -13.142; 5160.325
868.689; 2207.927;  -12.902; 5133.183
869.252; 2215.529;   -9.732; 5252.382
869.814; 2146.015;   -9.432; 5297.141
870.377; 2133.480;  -11.552; 5390.919
870.939; 2206.163;   -9.052; 5599.898
871.501; 2249.671;  -10.982; 5248.336
872.063; 2281.566;  -12.292; 4854.235
872.626; 2278.550;  -14.912; 4817.074
873.188; 2242.556;  -13.112; 4987.732
873.750; 2137.566;  -13.442; 4868.651
874.312; 2036.223;   -9.402; 4779.330
874.874; 1967.749;  -11.062; 4866.348
875.436; 1918.085;  -13.931; 4718.887
875.998; 1911.954;   -9.561; 4660.005
876.560; 1898.395;  -11.321; 4462.964
877.122; 1837.047;  -12.221; 4145.042
877.683; 1750.494;  -12.191; 4056.481
878.245; 1698.185;  -12.101; 3950.740
878.807; 1724.631;   -8.971; 4058.958
879.369; 1696.950;  -12.071; 3954.677
879.930; 1595.753;  -14.621; 3941.495
880.492; 1574.789;  -10.311; 4067.014
881.053; 1541.107;  -10.901; 3859.633
881.615; 1430.272;  -14.411; 3776.071
882.176; 1373.477;  -13.761; 3734.750
882.738; 1394.799;   -9.181; 3678.489
883.299; 1421.056;  -11.791; 3405.407
883.860; 1445.925;  -13.121; 3351.106
884.422; 1434.592;  -11.211; 3394.044
884.983; 1351.761;  -10.091; 3166.443
885.544; 1225.630;   -8.461; 3189.802
886.105; 1146.584;  -12.361; 3160.360
886.666; 1109.419;  -14.141; 3093.059
887.227; 1065.478;  -11.361; 2941.957
887.788;  979.677;  -11.401; 2974.836
888.349;  899.532;  -13.791; 2721.214
888.910;  917.171;  -13.191; 2696.493
889.471;  942.456;   -9.881; 2560.172
890.032;  904.817;   -9.881; 2558.190
890.593;  857.125;  -10.371; 2567.669
891.153;  831.850;  -13.301; 2460.307
891.714;  786.693;  -11.431; 2372.046
892.275;  741.966;  -11.291; 2309.505
892.835;  695.033;  -11.471; 2382.543
893.396;  639.306;  -11.541; 2295.502
893.956;  589.833;  -11.181; 2162.420
894.517;  551.989;  -11.741; 2125.439
895.077;  541.387;  -11.671; 2086.978
895.638;  540.934;  -11.311; 2126.316
896.198;  511.883;   -9.831; 1838.275
896.758;  464.471;   -8.421; 1892.813
897.319;  436.145;  -12.351; 1792.232
897.879;  431.290;  -13.511; 1762.751
898.439;  406.658;  -12.001; 1661.149
898.999;  373.661;  -10.180; 1781.468
899.559;  359.823;  -12.030; 1703.347
900.119;  352.607;  -15.710; 1537.525
900.679;  349.530;   -8.900; 1638.384
901.239;  336.928;   -8.340; 1527.902
901.799;  324.901;  -13.910; 1456.441
902.359;  315.450;  -13.460; 1357.140
902.919;  302.492;  -11.490; 1331.118
903.479;  286.028;  -12.110; 1317.257
904.038;  263.019;  -11.720; 1262.595
904.598;  247.365;  -13.610; 1152.034
905.158;  240.051;  -11.040; 1240.893
905.717;  230.748;  -10.900; 1233.691
906.277;  220.633;  -15.080; 1217.330
906.836;  213.423;  -13.380; 1222.408
907.396;  206.248;  -10.780; 1193.047
907.955;  199.105;   -8.500; 1182.526
908.515;  192.779;  -12.760; 1099.364
909.074;  185.157;  -11.900; 1092.863
909.633;  178.479;   -8.950; 1069.121
910.192;  175.852;   -8.770; 1196.460
910.752;  171.487;  -12.390; 1029.960
911.311;  167.928;  -13.680; 1009.780
911.870;  164.519;  -12.370;  971.460
912.429;  164.215;  -10.900; 1094.080
912.988;  161.692;  -11.690; 1081.060
913.547;  156.269;  -13.240;  940.380
914.106;  152.557;  -11.990;  999.420
914.665;  148.480;   -9.990;  984.020
915.224;  147.048;  -12.880; 1035.760
915.782;  146.533;  -12.350;  922.560
916.341;  146.745;   -9.110; 1049.840
916.900;  142.498;   -9.270;  925.260
917.458;  141.271;  -13.240;  884.220
918.017;  140.558;  -13.550;  942.600
918.576;  140.310;  -12.320;  904.440
919.134;  137.770;  -11.490;  837.980
919.693;  135.292;  -13.670;  893.060
920.251;  132.528;  -15.470;  876.500
920.809;  132.039;  -11.290;  839.580
921.368;  131.603;  -10.210;  885.360
921.926;  130.593;  -12.140;  842.940
922.484;  130.015;  -13.080;  903.360
923.042;  129.520;  -11.720;  880.340
923.601;  132.210;   -7.480;  998.680
924.159;  130.214;  -11.570;  935.560
924.717;  126.859;  -13.840;  841.080
925.275;  126.625;  -10.640;  903.240
925.833;  126.957;  -11.540;  779.320
926.391;  127.013;  -12.960;  938.380
926.949;  125.131;  -14.130;  857.680
927.506;  126.172;  -11.750;  903.500
928.064;  126.659;  -10.250;  877.580
928.622;  126.240;  -13.030;  880.100
929.180;  125.577;  -13.400;  814.180
929.737;  127.249;  -10.700;  808.540
930.295;  132.304;  -10.070;  928.480
930.853;  133.077;  -11.960;  849.100
931.410;  134.602;  -13.120;  821.120
931.968;  133.495;  -10.770;  940.660
932.525;  132.567;  -10.680;  909.380
933.082;  132.326;  -13.130;  811.440
933.640;  132.332;  -13.210;  925.900
934.197;  130.610;  -11.060;  886.360
934.754;  132.399;   -9.580;  897.780
935.312;  134.878;  -14.000;  863.340
935.869;  139.010;  -10.710; 1012.980
936.426;  138.670;   -9.860;  872.800
936.983;  138.056;   -9.710;  889.020
937.540;  136.954;  -13.990;  838.280
938.097;  136.320;  -14.040;  940.120
938.654;  138.377;  -10.310;  898.860
939.211;  140.655;  -10.560;  952.480
939.768;  142.350;  -13.900;  915.420
940.324;  145.463;  -14.760;  904.200
940.881;  146.416;  -10.370;  878.500
941.438;  149.232;   -8.260; 1021.200
941.995;  144.549;  -12.540;  992.560
942.551;  142.773;  -14.670;  875.620
943.108;  142.193;  -10.450;  937.920
943.664;  145.384;  -10.750;  869.340
944.221;  147.982;  -11.550; 1088.140
944.777;  146.425;  -14.770;  869.680
945.334;  149.663;  -12.820;  884.840
945.890;  151.610;  -10.130;  946.480
946.446;  150.770;  -13.470;  947.020
947.003;  152.298;  -12.120;  964.940
947.559;  150.855;   -9.980; 1063.040
948.115;  149.169;   -9.080; 1026.540
948.671;  146.778;  -10.830;  967.300
949.227;  144.963;  -12.440;  859.560
949.783;  141.819;  -12.910;  858.900
950.339;  144.615;  -10.270;  991.000
950.895;  144.414;  -13.630; 1023.840
951.451;  144.236;  -15.100;  925.280
952.007;  147.657;  -11.330;  998.540
952.563;  148.937;  -10.580;  937.780
953.118;  146.330;  -13.440;  904.940
953.674;  145.789;  -12.710;  935.780
954.230;  146.579;  -10.350;  949.640
954.785;  145.562;   -9.190;  936.640
955.341;  144.102;  -11.200;  998.160
955.897;  141.274;  -16.560;  834.660
956.452;  140.528;  -12.570;  953.840
957.008;  139.429;   -7.970; 1083.640
957.563;  136.694;  -11.940; 1009.540
958.118;  133.041;  -13.450;  877.700
958.674;  134.992;  -12.030;  946.780
959.229;  135.154;   -9.410; 1013.980
959.784;  131.940;  -12.000;  832.400
960.339;  129.812;  -14.780; 1001.280
960.894;  126.015;   -9.860;  963.760
961.449;  123.163;   -9.970;  859.960
962.004;  124.901;  -10.900; 1212.840
962.559;  120.754;  -13.150;  860.140
963.114;  118.550;  -13.740;  742.480
963.669;  118.124;   -9.820;  915.500
964.224;  115.741;  -13.890;  874.340
964.779;  113.720;  -12.600;  828.420
965.334;  114.889;  -10.950; 1017.860
965.888;  113.777;  -11.170;  875.360
966.443;  116.483;  -12.540;  972.380
966.998;  114.165;  -15.780;  819.460
967.552;  113.040;   -9.760;  908.380
968.107;  110.014;   -9.060;  868.300
968.661;  111.313;  -11.950;  922.440
969.216;  111.116;  -12.800;  856.280
969.770;  110.921;  -11.210;  917.200
970.324;  110.190;  -11.610;  923.140
970.879;  106.228;  -11.370;  947.180
971.433;  104.603;  -12.540;  952.720
971.987;   99.446;  -11.320;  895.340
972.541;   95.627;  -10.720;  917.100
973.095;   95.408;   -9.680; 1009.460
973.649;   95.070;  -11.440;  809.480
974.203;   95.302;  -11.210;  829.040
974.757;   96.162;  -10.240;  855.220
975.311;   95.964;  -13.720;  872.600
975.865;   95.522;  -13.770;  881.820
976.419;   93.792;  -11.690;  857.400
976.973;   93.767;   -9.510;  849.620
977.526;   93.922;  -12.620;  949.920
978.080;   92.413;  -12.010;  796.780
978.634;   94.628;  -10.170;  921.320
979.187;   92.463;   -9.020;  905.400
979.741;   91.328;   -9.820; 1018.380
980.294;   86.408;  -14.870;  789.160
980.848;   83.807;  -12.380;  717.220
981.401;   86.803;  -10.350;  816.540
981.955;   87.500;  -13.720;  844.300
982.508;   87.194;  -11.490;  746.340
983.061;   88.429;  -10.000;  915.260
983.615;   86.637;  -11.480;  798.800
984.168;   82.969;  -13.220;  770.080
984.721;   81.986;  -13.960;  880.760
985.274;   81.080;  -10.870;  867.500
985.827;   80.725;   -9.790;  834.220
986.380;   77.466;  -13.120;  721.340
986.933;   76.519;  -12.450;  864.800
987.486;   74.841;  -10.210;  861.920
988.039;   73.993;   -8.430;  863.100
988.591;   72.191;  -10.520;  893.260
989.144;   70.272;  -14.860;  737.260
989.697;   69.663;  -13.080;  758.740
990.250;   70.718;  -10.150;  858.100
990.802;   69.714;  -13.430;  755.860
991.355;   69.592;  -12.750;  974.880
991.907;   67.393;  -12.040;  864.320
992.460;   65.193;  -11.330;  753.760
993.012;   64.271;  -13.610;  749.540
993.565;   62.552;  -13.460;  711.360
994.117;   64.245;   -9.360;  950.780
994.669;   62.022;  -11.300;  701.320
995.221;   59.013;  -13.540;  791.920
995.774;   57.714;  -13.430;  787.580
996.326;   56.182;  -12.520;  740.220
996.878;   56.048;  -10.950;  838.420
997.430;   53.354;  -14.300;  699.860
997.982;   53.213;  -13.760;  750.140
998.534;   52.029;  -11.530;  739.060
999.086;   51.356;  -10.310;  738.220
999.638;   50.577;  -12.530;  661.380
1000.190;   49.796;  -11.840;  699.320
1000.741;   49.493;  -10.260;  742.700
1001.293;   49.424;   -8.860;  686.020
1001.845;   47.873;  -13.700;  676.640
1002.396;   47.966;  -12.100;  743.400
1002.948;   47.101;  -12.760;  737.400
1003.500;   45.634;  -10.380;  723.780
1004.051;   46.079;  -11.900;  907.580
1004.603;   44.096;  -12.250;  791.820
1005.154;   40.346;  -13.210;  608.980
1005.705;   40.503;  -10.950;  723.960
1006.257;   39.335;  -13.880;  707.220
1006.808;   38.808;  -12.840;  685.460
1007.359;   38.080;  -10.570;  763.240
1007.910;   37.464;   -9.620;  646.640
1008.461;   37.131;  -13.630;  732.940
1009.013;   36.046;  -17.200;  588.340
1009.564;   36.785;  -10.200;  793.520
1010.115;   34.982;  -12.570;  597.040
1010.665;   35.916;  -15.150;  602.160
1011.216;   35.239;  -14.480;  667.920
1011.767;   35.189;  -11.340;  697.920
1012.318;   35.466;   -9.780;  736.980
1012.869;   33.466;  -12.380;  679.000
1013.419;   33.330;  -15.560;  603.120
1013.970;   33.568;  -11.010;  666.640
1014.521;   33.134;  -11.610;  620.620
1015.071;   33.560;  -13.450;  670.380
1015.622;   31.882;  -13.870;  635.460
1016.172;   31.880;  -11.610;  596.820
1016.723;   31.974;  -12.120;  614.380
1017.273;   31.597;  -13.620;  604.160
1017.823;   31.645;  -14.140;  650.340
1018.374;   30.618;  -12.800;  611.760
1018.924;   31.451;  -12.340;  716.880
1019.474;   31.322;  -11.410;  718.880
1020.024;   29.798;  -14.770;  657.580
1020.574;   30.708;   -9.780;  726.160
1021.124;   31.217;   -8.560;  673.580
1021.674;   29.138;  -15.190;  559.120
1022.224;   30.576;  -13.530;  708.940
1022.774;   29.553;  -13.280;  668.820
1023.324;   30.389;  -10.690;  753.520
1023.874;   31.276;  -10.240;  875.760
1024.423;   28.597;  -12.540;  613.700
1024.973;   28.920;  -10.010;  610.760
1025.523;   28.082;  -10.550;  620.960
1026.072;   27.397;  -13.560;  606.420
1026.622;   27.485;  -15.120;  675.740
1027.172;   28.773;  -11.260;  715.660
1027.721;   28.199;  -11.410;  601.220
1028.270;   27.625;  -13.530;  663.400
1028.820;   28.319;  -13.680;  638.080
1029.369;   26.898;  -13.520;  612.700
1029.918;   27.678;  -10.980;  649.840
1030.468;   26.681;  -13.530;  564.780
1031.017;   26.679;  -13.170;  634.800
1031.566;   25.372;  -12.200;  608.900
1032.115;   26.575;   -9.960;  694.500
1032.664;   24.796;  -13.210;  596.480
1033.213;   26.314;  -12.500;  735.420
1033.762;   25.599;  -11.910;  635.620
1034.311;   25.703;   -9.640;  677.220
1034.860;   25.725;  -13.310;  691.000
1035.408;   25.182;  -11.830;  722.720
1035.957;   25.867;  -12.000;  719.540
1036.506;   24.221;  -11.690;  530.800
1037.055;   25.386;  -10.990;  844.320
1037.603;   24.683;  -15.120;  664.000
1038.152;   22.885;  -12.450;  534.760
1038.700;   23.898;  -10.560;  585.740
1039.249;   23.070;  -11.080;  681.220
1039.797;   23.507;  -12.540;  633.360
1040.345;   23.725;  -11.920;  705.420
1040.894;   23.907;  -11.410;  625.300
1041.442;   22.734;  -14.320;  632.200
1041.990;   21.288;  -16.240;  559.160
1042.538;   22.159;  -11.680;  536.180
1043.087;   22.388;  -10.760;  570.860
1043.635;   23.857;  -11.850;  670.500
1044.183;   22.013;  -15.480;  586.400
1044.731;   21.630;  -11.770;  576.000
1045.279;   21.363;  -13.090;  674.920
1045.827;   22.855;  -12.440;  892.400
1046.374;   20.984;  -13.840;  515.420
1046.922;   20.526;  -13.220;  590.580
1047.470;   22.696;  -10.230;  691.300
1048.018;   21.507;  -14.590;  647.960
1048.565;   21.809;  -12.050;  708.600
1049.113;   19.979;  -11.650;  557.000
1049.660;   20.857;  -10.510;  629.660
1050.208;   20.391;  -13.310;  675.640
1050.755;   20.055;  -15.900;  606.580
1051.303;   20.786;  -11.430;  686.820
1051.850;   19.597;   -8.480;  635.120
1052.397;   18.810;  -15.010;  473.960
1052.945;   18.432;  -13.960;  617.760
1053.492;   20.312;  -13.150;  741.840
1054.039;   20.508;   -9.630;  720.180
1054.586;   19.471;  -13.680;  557.240
1055.133;   20.333;  -14.570;  693.140
1055.680;   19.604;  -13.820;  646.620
1056.227;   18.813;  -11.730;  542.780
1056.774;   20.441;  -12.480;  794.980
1057.321;   17.773;  -13.930;  523.260
1057.868;   17.895;  -11.690;  651.320
1058.415;   18.313;   -9.520;  651.980
1058.961;   18.912;  -13.160;  678.940
1059.508;   18.110;  -12.920;  643.820
1060.055;   17.716;  -11.920;  581.780
1060.601;   18.188;  -11.500;  624.300
1061.148;   17.858;  -14.330;  616.820
1061.694;   16.881;  -16.870;  592.580
1062.241;   17.373;  -10.330;  596.320
1062.787;   17.771;  -10.620;  663.140
1063.334;   19.146;  -10.110;  808.560
1063.880;   17.291;  -13.400;  668.360
1064.426;   16.990;  -10.680;  706.820
1064.972;   16.471;   -9.920;  601.340
1065.518;   15.730;  -10.980;  566.640
1066.065;   16.147;  -14.890;  624.460
1066.611;   15.324;  -12.870;  598.800
1067.157;   17.268;  -12.950;  641.860
1067.703;   16.247;  -13.540;  668.480
1068.249;   16.097;  -13.540;  605.220
1068.794;   16.487;  -12.600;  626.880
1069.340;   15.062;  -10.620;  578.960
1069.886;   15.761;  -12.830;  590.700
1070.432;   14.775;  -14.870;  541.720
1070.977;   14.710;  -11.980;  601.080
1071.523;   14.688;   -8.200;  573.060
1072.068;   14.906;  -12.330;  582.000
1072.614;   14.671;  -16.370;  527.760
1073.160;   15.989;  -11.100;  687.040
1073.705;   14.428;  -10.480;  572.520
1074.250;   13.944;  -14.520;  559.900
1074.796;   15.152;  -11.460;  655.160
1075.341;   14.968;  -11.950;  664.100
1075.886;   14.951;  -11.460;  594.240
1076.431;   13.112;  -13.770;  649.880
1076.976;   13.698;  -12.680;  639.220
1077.521;   13.198;  -13.170;  583.080
1078.067;   13.694;  -10.860;  579.400
1078.612;   13.404;  -13.920;  661.620
1079.156;   13.433;  -13.880;  601.540
1079.701;   13.963;  -13.120;  693.260
1080.246;   14.356;   -9.940;  696.300
1080.791;   13.854;  -14.740;  625.020
1081.336;   13.228;  -13.750;  659.320
1081.880;   12.747;  -13.400;  649.680
1082.425;   12.729;  -12.220;  573.480
1082.970;   14.441;  -11.610;  717.040
1083.514;   12.270;  -13.580;  597.000
1084.059;   11.818;  -12.810;  586.720
1084.603;   12.280;  -12.320;  565.840
1085.147;   12.144;  -13.190;  645.220
1085.692;   13.297;  -12.480;  716.800
1086.236;   11.130;  -13.020;  503.140
1086.780;   13.258;   -9.190;  751.440
1087.325;   11.891;  -12.480;  654.620
1087.869;   11.782;  -12.450;  610.700
1088.413;   12.439;  -12.240;  705.040
1088.957;   10.401;   -9.020;  543.400
1089.501;   12.576;  -10.320;  766.640
1090.045;   12.151;  -12.720;  726.480
1090.589;    9.699;  -13.690;  569.920
1091.133;   11.292;  -10.020;  673.340
1091.676;   11.478;  -12.330;  591.940
1092.220;   11.385;  -14.970;  600.920
1092.764;   12.002;  -12.430;  706.960
1093.307;   11.590;   -9.800;  673.780
1093.851;    9.838;  -14.970;  556.540
1094.395;   10.582;  -15.310;  683.140
1094.938;   10.150;  -10.370;  632.520
1095.482;   10.174;  -11.050;  559.800
1096.025;   10.258;  -11.840;  710.880
1096.568;   11.142;  -12.840;  779.280
1097.112;    8.039;  -14.700;  508.180
1097.655;   10.172;   -8.720;  603.000
1098.198;    8.543;  -13.610;  600.180
1098.741;    8.643;  -13.350;  612.860
1099.285;   10.153;  -11.230;  657.300
1099.828;    8.109;  -11.840;  439.400
1100.371;    8.810;  -10.840;  608.160
1100.914;    9.359;  -14.190;  682.660
1101.457;    9.335;  -11.240;  679.900
1101.999;    7.937;  -11.270;  584.680
1102.542;    9.243;  -11.480;  641.440
1103.085;    7.789;  -11.750;  658.500
1103.628;    9.332;  -11.400;  762.060
1104.170;    8.171;  -10.490;  588.280
1104.713;    8.625;  -10.600;  646.700
1105.256;    8.025;  -14.360;  557.440
1105.798;    6.860;  -13.210;  499.980
1106.341;    9.295;  -10.270;  728.900
1106.883;    7.447;  -12.200;  521.340
1107.425;    8.129;  -13.110;  668.180
1107.968;    7.877;  -12.840;  612.380
1108.510;    8.663;   -6.480;  684.960
1109.052;    6.920;  -13.940;  612.620
1109.594;    6.527;  -13.690;  554.440
1110.136;    7.744;  -11.880;  643.220
1110.679;    7.615;   -9.500;  633.080
1111.221;    7.488;  -14.160;  604.460
1111.763;    6.211;  -13.980;  559.220
1112.304;    5.956;  -13.880;  547.140
1112.846;    7.787;  -12.210;  666.240
1113.388;    9.569;  -11.390;  942.180
1113.930;    6.532;  -14.540;  694.200
1114.472;    5.175;  -12.640;  606.540
1115.013;    5.883;  -11.620;  551.280
1115.555;    5.130;  -13.640;  587.100
1116.097;    5.127;  -15.380;  579.480
1116.638;    6.717;  -12.640;  684.600
1117.180;    6.640;   -9.850;  667.740
1117.721;    5.828;  -13.690;  568.580
1118.262;    6.711;  -12.680;  677.960
1118.804;    5.833;  -12.530;  637.340
1119.345;    5.044;  -11.690;  578.400
1119.886;    6.369;  -13.380;  704.040
1120.427;    4.861;  -14.070;  589.020
1120.969;    4.812;  -13.500;  597.920
1121.510;    4.269;  -11.480;  563.060
1122.051;    5.824;  -12.830;  723.580
1122.592;    4.640;  -14.290;  655.420
1123.133;    3.834;  -12.400;  547.940
1123.673;    5.772;  -10.130;  706.480
1124.214;    4.698;  -12.930;  612.460
1124.755;    5.432;  -14.380;  639.460
1125.296;    4.839;  -14.000;  627.320
1125.836;    5.173;  -10.070;  691.500
1126.377;    4.497;  -12.640;  599.660
1126.918;    4.927;  -12.960;  614.980
1127.458;    3.781;  -13.350;  622.220
1127.999;    4.693;  -10.750;  656.980
1128.539;    4.929;  -12.350;  694.240
1129.079;    3.385;  -14.860;  632.720
1129.620;    3.028;  -13.840;  558.100
1130.160;    3.741;  -12.330;  539.480
1130.700;    3.934;  -14.530;  640.840
1131.240;    5.011;  -12.530;  643.700
1131.781;    3.177;  -14.450;  619.680
1132.321;    3.323;   -9.790;  599.120
1132.861;    2.903;  -14.860;  564.200
1133.401;    2.655;  -14.290;  593.940
1133.941;    3.220;  -11.750;  626.280
1134.481;    2.603;   -9.920;  597.580
1135.020;    2.428;  -12.290;  609.160
1135.560;    3.801;  -11.650;  674.940
1136.100;    2.225;  -16.270;  501.160
1136.640;    2.751;  -10.890;  510.480
1137.179;    2.120;  -14.180;  537.960
1137.719;    2.624;  -16.250;  605.400
1138.258;    2.660;  -14.230;  587.360
1138.798;    2.975;   -9.090;  663.780
1139.337;    1.867;  -15.130;  482.840
1139.877;    2.333;  -13.680;  642.360
1140.416;    4.761;  -11.320;  878.060
1140.955;    1.581;  -10.860;  535.380
1141.494;    2.618;  -12.920;  669.280
1142.034;    1.521;  -13.930;  583.520
1142.573;    2.876;  -11.440;  646.280
1143.112;    1.840;  -12.000;  553.480
1143.651;    1.647;  -13.670;  536.480
1144.190;    2.490;  -12.730;  691.640
1144.729;    1.295;  -14.560;  607.420
1145.267;    1.629;  -11.830;  584.900
1145.806;    2.762;  -12.230;  637.040
1146.345;    0.517;  -14.130;  635.020
1146.884;    0.502;  -11.590;  622.500
1147.422;    0.946;  -12.550;  533.060
1147.961;    2.493;  -11.180;  708.460
1148.500;    2.026;  -11.510;  669.720
1149.038;    2.282;  -11.640;  632.500
1149.577;    1.868;  -10.130;  698.640
1150.115;   -0.312;  -13.970;  452.280
1150.653;    1.162;  -14.520;  607.340
1151.192;    0.624;  -12.810;  552.920
1151.730;    1.402;   -9.100;  652.560
1152.268;    0.245;  -12.220;  589.520
1152.806;    0.163;  -14.140;  571.180
1153.344;   -0.772;  -12.350;  577.640
1153.882;    0.265;   -8.980;  600.060
1154.421;   -0.806;  -15.190;  470.620
1154.958;   -0.531;  -15.210;  595.240
1155.496;    1.339;  -12.850;  645.280
1156.034;    0.631;   -9.940;  721.880
1156.572;    1.246;  -13.570;  667.060
1157.110;   -1.815;  -14.590;  473.940
1157.647;    0.827;  -13.030;  676.960
1158.185;   -0.519;  -12.140;  564.320
1158.723;   -2.058;  -14.390;  509.200
1159.260;   -0.291;  -14.090;  701.700
1159.798;    0.121;  -11.920;  658.160
1160.335;   -0.139;  -11.110;  631.820

