gmr_right
Integration time [ms]: 384.568
Averaging Nr. [scans]: 50
Smoothing Nr. [pixels]: 0
Data measured with spectrometer [name]: 7414430SP
Wave   ;Sample   ;Dark     ;Reference
[nm]   ;[counts] ;[counts] ;[counts] 

288.544;  672.099;  568.515;  793.890
289.143;  577.786;  409.561;  681.602
289.742;  711.940;  554.563;  828.814
290.341;  677.056;  505.621;  789.841
290.940;  625.412;  470.651;  730.702
291.538;  755.193;  638.612;  881.108
292.137;  677.230;  534.599;  792.581
292.736;  849.976;  681.621;  975.101
293.335;  632.338;  510.669;  735.086
293.934;  674.162;  495.663;  781.677
294.532;  903.654;  741.656; 1031.958
295.131;  731.937;  595.746;  834.394
295.730;  713.283;  598.740;  809.588
296.328;  692.168;  543.748;  783.442
296.927;  682.573;  597.761;  779.652
297.525;  690.879;  550.746;  781.236
298.124;  576.561;  421.822;  654.009
298.722;  672.942;  559.769;  761.933
299.321;  631.948;  487.787;  708.597
299.919;  668.751;  498.805;  751.918
300.518;  617.697;  469.828;  689.338
301.116;  617.191;  504.786;  691.381
301.715;  650.661;  511.760;  730.222
302.313;  638.955;  453.771;  704.943
302.911;  660.589;  513.844;  733.830
303.509;  837.878;  690.770;  925.627
304.108;  689.691;  544.767;  760.383
304.706;  733.167;  555.763;  801.664
305.304;  731.925;  584.826;  796.707
305.902;  720.403;  580.759;  784.484
306.500;  669.814;  507.790;  728.200
307.098;  695.843;  522.797;  746.560
307.696;  726.075;  583.814;  780.432
308.294;  684.763;  558.798;  731.359
308.892;  706.575;  546.766;  759.769
309.490;  661.097;  509.809;  712.161
310.088;  740.326;  605.831;  788.444
310.686;  765.788;  599.777;  821.749
311.284;  717.522;  545.812;  766.040
311.882;  687.707;  537.830;  731.225
312.480;  658.136;  498.852;  697.167
313.078;  759.472;  628.829;  808.331
313.675;  654.874;  501.790;  691.600
314.273;  754.847;  596.854;  797.837
314.871;  569.903;  410.841;  589.829
315.468;  622.549;  515.844;  652.090
316.066;  660.744;  490.792;  694.427
316.664;  624.583;  490.855;  656.351
317.261;  855.660;  738.822;  910.128
317.859;  733.308;  589.840;  768.735
318.456;  780.089;  653.806;  830.096
319.054;  737.214;  615.833;  787.828
319.651;  720.516;  575.818;  759.928
320.249;  755.076;  657.818;  810.188
320.846;  675.597;  532.804;  714.286
321.443;  777.621;  658.817;  832.135
322.041;  761.315;  623.828;  812.315
322.638;  661.827;  561.821;  701.456
323.235;  628.015;  516.771;  665.683
323.833;  707.890;  582.791;  740.354
324.430;  592.492;  431.805;  615.900
325.027;  830.371;  719.791;  876.855
325.624;  619.915;  430.747;  644.532
326.221;  667.282;  470.764;  689.717
326.818;  795.164;  639.788;  818.332
327.415;  726.715;  529.732;  748.828
328.012;  673.063;  477.725;  690.585
328.609;  716.049;  521.743;  731.389
329.206;  765.120;  601.760;  778.621
329.803;  727.989;  539.767;  737.841
330.400;  695.817;  498.741;  704.260
330.997;  799.189;  568.762;  817.147
331.594;  779.550;  600.815;  788.185
332.191;  721.850;  534.767;  728.722
332.787;  821.693;  605.786;  844.463
333.384;  747.387;  523.840;  763.093
333.981;  792.208;  572.897;  815.687
334.578;  698.535;  498.876;  708.378
335.174;  707.548;  497.878;  731.469
335.771;  807.562;  594.918;  836.456
336.367;  693.918;  505.953;  710.631
336.964;  769.403;  578.927;  793.266
337.561;  712.126;  529.941;  731.112
338.157;  863.199;  709.000;  911.916
338.754;  763.557;  608.020;  796.589
339.350;  693.691;  535.012;  722.493
339.946;  732.512;  575.978;  773.135
340.543;  797.771;  657.060;  846.136
341.139;  685.150;  529.094;  720.836
341.735;  727.917;  610.102;  772.593
342.332;  652.719;  532.087;  691.472
342.928;  748.226;  574.076;  795.394
343.524;  721.034;  581.108;  761.684
344.120;  689.521;  531.115;  738.562
344.716;  671.232;  541.060;  723.717
345.313;  739.360;  584.063;  795.342
345.909;  585.184;  435.072;  627.336
346.505;  685.521;  573.043;  740.247
347.101;  756.101;  594.029;  827.864
347.697;  728.830;  585.008;  785.398
348.293;  574.146;  442.033;  627.244
348.889;  681.585;  578.023;  745.914
349.485;  626.220;  517.010;  688.205
350.081;  706.721;  577.005;  772.592
350.676;  633.736;  521.040;  691.606
351.272;  738.617;  594.987;  809.530
351.868;  700.945;  566.970;  780.497
352.464;  661.943;  564.990;  723.932
353.059;  588.838;  473.015;  646.017
353.655;  702.143;  584.980;  777.063
354.251;  684.138;  553.958;  759.845
354.846;  669.496;  534.006;  740.646
355.442;  674.780;  561.039;  753.071
356.038;  667.409;  554.998;  751.708
356.633;  648.489;  546.993;  728.594
357.229;  642.529;  547.008;  724.757
357.824;  627.249;  515.022;  703.600
358.420;  603.429;  529.017;  679.726
359.015;  610.184;  508.004;  695.357
359.610;  682.854;  579.992;  763.920
360.206;  532.191;  418.041;  603.240
360.801;  558.889;  482.003;  646.503
361.396;  640.832;  522.978;  725.975
361.992;  583.849;  504.022;  668.220
362.587;  585.760;  512.048;  670.160
363.182;  602.202;  531.024;  689.631
363.777;  640.618;  559.010;  738.242
364.372;  640.276;  578.016;  737.314
364.967;  591.124;  518.048;  680.744
365.563;  705.384;  623.995;  815.567
366.158;  591.473;  502.007;  685.161
366.753;  558.596;  489.992;  649.263
367.348;  644.367;  579.023;  746.056
367.942;  599.870;  519.008;  697.298
368.537;  642.602;  552.029;  754.245
369.132;  602.371;  517.017;  703.428
369.727;  550.964;  477.052;  638.079
370.322;  501.367;  430.032;  580.186
370.917;  608.496;  528.040;  710.646
371.511;  745.640;  666.020;  861.834
372.106;  671.244;  615.048;  776.964
372.701;  495.984;  439.062;  585.988
373.296;  736.692;  671.012;  863.135
373.890;  543.780;  486.048;  647.840
374.485;  592.906;  535.071;  691.199
375.079;  635.493;  582.021;  738.685
375.674;  696.112;  650.017;  812.970
376.268;  585.919;  528.049;  691.759
376.863;  490.172;  451.103;  580.327
377.457;  560.451;  514.031;  662.490
378.052;  642.417;  601.059;  764.884
378.646;  634.299;  571.058;  741.167
379.240;  608.535;  552.064;  721.176
379.835;  541.685;  532.037;  636.978
380.429;  472.074;  427.045;  562.557
381.023;  659.591;  597.070;  779.205
381.617;  572.585;  514.081;  680.106
382.212;  579.070;  518.036;  685.303
382.806;  641.231;  610.031;  760.690
383.400;  567.783;  550.067;  672.281
383.994;  564.799;  557.073;  664.870
384.588;  588.619;  535.029;  697.701
385.182;  613.826;  584.999;  726.624
385.776;  599.861;  539.019;  706.875
386.370;  581.635;  545.054;  681.968
386.964;  578.374;  553.031;  684.155
387.558;  502.987;  448.003;  598.360
388.152;  576.255;  545.045;  681.959
388.745;  697.397;  664.039;  814.707
389.339;  640.102;  623.014;  747.642
389.933;  589.910;  552.998;  695.370
390.527;  741.781;  720.024;  859.029
391.120;  497.046;  481.071;  595.318
391.714;  603.901;  588.039;  711.633
392.308;  665.826;  622.008;  780.253
392.901;  546.267;  497.037;  642.460
393.495;  506.844;  508.057;  595.414
394.089;  658.249;  649.046;  760.452
394.682;  592.127;  534.047;  697.188
395.275;  614.806;  577.047;  719.927
395.869;  570.389;  567.061;  667.314
396.462;  521.259;  512.039;  616.609
397.056;  664.108;  631.003;  776.621
397.649;  630.705;  601.057;  731.575
398.242;  620.257;  583.025;  712.645
398.836;  659.467;  630.013;  766.408
399.429;  532.661;  486.015;  631.041
400.022;  569.595;  536.059;  665.902
400.615;  698.643;  675.043;  805.609
401.208;  584.864;  580.009;  691.451
401.802;  596.594;  569.036;  699.329
402.395;  587.995;  535.059;  683.502
402.988;  594.012;  588.070;  696.627
403.581;  552.027;  560.023;  646.878
404.174;  589.045;  573.994;  686.568
404.767;  551.754;  529.040;  638.583
405.360;  537.042;  506.062;  621.445
405.953;  652.567;  648.008;  759.034
406.545;  623.240;  583.996;  725.342
407.138;  526.060;  507.039;  618.350
407.731;  533.021;  507.029;  613.303
408.324;  573.707;  560.975;  660.554
408.917;  587.046;  577.999;  681.864
409.509;  643.311;  618.027;  740.396
410.102;  559.031;  542.051;  643.948
410.695;  573.786;  557.970;  665.758
411.287;  515.702;  482.981;  599.821
411.880;  503.091;  456.988;  585.421
412.472;  526.067;  511.027;  613.092
413.065;  553.098;  563.006;  629.408
413.657;  503.697;  484.963;  576.678
414.250;  561.683;  525.966;  646.681
414.842;  582.713;  576.997;  676.353
415.434;  497.389;  475.969;  570.463
416.027;  561.647;  535.922;  652.196
416.619;  626.779;  592.962;  713.400
417.211;  520.012;  500.964;  599.352
417.804;  548.180;  540.914;  628.499
418.396;  530.285;  513.965;  607.643
418.988;  570.375;  525.944;  659.238
419.580;  491.633;  484.978;  568.276
420.172;  475.233;  456.944;  536.196
420.764;  593.582;  578.913;  672.482
421.356;  560.053;  544.925;  636.898
421.948;  589.201;  552.947;  677.661
422.540;  593.380;  580.890;  680.027
423.132;  522.791;  498.887;  600.641
423.724;  488.548;  455.931;  561.267
424.316;  547.189;  504.916;  621.345
424.908;  520.825;  498.869;  591.517
425.500;  573.346;  548.869;  647.978
426.092;  564.534;  551.867;  648.268
426.683;  612.416;  583.896;  684.836
427.275;  570.274;  540.848;  641.471
427.867;  583.443;  557.841;  668.948
428.458;  651.580;  592.842;  732.344
429.050;  604.055;  569.867;  680.749
429.642;  652.204;  615.845;  743.124
430.233;  492.820;  460.832;  569.356
430.825;  649.459;  584.837;  724.809
431.416;  618.669;  594.868;  698.241
432.008;  572.097;  538.823;  651.723
432.599;  574.096;  555.814;  656.073
433.190;  567.326;  534.859;  637.670
433.782;  524.551;  480.858;  590.395
434.373;  780.232;  771.800;  884.765
434.964;  524.983;  467.798;  602.920
435.556;  557.625;  533.836;  634.537
436.147;  667.242;  617.822;  758.490
436.738;  617.045;  584.816;  701.099
437.329;  638.066;  599.763;  721.723
437.920;  588.417;  563.852;  666.688
438.511;  500.746;  440.845;  564.526
439.103;  543.571;  524.772;  623.998
439.694;  600.982;  546.759;  681.583
440.285;  670.466;  607.773;  764.432
440.876;  751.722;  709.798;  845.738
441.466;  505.752;  436.786;  575.162
442.057;  586.419;  554.731;  665.814
442.648;  662.489;  617.772;  746.255
443.239;  549.432;  531.791;  620.477
443.830;  625.075;  578.742;  704.958
444.421;  579.422;  482.716;  655.474
445.011;  601.961;  529.779;  693.619
445.602;  657.515;  592.785;  743.126
446.193;  429.846;  379.734;  488.117
446.783;  563.861;  497.697;  640.397
447.374;  609.031;  563.772;  692.759
447.964;  632.505;  602.773;  713.770
448.555;  726.981;  654.692;  822.742
449.145;  581.514;  533.728;  662.853
449.736;  709.056;  656.742;  803.179
450.326;  636.502;  545.740;  713.626
450.917;  597.214;  549.684;  675.324
451.507;  530.621;  455.692;  600.661
452.097;  665.707;  600.710;  746.267
452.688;  655.189;  534.700;  742.160
453.278;  494.500;  444.693;  566.840
453.868;  705.616;  618.665;  793.550
454.458;  575.385;  473.696;  651.141
455.048;  627.975;  546.703;  711.783
455.639;  501.261;  439.663;  567.096
456.229;  624.401;  544.649;  710.694
456.819;  664.445;  579.648;  751.158
457.409;  684.610;  604.657;  773.993
457.999;  652.068;  557.628;  737.505
458.589;  601.033;  525.632;  686.606
459.179;  635.676;  550.641;  717.658
459.769;  551.444;  487.663;  627.099
460.358;  705.437;  644.621;  797.262
460.948;  609.902;  522.625;  689.503
461.538;  579.689;  488.618;  660.677
462.128;  586.161;  481.649;  664.934
462.717;  620.762;  569.572;  710.326
463.307;  622.820;  556.553;  705.846
463.897;  571.928;  479.614;  656.942
464.486;  743.746;  640.657;  837.128
465.076;  651.537;  582.592;  733.776
465.666;  572.847;  516.547;  652.900
466.255;  698.286;  592.604;  785.651
466.845;  589.374;  481.612;  666.749
467.434;  640.450;  576.589;  725.873
468.023;  579.615;  457.573;  658.357
468.613;  626.093;  526.632;  713.946
469.202;  571.692;  470.579;  646.507
469.791;  645.080;  542.548;  737.811
470.381;  652.337;  556.544;  742.813
470.970;  627.530;  486.551;  711.099
471.559;  654.506;  565.571;  733.291
472.148;  593.411;  481.536;  675.737
472.738;  670.850;  569.527;  765.466
473.327;  556.820;  430.534;  637.529
473.916;  652.534;  547.564;  737.446
474.505;  662.258;  552.520;  751.703
475.094;  710.881;  578.500;  806.570
475.683;  699.515;  568.521;  797.699
476.272;  643.634;  507.526;  730.632
476.861;  623.280;  481.495;  706.754
477.449;  638.388;  502.441;  728.487
478.038;  606.295;  477.526;  692.513
478.627;  628.943;  504.533;  714.852
479.216;  677.214;  583.468;  769.441
479.805;  683.208;  548.450;  783.375
480.393;  886.889;  759.493; 1008.945
480.982;  776.307;  614.513;  874.501
481.571;  755.102;  628.447;  858.333
482.159;  617.912;  453.444;  705.386
482.748;  723.371;  548.478;  821.385
483.336;  762.252;  621.459;  858.209
483.925;  682.352;  539.473;  774.373
484.513;  666.384;  520.408;  758.962
485.102;  707.315;  554.482;  810.965
485.690;  889.908;  716.421; 1011.050
486.278;  863.728;  684.421;  979.329
486.867;  703.931;  541.430;  809.662
487.455;  789.719;  578.448;  898.229
488.043;  655.052;  447.449;  748.361
488.631;  877.798;  712.404; 1005.079
489.220;  799.994;  584.396;  908.626
489.808;  645.810;  424.435;  741.415
490.396;  807.264;  593.422;  914.645
490.984;  720.542;  505.423;  830.161
491.572;  823.695;  618.405;  940.315
492.160;  810.032;  526.449;  919.081
492.748;  781.357;  526.453;  884.341
493.336;  905.733;  620.406; 1019.693
493.924;  849.809;  534.383;  958.077
494.512;  963.303;  599.427; 1066.638
495.100;  997.511;  569.449; 1103.280
495.687; 1095.551;  637.387; 1206.373
496.275; 1052.546;  490.398; 1150.796
496.863; 1169.731;  517.440; 1281.171
497.451; 1264.591;  507.445; 1386.805
498.038; 1410.434;  560.377; 1556.729
498.626; 1600.262;  520.384; 1741.407
499.214; 1921.807;  543.421; 2016.609
499.801; 2163.988;  548.436; 2220.633
500.389; 2312.056;  465.391; 2312.494
500.976; 2755.196;  564.395; 2744.849
501.564; 3053.942;  530.437; 3148.565
502.151; 3224.886;  369.446; 3515.999
502.738; 3750.494;  520.406; 3971.274
503.326; 4336.140;  490.375; 4403.796
503.913; 4915.274;  530.410; 5161.749
504.500; 5394.730;  553.430; 5986.420
505.088; 5971.106;  476.427; 6381.201
505.675; 6936.292;  520.377; 6925.547
506.262; 7924.987;  513.446; 7619.060
506.849; 8930.379;  535.414; 8733.969
507.436; 9876.317;  590.385; 9790.121
508.023;10250.614;  518.391; 9985.472
508.610;10701.526;  592.412;10434.618
509.197;11719.129;  546.469;11198.435
509.784;12775.088;  543.417;12391.194
510.371;13816.988;  433.368;13603.713
510.958;14726.983;  505.437;14426.586
511.545;14981.576;  634.424;15243.775
512.132;15679.864;  547.379;15945.876
512.719;16783.094;  475.410;16340.369
513.305;18507.994;  478.430;18011.766
513.892;19966.428;  600.455;19754.971
514.479;21422.074;  549.396;20967.805
515.066;22586.588;  615.402;22299.793
515.652;23943.100;  523.404;22908.660
516.239;25291.752;  603.420;23798.875
516.825;26579.898;  464.409;25567.275
517.412;28316.785;  686.393;28154.959
517.998;27366.102;  501.432;28344.111
518.585;25922.586;  509.446;27134.219
519.171;26878.729;  535.383;27268.576
519.758;27394.018;  440.395;28964.129
520.344;28259.168;  573.417;30664.494
520.930;29503.010;  456.459;32550.605
521.516;32393.428;  596.383;35422.895
522.103;34286.383;  639.408;38280.004
522.689;34468.270;  498.450;37835.117
523.275;34143.414;  614.439;37288.613
523.861;34862.125;  552.413;37281.395
524.447;36542.043;  614.384;37846.949
525.033;36595.867;  601.436;38321.949
525.619;34897.680;  461.452;38579.285
526.205;34653.867;  483.435;40622.875
526.791;36323.625;  528.398;42258.836
527.377;37470.934;  509.449;42966.902
527.963;38413.965;  570.470;42018.949
528.549;39182.859;  580.452;42476.828
529.135;39632.000;  481.428;41854.852
529.721;38560.023;  524.432;41237.711
530.306;38773.762;  714.452;41259.445
530.892;39559.840;  517.433;41506.047
531.478;41590.824;  526.417;43559.613
532.063;43493.047;  462.445;47695.563
532.649;46338.129;  662.479;50808.324
533.235;46462.621;  487.442;51787.500
533.820;46921.320;  612.394;52145.035
534.406;45003.453;  511.477;51133.488
534.991;44550.637;  497.448;49996.805
535.576;42925.426;  517.432;48882.852
536.162;41566.371;  729.426;46942.285
536.747;42568.316;  444.482;45711.746
537.333;44669.066;  487.479;48510.180
537.918;47545.941;  520.466;50439.891
538.503;47328.328;  498.421;50863.711
539.088;45527.008;  570.460;50906.922
539.673;47466.215;  530.467;52621.965
540.259;48661.758;  483.443;52368.094
540.844;48444.828;  434.436;50879.109
541.429;48212.871;  655.487;52077.777
542.014;48728.410;  451.502;52716.695
542.599;47650.535;  569.453;52363.281
543.184;47467.090;  489.483;53187.137
543.769;49598.242;  467.486;54697.605
544.354;49260.824;  493.480;53913.914
544.938;46140.680;  571.467;49680.164
545.523;43888.543;  652.446;47386.277
546.108;46210.270;  518.488;49151.949
546.693;48345.445;  533.513;51384.637
547.278;47169.773;  570.458;51853.254
547.862;45175.617;  517.429;51173.750
548.447;44706.160;  574.495;51691.395
549.031;45050.922;  497.523;52456.703
549.616;45721.543;  562.461;52714.516
550.201;46347.715;  489.473;52414.598
550.785;49041.539;  590.491;52355.059
551.370;51767.348;  465.503;54589.453
551.954;52942.930;  594.493;58267.348
552.538;52058.676;  577.473;59062.176
553.123;50961.160;  462.501;58115.285
553.707;50992.441;  511.538;56556.285
554.291;50882.684;  614.485;56201.668
554.876;49795.391;  623.498;55335.762
555.460;48966.617;  508.520;54155.703
556.044;49612.418;  493.553;53721.484
556.628;48950.375;  527.507;53731.016
557.212;47075.039;  603.462;54312.531
557.796;45992.371;  537.507;53797.773
558.380;45541.773;  548.549;56145.984
558.964;47064.480;  560.481;57277.930
559.548;49240.352;  445.483;56459.641
560.132;49515.023;  485.524;54434.543
560.716;49968.906;  460.547;54800.617
561.300;50482.824;  460.475;57606.945
561.884;49061.813;  560.512;58972.445
562.467;48077.035;  560.545;57327.570
563.051;46831.277;  540.544;54962.434
563.635;44831.781;  540.533;52594.473
564.219;42772.133;  504.511;50610.410
564.802;44342.449;  572.550;49551.180
565.386;46733.813;  516.541;48370.953
565.969;47155.371;  604.488;48178.871
566.553;47866.789;  698.527;49957.305
567.136;47206.926;  608.551;50369.594
567.720;47379.297;  542.569;49492.004
568.303;48719.996;  564.544;50616.352
568.887;50689.879;  548.534;50727.148
569.470;50774.047;  555.580;51698.379
570.053;47919.078;  572.573;52122.078
570.637;45782.664;  491.514;52536.438
571.220;46079.141;  588.510;51186.098
571.803;47196.891;  680.584;51032.762
572.386;48317.309;  495.561;49609.887
572.969;47937.945;  526.538;48285.926
573.552;48362.258;  531.549;47624.285
574.135;46945.301;  458.591;45498.641
574.718;43127.137;  474.559;41970.434
575.301;41938.676;  487.068;41447.137
575.884;40750.219;  499.577;40923.836
576.467;42683.535;  559.569;45267.723
577.050;43102.188;  575.580;48175.543
577.633;41821.684;  663.538;47729.328
578.216;42964.633;  503.574;47579.793
578.799;47835.566;  523.600;47820.996
579.381;48601.203;  669.567;48115.551
579.964;44629.441;  503.538;47333.766
580.547;42902.133;  537.579;46668.969
581.129;43311.262;  621.610;44466.141
581.712;42771.578;  551.621;44164.922
582.294;44707.793;  522.570;46477.855
582.877;43567.219;  703.563;48244.254
583.459;42774.047;  544.619;47437.895
584.042;44889.832;  520.618;46943.219
584.624;45491.867;  507.624;46792.227
585.206;44427.289;  407.575;46557.250
585.789;43028.816;  477.611;45793.773
586.371;41919.324;  552.638;43836.391
586.953;40176.793;  598.608;42972.492
587.536;38450.930;  635.574;42487.211
588.118;39371.277;  543.679;42086.414
588.700;40792.477;  662.631;43389.930
589.282;41967.590;  586.599;43646.039
589.864;41153.375;  523.612;43438.109
590.446;41336.051;  407.647;43151.926
591.028;40777.902;  543.639;42781.867
591.610;41165.664;  439.615;42839.098
592.192;41009.352;  565.599;42820.402
592.774;39127.602;  475.629;40724.277
593.356;38729.422;  501.668;39874.789
593.937;38064.285;  523.605;39980.648
594.519;38953.895;  611.612;42069.633
595.101;39841.047;  460.657;42976.031
595.683;40428.027;  509.666;44084.441
596.264;41263.320;  540.611;43478.797
596.846;42507.379;  517.630;43803.672
597.427;41973.156;  487.679;42986.934
598.009;41631.988;  472.681;42832.219
598.591;40714.613;  598.632;42580.086
599.172;39926.898;  500.640;43061.805
599.753;39210.629;  454.676;41691.469
600.335;39413.719;  637.693;40692.520
600.916;39141.633;  552.666;39982.422
601.498;38757.668;  559.652;40318.617
602.079;39116.629;  534.676;40670.609
602.660;37918.211;  531.685;41450.898
603.241;35359.430;  434.637;41137.738
603.823;35090.465;  514.648;38868.797
604.404;35762.520;  451.688;38182.785
604.985;37984.250;  509.695;38078.047
605.566;40397.543;  595.634;38056.633
606.147;41218.598;  537.708;37020.418
606.728;40471.586;  457.716;37883.359
607.309;40179.680;  483.697;38748.273
607.890;40469.910;  526.661;38850.230
608.471;39842.031;  469.685;37457.918
609.051;39421.414;  536.742;36066.457
609.632;38819.484;  458.735;35991.074
610.213;39755.699;  541.693;37402.641
610.794;41360.652;  503.699;38383.363
611.374;40222.781;  568.707;40562.387
611.955;40334.125;  444.725;38533.727
612.536;41687.785;  573.691;36951.789
613.116;40261.855;  524.698;37197.891
613.697;40216.785;  515.744;38411.125
614.277;39765.969;  494.753;38673.938
614.858;36744.469;  516.696;37075.863
615.438;35140.305;  536.691;35092.906
616.019;34991.438;  622.756;33666.301
616.599;36143.152;  423.733;34189.023
617.179;39147.566;  475.710;36952.047
617.760;39328.688;  708.686;39582.574
618.340;37452.238;  498.765;38943.977
618.920;37808.914;  653.742;37594.156
619.500;37603.027;  495.768;37866.938
620.080;37362.961;  479.741;37869.043
620.660;38159.824;  468.802;36868.617
621.241;38429.391;  491.762;36352.309
621.821;37256.566;  592.749;35459.520
622.401;37578.074;  587.742;35207.414
622.980;39466.781;  463.779;35980.422
623.560;39434.867;  460.758;37351.328
624.140;36625.457;  557.741;34388.582
624.720;36353.930;  554.748;32368.764
625.300;38489.809;  485.743;32638.629
625.880;39052.195;  503.780;34599.035
626.459;37968.648;  556.753;36831.738
627.039;36977.828;  444.772;38299.098
627.619;38789.262;  703.802;38289.574
628.198;41203.930;  572.791;37220.695
628.778;43277.207;  551.748;37632.563
629.357;43911.160;  448.751;38003.012
629.937;41824.305;  496.798;38402.039
630.516;38380.578;  605.794;37868.801
631.096;36892.297;  498.751;35760.410
631.675;36509.363;  625.817;35225.219
632.254;35791.254;  508.833;35130.289
632.834;36971.441;  534.822;35794.570
633.413;39419.914;  638.771;35788.922
633.992;39321.172;  587.820;34532.863
634.571;38359.051;  576.844;33590.113
635.151;37389.867;  476.831;34943.863
635.730;36881.117;  511.775;35352.523
636.309;37245.164;  583.793;35366.605
636.888;36990.527;  593.820;36165.637
637.467;37492.918;  450.842;37515.902
638.046;38122.191;  646.791;39288.695
638.625;38697.250;  649.820;38279.699
639.204;39371.645;  541.850;37741.598
639.782;39888.930;  526.878;38364.551
640.361;39078.180;  639.809;36740.621
640.940;38404.734;  503.807;34950.082
641.519;38217.352;  532.805;34137.398
642.097;37018.270;  556.804;35654.258
642.676;37025.785;  571.802;35637.957
643.255;37770.762;  489.800;36567.074
643.833;39839.938;  569.799;37809.434
644.412;41287.195;  490.797;37337.293
644.990;41433.832;  534.795;37018.531
645.569;41270.289;  555.793;36518.469
646.147;40200.203;  588.792;36186.430
646.726;39040.402;  552.790;36267.688
647.304;38274.816;  509.788;36647.625
647.882;37704.633;  425.787;39286.742
648.461;37373.512;  559.785;39157.703
649.039;37587.109;  588.783;35412.883
649.617;36765.285;  570.781;34744.918
650.195;36538.262;  570.780;35403.098
650.773;37060.797;  470.778;35053.797
651.352;37143.652;  391.776;33756.816
651.930;36772.891;  420.775;31868.773
652.508;36439.066;  603.773;33121.551
653.086;35724.824;  545.771;33564.793
653.663;36562.422;  497.770;34054.668
654.241;37356.938;  453.768;35693.309
654.819;38667.293;  476.766;36422.906
655.397;40602.828;  443.764;38213.484
655.975;41374.926;  530.763;39507.625
656.553;42817.523;  618.761;39498.223
657.130;41925.801;  478.759;40395.480
657.708;41631.875;  552.758;39242.020
658.286;40353.215;  525.756;38920.020
658.863;39857.531;  545.754;40202.898
659.441;39347.547;  541.752;39677.938
660.018;40671.242;  509.751;40413.355
660.596;40975.719;  406.749;39931.414
661.173;41336.777;  500.747;39604.531
661.750;40999.012;  486.746;39700.070
662.328;40404.988;  564.744;39292.809
662.905;39355.145;  510.742;38235.648
663.482;37760.461;  513.741;36212.305
664.060;36988.680;  514.739;35944.945
664.637;36710.035;  585.737;35170.785
665.214;37149.973;  550.735;34197.523
665.791;38843.969;  529.734;34549.520
666.368;39344.746;  530.732;35118.578
666.945;37136.023;  585.730;36019.418
667.522;36253.680;  470.729;36048.438
668.099;37562.516;  505.727;36243.914
668.676;38338.230;  532.725;35958.875
669.253;38814.047;  629.723;37384.730
669.830;37132.164;  578.722;36779.629
670.407;35274.680;  537.720;35231.289
670.984;34666.316;  544.718;35544.270
671.560;35480.934;  560.717;35466.867
672.137;33927.410;  498.715;34280.863
672.714;34209.668;  579.713;34632.863
673.290;35865.445;  548.711;35135.422
673.867;34906.582;  482.710;36114.480
674.443;34803.699;  428.708;36152.859
675.020;36291.574;  541.706;35327.238
675.596;37074.652;  521.705;35795.176
676.173;35914.148;  436.703;35430.355
676.749;36696.883;  385.701;33549.516
677.326;37227.621;  432.700;32210.012
677.902;38082.977;  468.698;32068.871
678.478;37406.133;  424.696;32583.891
679.054;35533.129;  772.694;32088.928
679.631;35076.406;  548.693;30978.848
680.207;36348.883;  660.691;33160.887
680.783;36054.520;  412.689;35570.363
681.359;35981.016;  522.688;36125.184
681.935;35797.031;  540.686;35240.922
682.511;35353.289;  540.684;34429.961
683.087;34573.305;  558.682;34463.680
683.663;33625.145;  498.681;34648.898
684.239;33354.379;  433.679;34546.457
684.815;32742.875;  576.677;35586.375
685.390;33866.074;  664.676;35821.895
685.966;34950.648;  527.674;35085.871
686.542;34021.887;  491.672;34198.230
687.118;33310.563;  520.671;32847.707
687.693;33668.918;  578.669;32794.027
688.269;33271.914;  516.667;33072.367
688.844;32557.191;  567.665;33141.664
689.420;32304.908;  519.664;33965.742
689.995;32249.426;  626.662;34655.523
690.571;32607.861;  615.660;33576.742
691.146;34275.777;  510.659;32657.219
691.722;33770.574;  535.657;32526.979
692.297;32156.672;  459.655;33014.617
692.872;31787.928;  475.654;34012.254
693.448;31072.305;  459.652;34237.434
694.023;31037.781;  537.650;34142.672
694.598;31206.018;  531.648;34132.031
695.173;31471.695;  519.647;34205.250
695.748;31149.990;  415.645;32882.488
696.323;32382.387;  537.643;32864.906
696.898;33024.586;  566.642;33170.004
697.473;32121.682;  437.640;32432.984
698.048;31574.777;  517.638;31649.303
698.623;32310.373;  453.636;30778.141
699.198;33155.250;  536.635;31140.119
699.773;33539.066;  455.633;31764.299
700.348;33094.105;  474.631;31780.816
700.922;32542.240;  520.630;32046.375
701.497;32246.938;  512.628;32603.574
702.072;32842.953;  594.626;34799.871
702.646;33480.852;  601.625;35793.172
703.221;33440.227;  531.623;35201.590
703.795;32741.322;  466.621;34764.527
704.370;33465.820;  386.619;34307.367
704.944;33424.496;  523.618;33509.887
705.519;32963.934;  558.616;31388.584
706.093;33361.809;  467.614;31340.104
706.668;34066.727;  533.613;32630.281
707.242;33574.164;  587.611;32728.779
707.816;32061.199;  511.609;32947.238
708.390;31537.756;  521.607;33277.855
708.965;32120.572;  565.606;33834.336
709.539;32900.188;  518.604;33709.273
710.113;32765.045;  525.602;33044.313
710.687;33361.922;  551.601;31953.992
711.261;33789.258;  468.599;30505.949
711.835;33553.094;  462.597;30262.369
712.409;32430.152;  413.595;31254.447
712.983;32873.887;  424.594;32754.986
713.557;34391.605;  423.592;34018.824
714.131;34951.301;  500.590;34579.625
714.704;33974.020;  495.589;33890.262
715.278;32642.195;  530.587;33531.102
715.852;32268.412;  564.585;33601.660
716.425;31900.469;  663.584;33515.117
716.999;31809.125;  432.582;33185.555
717.573;32828.883;  567.580;33905.996
718.146;33666.520;  615.578;35199.293
718.720;34296.555;  518.577;35060.551
719.293;34912.652;  565.575;34973.230
719.867;34561.469;  470.573;36394.449
720.440;35027.523;  603.572;36663.008
721.013;36129.660;  519.570;35102.426
721.587;34880.738;  405.568;33985.266
722.160;34360.332;  562.566;33524.965
722.733;33583.691;  547.565;32987.043
723.306;34571.129;  513.563;33066.301
723.880;35772.023;  565.561;33399.500
724.453;35078.500;  640.560;33468.297
725.026;33534.375;  497.558;33816.637
725.599;32261.713;  539.556;32797.996
726.172;32789.609;  558.555;33187.434
726.745;34649.746;  538.553;35136.613
727.318;35146.902;  584.551;35751.730
727.891;34362.660;  534.549;35890.430
728.463;32684.877;  535.548;34822.090
729.036;32035.033;  447.546;32895.086
729.609;31555.250;  473.544;31823.225
730.182;32208.127;  580.543;31445.283
730.754;33192.645;  407.541;32373.223
731.327;35026.277;  545.539;33676.820
731.900;35243.797;  421.537;33417.000
732.472;34483.191;  542.536;31978.498
733.045;33934.629;  502.534;30368.777
733.617;32180.246;  437.532;30574.215
734.190;31369.602;  572.531;31280.975
734.762;31203.799;  534.529;31674.412
735.334;31368.395;  527.527;31247.291
735.907;31993.531;  547.526;29876.211
736.479;31750.889;  576.524;29808.488
737.051;32630.506;  544.522;30233.547
737.623;35537.762;  559.520;31469.086
738.195;36842.297;  477.519;31784.225
738.768;36291.895;  389.517;32120.523
739.340;35263.410;  500.515;32094.342
739.912;35316.090;  596.514;31312.680
740.484;34549.844;  543.512;31946.238
741.056;34592.340;  498.510;32984.059
741.628;35568.797;  476.508;33897.715
742.199;34412.113;  596.507;33213.016
742.771;33178.832;  444.505;31369.113
743.343;33488.648;  475.503;31865.473
743.915;33586.563;  503.502;32388.631
744.487;32941.422;  586.500;31079.568
745.058;31989.477;  562.498;30570.107
745.630;30578.014;  564.497;29970.127
746.201;30454.971;  475.495;29186.766
746.773;30353.906;  553.493;28805.723
747.344;29122.123;  515.491;29591.223
747.916;28451.760;  541.490;31412.201
748.487;28931.037;  572.488;32194.898
749.059;30259.854;  453.486;32533.719
749.630;30518.090;  480.485;32158.518
750.201;30077.627;  523.483;30855.395
750.773;29884.902;  478.481;28622.555
751.344;28879.820;  514.479;28405.732
751.915;27361.816;  512.478;28461.551
752.486;27624.172;  462.476;27842.850
753.057;28812.150;  533.474;27845.008
753.628;28988.586;  485.473;27728.107
754.199;27501.262;  483.471;27381.086
754.770;26468.000;  560.469;25882.203
755.341;26311.955;  609.468;25886.184
755.912;25971.533;  508.466;26050.861
756.483;25809.430;  564.464;26798.779
757.054;26136.025;  533.462;27048.238
757.625;26850.762;  470.461;26294.838
758.195;27583.639;  436.459;26142.076
758.766;27327.234;  534.457;26392.234
759.337;26762.291;  432.456;26334.594
759.907;27088.469;  436.454;27579.652
760.478;27234.045;  497.452;28352.770
761.048;27783.762;  566.450;27325.088
761.619;27945.777;  553.449;26460.428
762.189;27506.994;  490.447;26029.826
762.760;26808.951;  588.445;26430.145
763.330;25569.469;  548.444;26670.902
763.900;24769.125;  537.442;26603.021
764.471;24259.041;  468.440;25542.740
765.041;25081.979;  599.438;24358.459
765.611;25615.375;  540.437;23991.297
766.181;26186.592;  538.435;24470.236
766.751;27168.047;  542.433;24845.975
767.321;26231.064;  474.432;24533.633
767.891;24992.961;  499.430;24916.492
768.461;24498.037;  532.428;24776.771
769.031;23471.574;  503.427;24757.988
769.601;21784.430;  591.425;24181.088
770.171;20290.566;  421.423;23670.387
770.741;20591.564;  467.421;22960.045
771.311;21381.859;  568.420;22917.523
771.880;21858.197;  445.418;23562.941
772.450;22347.313;  487.416;24216.500
773.020;22862.990;  424.415;24140.398
773.589;22660.826;  493.413;24414.857
774.159;21959.084;  462.411;23858.717
774.729;20649.260;  480.409;22942.135
775.298;19337.037;  485.408;22324.033
775.867;18587.672;  494.406;21140.313
776.437;19037.490;  512.404;20838.092
777.006;18925.746;  443.403;20599.510
777.576;18560.982;  528.401;20508.809
778.145;18375.420;  558.399;20732.947
778.714;18306.057;  529.398;21062.465
779.283;18025.953;  558.396;20949.664
779.853;18047.109;  481.394;20508.623
780.422;18500.965;  526.392;20649.082
780.991;18164.043;  553.391;21527.520
781.560;17792.939;  606.389;22632.658
782.129;17998.035;  543.387;23048.277
782.698;17763.232;  606.386;23438.555
783.267;17556.988;  519.384;23267.734
783.836;17961.365;  536.382;22415.133
784.404;17601.461;  443.380;20443.152
784.973;16959.078;  387.379;19699.150
785.542;16241.274;  495.377;19763.828
786.111;16240.751;  591.375;20341.408
786.679;16572.787;  534.374;20207.967
787.248;16664.344;  423.372;19516.465
787.817;16301.102;  503.370;18900.363
788.385;16245.418;  571.369;17879.121
788.954;15714.634;  423.367;17658.301
789.522;15745.051;  605.365;17788.879
790.090;16095.947;  433.363;18118.277
790.659;16235.744;  493.362;18338.736
791.227;16236.101;  505.360;18508.615
791.795;15833.897;  533.358;17898.254
792.364;14645.874;  476.357;17295.133
792.932;14397.431;  532.355;16822.051
793.500;14577.667;  508.353;17040.148
794.068;14953.703;  416.352;17179.787
794.636;15010.521;  478.350;16664.246
795.204;14048.577;  432.348;16524.545
795.772;13692.493;  462.346;17274.564
796.340;13865.710;  484.345;17891.002
796.908;13456.146;  442.343;17648.561
797.476;13444.023;  447.341;17064.080
798.044;13664.819;  400.340;16672.777
798.612;13455.496;  499.338;17023.996
799.180;13005.933;  534.336;16561.615
799.747;13237.909;  503.334;15962.773
800.315;13634.126;  439.333;15296.992
800.883;13774.183;  398.331;14801.771
801.450;13447.379;  515.329;14534.430
802.018;13376.536;  525.328;14173.248
802.585;13061.132;  497.326;14029.547
803.153;12642.249;  497.324;13836.846
803.720;12423.086;  507.322;13567.324
804.287;12646.482;  479.321;13360.622
804.855;12788.999;  582.319;13681.981
805.422;12392.135;  490.317;13536.560
805.989;12322.352;  482.316;13355.958
806.556;12690.788;  479.314;13747.896
807.124;13234.625;  525.312;13987.376
807.691;12662.102;  443.311;14038.674
808.258;12493.519;  505.309;14120.152
808.825;12691.295;  541.307;13860.111
809.392;12605.972;  625.305;13268.790
809.959;12399.068;  562.304;12680.389
810.526;12302.744;  651.302;12427.308
811.093;12199.161;  582.300;12030.105
811.659;12403.178;  502.299;11653.664
812.226;12616.814;  500.297;11637.183
812.793;12498.851;  539.295;11611.521
813.360;12399.207;  467.293;11885.181
813.926;12576.124;  535.292;12770.539
814.493;12572.561;  441.290;12677.638
815.060;12507.997;  420.288;11974.336
815.626;12023.334;  421.287;11594.715
816.193;11747.790;  517.285;11579.474
816.759;11993.646;  453.283;11666.972
817.325;12355.504;  404.282;11325.530
817.892;12561.380;  526.280;11105.369
818.458;12305.856;  534.278;10843.928
819.024;11922.474;  578.276;10714.406
819.591;11490.430;  528.275;10469.165
820.157;11093.507;  434.273;10235.523
820.723;11624.383;  525.271;10847.563
821.289;12070.380;  791.270;11040.980
821.855;11583.356;  537.268;10357.100
822.421;11209.053;  444.266; 9978.918
822.987;11013.529;  433.264; 9754.177
823.553;11092.366;  512.263;10065.755
824.119;11547.902;  543.261;10036.294
824.685;11871.639;  600.259;10029.192
825.251;11721.396;  542.258;10199.230
825.816;11219.313;  622.256; 9820.189
826.382;10426.169;  556.254; 9297.248
826.948;10392.065;  585.253; 9381.347
827.513;10409.722;  504.251; 9450.726
828.079;10459.639;  469.249; 9472.444
828.645;10288.835;  543.247; 9292.643
829.210; 9997.712;  434.246; 9065.341
829.776; 9796.528;  570.244; 9132.620
830.341; 9739.405;  564.242; 9092.878
830.906; 9837.562;  584.241; 9078.557
831.472; 9414.698;  449.239; 8534.535
832.037; 9268.715;  581.237; 8677.874
832.602; 8935.651;  467.235; 8628.692
833.167; 8957.848;  540.234; 8879.031
833.733; 8944.024;  556.232; 9189.790
834.298; 8770.221;  412.230; 9052.608
834.863; 8729.458;  522.229; 8895.087
835.428; 8709.114;  565.227; 8824.266
835.993; 8762.711;  546.225; 8845.385
836.558; 8454.447;  548.224; 8888.563
837.123; 8383.484;  686.222; 8966.582
837.688; 8236.381;  521.220; 8617.860
838.253; 8239.497;  510.218; 8590.699
838.817; 8212.874;  487.217; 8443.797
839.382; 8660.910;  608.215; 8799.356
839.947; 8786.347;  537.213; 8810.595
840.511; 8758.823;  610.212; 8796.394
841.076; 8264.380;  413.210; 8347.231
841.641; 8172.657;  549.208; 8224.330
842.205; 7973.813;  548.206; 8223.349
842.770; 7922.110;  632.205; 8622.107
843.334; 7922.727;  493.203; 8410.386
843.898; 8003.943;  500.201; 8337.465
844.463; 8122.220;  598.200; 8506.283
845.027; 7711.856;  512.198; 8280.962
845.591; 7527.693;  562.196; 8231.141
846.156; 7680.989;  490.195; 7969.179
846.720; 7874.946;  592.193; 7768.278
847.284; 7796.603;  497.191; 7630.957
847.848; 7498.579;  570.189; 7472.395
848.412; 7232.676;  553.188; 7437.394
848.976; 7316.832;  637.186; 7674.592
849.540; 7307.589;  660.184; 7836.011
850.104; 7201.905;  600.183; 7913.669
850.668; 7042.542;  405.181; 7694.508
851.232; 6957.059;  426.179; 7756.887
851.796; 6871.655;  506.177; 7926.545
852.359; 6849.112;  596.176; 7827.844
852.923; 6857.188;  574.174; 7641.163
853.487; 6887.645;  578.172; 7342.501
854.050; 6642.461;  371.171; 7042.820
854.614; 6635.918;  501.169; 7151.338
855.177; 6521.635;  542.167; 7105.077
855.741; 6457.311;  555.166; 6989.675
856.304; 6274.188;  575.164; 6596.634
856.868; 6065.665;  453.162; 6356.272
857.431; 5929.701;  522.160; 6468.571
857.995; 5998.538;  497.159; 6373.210
858.558; 6115.174;  551.157; 6324.448
859.121; 6252.671;  567.155; 6408.327
859.684; 6347.947;  516.154; 6347.886
860.247; 6289.444;  519.152; 6321.264
860.810; 6346.440;  486.150; 6301.903
861.374; 6707.357;  667.148; 6607.881
861.937; 6530.474;  465.147; 6408.200
862.500; 6619.350;  506.145; 6572.639
863.062; 6461.327;  431.143; 6387.297
863.625; 6249.583;  541.142; 6190.836
864.188; 5935.480;  497.140; 5807.254
864.751; 5866.237;  498.138; 5682.413
865.314; 5781.893;  535.136; 5547.492
865.876; 5650.010;  555.135; 5500.150
866.439; 5578.747;  556.133; 5415.909
867.002; 5650.543;  688.131; 5501.567
867.564; 5582.060;  595.130; 5413.946
868.127; 5452.856;  527.128; 5160.325
868.689; 5342.933;  549.126; 5133.183
869.252; 5222.869;  596.125; 5252.382
869.814; 4990.246;  474.123; 5297.141
870.377; 5100.783;  533.121; 5390.919
870.939; 5351.759;  773.119; 5599.898
871.501; 5094.116;  550.118; 5248.336
872.063; 4823.612;  398.116; 4854.235
872.626; 4843.769;  419.114; 4817.074
873.188; 4972.445;  534.113; 4987.732
873.750; 4892.302;  532.111; 4868.651
874.312; 4884.219;  525.109; 4779.330
874.874; 5084.035;  635.107; 4866.348
875.436; 4953.472;  571.106; 4718.887
875.998; 4695.108;  631.104; 4660.005
876.560; 4416.425;  552.102; 4462.964
877.122; 4115.861;  466.101; 4145.042
877.683; 4103.318;  609.099; 4056.481
878.245; 4000.115;  493.097; 3950.740
878.807; 4007.751;  561.096; 4058.958
879.369; 3931.028;  448.094; 3954.677
879.930; 3916.244;  447.092; 3941.495
880.492; 4071.521;  620.090; 4067.014
881.053; 4006.498;  462.089; 3859.633
881.615; 4015.094;  468.087; 3776.071
882.176; 3907.131;  518.085; 3734.750
882.738; 4003.727;  603.084; 3678.489
883.299; 3819.984;  378.082; 3405.407
883.860; 3584.500;  423.080; 3351.106
884.422; 3505.397;  552.078; 3394.044
884.983; 3312.994;  481.077; 3166.443
885.544; 3467.010;  559.075; 3189.802
886.105; 3471.427;  525.073; 3160.360
886.666; 3229.923;  513.072; 3093.059
887.227; 3061.840;  450.070; 2941.957
887.788; 3111.197;  528.068; 2974.836
888.349; 2945.053;  437.067; 2721.214
888.910; 2959.290;  596.065; 2696.493
889.471; 2802.386;  546.063; 2560.172
890.032; 2743.183;  541.061; 2558.190
890.593; 2740.959;  574.060; 2567.669
891.153; 2657.456;  504.058; 2460.307
891.714; 2458.013;  434.056; 2372.046
892.275; 2395.009;  417.055; 2309.505
892.835; 2418.626;  590.053; 2382.543
893.396; 2290.982;  565.051; 2295.502
893.956; 2143.499;  484.049; 2162.420
894.517; 2074.236;  533.048; 2125.439
895.077; 2019.272;  534.046; 2086.978
895.638; 2041.789;  637.044; 2126.316
896.198; 1802.925;  486.043; 1838.275
896.758; 1864.202;  580.041; 1892.813
897.319; 1781.919;  512.039; 1792.232
897.879; 1747.635;  535.038; 1762.751
898.439; 1597.252;  418.036; 1661.149
898.999; 1652.048;  543.034; 1781.468
899.559; 1591.645;  534.032; 1703.347
900.119; 1467.881;  450.031; 1537.525
900.679; 1588.178;  647.029; 1638.384
901.239; 1482.355;  565.027; 1527.902
901.799; 1417.991;  493.026; 1456.441
902.359; 1337.108;  463.024; 1357.140
902.919; 1288.864;  481.022; 1331.118
903.479; 1252.961;  501.020; 1317.257
904.038; 1189.938;  436.019; 1262.595
904.598; 1098.254;  380.017; 1152.034
905.158; 1176.191;  497.015; 1240.893
905.717; 1180.487;  492.014; 1233.691
906.277; 1176.704;  518.012; 1217.330
906.836; 1173.000;  544.010; 1222.408
907.396; 1128.257;  552.009; 1193.047
907.955; 1105.474;  574.007; 1182.526
908.515; 1043.090;  476.005; 1099.364
909.074; 1019.787;  497.003; 1092.863
909.633; 1005.723;  514.002; 1069.121
910.192; 1124.480;  642.000; 1196.460
910.752;  981.620;  493.000; 1029.960
911.311;  962.260;  464.000; 1009.780
911.870;  927.140;  506.000;  971.460
912.429; 1035.400;  575.000; 1094.080
912.988; 1015.660;  599.000; 1081.060
913.547;  883.960;  460.000;  940.380
914.106;  929.400;  552.000;  999.420
914.665;  914.740;  519.000;  984.020
915.224;  965.040;  619.000; 1035.760
915.782;  859.620;  487.000;  922.560
916.341;  980.360;  600.000; 1049.840
916.900;  849.840;  510.000;  925.260
917.458;  826.720;  455.000;  884.220
918.017;  878.400;  535.000;  942.600
918.576;  845.940;  513.000;  904.440
919.134;  778.780;  450.000;  837.980
919.693;  835.940;  491.000;  893.060
920.251;  821.860;  503.000;  876.500
920.809;  786.380;  471.000;  839.580
921.368;  816.860;  478.000;  885.360
921.926;  791.500;  443.000;  842.940
922.484;  840.280;  529.000;  903.360
923.042;  821.420;  491.000;  880.340
923.601;  929.700;  585.000;  998.680
924.159;  877.080;  547.000;  935.560
924.717;  785.320;  485.000;  841.080
925.275;  834.340;  524.000;  903.240
925.833;  732.520;  377.000;  779.320
926.391;  871.100;  520.000;  938.380
926.949;  802.420;  479.000;  857.680
927.506;  842.940;  552.000;  903.500
928.064;  813.160;  504.000;  877.580
928.622;  822.160;  500.000;  880.100
929.180;  766.300;  446.000;  814.180
929.737;  755.160;  435.000;  808.540
930.295;  866.740;  532.000;  928.480
930.853;  796.240;  448.000;  849.100
931.410;  764.960;  426.000;  821.120
931.968;  884.960;  539.000;  940.660
932.525;  854.660;  517.000;  909.380
933.082;  766.820;  406.000;  811.440
933.640;  875.060;  538.000;  925.900
934.197;  834.020;  503.000;  886.360
934.754;  837.040;  461.000;  897.780
935.312;  816.340;  466.000;  863.340
935.869;  952.700;  577.000; 1012.980
936.426;  828.500;  497.000;  872.800
936.983;  837.280;  465.000;  889.020
937.540;  786.060;  422.000;  838.280
938.097;  885.740;  529.000;  940.120
938.654;  852.360;  502.000;  898.860
939.211;  890.660;  512.000;  952.480
939.768;  860.920;  478.000;  915.420
940.324;  845.960;  467.000;  904.200
940.881;  825.320;  476.000;  878.500
941.438;  949.380;  581.000; 1021.200
941.995;  938.980;  560.000;  992.560
942.551;  833.680;  439.000;  875.620
943.108;  880.840;  529.000;  937.920
943.664;  817.220;  450.000;  869.340
944.221;  995.800;  628.000; 1088.140
944.777;  790.840;  418.000;  869.680
945.334;  794.360;  471.000;  884.840
945.890;  855.160;  486.000;  946.480
946.446;  867.620;  505.000;  947.020
947.003;  885.920;  508.000;  964.940
947.559;  977.860;  643.000; 1063.040
948.115;  949.980;  581.000; 1026.540
948.671;  897.600;  511.000;  967.300
949.227;  801.680;  412.000;  859.560
949.783;  797.700;  428.000;  858.900
950.339;  919.300;  531.000;  991.000
950.895;  945.940;  552.000; 1023.840
951.451;  856.660;  501.000;  925.280
952.007;  912.480;  544.000;  998.540
952.563;  859.540;  498.000;  937.780
953.118;  840.320;  475.000;  904.940
953.674;  883.160;  504.000;  935.780
954.230;  889.480;  500.000;  949.640
954.785;  875.420;  484.000;  936.640
955.341;  922.360;  535.000;  998.160
955.897;  775.300;  393.000;  834.660
956.452;  883.180;  524.000;  953.840
957.008; 1005.820;  616.000; 1083.640
957.563;  939.480;  554.000; 1009.540
958.118;  814.620;  473.000;  877.700
958.674;  876.800;  524.000;  946.780
959.229;  945.820;  572.000; 1013.980
959.784;  796.400;  402.000;  832.400
960.339;  943.140;  563.000; 1001.280
960.894;  901.900;  532.000;  963.760
961.449;  794.720;  452.000;  859.960
962.004; 1119.900;  790.000; 1212.840
962.559;  802.200;  455.000;  860.140
963.114;  691.200;  347.000;  742.480
963.669;  840.420;  502.000;  915.500
964.224;  812.360;  452.000;  874.340
964.779;  771.820;  409.000;  828.420
965.334;  935.640;  609.000; 1017.860
965.888;  791.940;  475.000;  875.360
966.443;  881.040;  549.000;  972.380
966.998;  747.680;  396.000;  819.460
967.552;  835.740;  480.000;  908.380
968.107;  795.920;  482.000;  868.300
968.661;  849.340;  539.000;  922.440
969.216;  791.480;  484.000;  856.280
969.770;  850.080;  516.000;  917.200
970.324;  849.340;  530.000;  923.140
970.879;  872.960;  579.000;  947.180
971.433;  881.760;  549.000;  952.720
971.987;  830.000;  520.000;  895.340
972.541;  849.320;  520.000;  917.100
973.095;  927.940;  583.000; 1009.460
973.649;  749.980;  449.000;  809.480
974.203;  767.300;  446.000;  829.040
974.757;  783.400;  492.000;  855.220
975.311;  810.660;  480.000;  872.600
975.865;  813.580;  511.000;  881.820
976.419;  794.980;  504.000;  857.400
976.973;  785.680;  461.000;  849.620
977.526;  876.840;  556.000;  949.920
978.080;  741.960;  424.000;  796.780
978.634;  855.040;  567.000;  921.320
979.187;  839.540;  526.000;  905.400
979.741;  942.980;  608.000; 1018.380
980.294;  731.660;  412.000;  789.160
980.848;  665.600;  396.000;  717.220
981.401;  765.960;  475.000;  816.540
981.955;  791.100;  513.000;  844.300
982.508;  699.860;  410.000;  746.340
983.061;  845.940;  556.000;  915.260
983.615;  738.260;  454.000;  798.800
984.168;  711.400;  425.000;  770.080
984.721;  815.780;  508.000;  880.760
985.274;  788.040;  533.000;  867.500
985.827;  764.720;  518.000;  834.220
986.380;  671.960;  385.000;  721.340
986.933;  797.440;  524.000;  864.800
987.486;  788.580;  522.000;  861.920
988.039;  787.140;  558.000;  863.100
988.591;  816.640;  575.000;  893.260
989.144;  678.120;  434.000;  737.260
989.697;  700.840;  452.000;  758.740
990.250;  781.840;  543.000;  858.100
990.802;  696.860;  437.000;  755.860
991.355;  892.640;  669.000;  974.880
991.907;  790.160;  572.500;  864.320
992.460;  687.680;  476.000;  753.760
993.012;  689.160;  481.000;  749.540
993.565;  651.320;  436.000;  711.360
994.117;  859.740;  670.000;  950.780
994.669;  637.240;  441.000;  701.320
995.221;  721.440;  512.000;  791.920
995.774;  715.820;  512.000;  787.580
996.326;  676.440;  496.000;  740.220
996.878;  754.820;  571.000;  838.420
997.430;  634.480;  464.000;  699.860
997.982;  679.580;  508.000;  750.140
998.534;  674.680;  486.000;  739.060
999.086;  665.060;  486.000;  738.220
999.638;  597.440;  423.000;  661.380
1000.190;  635.640;  492.000;  699.320
1000.741;  676.340;  536.000;  742.700
1001.293;  617.560;  431.000;  686.020
1001.845;  612.560;  465.000;  676.640
1002.396;  677.020;  539.000;  743.400
1002.948;  667.080;  528.000;  737.400
1003.500;  646.260;  494.000;  723.780
1004.051;  821.940;  675.000;  907.580
1004.603;  720.480;  574.000;  791.820
1005.154;  552.140;  419.000;  608.980
1005.705;  648.060;  524.000;  723.960
1006.257;  636.840;  501.000;  707.220
1006.808;  618.900;  507.000;  685.460
1007.359;  684.340;  575.000;  763.240
1007.910;  579.620;  453.000;  646.640
1008.461;  661.380;  542.000;  732.940
1009.013;  531.120;  412.000;  588.340
1009.564;  714.680;  619.000;  793.520
1010.115;  532.200;  427.000;  597.040
1010.665;  542.960;  434.000;  602.160
1011.216;  606.200;  497.000;  667.920
1011.767;  625.840;  512.000;  697.920
1012.318;  655.980;  549.000;  736.980
1012.869;  606.780;  497.000;  679.000
1013.419;  547.820;  411.000;  603.120
1013.970;  595.620;  490.000;  666.640
1014.521;  551.540;  456.000;  620.620
1015.071;  606.020;  476.000;  670.380
1015.622;  566.560;  496.000;  635.460
1016.172;  532.740;  455.000;  596.820
1016.723;  548.500;  473.000;  614.380
1017.273;  546.460;  454.000;  604.160
1017.823;  579.220;  496.000;  650.340
1018.374;  550.500;  440.000;  611.760
1018.924;  640.180;  559.000;  716.880
1019.474;  638.820;  544.000;  718.880
1020.024;  587.880;  487.000;  657.580
1020.574;  646.420;  570.000;  726.160
1021.124;  600.280;  528.000;  673.580
1021.674;  504.560;  401.000;  559.120
1022.224;  637.920;  522.000;  708.940
1022.774;  598.780;  489.000;  668.820
1023.324;  676.580;  593.000;  753.520
1023.874;  787.020;  660.000;  875.760
1024.423;  554.760;  456.000;  613.700
1024.973;  543.160;  487.000;  610.760
1025.523;  549.880;  452.000;  620.960
1026.072;  544.420;  448.000;  606.420
1026.622;  603.780;  518.000;  675.740
1027.172;  638.540;  580.000;  715.660
1027.721;  534.040;  437.000;  601.220
1028.270;  597.020;  500.000;  663.400
1028.820;  568.540;  494.000;  638.080
1029.369;  548.360;  477.000;  612.700
1029.918;  576.260;  464.000;  649.840
1030.468;  507.900;  402.000;  564.780
1031.017;  570.900;  494.000;  634.800
1031.566;  547.020;  491.000;  608.900
1032.115;  623.720;  536.000;  694.500
1032.664;  533.420;  418.000;  596.480
1033.213;  651.800;  567.000;  735.420
1033.762;  570.580;  497.000;  635.620
1034.311;  601.320;  507.000;  677.220
1034.860;  616.720;  534.000;  691.000
1035.408;  646.200;  543.000;  722.720
1035.957;  641.680;  537.000;  719.540
1036.506;  471.880;  374.000;  530.800
1037.055;  756.280;  665.000;  844.320
1037.603;  597.160;  507.000;  664.000
1038.152;  477.800;  395.000;  534.760
1038.700;  514.080;  410.000;  585.740
1039.249;  606.360;  531.000;  681.220
1039.797;  567.040;  482.000;  633.360
1040.345;  628.100;  545.000;  705.420
1040.894;  558.980;  461.000;  625.300
1041.442;  561.900;  503.000;  632.200
1041.990;  503.300;  399.000;  559.160
1042.538;  476.340;  399.000;  536.180
1043.087;  508.200;  464.000;  570.860
1043.635;  604.620;  524.000;  670.500
1044.183;  527.640;  453.000;  586.400
1044.731;  512.300;  427.000;  576.000
1045.279;  598.000;  519.000;  674.920
1045.827;  799.240;  714.000;  892.400
1046.374;  458.480;  398.000;  515.420
1046.922;  532.340;  474.000;  590.580
1047.470;  614.280;  541.000;  691.300
1048.018;  580.660;  509.000;  647.960
1048.565;  636.940;  575.000;  708.600
1049.113;  492.940;  401.000;  557.000
1049.660;  555.660;  485.000;  629.660
1050.208;  604.020;  554.000;  675.640
1050.755;  542.460;  468.000;  606.580
1051.303;  611.540;  547.000;  686.820
1051.850;  561.540;  494.000;  635.120
1052.397;  418.120;  340.000;  473.960
1052.945;  552.440;  513.000;  617.760
1053.492;  663.920;  618.000;  741.840
1054.039;  635.700;  561.000;  720.180
1054.586;  501.820;  397.000;  557.240
1055.133;  616.800;  528.000;  693.140
1055.680;  577.700;  508.000;  646.620
1056.227;  481.040;  385.000;  542.780
1056.774;  708.880;  624.000;  794.980
1057.321;  465.640;  400.000;  523.260
1057.868;  574.940;  536.000;  651.320
1058.415;  577.960;  502.000;  651.980
1058.961;  597.440;  510.000;  678.940
1059.508;  571.780;  472.000;  643.820
1060.055;  520.440;  456.000;  581.780
1060.601;  554.500;  470.000;  624.300
1061.148;  549.840;  495.000;  616.820
1061.694;  534.700;  463.000;  592.580
1062.241;  532.140;  498.000;  596.320
1062.787;  591.300;  554.000;  663.140
1063.334;  717.020;  665.000;  808.560
1063.880;  598.620;  531.000;  668.360
1064.426;  631.800;  583.000;  706.820
1064.972;  528.800;  461.000;  601.340
1065.518;  504.400;  415.000;  566.640
1066.065;  557.200;  502.000;  624.460
1066.611;  530.800;  483.000;  598.800
1067.157;  573.860;  509.000;  641.860
1067.703;  596.460;  514.000;  668.480
1068.249;  539.080;  475.000;  605.220
1068.794;  560.300;  499.000;  626.880
1069.340;  510.960;  447.000;  578.960
1069.886;  531.280;  470.000;  590.700
1070.432;  480.660;  405.000;  541.720
1070.977;  539.860;  477.000;  601.080
1071.523;  503.700;  431.000;  573.060
1072.068;  521.260;  441.000;  582.000
1072.614;  464.760;  387.000;  527.760
1073.160;  610.760;  556.000;  687.040
1073.705;  514.760;  488.000;  572.520
1074.250;  496.420;  479.000;  559.900
1074.796;  584.080;  502.000;  655.160
1075.341;  594.140;  525.000;  664.100
1075.886;  526.020;  470.000;  594.240
1076.431;  579.360;  514.000;  649.880
1076.976;  573.320;  491.000;  639.220
1077.521;  514.640;  463.000;  583.080
1078.067;  514.260;  450.000;  579.400
1078.612;  591.860;  537.000;  661.620
1079.156;  534.400;  481.000;  601.540
1079.701;  613.120;  543.000;  693.260
1080.246;  618.620;  599.000;  696.300
1080.791;  560.900;  485.000;  625.020
1081.336;  585.880;  502.000;  659.320
1081.880;  579.100;  526.000;  649.680
1082.425;  499.660;  421.000;  573.480
1082.970;  637.160;  577.000;  717.040
1083.514;  533.760;  482.000;  597.000
1084.059;  519.260;  455.000;  586.720
1084.603;  499.360;  437.000;  565.840
1085.147;  572.280;  496.000;  645.220
1085.692;  640.080;  566.000;  716.800
1086.236;  447.800;  419.000;  503.140
1086.780;  667.180;  621.000;  751.440
1087.325;  579.320;  518.000;  654.620
1087.869;  548.540;  482.000;  610.700
1088.413;  631.460;  567.000;  705.040
1088.957;  477.800;  457.000;  543.400
1089.501;  678.080;  634.000;  766.640
1090.045;  646.000;  611.000;  726.480
1090.589;  507.800;  453.000;  569.920
1091.133;  596.460;  513.000;  673.340
1091.676;  524.040;  450.000;  591.940
1092.220;  536.620;  481.000;  600.920
1092.764;  632.400;  579.000;  706.960
1093.307;  595.740;  526.000;  673.780
1093.851;  489.220;  442.000;  556.540
1094.395;  612.460;  571.000;  683.140
1094.938;  560.180;  516.000;  632.520
1095.482;  494.680;  455.000;  559.800
1096.025;  631.700;  565.000;  710.880
1096.568;  694.780;  631.000;  779.280
1097.112;  447.020;  405.000;  508.180
1097.655;  527.160;  518.000;  603.000
1098.198;  531.180;  473.000;  600.180
1098.741;  547.400;  490.000;  612.860
1099.285;  578.540;  531.000;  657.300
1099.828;  387.000;  330.000;  439.400
1100.371;  541.820;  497.000;  608.160
1100.914;  610.060;  552.000;  682.660
1101.457;  605.720;  555.000;  679.900
1101.999;  510.480;  447.000;  584.680
1102.542;  572.380;  491.000;  641.440
1103.085;  586.800;  548.000;  658.500
1103.628;  675.980;  642.000;  762.060
1104.170;  515.360;  463.000;  588.280
1104.713;  575.160;  529.000;  646.700
1105.256;  492.840;  403.000;  557.440
1105.798;  444.620;  400.000;  499.980
1106.341;  644.080;  603.000;  728.900
1106.883;  462.020;  393.000;  521.340
1107.425;  595.480;  534.000;  668.180
1107.968;  547.820;  517.000;  612.380
1108.510;  605.020;  572.000;  684.960
1109.052;  550.680;  473.000;  612.620
1109.594;  491.920;  408.000;  554.440
1110.136;  567.700;  509.000;  643.220
1110.679;  555.280;  552.000;  633.080
1111.221;  538.680;  462.000;  604.460
1111.763;  490.920;  444.000;  559.220
1112.304;  486.120;  428.000;  547.140
1112.846;  590.020;  564.000;  666.240
1113.388;  839.260;  770.000;  942.180
1113.930;  612.680;  589.000;  694.200
1114.472;  541.940;  488.000;  606.540
1115.013;  483.580;  424.000;  551.280
1115.555;  527.400;  486.000;  587.100
1116.097;  510.120;  459.000;  579.480
1116.638;  605.500;  582.000;  684.600
1117.180;  587.720;  526.000;  667.740
1117.721;  508.320;  456.000;  568.580
1118.262;  603.300;  521.000;  677.960
1118.804;  566.320;  529.000;  637.340
1119.345;  511.600;  461.000;  578.400
1119.886;  624.920;  601.000;  704.040
1120.427;  525.620;  478.000;  589.020
1120.969;  532.500;  480.000;  597.920
1121.510;  499.040;  442.000;  563.060
1122.051;  643.700;  598.000;  723.580
1122.592;  584.220;  514.000;  655.420
1123.133;  481.660;  473.000;  547.940
1123.673;  622.960;  586.000;  706.480
1124.214;  543.580;  511.000;  612.460
1124.755;  571.360;  537.000;  639.460
1125.296;  548.840;  505.000;  627.320
1125.836;  612.100;  570.000;  691.500
1126.377;  530.980;  467.000;  599.660
1126.918;  543.380;  505.000;  614.980
1127.458;  550.220;  528.000;  622.220
1127.999;  584.000;  548.000;  656.980
1128.539;  614.780;  545.000;  694.240
1129.079;  566.100;  527.000;  632.720
1129.620;  491.460;  440.000;  558.100
1130.160;  480.380;  456.000;  539.480
1130.700;  563.620;  512.000;  640.840
1131.240;  572.220;  546.000;  643.700
1131.781;  550.680;  535.000;  619.680
1132.321;  530.600;  504.000;  599.120
1132.861;  495.400;  446.000;  564.200
1133.401;  527.540;  484.000;  593.940
1133.941;  556.660;  551.000;  626.280
1134.481;  532.020;  505.000;  597.580
1135.020;  538.400;  488.000;  609.160
1135.560;  600.440;  567.000;  674.940
1136.100;  443.300;  398.000;  501.160
1136.640;  449.360;  411.000;  510.480
1137.179;  476.500;  428.000;  537.960
1137.719;  538.420;  486.000;  605.400
1138.258;  522.680;  501.000;  587.360
1138.798;  580.640;  547.000;  663.780
1139.337;  419.020;  369.000;  482.840
1139.877;  569.880;  524.000;  642.360
1140.416;  775.900;  763.000;  878.060
1140.955;  461.580;  404.000;  535.380
1141.494;  593.520;  559.000;  669.280
1142.034;  517.740;  482.000;  583.520
1142.573;  576.780;  560.000;  646.280
1143.112;  489.860;  469.000;  553.480
1143.651;  478.480;  452.000;  536.480
1144.190;  615.520;  551.000;  691.640
1144.729;  538.240;  479.000;  607.420
1145.267;  513.240;  500.000;  584.900
1145.806;  563.840;  544.000;  637.040
1146.345;  564.760;  528.000;  635.020
1146.884;  552.560;  499.000;  622.500
1147.422;  466.400;  443.000;  533.060
1147.961;  626.860;  580.000;  708.460
1148.500;  595.180;  556.000;  669.720
1149.038;  561.360;  532.000;  632.500
1149.577;  618.020;  607.000;  698.640
1150.115;  396.140;  325.000;  452.280
1150.653;  538.000;  512.000;  607.340
1151.192;  495.140;  456.000;  552.920
1151.730;  575.940;  562.000;  652.560
1152.268;  517.760;  471.000;  589.520
1152.806;  511.260;  494.000;  571.180
1153.344;  507.060;  484.000;  577.640
1153.882;  526.180;  494.000;  600.060
1154.421;  413.220;  363.000;  470.620
1154.958;  529.280;  501.000;  595.240
1155.496;  570.080;  553.000;  645.280
1156.034;  636.640;  600.000;  721.880
1156.572;  592.240;  537.000;  667.060
1157.110;  415.140;  367.000;  473.940
1157.647;  598.740;  576.000;  676.960
1158.185;  501.260;  484.000;  564.320
1158.723;  451.500;  412.000;  509.200
1159.260;  619.740;  588.000;  701.700
1159.798;  581.680;  555.000;  658.160
1160.335;  550.800;  536.000;  631.820

