gmr_left
Integration time [ms]: 384.568
Averaging Nr. [scans]: 50
Smoothing Nr. [pixels]: 0
Data measured with spectrometer [name]: 7414430SP
Wave   ;Sample   ;Dark     ;Reference
[nm]   ;[counts] ;[counts] ;[counts] 

288.544;  668.598;  568.515;  793.890
289.143;  565.603;  409.561;  681.602
289.742;  706.466;  554.563;  828.814
290.341;  669.918;  505.621;  789.841
290.940;  622.265;  470.651;  730.702
291.538;  747.558;  638.612;  881.108
292.137;  677.967;  534.599;  792.581
292.736;  845.358;  681.621;  975.101
293.335;  625.905;  510.669;  735.086
293.934;  666.452;  495.663;  781.677
294.532;  904.115;  741.656; 1031.958
295.131;  729.199;  595.746;  834.394
295.730;  705.685;  598.740;  809.588
296.328;  676.604;  543.748;  783.442
296.927;  679.633;  597.761;  779.652
297.525;  682.738;  550.746;  781.236
298.124;  568.850;  421.822;  654.009
298.722;  663.090;  559.769;  761.933
299.321;  624.170;  487.787;  708.597
299.919;  661.912;  498.805;  751.918
300.518;  605.943;  469.828;  689.338
301.116;  605.848;  504.786;  691.381
301.715;  644.609;  511.760;  730.222
302.313;  630.474;  453.771;  704.943
302.911;  656.039;  513.844;  733.830
303.509;  825.132;  690.770;  925.627
304.108;  684.345;  544.767;  760.383
304.706;  725.057;  555.763;  801.664
305.304;  727.639;  584.826;  796.707
305.902;  707.868;  580.759;  784.484
306.500;  664.117;  507.790;  728.200
307.098;  685.254;  522.797;  746.560
307.696;  715.591;  583.814;  780.432
308.294;  673.955;  558.798;  731.359
308.892;  701.623;  546.766;  759.769
309.490;  655.019;  509.809;  712.161
310.088;  728.989;  605.831;  788.444
310.686;  753.789;  599.777;  821.749
311.284;  708.308;  545.812;  766.040
311.882;  676.428;  537.830;  731.225
312.480;  649.857;  498.852;  697.167
313.078;  748.445;  628.829;  808.331
313.675;  651.258;  501.790;  691.600
314.273;  746.882;  596.854;  797.837
314.871;  561.052;  410.841;  589.829
315.468;  608.199;  515.844;  652.090
316.066;  654.003;  490.792;  694.427
316.664;  617.584;  490.855;  656.351
317.261;  844.610;  738.822;  910.128
317.859;  722.209;  589.840;  768.735
318.456;  775.953;  653.806;  830.096
319.054;  730.775;  615.833;  787.828
319.651;  712.121;  575.818;  759.928
320.249;  750.681;  657.818;  810.188
320.846;  666.809;  532.804;  714.286
321.443;  776.779;  658.817;  832.135
322.041;  758.984;  623.828;  812.315
322.638;  657.726;  561.821;  701.456
323.235;  623.814;  516.771;  665.683
323.833;  700.160;  582.791;  740.354
324.430;  580.891;  431.805;  615.900
325.027;  823.419;  719.791;  876.855
325.624;  620.420;  430.747;  644.532
326.221;  660.740;  470.764;  689.717
326.818;  787.013;  639.788;  818.332
327.415;  718.227;  529.732;  748.828
328.012;  669.332;  477.725;  690.585
328.609;  704.412;  521.743;  731.389
329.206;  757.210;  601.760;  778.621
329.803;  716.986;  539.767;  737.841
330.400;  691.408;  498.741;  704.260
330.997;  790.375;  568.762;  817.147
331.594;  768.314;  600.815;  788.185
332.191;  715.906;  534.767;  728.722
332.787;  816.488;  605.786;  844.463
333.384;  744.430;  523.840;  763.093
333.981;  781.079;  572.897;  815.687
334.578;  685.152;  498.876;  708.378
335.174;  701.416;  497.878;  731.469
335.771;  799.186;  594.918;  836.456
336.367;  683.884;  505.953;  710.631
336.964;  761.386;  578.927;  793.266
337.561;  707.158;  529.941;  731.112
338.157;  861.251;  709.000;  911.916
338.754;  755.856;  608.020;  796.589
339.350;  688.097;  535.012;  722.493
339.946;  729.881;  575.978;  773.135
340.543;  791.705;  657.060;  846.136
341.139;  671.702;  529.094;  720.836
341.735;  722.860;  610.102;  772.593
342.332;  647.966;  532.087;  691.472
342.928;  737.740;  574.076;  795.394
343.524;  713.532;  581.108;  761.684
344.120;  684.550;  531.115;  738.562
344.716;  669.405;  541.060;  723.717
345.313;  735.591;  584.063;  795.342
345.909;  578.351;  435.072;  627.336
346.505;  682.327;  573.043;  740.247
347.101;  754.275;  594.029;  827.864
347.697;  723.287;  585.008;  785.398
348.293;  566.463;  442.033;  627.244
348.889;  683.042;  578.023;  745.914
349.485;  627.032;  517.010;  688.205
350.081;  708.081;  577.005;  772.592
350.676;  630.659;  521.040;  691.606
351.272;  731.680;  594.987;  809.530
351.868;  702.363;  566.970;  780.497
352.464;  658.287;  564.990;  723.932
353.059;  592.444;  473.015;  646.017
353.655;  698.126;  584.980;  777.063
354.251;  681.014;  553.958;  759.845
354.846;  665.004;  534.006;  740.646
355.442;  670.377;  561.039;  753.071
356.038;  660.406;  554.998;  751.708
356.633;  645.895;  546.993;  728.594
357.229;  640.827;  547.008;  724.757
357.824;  622.720;  515.022;  703.600
358.420;  596.769;  529.017;  679.726
359.015;  610.079;  508.004;  695.357
359.610;  676.792;  579.992;  763.920
360.206;  532.622;  418.041;  603.240
360.801;  564.656;  482.003;  646.503
361.396;  639.681;  522.978;  725.975
361.992;  588.320;  504.022;  668.220
362.587;  579.139;  512.048;  670.160
363.182;  595.143;  531.024;  689.631
363.777;  642.734;  559.010;  738.242
364.372;  641.745;  578.016;  737.314
364.967;  588.837;  518.048;  680.744
365.563;  706.578;  623.995;  815.567
366.158;  594.445;  502.007;  685.161
366.753;  561.371;  489.992;  649.263
367.348;  642.541;  579.023;  746.056
367.942;  598.327;  519.008;  697.298
368.537;  643.154;  552.029;  754.245
369.132;  603.348;  517.017;  703.428
369.727;  541.887;  477.052;  638.079
370.322;  496.402;  430.032;  580.186
370.917;  605.199;  528.040;  710.646
371.511;  738.114;  666.020;  861.834
372.106;  660.737;  615.048;  776.964
372.701;  490.569;  439.062;  585.988
373.296;  741.317;  671.012;  863.135
373.890;  548.099;  486.048;  647.840
374.485;  589.089;  535.071;  691.199
375.079;  629.838;  582.021;  738.685
375.674;  701.667;  650.017;  812.970
376.268;  585.399;  528.049;  691.759
376.863;  490.762;  451.103;  580.327
377.457;  562.081;  514.031;  662.490
378.052;  649.582;  601.059;  764.884
378.646;  634.381;  571.058;  741.167
379.240;  613.194;  552.064;  721.176
379.835;  537.434;  532.037;  636.978
380.429;  472.571;  427.045;  562.557
381.023;  663.887;  597.070;  779.205
381.617;  571.932;  514.081;  680.106
382.212;  576.872;  518.036;  685.303
382.806;  639.781;  610.031;  760.690
383.400;  571.240;  550.067;  672.281
383.994;  562.693;  557.073;  664.870
384.588;  588.216;  535.029;  697.701
385.182;  622.987;  584.999;  726.624
385.776;  604.853;  539.019;  706.875
386.370;  580.312;  545.054;  681.968
386.964;  573.679;  553.031;  684.155
387.558;  506.158;  448.003;  598.360
388.152;  583.971;  545.045;  681.959
388.745;  703.099;  664.039;  814.707
389.339;  636.482;  623.014;  747.642
389.933;  589.185;  552.998;  695.370
390.527;  737.644;  720.024;  859.029
391.120;  500.130;  481.071;  595.318
391.714;  603.656;  588.039;  711.633
392.308;  671.869;  622.008;  780.253
392.901;  551.633;  497.037;  642.460
393.495;  504.958;  508.057;  595.414
394.089;  654.434;  649.046;  760.452
394.682;  596.075;  534.047;  697.188
395.275;  622.356;  577.047;  719.927
395.869;  568.846;  567.061;  667.314
396.462;  524.198;  512.039;  616.609
397.056;  665.877;  631.003;  776.621
397.649;  625.418;  601.057;  731.575
398.242;  616.086;  583.025;  712.645
398.836;  660.119;  630.013;  766.408
399.429;  539.523;  486.015;  631.041
400.022;  567.883;  536.059;  665.902
400.615;  702.606;  675.043;  805.609
401.208;  590.470;  580.009;  691.451
401.802;  600.810;  569.036;  699.329
402.395;  591.603;  535.059;  683.502
402.988;  593.326;  588.070;  696.627
403.581;  553.641;  560.023;  646.878
404.174;  590.517;  573.994;  686.568
404.767;  554.681;  529.040;  638.583
405.360;  537.530;  506.062;  621.445
405.953;  657.969;  648.008;  759.034
406.545;  633.260;  583.996;  725.342
407.138;  528.257;  507.039;  618.350
407.731;  532.095;  507.029;  613.303
408.324;  568.853;  560.975;  660.554
408.917;  589.307;  577.999;  681.864
409.509;  645.290;  618.027;  740.396
410.102;  559.624;  542.051;  643.948
410.695;  577.042;  557.970;  665.758
411.287;  523.286;  482.981;  599.821
411.880;  510.883;  456.988;  585.421
412.472;  527.592;  511.027;  613.092
413.065;  549.663;  563.006;  629.408
413.657;  504.026;  484.963;  576.678
414.250;  568.053;  525.966;  646.681
414.842;  585.624;  576.997;  676.353
415.434;  498.101;  475.969;  570.463
416.027;  566.994;  535.922;  652.196
416.619;  625.505;  592.962;  713.400
417.211;  515.588;  500.964;  599.352
417.804;  544.116;  540.914;  628.499
418.396;  535.212;  513.965;  607.643
418.988;  577.464;  525.944;  659.238
419.580;  497.080;  484.978;  568.276
420.172;  471.145;  456.944;  536.196
420.764;  589.695;  578.913;  672.482
421.356;  559.721;  544.925;  636.898
421.948;  589.951;  552.947;  677.661
422.540;  592.602;  580.890;  680.027
423.132;  531.876;  498.887;  600.641
423.724;  491.495;  455.931;  561.267
424.316;  546.042;  504.916;  621.345
424.908;  518.396;  498.869;  591.517
425.500;  571.375;  548.869;  647.978
426.092;  570.151;  551.867;  648.268
426.683;  611.855;  583.896;  684.836
427.275;  568.427;  540.848;  641.471
427.867;  584.792;  557.841;  668.948
428.458;  650.033;  592.842;  732.344
429.050;  606.031;  569.867;  680.749
429.642;  653.022;  615.845;  743.124
430.233;  494.572;  460.832;  569.356
430.825;  649.303;  584.837;  724.809
431.416;  613.214;  594.868;  698.241
432.008;  571.492;  538.823;  651.723
432.599;  580.211;  555.814;  656.073
433.190;  573.393;  534.859;  637.670
433.782;  518.631;  480.858;  590.395
434.373;  778.881;  771.800;  884.765
434.964;  530.234;  467.798;  602.920
435.556;  557.240;  533.836;  634.537
436.147;  669.449;  617.822;  758.490
436.738;  614.417;  584.816;  701.099
437.329;  637.417;  599.763;  721.723
437.920;  594.037;  563.852;  666.688
438.511;  498.441;  440.845;  564.526
439.103;  547.476;  524.772;  623.998
439.694;  600.069;  546.759;  681.583
440.285;  679.799;  607.773;  764.432
440.876;  751.215;  709.798;  845.738
441.466;  506.828;  436.786;  575.162
442.057;  582.765;  554.731;  665.814
442.648;  663.477;  617.772;  746.255
443.239;  547.779;  531.791;  620.477
443.830;  625.649;  578.742;  704.958
444.421;  580.431;  482.716;  655.474
445.011;  610.613;  529.779;  693.619
445.602;  657.967;  592.785;  743.126
446.193;  424.813;  379.734;  488.117
446.783;  564.628;  497.697;  640.397
447.374;  614.956;  563.772;  692.759
447.964;  629.359;  602.773;  713.770
448.555;  726.497;  654.692;  822.742
449.145;  581.397;  533.728;  662.853
449.736;  707.768;  656.742;  803.179
450.326;  632.205;  545.740;  713.626
450.917;  596.820;  549.684;  675.324
451.507;  534.758;  455.692;  600.661
452.097;  661.878;  600.710;  746.267
452.688;  651.735;  534.700;  742.160
453.278;  494.958;  444.693;  566.840
453.868;  703.735;  618.665;  793.550
454.458;  575.466;  473.696;  651.141
455.048;  623.482;  546.703;  711.783
455.639;  497.333;  439.663;  567.096
456.229;  628.480;  544.649;  710.694
456.819;  657.478;  579.648;  751.158
457.409;  686.157;  604.657;  773.993
457.999;  647.793;  557.628;  737.505
458.589;  595.601;  525.632;  686.606
459.179;  635.701;  550.641;  717.658
459.769;  550.851;  487.663;  627.099
460.358;  698.697;  644.621;  797.262
460.948;  601.066;  522.625;  689.503
461.538;  581.471;  488.618;  660.677
462.128;  584.040;  481.649;  664.934
462.717;  619.926;  569.572;  710.326
463.307;  627.444;  556.553;  705.846
463.897;  577.541;  479.614;  656.942
464.486;  736.899;  640.657;  837.128
465.076;  644.273;  582.592;  733.776
465.666;  568.710;  516.547;  652.900
466.255;  698.960;  592.604;  785.651
466.845;  584.018;  481.612;  666.749
467.434;  638.745;  576.589;  725.873
468.023;  579.110;  457.573;  658.357
468.613;  626.061;  526.632;  713.946
469.202;  564.023;  470.579;  646.507
469.791;  639.633;  542.548;  737.811
470.381;  651.704;  556.544;  742.813
470.970;  618.679;  486.551;  711.099
471.559;  647.644;  565.571;  733.291
472.148;  588.866;  481.536;  675.737
472.738;  664.485;  569.527;  765.466
473.327;  558.921;  430.534;  637.529
473.916;  645.549;  547.564;  737.446
474.505;  656.890;  552.520;  751.703
475.094;  713.405;  578.500;  806.570
475.683;  701.431;  568.521;  797.699
476.272;  640.983;  507.526;  730.632
476.861;  613.974;  481.495;  706.754
477.449;  634.811;  502.441;  728.487
478.038;  601.602;  477.526;  692.513
478.627;  620.680;  504.533;  714.852
479.216;  674.073;  583.468;  769.441
479.805;  681.513;  548.450;  783.375
480.393;  885.370;  759.493; 1008.945
480.982;  769.854;  614.513;  874.501
481.571;  754.085;  628.447;  858.333
482.159;  611.460;  453.444;  705.386
482.748;  722.336;  548.478;  821.385
483.336;  746.992;  621.459;  858.209
483.925;  674.745;  539.473;  774.373
484.513;  659.437;  520.408;  758.962
485.102;  702.544;  554.482;  810.965
485.690;  884.688;  716.421; 1011.050
486.278;  858.068;  684.421;  979.329
486.867;  700.708;  541.430;  809.662
487.455;  788.547;  578.448;  898.229
488.043;  645.691;  447.449;  748.361
488.631;  875.570;  712.404; 1005.079
489.220;  793.491;  584.396;  908.626
489.808;  643.439;  424.435;  741.415
490.396;  799.150;  593.422;  914.645
490.984;  717.691;  505.423;  830.161
491.572;  819.292;  618.405;  940.315
492.160;  806.051;  526.449;  919.081
492.748;  770.499;  526.453;  884.341
493.336;  888.973;  620.406; 1019.693
493.924;  841.381;  534.383;  958.077
494.512;  954.101;  599.427; 1066.638
495.100;  980.491;  569.449; 1103.280
495.687; 1080.351;  637.387; 1206.373
496.275; 1038.415;  490.398; 1150.796
496.863; 1150.049;  517.440; 1281.171
497.451; 1239.500;  507.445; 1386.805
498.038; 1379.187;  560.377; 1556.729
498.626; 1548.245;  520.384; 1741.407
499.214; 1863.508;  543.421; 2016.609
499.801; 2092.460;  548.436; 2220.633
500.389; 2225.039;  465.391; 2312.494
500.976; 2669.729;  564.395; 2744.849
501.564; 2949.384;  530.437; 3148.565
502.151; 3095.063;  369.446; 3515.999
502.738; 3617.132;  520.406; 3971.274
503.326; 4218.424;  490.375; 4403.796
503.913; 4794.783;  530.410; 5161.749
504.500; 5249.488;  553.430; 5986.420
505.088; 5802.320;  476.427; 6381.201
505.675; 6718.548;  520.377; 6925.547
506.262; 7628.322;  513.446; 7619.060
506.849; 8555.571;  535.414; 8733.969
507.436; 9378.007;  590.385; 9790.121
508.023; 9653.739;  518.391; 9985.472
508.610;10085.688;  592.412;10434.618
509.197;11042.315;  546.469;11198.435
509.784;12055.037;  543.417;12391.194
510.371;13039.049;  433.368;13603.713
510.958;13861.483;  505.437;14426.586
511.545;14032.634;  634.424;15243.775
512.132;14543.872;  547.379;15945.876
512.719;15489.423;  475.410;16340.369
513.305;16974.346;  478.430;18011.766
513.892;18188.184;  600.455;19754.971
514.479;19069.811;  549.396;20967.805
515.066;19336.205;  615.402;22299.793
515.652;19458.969;  523.404;22908.660
516.239;20316.525;  603.420;23798.875
516.825;22197.600;  464.409;25567.275
517.412;25303.305;  686.393;28154.959
517.998;25674.793;  501.432;28344.111
518.585;25336.963;  509.446;27134.219
519.171;26640.061;  535.383;27268.576
519.758;27220.488;  440.395;28964.129
520.344;28036.816;  573.417;30664.494
520.930;29276.055;  456.459;32550.605
521.516;32190.342;  596.383;35422.895
522.103;34092.078;  639.408;38280.004
522.689;34260.051;  498.450;37835.117
523.275;33888.770;  614.439;37288.613
523.861;34575.250;  552.413;37281.395
524.447;36158.125;  614.384;37846.949
525.033;36105.941;  601.436;38321.949
525.619;34450.777;  461.452;38579.285
526.205;34104.520;  483.435;40622.875
526.791;35774.637;  528.398;42258.836
527.377;36885.711;  509.449;42966.902
527.963;37867.496;  570.470;42018.949
528.549;38747.438;  580.452;42476.828
529.135;39397.742;  481.428;41854.852
529.721;38401.992;  524.432;41237.711
530.306;38447.855;  714.452;41259.445
530.892;39060.414;  517.433;41506.047
531.478;41046.977;  526.417;43559.613
532.063;42936.461;  462.445;47695.563
532.649;45758.656;  662.479;50808.324
533.235;46142.273;  487.442;51787.500
533.820;46793.148;  612.394;52145.035
534.406;44729.152;  511.477;51133.488
534.991;44020.809;  497.448;49996.805
535.576;42289.672;  517.432;48882.852
536.162;40957.379;  729.426;46942.285
536.747;41887.844;  444.482;45711.746
537.333;43807.699;  487.479;48510.180
537.918;46668.348;  520.466;50439.891
538.503;46497.270;  498.421;50863.711
539.088;44752.754;  570.460;50906.922
539.673;46642.152;  530.467;52621.965
540.259;47601.496;  483.443;52368.094
540.844;47250.043;  434.436;50879.109
541.429;47087.336;  655.487;52077.777
542.014;47639.930;  451.502;52716.695
542.599;46570.559;  569.453;52363.281
543.184;46205.586;  489.483;53187.137
543.769;48183.711;  467.486;54697.605
544.354;47743.262;  493.480;53913.914
544.938;44655.711;  571.467;49680.164
545.523;42497.984;  652.446;47386.277
546.108;44738.219;  518.488;49151.949
546.693;46769.957;  533.513;51384.637
547.278;45411.211;  570.458;51853.254
547.862;43121.887;  517.429;51173.750
548.447;42247.355;  574.495;51691.395
549.031;42159.398;  497.523;52456.703
549.616;42284.477;  562.461;52714.516
550.201;41388.063;  489.473;52414.598
550.785;41559.063;  590.491;52355.059
551.370;42504.051;  465.503;54589.453
551.954;44135.250;  594.493;58267.348
552.538;45555.063;  577.473;59062.176
553.123;47388.586;  462.501;58115.285
553.707;49522.473;  511.538;56556.285
554.291;50367.672;  614.485;56201.668
554.876;49416.180;  623.498;55335.762
555.460;48570.090;  508.520;54155.703
556.044;49462.266;  493.553;53721.484
556.628;49002.160;  527.507;53731.016
557.212;47118.160;  603.462;54312.531
557.796;45837.820;  537.507;53797.773
558.380;45452.836;  548.549;56145.984
558.964;47010.902;  560.481;57277.930
559.548;49135.906;  445.483;56459.641
560.132;49261.180;  485.524;54434.543
560.716;49778.430;  460.547;54800.617
561.300;50533.828;  460.475;57606.945
561.884;49609.434;  560.512;58972.445
562.467;49333.426;  560.545;57327.570
563.051;49128.102;  540.544;54962.434
563.635;47898.660;  540.533;52594.473
564.219;45632.711;  504.511;50610.410
564.802;46353.938;  572.550;49551.180
565.386;47411.457;  516.541;48370.953
565.969;46702.520;  604.488;48178.871
566.553;46873.426;  698.527;49957.305
567.136;45785.660;  608.551;50369.594
567.720;45824.879;  542.569;49492.004
568.303;47147.805;  564.544;50616.352
568.887;49123.203;  548.534;50727.148
569.470;49184.707;  555.580;51698.379
570.053;46457.730;  572.573;52122.078
570.637;44270.254;  491.514;52536.438
571.220;44687.129;  588.510;51186.098
571.803;46026.332;  680.584;51032.762
572.386;47214.801;  495.561;49609.887
572.969;46716.012;  526.538;48285.926
573.552;46989.816;  531.549;47624.285
574.135;45669.949;  458.591;45498.641
574.718;42089.340;  474.559;41970.434
575.301;40796.977;  487.068;41447.137
575.884;39504.617;  499.577;40923.836
576.467;41424.738;  559.569;45267.723
577.050;41757.785;  575.580;48175.543
577.633;40487.711;  663.538;47729.328
578.216;41619.031;  503.574;47579.793
578.799;46428.250;  523.600;47820.996
579.381;47433.137;  669.567;48115.551
579.964;43706.109;  503.538;47333.766
580.547;41879.645;  537.579;46668.969
581.129;42088.191;  621.610;44466.141
581.712;41605.219;  551.621;44164.922
582.294;43543.723;  522.570;46477.855
582.877;42362.566;  703.563;48244.254
583.459;41455.094;  544.619;47437.895
584.042;43663.570;  520.618;46943.219
584.624;44383.184;  507.624;46792.227
585.206;43367.773;  407.575;46557.250
585.789;42067.875;  477.611;45793.773
586.371;40985.395;  552.638;43836.391
586.953;39348.406;  598.608;42972.492
587.536;37646.012;  635.574;42487.211
588.118;38546.508;  543.679;42086.414
588.700;39695.359;  662.631;43389.930
589.282;40835.887;  586.599;43646.039
589.864;40061.457;  523.612;43438.109
590.446;40213.195;  407.647;43151.926
591.028;39814.836;  543.639;42781.867
591.610;40251.641;  439.615;42839.098
592.192;40270.906;  565.599;42820.402
592.774;38315.777;  475.629;40724.277
593.356;37875.023;  501.668;39874.789
593.937;37371.359;  523.605;39980.648
594.519;38196.336;  611.612;42069.633
595.101;38965.617;  460.657;42976.031
595.683;39382.738;  509.666;44084.441
596.264;40227.453;  540.611;43478.797
596.846;41502.078;  517.630;43803.672
597.427;40821.848;  487.679;42986.934
598.009;40304.754;  472.681;42832.219
598.591;39322.820;  598.632;42580.086
599.172;38667.141;  500.640;43061.805
599.753;38148.840;  454.676;41691.469
600.335;38409.539;  637.693;40692.520
600.916;38324.199;  552.666;39982.422
601.498;38133.367;  559.652;40318.617
602.079;38786.102;  534.676;40670.609
602.660;38048.961;  531.685;41450.898
603.241;36257.875;  434.637;41137.738
603.823;37149.078;  514.648;38868.797
604.404;38623.328;  451.688;38182.785
604.985;40451.902;  509.695;38078.047
605.566;41500.984;  595.634;38056.633
606.147;40810.934;  537.708;37020.418
606.728;39151.531;  457.716;37883.359
607.309;38438.289;  483.697;38748.273
607.890;38613.066;  526.661;38850.230
608.471;38039.344;  469.685;37457.918
609.051;37724.789;  536.742;36066.457
609.632;37204.852;  458.735;35991.074
610.213;38123.559;  541.693;37402.641
610.794;39588.633;  503.699;38383.363
611.374;38445.691;  568.707;40562.387
611.955;38478.012;  444.725;38533.727
612.536;39484.375;  573.691;36951.789
613.116;38065.152;  524.698;37197.891
613.697;38127.832;  515.744;38411.125
614.277;37913.715;  494.753;38673.938
614.858;35028.086;  516.696;37075.863
615.438;33357.555;  536.691;35092.906
616.019;33173.680;  622.756;33666.301
616.599;34055.527;  423.733;34189.023
617.179;37088.836;  475.710;36952.047
617.760;37289.563;  708.686;39582.574
618.340;35515.980;  498.765;38943.977
618.920;35817.027;  653.742;37594.156
619.500;35654.707;  495.768;37866.938
620.080;35316.305;  479.741;37869.043
620.660;36017.402;  468.802;36868.617
621.241;36203.195;  491.762;36352.309
621.821;35136.004;  592.749;35459.520
622.401;35403.930;  587.742;35207.414
622.980;36967.434;  463.779;35980.422
623.560;36860.086;  460.758;37351.328
624.140;34269.969;  557.741;34388.582
624.720;34068.824;  554.748;32368.764
625.300;36080.871;  485.743;32638.629
625.880;36704.195;  503.780;34599.035
626.459;35623.434;  556.753;36831.738
627.039;34589.375;  444.772;38299.098
627.619;36095.387;  703.802;38289.574
628.198;38410.539;  572.791;37220.695
628.778;40429.523;  551.748;37632.563
629.357;41058.047;  448.751;38003.012
629.937;39215.195;  496.798;38402.039
630.516;35878.426;  605.794;37868.801
631.096;34448.551;  498.751;35760.410
631.675;34104.758;  625.817;35225.219
632.254;33468.355;  508.833;35130.289
632.834;34766.188;  534.822;35794.570
633.413;37026.816;  638.771;35788.922
633.992;36778.863;  587.820;34532.863
634.571;35738.457;  576.844;33590.113
635.151;34994.809;  476.831;34943.863
635.730;34649.863;  511.775;35352.523
636.309;35013.766;  583.793;35366.605
636.888;34655.125;  593.820;36165.637
637.467;35132.676;  450.842;37515.902
638.046;35815.078;  646.791;39288.695
638.625;36484.184;  649.820;38279.699
639.204;37334.273;  541.850;37741.598
639.782;37785.695;  526.878;38364.551
640.361;36994.063;  639.809;36740.621
640.940;36344.566;  503.807;34950.082
641.519;36236.871;  532.805;34137.398
642.097;35109.199;  556.804;35654.258
642.676;35085.406;  571.802;35637.957
643.255;35893.488;  489.800;36567.074
643.833;37866.816;  569.799;37809.434
644.412;39241.281;  490.797;37337.293
644.990;39386.527;  534.795;37018.531
645.569;39177.211;  555.793;36518.469
646.147;38107.199;  588.792;36186.430
646.726;36770.945;  552.790;36267.688
647.304;35932.309;  509.788;36647.625
647.882;35357.414;  425.787;39286.742
648.461;35102.879;  559.785;39157.703
649.039;35282.406;  588.783;35412.883
649.617;34404.293;  570.781;34744.918
650.195;34223.836;  570.780;35403.098
650.773;34826.285;  470.778;35053.797
651.352;34876.410;  391.776;33756.816
651.930;34650.875;  420.775;31868.773
652.508;34522.582;  603.773;33121.551
653.086;34013.387;  545.771;33564.793
653.663;34820.871;  497.770;34054.668
654.241;35626.918;  453.768;35693.309
654.819;36901.922;  476.766;36422.906
655.397;38595.867;  443.764;38213.484
655.975;39436.535;  530.763;39507.625
656.553;40972.059;  618.761;39498.223
657.130;40059.246;  478.759;40395.480
657.708;39519.770;  552.758;39242.020
658.286;38137.258;  525.756;38920.020
658.863;37879.664;  545.754;40202.898
659.441;37700.367;  541.752;39677.938
660.018;39163.734;  509.751;40413.355
660.596;39550.461;  406.749;39931.414
661.173;40000.266;  500.747;39604.531
661.750;39677.152;  486.746;39700.070
662.328;39078.215;  564.744;39292.809
662.905;38089.141;  510.742;38235.648
663.482;36425.426;  513.741;36212.305
664.060;35501.234;  514.739;35944.945
664.637;35311.840;  585.737;35170.785
665.214;35735.703;  550.735;34197.523
665.791;37251.512;  529.734;34549.520
666.368;37498.855;  530.732;35118.578
666.945;35500.563;  585.730;36019.418
667.522;34965.969;  470.729;36048.438
668.099;36159.152;  505.727;36243.914
668.676;36700.578;  532.725;35958.875
669.253;37275.902;  629.723;37384.730
669.830;35755.668;  578.722;36779.629
670.407;33964.094;  537.720;35231.289
670.984;33242.621;  544.718;35544.270
671.560;34081.086;  560.717;35466.867
672.137;32691.713;  498.715;34280.863
672.714;32955.039;  579.713;34632.863
673.290;34288.645;  548.711;35135.422
673.867;33240.348;  482.710;36114.480
674.443;33288.637;  428.708;36152.859
675.020;34744.422;  541.706;35327.238
675.596;35455.027;  521.705;35795.176
676.173;34375.191;  436.703;35430.355
676.749;35114.656;  385.701;33549.516
677.326;35619.504;  432.700;32210.012
677.902;36537.367;  468.698;32068.871
678.478;35879.176;  424.696;32583.891
679.054;34031.320;  772.694;32088.928
679.631;33605.445;  548.693;30978.848
680.207;34800.852;  660.691;33160.887
680.783;34411.336;  412.689;35570.363
681.359;34288.863;  522.688;36125.184
681.935;34052.508;  540.686;35240.922
682.511;33666.813;  540.684;34429.961
683.087;32991.219;  558.682;34463.680
683.663;32127.066;  498.681;34648.898
684.239;31753.730;  433.679;34546.457
684.815;31104.617;  576.677;35586.375
685.390;32375.422;  664.676;35821.895
685.966;33411.328;  527.674;35085.871
686.542;32271.814;  491.672;34198.230
687.118;31352.020;  520.671;32847.707
687.693;31628.965;  578.669;32794.027
688.269;31296.631;  516.667;33072.367
688.844;30729.117;  567.665;33141.664
689.420;30499.242;  519.664;33965.742
689.995;30214.367;  626.662;34655.523
690.571;30569.273;  615.660;33576.742
691.146;32282.498;  510.659;32657.219
691.722;31802.324;  535.657;32526.979
692.297;30211.510;  459.655;33014.617
692.872;29796.275;  475.654;34012.254
693.448;29067.781;  459.652;34237.434
694.023;29070.588;  537.650;34142.672
694.598;29080.832;  531.648;34132.031
695.173;29297.338;  519.647;34205.250
695.748;28802.264;  415.645;32882.488
696.323;29872.391;  537.643;32864.906
696.898;30596.316;  566.642;33170.004
697.473;29841.041;  437.640;32432.984
698.048;29399.406;  517.638;31649.303
698.623;30171.893;  453.636;30778.141
699.198;31038.139;  536.635;31140.119
699.773;31591.824;  455.633;31764.299
700.348;31385.670;  474.631;31780.816
700.922;30864.936;  520.630;32046.375
701.497;30604.980;  512.628;32603.574
702.072;31256.047;  594.626;34799.871
702.646;31842.031;  601.625;35793.172
703.221;31743.697;  531.623;35201.590
703.795;31128.643;  466.621;34764.527
704.370;31865.350;  386.619;34307.367
704.944;31938.355;  523.618;33509.887
705.519;31510.381;  558.616;31388.584
706.093;31823.545;  467.614;31340.104
706.668;32325.371;  533.613;32630.281
707.242;31940.178;  587.611;32728.779
707.816;30716.582;  511.609;32947.238
708.390;30415.469;  521.607;33277.855
708.965;31012.834;  565.606;33834.336
709.539;31599.820;  518.604;33709.273
710.113;31415.385;  525.602;33044.313
710.687;31939.391;  551.601;31953.992
711.261;32416.557;  468.599;30505.949
711.835;32165.723;  462.597;30262.369
712.409;31106.848;  413.595;31254.447
712.983;31729.533;  424.594;32754.986
713.557;33147.039;  423.592;34018.824
714.131;33644.484;  500.590;34579.625
714.704;32417.910;  495.589;33890.262
715.278;31051.516;  530.587;33531.102
715.852;30748.262;  564.585;33601.660
716.425;30533.627;  663.584;33515.117
716.999;30573.033;  432.582;33185.555
717.573;31578.299;  567.580;33905.996
718.146;32514.264;  615.578;35199.293
718.720;32876.449;  518.577;35060.551
719.293;33479.875;  565.575;34973.230
719.867;33128.703;  470.573;36394.449
720.440;33208.906;  603.572;36663.008
721.013;34177.094;  519.570;35102.426
721.587;33301.457;  405.568;33985.266
722.160;32895.285;  562.566;33524.965
722.733;32227.049;  547.565;32987.043
723.306;33475.055;  513.563;33066.301
723.880;34228.840;  565.561;33399.500
724.453;33304.688;  640.560;33468.297
725.026;31764.973;  497.558;33816.637
725.599;30737.617;  539.556;32797.996
726.172;31242.924;  558.555;33187.434
726.745;33015.969;  538.553;35136.613
727.318;33508.516;  584.551;35751.730
727.891;32630.900;  534.549;35890.430
728.463;31124.207;  535.548;34822.090
729.036;30268.111;  447.546;32895.086
729.609;29889.117;  473.544;31823.225
730.182;30611.043;  580.543;31445.283
730.754;31534.529;  407.541;32373.223
731.327;33047.195;  545.539;33676.820
731.900;33186.199;  421.537;33417.000
732.472;32530.586;  542.536;31978.498
733.045;32217.051;  502.534;30368.777
733.617;30811.857;  437.532;30574.215
734.190;30072.803;  572.531;31280.975
734.762;30033.629;  534.529;31674.412
735.334;29720.654;  527.527;31247.291
735.907;29949.500;  547.526;29876.211
736.479;29514.186;  576.524;29808.488
737.051;30504.592;  544.522;30233.547
737.623;33406.355;  559.520;31469.086
738.195;34713.301;  477.519;31784.225
738.768;34263.367;  389.517;32120.523
739.340;33270.813;  500.515;32094.342
739.912;33012.918;  596.514;31312.680
740.484;32568.926;  543.512;31946.238
741.056;32484.391;  498.510;32984.059
741.628;33596.598;  476.508;33897.715
742.199;32524.143;  596.507;33213.016
742.771;31367.168;  444.505;31369.113
743.343;31887.633;  475.503;31865.473
743.915;32374.020;  503.502;32388.631
744.487;31823.945;  586.500;31079.568
745.058;30640.930;  562.498;30570.107
745.630;28955.455;  564.497;29970.127
746.201;28738.980;  475.495;29186.766
746.773;28731.227;  553.493;28805.723
747.344;27686.592;  515.491;29591.223
747.916;27202.258;  541.490;31412.201
748.487;27846.123;  572.488;32194.898
749.059;29050.029;  453.486;32533.719
749.630;29354.656;  480.485;32158.518
750.201;28858.980;  523.483;30855.395
750.773;28552.287;  478.481;28622.555
751.344;27835.713;  514.479;28405.732
751.915;26535.518;  512.478;28461.551
752.486;26683.523;  462.476;27842.850
753.057;28036.869;  533.474;27845.008
753.628;27637.855;  485.473;27728.107
754.199;25959.480;  483.471;27381.086
754.770;24898.346;  560.469;25882.203
755.341;25026.631;  609.468;25886.184
755.912;24737.338;  508.466;26050.861
756.483;24763.063;  564.464;26798.779
757.054;24823.289;  533.462;27048.238
757.625;25308.814;  470.461;26294.838
758.195;26291.400;  436.459;26142.076
758.766;25737.605;  534.457;26392.234
759.337;25369.711;  432.456;26334.594
759.907;26316.678;  436.454;27579.652
760.478;26262.902;  497.452;28352.770
761.048;26477.008;  566.450;27325.088
761.619;26649.793;  553.449;26460.428
762.189;26200.840;  490.447;26029.826
762.760;25483.266;  588.445;26430.145
763.330;24113.631;  548.444;26670.902
763.900;23175.877;  537.442;26603.021
764.471;22937.082;  468.440;25542.740
765.041;23636.547;  599.438;24358.459
765.611;24038.154;  540.437;23991.297
766.181;25259.180;  538.435;24470.236
766.751;26010.924;  542.433;24845.975
767.321;24931.051;  474.432;24533.633
767.891;23449.916;  499.430;24916.492
768.461;23163.322;  532.428;24776.771
769.031;22340.508;  503.427;24757.988
769.601;20873.773;  591.425;24181.088
770.171;19368.520;  421.423;23670.387
770.741;19620.465;  467.421;22960.045
771.311;20390.369;  568.420;22917.523
771.880;20893.396;  445.418;23562.941
772.450;21441.822;  487.416;24216.500
773.020;22068.127;  424.415;24140.398
773.589;21579.693;  493.413;24414.857
774.159;20659.838;  462.411;23858.717
774.729;19357.824;  480.409;22942.135
775.298;18066.949;  485.408;22324.033
775.867;17654.336;  494.406;21140.313
776.437;17954.021;  512.404;20838.092
777.006;17649.967;  443.403;20599.510
777.576;17505.633;  528.401;20508.809
778.145;17442.758;  558.399;20732.947
778.714;17663.223;  529.398;21062.465
779.283;17804.869;  558.396;20949.664
779.853;17746.516;  481.394;20508.623
780.422;18198.201;  526.392;20649.082
780.991;17965.826;  553.391;21527.520
781.560;17216.531;  606.389;22632.658
782.129;16769.098;  543.387;23048.277
782.698;16326.923;  606.386;23438.555
783.267;16422.129;  519.384;23267.734
783.836;16982.895;  536.382;22415.133
784.404;16510.939;  443.380;20443.152
784.973;15815.706;  387.379;19699.150
785.542;15321.512;  495.377;19763.828
786.111;15308.497;  591.375;20341.408
786.679;15700.503;  534.374;20207.967
787.248;15589.588;  423.372;19516.465
787.817;15283.834;  503.370;18900.363
788.385;15021.079;  571.369;17879.121
788.954;14491.745;  423.367;17658.301
789.522;14691.650;  605.365;17788.879
790.090;14967.297;  433.363;18118.277
790.659;15408.902;  493.362;18338.736
791.227;15261.468;  505.360;18508.615
791.795;14971.974;  533.358;17898.254
792.364;14093.339;  476.357;17295.133
792.932;13546.524;  532.355;16822.051
793.500;13657.910;  508.353;17040.148
794.068;14207.176;  416.352;17179.787
794.636;14105.502;  478.350;16664.246
795.204;13034.348;  432.348;16524.545
795.772;12458.613;  462.346;17274.564
796.340;12811.778;  484.345;17891.002
796.908;12549.124;  442.343;17648.561
797.476;12392.650;  447.341;17064.080
798.044;12447.815;  400.340;16672.777
798.612;12474.121;  499.338;17023.996
799.180;12203.767;  534.336;16561.615
799.747;12094.013;  503.334;15962.773
800.315;12044.559;  439.333;15296.992
800.883;11928.364;  398.331;14801.771
801.450;11672.310;  515.329;14534.430
802.018;11600.615;  525.328;14173.248
802.585;11387.221;  497.326;14029.547
803.153;11276.566;  497.324;13836.846
803.720;11235.353;  507.322;13567.324
804.287;11325.658;  479.321;13360.622
804.855;11344.983;  582.319;13681.981
805.422;10793.689;  490.317;13536.560
805.989;10687.694;  482.316;13355.958
806.556;11395.360;  479.314;13747.896
807.124;12033.066;  525.312;13987.376
807.691;11509.332;  443.311;14038.674
808.258;11169.978;  505.309;14120.152
808.825;11383.183;  541.307;13860.111
809.392;11575.608;  625.305;13268.790
809.959;11426.794;  562.304;12680.389
810.526;11270.479;  651.302;12427.308
811.093;10930.926;  582.300;12030.105
811.659;10992.691;  502.299;11653.664
812.226;11156.297;  500.297;11637.183
812.793;11030.022;  539.295;11611.521
813.360;10920.868;  467.293;11885.181
813.926;10894.733;  535.292;12770.539
814.493;10922.939;  441.290;12677.638
815.060;11004.545;  420.288;11974.336
815.626;10752.631;  421.287;11594.715
816.193;10661.836;  517.285;11579.474
816.759;10824.022;  453.283;11666.972
817.325;11060.407;  404.282;11325.530
817.892;11243.773;  526.280;11105.369
818.458;11122.079;  534.278;10843.928
819.024;10889.984;  578.276;10714.406
819.591;10309.870;  528.275;10469.165
820.157; 9928.776;  434.273;10235.523
820.723;10228.521;  525.271;10847.563
821.289;10778.547;  791.270;11040.980
821.855;10477.913;  537.268;10357.100
822.421;10211.139;  444.266; 9978.918
822.987;10144.145;  433.264; 9754.177
823.553;10099.130;  512.263;10065.755
824.119;10210.676;  543.261;10036.294
824.685;10519.161;  600.259;10029.192
825.251;10525.407;  542.258;10199.230
825.816;10423.692;  622.256; 9820.189
826.382; 9699.198;  556.254; 9297.248
826.948; 9474.164;  585.253; 9381.347
827.513; 9611.489;  504.251; 9450.726
828.079; 9781.915;  469.249; 9472.444
828.645; 9882.921;  543.247; 9292.643
829.210; 9413.946;  434.246; 9065.341
829.776; 9215.772;  570.244; 9132.620
830.341; 8958.737;  564.242; 9092.878
830.906; 8985.663;  584.241; 9078.557
831.472; 8634.869;  449.239; 8534.535
832.037; 8475.074;  581.237; 8677.874
832.602; 8283.960;  467.235; 8628.692
833.167; 8460.646;  540.234; 8879.031
833.733; 8398.151;  556.232; 9189.790
834.298; 8137.977;  412.230; 9052.608
834.863; 8188.623;  522.229; 8895.087
835.428; 8346.009;  565.227; 8824.266
835.993; 8244.914;  546.225; 8845.385
836.558; 7963.840;  548.224; 8888.563
837.123; 7910.445;  686.222; 8966.582
837.688; 7622.431;  521.220; 8617.860
838.253; 7655.977;  510.218; 8590.699
838.817; 7728.643;  487.217; 8443.797
839.382; 7995.488;  608.215; 8799.356
839.947; 8155.534;  537.213; 8810.595
840.511; 8142.699;  610.212; 8796.394
841.076; 7652.065;  413.210; 8347.231
841.641; 7423.611;  549.208; 8224.330
842.205; 7184.457;  548.206; 8223.349
842.770; 7288.222;  632.205; 8622.107
843.334; 7316.448;  493.203; 8410.386
843.898; 7443.833;  500.201; 8337.465
844.463; 7533.279;  598.200; 8506.283
845.027; 7102.564;  512.198; 8280.962
845.591; 7144.170;  562.196; 8231.141
846.156; 7273.396;  490.195; 7969.179
846.720; 7395.582;  592.193; 7768.278
847.284; 7119.347;  497.191; 7630.957
847.848; 7041.593;  570.189; 7472.395
848.412; 6876.119;  553.188; 7437.394
848.976; 6780.924;  637.186; 7674.592
849.540; 6794.310;  660.184; 7836.011
850.104; 6765.715;  600.183; 7913.669
850.668; 6621.341;  405.181; 7694.508
851.232; 6603.087;  426.179; 7756.887
851.796; 6688.952;  506.177; 7926.545
852.359; 6590.618;  596.176; 7827.844
852.923; 6547.563;  574.174; 7641.163
853.487; 6524.929;  578.172; 7342.501
854.050; 6302.395;  371.171; 7042.820
854.614; 6173.761;  501.169; 7151.338
855.177; 6111.086;  542.167; 7105.077
855.741; 6158.492;  555.166; 6989.675
856.304; 6115.917;  575.164; 6596.634
856.868; 5913.883;  453.162; 6356.272
857.431; 5778.269;  522.160; 6468.571
857.995; 5733.254;  497.159; 6373.210
858.558; 5768.800;  551.157; 6324.448
859.121; 5814.826;  567.155; 6408.327
859.684; 5311.551;  516.154; 6347.886
860.247; 4677.657;  519.152; 6321.264
860.810; 4359.603;  486.150; 6301.903
861.374; 4482.888;  667.148; 6607.881
861.937; 4597.674;  465.147; 6408.200
862.500; 4904.400;  506.145; 6572.639
863.062; 4865.706;  431.143; 6387.297
863.625; 4882.151;  541.142; 6190.836
864.188; 4788.017;  497.140; 5807.254
864.751; 4808.222;  498.138; 5682.413
865.314; 4720.028;  535.136; 5547.492
865.876; 4706.374;  555.135; 5500.150
866.439; 4720.339;  556.133; 5415.909
867.002; 4888.845;  688.131; 5501.567
867.564; 4794.250;  595.130; 5413.946
868.127; 4712.636;  527.128; 5160.325
868.689; 4649.262;  549.126; 5133.183
869.252; 4613.308;  596.125; 5252.382
869.814; 4431.773;  474.123; 5297.141
870.377; 4515.899;  533.121; 5390.919
870.939; 4850.004;  773.119; 5599.898
871.501; 4608.610;  550.118; 5248.336
872.063; 4353.356;  398.116; 4854.235
872.626; 4315.241;  419.114; 4817.074
873.188; 4478.847;  534.113; 4987.732
873.750; 4435.653;  532.111; 4868.651
874.312; 4371.658;  525.109; 4779.330
874.874; 4512.284;  635.107; 4866.348
875.436; 4386.070;  571.106; 4718.887
875.998; 4272.815;  631.104; 4660.005
876.560; 4094.601;  552.102; 4462.964
877.122; 3805.427;  466.101; 4145.042
877.683; 3752.872;  609.099; 4056.481
878.245; 3700.438;  493.097; 3950.740
878.807; 3687.563;  561.096; 4058.958
879.369; 3576.109;  448.094; 3954.677
879.930; 3615.655;  447.092; 3941.495
880.492; 3812.601;  620.090; 4067.014
881.053; 3704.646;  462.089; 3859.633
881.615; 3634.612;  468.087; 3776.071
882.176; 3553.018;  518.085; 3734.750
882.738; 3596.603;  603.084; 3678.489
883.299; 3356.269;  378.082; 3405.407
883.860; 3222.454;  423.080; 3351.106
884.422; 3219.240;  552.078; 3394.044
884.983; 3041.866;  481.077; 3166.443
885.544; 3101.191;  559.075; 3189.802
886.105; 3121.217;  525.073; 3160.360
886.666; 3045.503;  513.072; 3093.059
887.227; 2883.488;  450.070; 2941.957
887.788; 2887.754;  528.068; 2974.836
888.349; 2650.500;  437.067; 2721.214
888.910; 2632.105;  596.065; 2696.493
889.471; 2532.631;  546.063; 2560.172
890.032; 2525.297;  541.061; 2558.190
890.593; 2546.802;  574.060; 2567.669
891.153; 2445.668;  504.058; 2460.307
891.714; 2258.053;  434.056; 2372.046
892.275; 2214.279;  417.055; 2309.505
892.835; 2255.265;  590.053; 2382.543
893.396; 2150.450;  565.051; 2295.502
893.956; 2000.236;  484.049; 2162.420
894.517; 1976.822;  533.048; 2125.439
895.077; 1963.167;  534.046; 2086.978
895.638; 2009.353;  637.044; 2126.316
896.198; 1752.579;  486.043; 1838.275
896.758; 1776.384;  580.041; 1892.813
897.319; 1649.270;  512.039; 1792.232
897.879; 1615.056;  535.038; 1762.751
898.439; 1470.821;  418.036; 1661.149
898.999; 1562.767;  543.034; 1781.468
899.559; 1508.913;  534.032; 1703.347
900.119; 1365.238;  450.031; 1537.525
900.679; 1487.264;  647.029; 1638.384
901.239; 1395.650;  565.027; 1527.902
901.799; 1335.995;  493.026; 1456.441
902.359; 1247.201;  463.024; 1357.140
902.919; 1222.827;  481.022; 1331.118
903.479; 1198.092;  501.020; 1317.257
904.038; 1140.898;  436.019; 1262.595
904.598; 1046.264;  380.017; 1152.034
905.158; 1127.429;  497.015; 1240.893
905.717; 1133.115;  492.014; 1233.691
906.277; 1119.840;  518.012; 1217.330
906.836; 1112.606;  544.010; 1222.408
907.396; 1079.492;  552.009; 1193.047
907.955; 1059.137;  574.007; 1182.526
908.515;  985.703;  476.005; 1099.364
909.074;  971.769;  497.003; 1092.863
909.633;  967.514;  514.002; 1069.121
910.192; 1082.240;  642.000; 1196.460
910.752;  940.080;  493.000; 1029.960
911.311;  906.820;  464.000; 1009.780
911.870;  884.900;  506.000;  971.460
912.429;  993.940;  575.000; 1094.080
912.988;  972.500;  599.000; 1081.060
913.547;  841.260;  460.000;  940.380
914.106;  900.440;  552.000;  999.420
914.665;  888.140;  519.000;  984.020
915.224;  936.020;  619.000; 1035.760
915.782;  831.820;  487.000;  922.560
916.341;  941.260;  600.000; 1049.840
916.900;  827.960;  510.000;  925.260
917.458;  799.340;  455.000;  884.220
918.017;  853.300;  535.000;  942.600
918.576;  819.100;  513.000;  904.440
919.134;  759.020;  450.000;  837.980
919.693;  807.700;  491.000;  893.060
920.251;  793.860;  503.000;  876.500
920.809;  761.860;  471.000;  839.580
921.368;  794.960;  478.000;  885.360
921.926;  769.620;  443.000;  842.940
922.484;  819.380;  529.000;  903.360
923.042;  797.600;  491.000;  880.340
923.601;  904.000;  585.000;  998.680
924.159;  850.680;  547.000;  935.560
924.717;  760.800;  485.000;  841.080
925.275;  812.740;  524.000;  903.240
925.833;  708.980;  377.000;  779.320
926.391;  845.720;  520.000;  938.380
926.949;  782.100;  479.000;  857.680
927.506;  816.020;  552.000;  903.500
928.064;  796.240;  504.000;  877.580
928.622;  798.020;  500.000;  880.100
929.180;  740.720;  446.000;  814.180
929.737;  728.700;  435.000;  808.540
930.295;  839.700;  532.000;  928.480
930.853;  766.920;  448.000;  849.100
931.410;  742.380;  426.000;  821.120
931.968;  854.980;  539.000;  940.660
932.525;  825.020;  517.000;  909.380
933.082;  737.020;  406.000;  811.440
933.640;  843.920;  538.000;  925.900
934.197;  802.940;  503.000;  886.360
934.754;  801.740;  461.000;  897.780
935.312;  777.100;  466.000;  863.340
935.869;  899.880;  577.000; 1012.980
936.426;  777.440;  497.000;  872.800
936.983;  793.740;  465.000;  889.020
937.540;  752.280;  422.000;  838.280
938.097;  848.800;  529.000;  940.120
938.654;  807.060;  502.000;  898.860
939.211;  855.620;  512.000;  952.480
939.768;  829.820;  478.000;  915.420
940.324;  809.940;  467.000;  904.200
940.881;  785.740;  476.000;  878.500
941.438;  919.880;  581.000; 1021.200
941.995;  897.920;  560.000;  992.560
942.551;  794.060;  439.000;  875.620
943.108;  851.260;  529.000;  937.920
943.664;  803.300;  450.000;  869.340
944.221;  998.940;  628.000; 1088.140
944.777;  786.000;  418.000;  869.680
945.334;  806.180;  471.000;  884.840
945.890;  865.680;  486.000;  946.480
946.446;  863.980;  505.000;  947.020
947.003;  882.980;  508.000;  964.940
947.559;  965.240;  643.000; 1063.040
948.115;  929.320;  581.000; 1026.540
948.671;  882.720;  511.000;  967.300
949.227;  781.020;  412.000;  859.560
949.783;  765.780;  428.000;  858.900
950.339;  885.620;  531.000;  991.000
950.895;  921.340;  552.000; 1023.840
951.451;  823.040;  501.000;  925.280
952.007;  887.160;  544.000;  998.540
952.563;  837.500;  498.000;  937.780
953.118;  817.300;  475.000;  904.940
953.674;  850.840;  504.000;  935.780
954.230;  857.880;  500.000;  949.640
954.785;  847.900;  484.000;  936.640
955.341;  897.680;  535.000;  998.160
955.897;  751.480;  393.000;  834.660
956.452;  854.620;  524.000;  953.840
957.008;  982.240;  616.000; 1083.640
957.563;  912.940;  554.000; 1009.540
958.118;  794.280;  473.000;  877.700
958.674;  852.440;  524.000;  946.780
959.229;  916.980;  572.000; 1013.980
959.784;  760.420;  402.000;  832.400
960.339;  904.360;  563.000; 1001.280
960.894;  867.320;  532.000;  963.760
961.449;  773.640;  452.000;  859.960
962.004; 1087.080;  790.000; 1212.840
962.559;  769.440;  455.000;  860.140
963.114;  663.380;  347.000;  742.480
963.669;  824.800;  502.000;  915.500
964.224;  788.520;  452.000;  874.340
964.779;  751.380;  409.000;  828.420
965.334;  914.960;  609.000; 1017.860
965.888;  777.860;  475.000;  875.360
966.443;  867.520;  549.000;  972.380
966.998;  720.740;  396.000;  819.460
967.552;  805.620;  480.000;  908.380
968.107;  773.060;  482.000;  868.300
968.661;  819.340;  539.000;  922.440
969.216;  758.140;  484.000;  856.280
969.770;  816.480;  516.000;  917.200
970.324;  823.120;  530.000;  923.140
970.879;  851.580;  579.000;  947.180
971.433;  850.740;  549.000;  952.720
971.987;  805.280;  520.000;  895.340
972.541;  823.780;  520.000;  917.100
973.095;  903.800;  583.000; 1009.460
973.649;  714.840;  449.000;  809.480
974.203;  733.860;  446.000;  829.040
974.757;  759.820;  492.000;  855.220
975.311;  779.000;  480.000;  872.600
975.865;  786.340;  511.000;  881.820
976.419;  760.780;  504.000;  857.400
976.973;  761.260;  461.000;  849.620
977.526;  849.060;  556.000;  949.920
978.080;  709.080;  424.000;  796.780
978.634;  822.080;  567.000;  921.320
979.187;  811.240;  526.000;  905.400
979.741;  916.340;  608.000; 1018.380
980.294;  702.400;  412.000;  789.160
980.848;  637.660;  396.000;  717.220
981.401;  731.820;  475.000;  816.540
981.955;  758.240;  513.000;  844.300
982.508;  670.040;  410.000;  746.340
983.061;  821.620;  556.000;  915.260
983.615;  716.640;  454.000;  798.800
984.168;  689.260;  425.000;  770.080
984.721;  784.460;  508.000;  880.760
985.274;  772.360;  533.000;  867.500
985.827;  744.220;  518.000;  834.220
986.380;  643.860;  385.000;  721.340
986.933;  775.040;  524.000;  864.800
987.486;  762.820;  522.000;  861.920
988.039;  772.980;  558.000;  863.100
988.591;  795.780;  575.000;  893.260
989.144;  657.920;  434.000;  737.260
989.697;  679.740;  452.000;  758.740
990.250;  762.680;  543.000;  858.100
990.802;  669.680;  437.000;  755.860
991.355;  867.320;  669.000;  974.880
991.907;  767.830;  572.500;  864.320
992.460;  668.340;  476.000;  753.760
993.012;  672.720;  481.000;  749.540
993.565;  629.460;  436.000;  711.360
994.117;  847.980;  670.000;  950.780
994.669;  626.160;  441.000;  701.320
995.221;  706.340;  512.000;  791.920
995.774;  704.220;  512.000;  787.580
996.326;  657.280;  496.000;  740.220
996.878;  744.900;  571.000;  838.420
997.430;  623.620;  464.000;  699.860
997.982;  665.580;  508.000;  750.140
998.534;  658.700;  486.000;  739.060
999.086;  652.020;  486.000;  738.220
999.638;  586.700;  423.000;  661.380
1000.190;  624.020;  492.000;  699.320
1000.741;  657.560;  536.000;  742.700
1001.293;  606.960;  431.000;  686.020
1001.845;  605.060;  465.000;  676.640
1002.396;  659.640;  539.000;  743.400
1002.948;  658.260;  528.000;  737.400
1003.500;  640.240;  494.000;  723.780
1004.051;  816.780;  675.000;  907.580
1004.603;  705.440;  574.000;  791.820
1005.154;  539.340;  419.000;  608.980
1005.705;  642.800;  524.000;  723.960
1006.257;  629.700;  501.000;  707.220
1006.808;  605.980;  507.000;  685.460
1007.359;  685.420;  575.000;  763.240
1007.910;  573.980;  453.000;  646.640
1008.461;  650.780;  542.000;  732.940
1009.013;  522.900;  412.000;  588.340
1009.564;  702.900;  619.000;  793.520
1010.115;  530.000;  427.000;  597.040
1010.665;  538.700;  434.000;  602.160
1011.216;  595.740;  497.000;  667.920
1011.767;  613.620;  512.000;  697.920
1012.318;  654.420;  549.000;  736.980
1012.869;  599.440;  497.000;  679.000
1013.419;  535.960;  411.000;  603.120
1013.970;  593.660;  490.000;  666.640
1014.521;  546.820;  456.000;  620.620
1015.071;  597.160;  476.000;  670.380
1015.622;  556.560;  496.000;  635.460
1016.172;  527.400;  455.000;  596.820
1016.723;  543.680;  473.000;  614.380
1017.273;  543.240;  454.000;  604.160
1017.823;  572.800;  496.000;  650.340
1018.374;  537.520;  440.000;  611.760
1018.924;  633.420;  559.000;  716.880
1019.474;  632.000;  544.000;  718.880
1020.024;  577.180;  487.000;  657.580
1020.574;  642.180;  570.000;  726.160
1021.124;  597.340;  528.000;  673.580
1021.674;  497.540;  401.000;  559.120
1022.224;  633.760;  522.000;  708.940
1022.774;  586.860;  489.000;  668.820
1023.324;  671.620;  593.000;  753.520
1023.874;  783.640;  660.000;  875.760
1024.423;  539.620;  456.000;  613.700
1024.973;  537.120;  487.000;  610.760
1025.523;  552.880;  452.000;  620.960
1026.072;  535.700;  448.000;  606.420
1026.622;  593.720;  518.000;  675.740
1027.172;  632.980;  580.000;  715.660
1027.721;  531.880;  437.000;  601.220
1028.270;  591.800;  500.000;  663.400
1028.820;  565.140;  494.000;  638.080
1029.369;  539.580;  477.000;  612.700
1029.918;  571.020;  464.000;  649.840
1030.468;  501.500;  402.000;  564.780
1031.017;  562.520;  494.000;  634.800
1031.566;  540.260;  491.000;  608.900
1032.115;  620.320;  536.000;  694.500
1032.664;  532.740;  418.000;  596.480
1033.213;  648.600;  567.000;  735.420
1033.762;  562.260;  497.000;  635.620
1034.311;  599.080;  507.000;  677.220
1034.860;  610.100;  534.000;  691.000
1035.408;  643.540;  543.000;  722.720
1035.957;  635.780;  537.000;  719.540
1036.506;  470.460;  374.000;  530.800
1037.055;  750.440;  665.000;  844.320
1037.603;  586.940;  507.000;  664.000
1038.152;  472.420;  395.000;  534.760
1038.700;  511.380;  410.000;  585.740
1039.249;  608.160;  531.000;  681.220
1039.797;  560.440;  482.000;  633.360
1040.345;  624.220;  545.000;  705.420
1040.894;  556.700;  461.000;  625.300
1041.442;  562.560;  503.000;  632.200
1041.990;  498.360;  399.000;  559.160
1042.538;  473.500;  399.000;  536.180
1043.087;  505.320;  464.000;  570.860
1043.635;  597.180;  524.000;  670.500
1044.183;  521.360;  453.000;  586.400
1044.731;  512.520;  427.000;  576.000
1045.279;  596.520;  519.000;  674.920
1045.827;  796.880;  714.000;  892.400
1046.374;  451.080;  398.000;  515.420
1046.922;  519.400;  474.000;  590.580
1047.470;  616.100;  541.000;  691.300
1048.018;  579.520;  509.000;  647.960
1048.565;  633.100;  575.000;  708.600
1049.113;  489.520;  401.000;  557.000
1049.660;  552.860;  485.000;  629.660
1050.208;  598.820;  554.000;  675.640
1050.755;  540.800;  468.000;  606.580
1051.303;  607.840;  547.000;  686.820
1051.850;  563.320;  494.000;  635.120
1052.397;  415.380;  340.000;  473.960
1052.945;  542.640;  513.000;  617.760
1053.492;  657.860;  618.000;  741.840
1054.039;  637.160;  561.000;  720.180
1054.586;  491.420;  397.000;  557.240
1055.133;  613.940;  528.000;  693.140
1055.680;  571.520;  508.000;  646.620
1056.227;  475.800;  385.000;  542.780
1056.774;  704.540;  624.000;  794.980
1057.321;  460.000;  400.000;  523.260
1057.868;  569.660;  536.000;  651.320
1058.415;  572.740;  502.000;  651.980
1058.961;  600.580;  510.000;  678.940
1059.508;  564.800;  472.000;  643.820
1060.055;  512.580;  456.000;  581.780
1060.601;  550.080;  470.000;  624.300
1061.148;  547.600;  495.000;  616.820
1061.694;  524.960;  463.000;  592.580
1062.241;  522.340;  498.000;  596.320
1062.787;  584.060;  554.000;  663.140
1063.334;  719.520;  665.000;  808.560
1063.880;  591.000;  531.000;  668.360
1064.426;  624.560;  583.000;  706.820
1064.972;  527.980;  461.000;  601.340
1065.518;  504.760;  415.000;  566.640
1066.065;  556.440;  502.000;  624.460
1066.611;  529.080;  483.000;  598.800
1067.157;  567.500;  509.000;  641.860
1067.703;  589.580;  514.000;  668.480
1068.249;  536.160;  475.000;  605.220
1068.794;  551.900;  499.000;  626.880
1069.340;  508.340;  447.000;  578.960
1069.886;  522.560;  470.000;  590.700
1070.432;  473.980;  405.000;  541.720
1070.977;  535.520;  477.000;  601.080
1071.523;  500.240;  431.000;  573.060
1072.068;  511.300;  441.000;  582.000
1072.614;  461.800;  387.000;  527.760
1073.160;  606.300;  556.000;  687.040
1073.705;  510.800;  488.000;  572.520
1074.250;  495.920;  479.000;  559.900
1074.796;  579.680;  502.000;  655.160
1075.341;  587.180;  525.000;  664.100
1075.886;  525.560;  470.000;  594.240
1076.431;  574.320;  514.000;  649.880
1076.976;  571.840;  491.000;  639.220
1077.521;  512.100;  463.000;  583.080
1078.067;  513.180;  450.000;  579.400
1078.612;  588.520;  537.000;  661.620
1079.156;  530.600;  481.000;  601.540
1079.701;  607.920;  543.000;  693.260
1080.246;  616.820;  599.000;  696.300
1080.791;  559.620;  485.000;  625.020
1081.336;  583.860;  502.000;  659.320
1081.880;  574.700;  526.000;  649.680
1082.425;  506.700;  421.000;  573.480
1082.970;  632.120;  577.000;  717.040
1083.514;  529.100;  482.000;  597.000
1084.059;  517.900;  455.000;  586.720
1084.603;  502.460;  437.000;  565.840
1085.147;  572.600;  496.000;  645.220
1085.692;  635.720;  566.000;  716.800
1086.236;  440.420;  419.000;  503.140
1086.780;  668.520;  621.000;  751.440
1087.325;  582.240;  518.000;  654.620
1087.869;  541.900;  482.000;  610.700
1088.413;  619.780;  567.000;  705.040
1088.957;  482.560;  457.000;  543.400
1089.501;  680.720;  634.000;  766.640
1090.045;  645.840;  611.000;  726.480
1090.589;  500.460;  453.000;  569.920
1091.133;  599.200;  513.000;  673.340
1091.676;  524.960;  450.000;  591.940
1092.220;  533.280;  481.000;  600.920
1092.764;  626.480;  579.000;  706.960
1093.307;  590.200;  526.000;  673.780
1093.851;  492.220;  442.000;  556.540
1094.395;  601.780;  571.000;  683.140
1094.938;  559.120;  516.000;  632.520
1095.482;  495.180;  455.000;  559.800
1096.025;  632.020;  565.000;  710.880
1096.568;  692.720;  631.000;  779.280
1097.112;  444.440;  405.000;  508.180
1097.655;  525.480;  518.000;  603.000
1098.198;  528.500;  473.000;  600.180
1098.741;  543.980;  490.000;  612.860
1099.285;  577.980;  531.000;  657.300
1099.828;  380.940;  330.000;  439.400
1100.371;  536.960;  497.000;  608.160
1100.914;  605.380;  552.000;  682.660
1101.457;  602.320;  555.000;  679.900
1101.999;  509.480;  447.000;  584.680
1102.542;  567.880;  491.000;  641.440
1103.085;  579.540;  548.000;  658.500
1103.628;  678.180;  642.000;  762.060
1104.170;  522.800;  463.000;  588.280
1104.713;  570.900;  529.000;  646.700
1105.256;  492.580;  403.000;  557.440
1105.798;  439.920;  400.000;  499.980
1106.341;  643.040;  603.000;  728.900
1106.883;  461.380;  393.000;  521.340
1107.425;  592.580;  534.000;  668.180
1107.968;  541.620;  517.000;  612.380
1108.510;  609.020;  572.000;  684.960
1109.052;  546.920;  473.000;  612.620
1109.594;  495.040;  408.000;  554.440
1110.136;  570.120;  509.000;  643.220
1110.679;  562.000;  552.000;  633.080
1111.221;  538.160;  462.000;  604.460
1111.763;  488.300;  444.000;  559.220
1112.304;  477.320;  428.000;  547.140
1112.846;  588.020;  564.000;  666.240
1113.388;  839.240;  770.000;  942.180
1113.930;  613.580;  589.000;  694.200
1114.472;  533.960;  488.000;  606.540
1115.013;  484.080;  424.000;  551.280
1115.555;  520.480;  486.000;  587.100
1116.097;  503.580;  459.000;  579.480
1116.638;  607.620;  582.000;  684.600
1117.180;  587.140;  526.000;  667.740
1117.721;  507.620;  456.000;  568.580
1118.262;  599.600;  521.000;  677.960
1118.804;  562.140;  529.000;  637.340
1119.345;  511.160;  461.000;  578.400
1119.886;  623.800;  601.000;  704.040
1120.427;  520.540;  478.000;  589.020
1120.969;  526.680;  480.000;  597.920
1121.510;  499.160;  442.000;  563.060
1122.051;  638.680;  598.000;  723.580
1122.592;  579.660;  514.000;  655.420
1123.133;  476.820;  473.000;  547.940
1123.673;  625.480;  586.000;  706.480
1124.214;  541.980;  511.000;  612.460
1124.755;  568.560;  537.000;  639.460
1125.296;  547.040;  505.000;  627.320
1125.836;  608.520;  570.000;  691.500
1126.377;  527.360;  467.000;  599.660
1126.918;  542.420;  505.000;  614.980
1127.458;  547.320;  528.000;  622.220
1127.999;  582.760;  548.000;  656.980
1128.539;  617.800;  545.000;  694.240
1129.079;  561.840;  527.000;  632.720
1129.620;  488.420;  440.000;  558.100
1130.160;  477.720;  456.000;  539.480
1130.700;  567.660;  512.000;  640.840
1131.240;  573.400;  546.000;  643.700
1131.781;  548.300;  535.000;  619.680
1132.321;  531.860;  504.000;  599.120
1132.861;  495.700;  446.000;  564.200
1133.401;  526.300;  484.000;  593.940
1133.941;  556.560;  551.000;  626.280
1134.481;  530.560;  505.000;  597.580
1135.020;  539.000;  488.000;  609.160
1135.560;  599.620;  567.000;  674.940
1136.100;  437.740;  398.000;  501.160
1136.640;  449.720;  411.000;  510.480
1137.179;  473.580;  428.000;  537.960
1137.719;  532.720;  486.000;  605.400
1138.258;  518.340;  501.000;  587.360
1138.798;  586.640;  547.000;  663.780
1139.337;  423.860;  369.000;  482.840
1139.877;  568.980;  524.000;  642.360
1140.416;  775.520;  763.000;  878.060
1140.955;  465.780;  404.000;  535.380
1141.494;  589.480;  559.000;  669.280
1142.034;  516.700;  482.000;  583.520
1142.573;  574.000;  560.000;  646.280
1143.112;  487.960;  469.000;  553.480
1143.651;  472.440;  452.000;  536.480
1144.190;  611.100;  551.000;  691.640
1144.729;  531.640;  479.000;  607.420
1145.267;  512.140;  500.000;  584.900
1145.806;  569.320;  544.000;  637.040
1146.345;  565.480;  528.000;  635.020
1146.884;  550.680;  499.000;  622.500
1147.422;  469.280;  443.000;  533.060
1147.961;  628.680;  580.000;  708.460
1148.500;  591.940;  556.000;  669.720
1149.038;  558.020;  532.000;  632.500
1149.577;  622.440;  607.000;  698.640
1150.115;  396.560;  325.000;  452.280
1150.653;  538.240;  512.000;  607.340
1151.192;  488.360;  456.000;  552.920
1151.730;  576.300;  562.000;  652.560
1152.268;  522.420;  471.000;  589.520
1152.806;  506.700;  494.000;  571.180
1153.344;  500.120;  484.000;  577.640
1153.882;  529.480;  494.000;  600.060
1154.421;  414.600;  363.000;  470.620
1154.958;  527.740;  501.000;  595.240
1155.496;  570.200;  553.000;  645.280
1156.034;  632.480;  600.000;  721.880
1156.572;  592.140;  537.000;  667.060
1157.110;  409.960;  367.000;  473.940
1157.647;  599.400;  576.000;  676.960
1158.185;  496.860;  484.000;  564.320
1158.723;  448.480;  412.000;  509.200
1159.260;  614.060;  588.000;  701.700
1159.798;  578.100;  555.000;  658.160
1160.335;  554.280;  536.000;  631.820

