membrane
Integration time [ms]: 384.568
Averaging Nr. [scans]: 50
Smoothing Nr. [pixels]: 0
Data measured with spectrometer [name]: 7414430SP
Wave   ;Sample   ;Dark     ;Reference
[nm]   ;[counts] ;[counts] ;[counts] 

288.544;  676.519;  568.515;  793.890
289.143;  578.070;  409.561;  681.602
289.742;  710.129;  554.563;  828.814
290.341;  679.873;  505.621;  789.841
290.940;  629.854;  470.651;  730.702
291.538;  760.418;  638.612;  881.108
292.137;  687.127;  534.599;  792.581
292.736;  857.353;  681.621;  975.101
293.335;  635.703;  510.669;  735.086
293.934;  678.567;  495.663;  781.677
294.532;  907.211;  741.656; 1031.958
295.131;  732.155;  595.746;  834.394
295.730;  711.399;  598.740;  809.588
296.328;  690.413;  543.748;  783.442
296.927;  692.865;  597.761;  779.652
297.525;  690.335;  550.746;  781.236
298.124;  576.268;  421.822;  654.009
298.722;  681.161;  559.769;  761.933
299.321;  635.289;  487.787;  708.597
299.919;  672.858;  498.805;  751.918
300.518;  613.684;  469.828;  689.338
301.116;  622.570;  504.786;  691.381
301.715;  656.046;  511.760;  730.222
302.313;  639.720;  453.771;  704.943
302.911;  668.874;  513.844;  733.830
303.509;  840.060;  690.770;  925.627
304.108;  694.122;  544.767;  760.383
304.706;  735.724;  555.763;  801.664
305.304;  736.205;  584.826;  796.707
305.902;  723.407;  580.759;  784.484
306.500;  672.467;  507.790;  728.200
307.098;  695.223;  522.797;  746.560
307.696;  724.613;  583.814;  780.432
308.294;  680.963;  558.798;  731.359
308.892;  712.763;  546.766;  759.769
309.490;  663.596;  509.809;  712.161
310.088;  740.482;  605.831;  788.444
310.686;  768.536;  599.777;  821.749
311.284;  718.794;  545.812;  766.040
311.882;  690.942;  537.830;  731.225
312.480;  661.169;  498.852;  697.167
313.078;  763.183;  628.829;  808.331
313.675;  655.787;  501.790;  691.600
314.273;  752.587;  596.854;  797.837
314.871;  569.036;  410.841;  589.829
315.468;  629.234;  515.844;  652.090
316.066;  661.446;  490.792;  694.427
316.664;  627.607;  490.855;  656.351
317.261;  853.767;  738.822;  910.128
317.859;  733.877;  589.840;  768.735
318.456;  782.438;  653.806;  830.096
319.054;  738.641;  615.833;  787.828
319.651;  712.210;  575.818;  759.928
320.249;  763.850;  657.818;  810.188
320.846;  673.739;  532.804;  714.286
321.443;  785.271;  658.817;  832.135
322.041;  756.484;  623.828;  812.315
322.638;  664.188;  561.821;  701.456
323.235;  636.860;  516.771;  665.683
323.833;  703.487;  582.791;  740.354
324.430;  593.138;  431.805;  615.900
325.027;  834.447;  719.791;  876.855
325.624;  630.495;  430.747;  644.532
326.221;  670.324;  470.764;  689.717
326.818;  789.009;  639.788;  818.332
327.415;  729.044;  529.732;  748.828
328.012;  683.408;  477.725;  690.585
328.609;  717.257;  521.743;  731.389
329.206;  767.786;  601.760;  778.621
329.803;  727.582;  539.767;  737.841
330.400;  703.698;  498.741;  704.260
330.997;  799.225;  568.762;  817.147
331.594;  779.532;  600.815;  788.185
332.191;  727.442;  534.767;  728.722
332.787;  825.950;  605.786;  844.463
333.384;  747.496;  523.840;  763.093
333.981;  788.481;  572.897;  815.687
334.578;  698.314;  498.876;  708.378
335.174;  715.253;  497.878;  731.469
335.771;  810.168;  594.918;  836.456
336.367;  693.566;  505.953;  710.631
336.964;  767.682;  578.927;  793.266
337.561;  718.153;  529.941;  731.112
338.157;  866.816;  709.000;  911.916
338.754;  760.744;  608.020;  796.589
339.350;  698.329;  535.012;  722.493
339.946;  738.270;  575.978;  773.135
340.543;  797.119;  657.060;  846.136
341.139;  678.338;  529.094;  720.836
341.735;  737.733;  610.102;  772.593
342.332;  660.202;  532.087;  691.472
342.928;  742.489;  574.076;  795.394
343.524;  721.430;  581.108;  761.684
344.120;  696.665;  531.115;  738.562
344.716;  671.159;  541.060;  723.717
345.313;  743.777;  584.063;  795.342
345.909;  580.432;  435.072;  627.336
346.505;  694.450;  573.043;  740.247
347.101;  764.719;  594.029;  827.864
347.697;  728.712;  585.008;  785.398
348.293;  572.496;  442.033;  627.244
348.889;  690.022;  578.023;  745.914
349.485;  629.710;  517.010;  688.205
350.081;  707.874;  577.005;  772.592
350.676;  636.232;  521.040;  691.606
351.272;  735.305;  594.987;  809.530
351.868;  702.395;  566.970;  780.497
352.464;  660.603;  564.990;  723.932
353.059;  590.647;  473.015;  646.017
353.655;  708.349;  584.980;  777.063
354.251;  689.823;  553.958;  759.845
354.846;  670.913;  534.006;  740.646
355.442;  670.612;  561.039;  753.071
356.038;  666.878;  554.998;  751.708
356.633;  657.121;  546.993;  728.594
357.229;  644.492;  547.008;  724.757
357.824;  631.503;  515.022;  703.600
358.420;  604.166;  529.017;  679.726
359.015;  610.554;  508.004;  695.357
359.610;  678.301;  579.992;  763.920
360.206;  533.791;  418.041;  603.240
360.801;  565.415;  482.003;  646.503
361.396;  647.910;  522.978;  725.975
361.992;  587.063;  504.022;  668.220
362.587;  585.786;  512.048;  670.160
363.182;  598.522;  531.024;  689.631
363.777;  650.590;  559.010;  738.242
364.372;  648.427;  578.016;  737.314
364.967;  595.487;  518.048;  680.744
365.563;  706.640;  623.995;  815.567
366.158;  594.692;  502.007;  685.161
366.753;  562.902;  489.992;  649.263
367.348;  643.202;  579.023;  746.056
367.942;  599.632;  519.008;  697.298
368.537;  650.779;  552.029;  754.245
369.132;  608.886;  517.017;  703.428
369.727;  545.424;  477.052;  638.079
370.322;  500.137;  430.032;  580.186
370.917;  611.232;  528.040;  710.646
371.511;  750.224;  666.020;  861.834
372.106;  671.367;  615.048;  776.964
372.701;  501.878;  439.062;  585.988
373.296;  743.009;  671.012;  863.135
373.890;  550.286;  486.048;  647.840
374.485;  594.932;  535.071;  691.199
375.079;  636.263;  582.021;  738.685
375.674;  701.406;  650.017;  812.970
376.268;  587.546;  528.049;  691.759
376.863;  490.792;  451.103;  580.327
377.457;  560.137;  514.031;  662.490
378.052;  650.640;  601.059;  764.884
378.646;  629.460;  571.058;  741.167
379.240;  617.237;  552.064;  721.176
379.835;  547.653;  532.037;  636.978
380.429;  477.408;  427.045;  562.557
381.023;  665.953;  597.070;  779.205
381.617;  573.826;  514.081;  680.106
382.212;  581.754;  518.036;  685.303
382.806;  648.177;  610.031;  760.690
383.400;  569.895;  550.067;  672.281
383.994;  566.491;  557.073;  664.870
384.588;  601.178;  535.029;  697.701
385.182;  626.057;  584.999;  726.624
385.776;  608.065;  539.019;  706.875
386.370;  580.923;  545.054;  681.968
386.964;  579.318;  553.031;  684.155
387.558;  509.794;  448.003;  598.360
388.152;  578.609;  545.045;  681.959
388.745;  700.372;  664.039;  814.707
389.339;  644.888;  623.014;  747.642
389.933;  594.398;  552.998;  695.370
390.527;  743.581;  720.024;  859.029
391.120;  499.672;  481.071;  595.318
391.714;  605.673;  588.039;  711.633
392.308;  672.691;  622.008;  780.253
392.901;  550.553;  497.037;  642.460
393.495;  508.321;  508.057;  595.414
394.089;  656.188;  649.046;  760.452
394.682;  602.827;  534.047;  697.188
395.275;  621.007;  577.047;  719.927
395.869;  574.779;  567.061;  667.314
396.462;  529.132;  512.039;  616.609
397.056;  672.055;  631.003;  776.621
397.649;  631.581;  601.057;  731.575
398.242;  619.441;  583.025;  712.645
398.836;  662.468;  630.013;  766.408
399.429;  542.328;  486.015;  631.041
400.022;  571.820;  536.059;  665.902
400.615;  699.790;  675.043;  805.609
401.208;  589.571;  580.009;  691.451
401.802;  602.774;  569.036;  699.329
402.395;  595.640;  535.059;  683.502
402.988;  597.453;  588.070;  696.627
403.581;  558.163;  560.023;  646.878
404.174;  594.280;  573.994;  686.568
404.767;  554.731;  529.040;  638.583
405.360;  535.078;  506.062;  621.445
405.953;  659.711;  648.008;  759.034
406.545;  635.319;  583.996;  725.342
407.138;  537.512;  507.039;  618.350
407.731;  535.558;  507.029;  613.303
408.324;  578.312;  560.975;  660.554
408.917;  597.137;  577.999;  681.864
409.509;  652.380;  618.027;  740.396
410.102;  555.045;  542.051;  643.948
410.695;  583.075;  557.970;  665.758
411.287;  523.449;  482.981;  599.821
411.880;  509.804;  456.988;  585.421
412.472;  530.400;  511.027;  613.092
413.065;  551.533;  563.006;  629.408
413.657;  507.860;  484.963;  576.678
414.250;  570.638;  525.966;  646.681
414.842;  590.158;  576.997;  676.353
415.434;  504.096;  475.969;  570.463
416.027;  570.465;  535.922;  652.196
416.619;  629.340;  592.962;  713.400
417.211;  525.079;  500.964;  599.352
417.804;  548.170;  540.914;  628.499
418.396;  535.778;  513.965;  607.643
418.988;  579.932;  525.944;  659.238
419.580;  499.390;  484.978;  568.276
420.172;  480.031;  456.944;  536.196
420.764;  594.051;  578.913;  672.482
421.356;  564.603;  544.925;  636.898
421.948;  594.850;  552.947;  677.661
422.540;  597.225;  580.890;  680.027
423.132;  528.107;  498.887;  600.641
423.724;  499.220;  455.931;  561.267
424.316;  547.909;  504.916;  621.345
424.908;  529.458;  498.869;  591.517
425.500;  578.778;  548.869;  647.978
426.092;  570.439;  551.867;  648.268
426.683;  613.482;  583.896;  684.836
427.275;  573.471;  540.848;  641.471
427.867;  598.936;  557.841;  668.948
428.458;  656.115;  592.842;  732.344
429.050;  609.580;  569.867;  680.749
429.642;  661.193;  615.845;  743.124
430.233;  495.981;  460.832;  569.356
430.825;  653.498;  584.837;  724.809
431.416;  620.059;  594.868;  698.241
432.008;  578.767;  538.823;  651.723
432.599;  584.793;  555.814;  656.073
433.190;  580.784;  534.859;  637.670
433.782;  526.485;  480.858;  590.395
434.373;  792.961;  771.800;  884.765
434.964;  535.043;  467.798;  602.920
435.556;  561.159;  533.836;  634.537
436.147;  672.728;  617.822;  758.490
436.738;  624.011;  584.816;  701.099
437.329;  642.264;  599.763;  721.723
437.920;  596.249;  563.852;  666.688
438.511;  504.393;  440.845;  564.526
439.103;  556.179;  524.772;  623.998
439.694;  612.207;  546.759;  681.583
440.285;  684.078;  607.773;  764.432
440.876;  756.703;  709.798;  845.738
441.466;  512.670;  436.786;  575.162
442.057;  596.304;  554.731;  665.814
442.648;  674.219;  617.772;  746.255
443.239;  553.047;  531.791;  620.477
443.830;  633.918;  578.742;  704.958
444.421;  588.754;  482.716;  655.474
445.011;  619.214;  529.779;  693.619
445.602;  662.711;  592.785;  743.126
446.193;  433.702;  379.734;  488.117
446.783;  569.705;  497.697;  640.397
447.374;  615.439;  563.772;  692.759
447.964;  638.218;  602.773;  713.770
448.555;  738.188;  654.692;  822.742
449.145;  589.766;  533.728;  662.853
449.736;  714.438;  656.742;  803.179
450.326;  639.519;  545.740;  713.626
450.917;  601.753;  549.684;  675.324
451.507;  541.248;  455.692;  600.661
452.097;  671.317;  600.710;  746.267
452.688;  656.504;  534.700;  742.160
453.278;  505.488;  444.693;  566.840
453.868;  714.526;  618.665;  793.550
454.458;  579.806;  473.696;  651.141
455.048;  637.362;  546.703;  711.783
455.639;  508.486;  439.663;  567.096
456.229;  639.535;  544.649;  710.694
456.819;  671.656;  579.648;  751.158
457.409;  692.091;  604.657;  773.993
457.999;  665.009;  557.628;  737.505
458.589;  605.466;  525.632;  686.606
459.179;  639.921;  550.641;  717.658
459.769;  558.267;  487.663;  627.099
460.358;  711.093;  644.621;  797.262
460.948;  619.151;  522.625;  689.503
461.538;  586.855;  488.618;  660.677
462.128;  593.295;  481.649;  664.934
462.717;  629.764;  569.572;  710.326
463.307;  633.255;  556.553;  705.846
463.897;  587.657;  479.614;  656.942
464.486;  749.930;  640.657;  837.128
465.076;  655.291;  582.592;  733.776
465.666;  579.699;  516.547;  652.900
466.255;  705.343;  592.604;  785.651
466.845;  592.838;  481.612;  666.749
467.434;  645.293;  576.589;  725.873
468.023;  586.763;  457.573;  658.357
468.613;  634.326;  526.632;  713.946
469.202;  580.539;  470.579;  646.507
469.791;  661.038;  542.548;  737.811
470.381;  658.501;  556.544;  742.813
470.970;  630.037;  486.551;  711.099
471.559;  656.524;  565.571;  733.291
472.148;  598.766;  481.536;  675.737
472.738;  683.072;  569.527;  765.466
473.327;  564.527;  430.534;  637.529
473.916;  659.108;  547.564;  737.446
474.505;  674.516;  552.520;  751.703
475.094;  728.188;  578.500;  806.570
475.683;  711.855;  568.521;  797.699
476.272;  648.112;  507.526;  730.632
476.861;  628.151;  481.495;  706.754
477.449;  648.545;  502.441;  728.487
478.038;  616.652;  477.526;  692.513
478.627;  630.588;  504.533;  714.852
479.216;  684.568;  583.468;  769.441
479.805;  695.719;  548.450;  783.375
480.393;  902.152;  759.493; 1008.945
480.982;  778.080;  614.513;  874.501
481.571;  770.261;  628.447;  858.333
482.159;  626.443;  453.444;  705.386
482.748;  733.562;  548.478;  821.385
483.336;  766.714;  621.459;  858.209
483.925;  693.465;  539.473;  774.373
484.513;  674.926;  520.408;  758.962
485.102;  722.039;  554.482;  810.965
485.690;  901.397;  716.421; 1011.050
486.278;  877.077;  684.421;  979.329
486.867;  718.692;  541.430;  809.662
487.455;  806.201;  578.448;  898.229
488.043;  665.640;  447.449;  748.361
488.631;  895.468;  712.404; 1005.079
489.220;  817.873;  584.396;  908.626
489.808;  672.089;  424.435;  741.415
490.396;  819.497;  593.422;  914.645
490.984;  744.436;  505.423;  830.161
491.572;  849.087;  618.405;  940.315
492.160;  825.720;  526.449;  919.081
492.748;  800.738;  526.453;  884.341
493.336;  925.247;  620.406; 1019.693
493.924;  879.902;  534.383;  958.077
494.512;  990.914;  599.427; 1066.638
495.100; 1028.940;  569.449; 1103.280
495.687; 1135.219;  637.387; 1206.373
496.275; 1094.892;  490.398; 1150.796
496.863; 1220.406;  517.440; 1281.171
497.451; 1324.283;  507.445; 1386.805
498.038; 1480.305;  560.377; 1556.729
498.626; 1684.100;  520.384; 1741.407
499.214; 2023.537;  543.421; 2016.609
499.801; 2294.668;  548.436; 2220.633
500.389; 2454.296;  465.391; 2312.494
500.976; 2935.333;  564.395; 2744.849
501.564; 3251.808;  530.437; 3148.565
502.151; 3443.522;  369.446; 3515.999
502.738; 4022.227;  520.406; 3971.274
503.326; 4661.326;  490.375; 4403.796
503.913; 5301.804;  530.410; 5161.749
504.500; 5812.952;  553.430; 5986.420
505.088; 6465.414;  476.427; 6381.201
505.675; 7543.285;  520.377; 6925.547
506.262; 8631.282;  513.446; 7619.060
506.849; 9715.042;  535.414; 8733.969
507.436;10751.279;  590.385; 9790.121
508.023;11176.236;  518.391; 9985.472
508.610;11687.623;  592.412;10434.618
509.197;12795.308;  546.469;11198.435
509.784;13932.641;  543.417;12391.194
510.371;15092.391;  433.368;13603.713
510.958;16052.248;  505.437;14426.586
511.545;16316.836;  634.424;15243.775
512.132;17134.564;  547.379;15945.876
512.719;18362.584;  475.410;16340.369
513.305;20195.531;  478.430;18011.766
513.892;21842.336;  600.455;19754.971
514.479;23480.453;  549.396;20967.805
515.066;24774.930;  615.402;22299.793
515.652;26224.889;  523.404;22908.660
516.239;27643.299;  603.420;23798.875
516.825;29061.965;  464.409;25567.275
517.412;30892.455;  686.393;28154.959
517.998;29918.291;  501.432;28344.111
518.585;28320.781;  509.446;27134.219
519.171;29285.662;  535.383;27268.576
519.758;29873.133;  440.395;28964.129
520.344;30819.541;  573.417;30664.494
520.930;32239.754;  456.459;32550.605
521.516;35461.859;  596.383;35422.895
522.103;37482.266;  639.408;38280.004
522.689;37770.340;  498.450;37835.117
523.275;37358.348;  614.439;37288.613
523.861;38170.984;  552.413;37281.395
524.447;39913.121;  614.384;37846.949
525.033;39986.148;  601.436;38321.949
525.619;38092.918;  461.452;38579.285
526.205;37812.469;  483.435;40622.875
526.791;39656.773;  528.398;42258.836
527.377;40796.301;  509.449;42966.902
527.963;41768.086;  570.470;42018.949
528.549;42577.840;  580.452;42476.828
529.135;43037.715;  481.428;41854.852
529.721;41868.172;  524.432;41237.711
530.306;42042.879;  714.452;41259.445
530.892;42867.410;  517.433;41506.047
531.478;45043.660;  526.417;43559.613
532.063;47064.281;  462.445;47695.563
532.649;50084.242;  662.479;50808.324
533.235;50162.305;  487.442;51787.500
533.820;50626.215;  612.394;52145.035
534.406;48577.941;  511.477;51133.488
534.991;48195.242;  497.448;49996.805
535.576;46376.270;  517.432;48882.852
536.162;44785.613;  729.426;46942.285
536.747;45903.020;  444.482;45711.746
537.333;48093.641;  487.479;48510.180
537.918;51178.309;  520.466;50439.891
538.503;51062.539;  498.421;50863.711
539.088;49206.773;  570.460;50906.922
539.673;51295.148;  530.467;52621.965
540.259;52520.223;  483.443;52368.094
540.844;52166.250;  434.436;50879.109
541.429;51868.996;  655.487;52077.777
542.014;52450.125;  451.502;52716.695
542.599;51228.977;  569.453;52363.281
543.184;51023.660;  489.483;53187.137
543.769;53358.438;  467.486;54697.605
544.354;52873.422;  493.480;53913.914
544.938;49479.551;  571.467;49680.164
545.523;47066.383;  652.446;47386.277
546.108;49588.316;  518.488;49151.949
546.693;51854.422;  533.513;51384.637
547.278;50539.453;  570.458;51853.254
547.862;48399.953;  517.429;51173.750
548.447;47867.652;  574.495;51691.395
549.031;48095.195;  497.523;52456.703
549.616;48760.191;  562.461;52714.516
550.201;49513.707;  489.473;52414.598
550.785;52415.414;  590.491;52355.059
551.370;55242.047;  465.503;54589.453
551.954;56490.574;  594.493;58267.348
552.538;55521.227;  577.473;59062.176
553.123;54248.348;  462.501;58115.285
553.707;54230.445;  511.538;56556.285
554.291;54217.559;  614.485;56201.668
554.876;53125.430;  623.498;55335.762
555.460;52307.375;  508.520;54155.703
556.044;52979.875;  493.553;53721.484
556.628;52116.703;  527.507;53731.016
557.212;50142.531;  603.462;54312.531
557.796;48966.125;  537.507;53797.773
558.380;48509.539;  548.549;56145.984
558.964;50267.879;  560.481;57277.930
559.548;52654.438;  445.483;56459.641
560.132;53068.273;  485.524;54434.543
560.716;53657.859;  460.547;54800.617
561.300;54403.004;  460.475;57606.945
561.884;53269.781;  560.512;58972.445
562.467;52929.441;  560.545;57327.570
563.051;52728.020;  540.544;54962.434
563.635;51507.309;  540.533;52594.473
564.219;49209.441;  504.511;50610.410
564.802;50055.375;  572.550;49551.180
565.386;51062.223;  516.541;48370.953
565.969;50117.316;  604.488;48178.871
566.553;50110.492;  698.527;49957.305
567.136;49142.875;  608.551;50369.594
567.720;49340.207;  542.569;49492.004
568.303;50685.621;  564.544;50616.352
568.887;52740.547;  548.534;50727.148
569.470;52942.879;  555.580;51698.379
570.053;49997.043;  572.573;52122.078
570.637;47685.301;  491.514;52536.438
571.220;48001.742;  588.510;51186.098
571.803;49245.234;  680.584;51032.762
572.386;50528.352;  495.561;49609.887
572.969;50126.746;  526.538;48285.926
573.552;50632.719;  531.549;47624.285
574.135;48949.871;  458.591;45498.641
574.718;44853.270;  474.559;41970.434
575.301;43650.285;  487.068;41447.137
575.884;42447.301;  499.577;40923.836
576.467;44379.504;  559.569;45267.723
577.050;44695.938;  575.580;48175.543
577.633;43312.344;  663.538;47729.328
578.216;44652.082;  503.574;47579.793
578.799;49794.727;  523.600;47820.996
579.381;50646.465;  669.567;48115.551
579.964;46486.246;  503.538;47333.766
580.547;44623.660;  537.579;46668.969
581.129;45040.359;  621.610;44466.141
581.712;44464.672;  551.621;44164.922
582.294;46386.766;  522.570;46477.855
582.877;45197.688;  703.563;48244.254
583.459;44369.473;  544.619;47437.895
584.042;46653.273;  520.618;46943.219
584.624;47297.371;  507.624;46792.227
585.206;46243.043;  407.575;46557.250
585.789;44790.879;  477.611;45793.773
586.371;43594.102;  552.638;43836.391
586.953;41657.242;  598.608;42972.492
587.536;39878.902;  635.574;42487.211
588.118;40808.098;  543.679;42086.414
588.700;42296.348;  662.631;43389.930
589.282;43616.625;  586.599;43646.039
589.864;42774.977;  523.612;43438.109
590.446;42968.535;  407.647;43151.926
591.028;42429.582;  543.639;42781.867
591.610;42886.898;  439.615;42839.098
592.192;42737.168;  565.599;42820.402
592.774;40667.148;  475.629;40724.277
593.356;40087.543;  501.668;39874.789
593.937;39441.984;  523.605;39980.648
594.519;40480.379;  611.612;42069.633
595.101;41409.051;  460.657;42976.031
595.683;41989.844;  509.666;44084.441
596.264;42872.180;  540.611;43478.797
596.846;44240.867;  517.630;43803.672
597.427;43679.738;  487.679;42986.934
598.009;43349.797;  472.681;42832.219
598.591;42434.008;  598.632;42580.086
599.172;41617.859;  500.640;43061.805
599.753;40985.559;  454.676;41691.469
600.335;41274.488;  637.693;40692.520
600.916;41104.246;  552.666;39982.422
601.498;40867.152;  559.652;40318.617
602.079;41571.559;  534.676;40670.609
602.660;40902.734;  531.685;41450.898
603.241;39153.281;  434.637;41137.738
603.823;40129.258;  514.648;38868.797
604.404;41437.090;  451.688;38182.785
604.985;43367.168;  509.695;38078.047
605.566;44537.844;  595.634;38056.633
606.147;43919.758;  537.708;37020.418
606.728;42151.973;  457.716;37883.359
607.309;41339.945;  483.697;38748.273
607.890;41392.047;  526.661;38850.230
608.471;40702.473;  469.685;37457.918
609.051;40279.059;  536.742;36066.457
609.632;39648.863;  458.735;35991.074
610.213;40568.668;  541.693;37402.641
610.794;42206.902;  503.699;38383.363
611.374;41067.258;  568.707;40562.387
611.955;41237.207;  444.725;38533.727
612.536;42644.328;  573.691;36951.789
613.116;41209.684;  524.698;37197.891
613.697;41178.656;  515.744;38411.125
614.277;40704.871;  494.753;38673.938
614.858;37557.828;  516.696;37075.863
615.438;36070.148;  536.691;35092.906
616.019;35901.449;  622.756;33666.301
616.599;37113.023;  423.733;34189.023
617.179;40207.719;  475.710;36952.047
617.760;40300.492;  708.686;39582.574
618.340;38425.023;  498.765;38943.977
618.920;38847.336;  653.742;37594.156
619.500;38604.223;  495.768;37866.938
620.080;38365.758;  479.741;37869.043
620.660;39147.641;  468.802;36868.617
621.241;39385.164;  491.762;36352.309
621.821;38136.152;  592.749;35459.520
622.401;38507.637;  587.742;35207.414
622.980;40436.074;  463.779;35980.422
623.560;40315.867;  460.758;37351.328
624.140;37459.438;  557.741;34388.582
624.720;37285.375;  554.748;32368.764
625.300;39509.598;  485.743;32638.629
625.880;40050.453;  503.780;34599.035
626.459;38842.152;  556.753;36831.738
627.039;37787.617;  444.772;38299.098
627.619;39648.801;  703.802;38289.574
628.198;42013.809;  572.791;37220.695
628.778;44135.113;  551.748;37632.563
629.357;44754.273;  448.751;38003.012
629.937;42594.484;  496.798;38402.039
630.516;39159.984;  605.794;37868.801
631.096;37699.391;  498.751;35760.410
631.675;37269.172;  625.817;35225.219
632.254;36505.500;  508.833;35130.289
632.834;37694.527;  534.822;35794.570
633.413;40160.219;  638.771;35788.922
633.992;40104.469;  587.820;34532.863
634.571;39172.434;  576.844;33590.113
635.151;38094.762;  476.831;34943.863
635.730;37541.758;  511.775;35352.523
636.309;37966.867;  583.793;35366.605
636.888;37753.488;  593.820;36165.637
637.467;38230.195;  450.842;37515.902
638.046;38815.867;  646.791;39288.695
638.625;39405.129;  649.820;38279.699
639.204;40031.328;  541.850;37741.598
639.782;40601.051;  526.878;38364.551
640.361;39822.520;  639.809;36740.621
640.940;39096.988;  503.807;34950.082
641.519;38880.000;  532.805;34137.398
642.097;37653.828;  556.804;35654.258
642.676;37588.500;  571.802;35637.957
643.255;38377.492;  489.800;36567.074
643.833;40499.020;  569.799;37809.434
644.412;41925.730;  490.797;37337.293
644.990;42063.344;  534.795;37018.531
645.569;41850.793;  555.793;36518.469
646.147;40804.383;  588.792;36186.430
646.726;39628.176;  552.790;36267.688
647.304;38809.586;  509.788;36647.625
647.882;38304.234;  425.787;39286.742
648.461;37957.266;  559.785;39157.703
649.039;37989.656;  588.783;35412.883
649.617;37100.188;  570.781;34744.918
650.195;36921.738;  570.780;35403.098
650.773;37515.930;  470.778;35053.797
651.352;37540.438;  391.776;33756.816
651.930;37159.648;  420.775;31868.773
652.508;36988.941;  603.773;33121.551
653.086;36360.969;  545.771;33564.793
653.663;37253.859;  497.770;34054.668
654.241;37981.270;  453.768;35693.309
654.819;39189.723;  476.766;36422.906
655.397;41046.852;  443.764;38213.484
655.975;42096.961;  530.763;39507.625
656.553;43696.672;  618.761;39498.223
657.130;42819.484;  478.759;40395.480
657.708;42348.316;  552.758;39242.020
658.286;40992.406;  525.756;38920.020
658.863;40534.977;  545.754;40202.898
659.441;39821.246;  541.752;39677.938
660.018;41198.656;  509.751;40413.355
660.596;41572.969;  406.749;39931.414
661.173;41863.656;  500.747;39604.531
661.750;41403.449;  486.746;39700.070
662.328;40671.500;  564.744;39292.809
662.905;39733.711;  510.742;38235.648
663.482;38087.078;  513.741;36212.305
664.060;37382.992;  514.739;35944.945
664.637;37175.020;  585.737;35170.785
665.214;37677.773;  550.735;34197.523
665.791;39307.262;  529.734;34549.520
666.368;39678.074;  530.732;35118.578
666.945;37441.363;  585.730;36019.418
667.522;36592.715;  470.729;36048.438
668.099;37820.086;  505.727;36243.914
668.676;38632.797;  532.725;35958.875
669.253;39174.785;  629.723;37384.730
669.830;37582.715;  578.722;36779.629
670.407;35716.688;  537.720;35231.289
670.984;35078.156;  544.718;35544.270
671.560;35841.727;  560.717;35466.867
672.137;34285.180;  498.715;34280.863
672.714;34488.910;  579.713;34632.863
673.290;36050.301;  548.711;35135.422
673.867;35046.410;  482.710;36114.480
674.443;34974.000;  428.708;36152.859
675.020;36464.230;  541.706;35327.238
675.596;37113.563;  521.705;35795.176
676.173;35855.391;  436.703;35430.355
676.749;36665.582;  385.701;33549.516
677.326;37222.934;  432.700;32210.012
677.902;38170.766;  468.698;32068.871
678.478;37527.273;  424.696;32583.891
679.054;35628.664;  772.694;32088.928
679.631;35176.734;  548.693;30978.848
680.207;36414.527;  660.691;33160.887
680.783;35921.617;  412.689;35570.363
681.359;35812.328;  522.688;36125.184
681.935;35692.020;  540.686;35240.922
682.511;35259.066;  540.684;34429.961
683.087;34494.500;  558.682;34463.680
683.663;33527.348;  498.681;34648.898
684.239;33248.961;  433.679;34546.457
684.815;32634.291;  576.677;35586.375
685.390;33716.840;  664.676;35821.895
685.966;34744.832;  527.674;35085.871
686.542;33797.344;  491.672;34198.230
687.118;33044.734;  520.671;32847.707
687.693;33395.941;  578.669;32794.027
688.269;33185.215;  516.667;33072.367
688.844;32530.145;  567.665;33141.664
689.420;32337.395;  519.664;33965.742
689.995;32072.225;  626.662;34655.523
690.571;32407.916;  615.660;33576.742
691.146;34098.008;  510.659;32657.219
691.722;33603.418;  535.657;32526.979
692.297;31950.707;  459.655;33014.617
692.872;31533.199;  475.654;34012.254
693.448;30808.309;  459.652;34237.434
694.023;30801.398;  537.650;34142.672
694.598;31029.910;  531.648;34132.031
695.173;31260.600;  519.647;34205.250
695.748;30882.570;  415.645;32882.488
696.323;32182.582;  537.643;32864.906
696.898;32866.230;  566.642;33170.004
697.473;31929.262;  437.640;32432.984
698.048;31328.973;  517.638;31649.303
698.623;31994.564;  453.636;30778.141
699.198;32950.715;  536.635;31140.119
699.773;33314.164;  455.633;31764.299
700.348;32725.115;  474.631;31780.816
700.922;32221.605;  520.630;32046.375
701.497;32002.076;  512.628;32603.574
702.072;32527.207;  594.626;34799.871
702.646;33261.258;  601.625;35793.172
703.221;33147.910;  531.623;35201.590
703.795;32411.758;  466.621;34764.527
704.370;33070.828;  386.619;34307.367
704.944;32922.559;  523.618;33509.887
705.519;32438.770;  558.616;31388.584
706.093;32899.801;  467.614;31340.104
706.668;33536.133;  533.613;32630.281
707.242;33056.363;  587.611;32728.779
707.816;31695.912;  511.609;32947.238
708.390;31304.363;  521.607;33277.855
708.965;31822.234;  565.606;33834.336
709.539;32504.285;  518.604;33709.273
710.113;32330.994;  525.602;33044.313
710.687;32790.746;  551.601;31953.992
711.261;33349.777;  468.599;30505.949
711.835;33238.266;  462.597;30262.369
712.409;32017.777;  413.595;31254.447
712.983;32475.348;  424.594;32754.986
713.557;34011.938;  423.592;34018.824
714.131;34619.328;  500.590;34579.625
714.704;33482.680;  495.589;33890.262
715.278;32029.250;  530.587;33531.102
715.852;31684.920;  564.585;33601.660
716.425;31331.891;  663.584;33515.117
716.999;31265.482;  432.582;33185.555
717.573;32338.852;  567.580;33905.996
718.146;33365.422;  615.578;35199.293
718.720;33683.395;  518.577;35060.551
719.293;34297.082;  565.575;34973.230
719.867;33649.793;  470.573;36394.449
720.440;33797.086;  603.572;36663.008
721.013;35006.895;  519.570;35102.426
721.587;34161.664;  405.568;33985.266
722.160;33621.176;  562.566;33524.965
722.733;32865.566;  547.565;32987.043
723.306;34039.816;  513.563;33066.301
723.880;34886.129;  565.561;33399.500
724.453;34224.719;  640.560;33468.297
725.026;32827.488;  497.558;33816.637
725.599;31819.160;  539.556;32797.996
726.172;32232.270;  558.555;33187.434
726.745;33742.242;  538.553;35136.613
727.318;34076.793;  584.551;35751.730
727.891;33350.582;  534.549;35890.430
728.463;31748.033;  535.548;34822.090
729.036;31015.863;  447.546;32895.086
729.609;30679.494;  473.544;31823.225
730.182;31380.564;  580.543;31445.283
730.754;32611.135;  407.541;32373.223
731.327;34431.645;  545.539;33676.820
731.900;34682.254;  421.537;33417.000
732.472;33712.688;  542.536;31978.498
733.045;33334.777;  502.534;30368.777
733.617;31931.668;  437.532;30574.215
734.190;30993.777;  572.531;31280.975
734.762;30443.408;  534.529;31674.412
735.334;30432.119;  527.527;31247.291
735.907;31081.449;  547.526;29876.211
736.479;30801.301;  576.524;29808.488
737.051;31818.750;  544.522;30233.547
737.623;34560.000;  559.520;31469.086
738.195;35727.051;  477.519;31784.225
738.768;35360.664;  389.517;32120.523
739.340;34300.074;  500.515;32094.342
739.912;34251.563;  596.514;31312.680
740.484;33887.094;  543.512;31946.238
741.056;33556.586;  498.510;32984.059
741.628;34674.035;  476.508;33897.715
742.199;33701.605;  596.507;33213.016
742.771;32225.436;  444.505;31369.113
743.343;32446.586;  475.503;31865.473
743.915;32488.477;  503.502;32388.631
744.487;31959.629;  586.500;31079.568
745.058;31026.379;  562.498;30570.107
745.630;29788.648;  564.497;29970.127
746.201;29525.740;  475.495;29186.766
746.773;29401.070;  553.493;28805.723
747.344;28502.061;  515.491;29591.223
747.916;27882.371;  541.490;31412.201
748.487;28261.762;  572.488;32194.898
749.059;29575.072;  453.486;32533.719
749.630;29776.303;  480.485;32158.518
750.201;29209.314;  523.483;30855.395
750.773;29001.885;  478.481;28622.555
751.344;28037.055;  514.479;28405.732
751.915;26462.746;  512.478;28461.551
752.486;26727.596;  462.476;27842.850
753.057;28156.807;  533.474;27845.008
753.628;27720.217;  485.473;27728.107
754.199;26243.668;  483.471;27381.086
754.770;25353.479;  560.469;25882.203
755.341;24941.229;  609.468;25886.184
755.912;24342.738;  508.466;26050.861
756.483;24467.549;  564.464;26798.779
757.054;24707.359;  533.462;27048.238
757.625;25372.250;  470.461;26294.838
758.195;26688.400;  436.459;26142.076
758.766;26123.553;  534.457;26392.234
759.337;25445.902;  432.456;26334.594
759.907;26427.992;  436.454;27579.652
760.478;26882.824;  497.452;28352.770
761.048;27206.574;  566.450;27325.088
761.619;27311.145;  553.449;26460.428
762.189;26704.436;  490.447;26029.826
762.760;26024.826;  588.445;26430.145
763.330;24744.617;  548.444;26670.902
763.900;23352.447;  537.442;26603.021
764.471;23192.258;  468.440;25542.740
765.041;24171.588;  599.438;24358.459
765.611;24742.598;  540.437;23991.297
766.181;25183.729;  538.435;24470.236
766.751;25925.139;  542.433;24845.975
767.321;25078.871;  474.432;24533.633
767.891;23714.941;  499.430;24916.492
768.461;23573.371;  532.428;24776.771
769.031;22909.541;  503.427;24757.988
769.601;21475.172;  591.425;24181.088
770.171;19736.363;  421.423;23670.387
770.741;20040.193;  467.421;22960.045
771.311;20531.623;  568.420;22917.523
771.880;21450.695;  445.418;23562.941
772.450;22074.404;  487.416;24216.500
773.020;22094.256;  424.415;24140.398
773.589;21597.547;  493.413;24414.857
774.159;21232.076;  462.411;23858.717
774.729;20383.107;  480.409;22942.135
775.298;18984.719;  485.408;22324.033
775.867;18203.309;  494.406;21140.313
776.437;18201.619;  512.404;20838.092
777.006;17945.129;  443.403;20599.510
777.576;17560.041;  528.401;20508.809
778.145;17625.871;  558.399;20732.947
778.714;18073.881;  529.398;21062.465
779.283;18061.131;  558.396;20949.664
779.853;17870.182;  481.394;20508.623
780.422;18363.693;  526.392;20649.082
780.991;18175.684;  553.391;21527.520
781.560;17513.494;  606.389;22632.658
782.129;17245.225;  543.387;23048.277
782.698;16880.436;  606.386;23438.555
783.267;16651.705;  519.384;23267.734
783.836;17241.836;  536.382;22415.133
784.404;16946.006;  443.380;20443.152
784.973;16270.537;  387.379;19699.150
785.542;15528.328;  495.377;19763.828
786.111;15488.479;  591.375;20341.408
786.679;15818.789;  534.374;20207.967
787.248;15741.380;  423.372;19516.465
787.817;15683.230;  503.370;18900.363
788.385;15598.780;  571.369;17879.121
788.954;14906.751;  423.367;17658.301
789.522;14911.142;  605.365;17788.879
790.090;15528.393;  433.363;18118.277
790.659;15951.402;  493.362;18338.736
791.227;15596.033;  505.360;18508.615
791.795;15064.023;  533.358;17898.254
792.364;13996.334;  476.357;17295.133
792.932;13772.605;  532.355;16822.051
793.500;14146.836;  508.353;17040.148
794.068;14462.166;  416.352;17179.787
794.636;14337.837;  478.350;16664.246
795.204;13350.467;  432.348;16524.545
795.772;12836.857;  462.346;17274.564
796.340;13359.148;  484.345;17891.002
796.908;13206.599;  442.343;17648.561
797.476;13012.270;  447.341;17064.080
798.044;12932.940;  400.340;16672.777
798.612;12987.971;  499.338;17023.996
799.180;12586.401;  534.336;16561.615
799.747;12405.731;  503.334;15962.773
800.315;12422.362;  439.333;15296.992
800.883;12099.973;  398.331;14801.771
801.450;11968.003;  515.329;14534.430
802.018;12081.154;  525.328;14173.248
802.585;11914.104;  497.326;14029.547
803.153;11856.755;  497.324;13836.846
803.720;11965.605;  507.322;13567.324
804.287;11985.556;  479.321;13360.622
804.855;11919.066;  582.319;13681.981
805.422;11261.797;  490.317;13536.560
805.989;11036.768;  482.316;13355.958
806.556;11557.719;  479.314;13747.896
807.124;12430.009;  525.312;13987.376
807.691;12211.180;  443.311;14038.674
808.258;11821.250;  505.309;14120.152
808.825;12046.881;  541.307;13860.111
809.392;12055.312;  625.305;13268.790
809.959;11631.562;  562.304;12680.389
810.526;11324.072;  651.302;12427.308
811.093;11155.942;  582.300;12030.105
811.659;11400.593;  502.299;11653.664
812.226;11568.903;  500.297;11637.183
812.793;11309.675;  539.295;11611.521
813.360;11331.185;  467.293;11885.181
813.926;11717.976;  535.292;12770.539
814.493;11740.386;  441.290;12677.638
815.060;11333.896;  420.288;11974.336
815.626;10659.287;  421.287;11594.715
816.193;10821.918;  517.285;11579.474
816.759;11178.368;  453.283;11666.972
817.325;11294.119;  404.282;11325.530
817.892;11472.010;  526.280;11105.369
818.458;11308.120;  534.278;10843.928
819.024;11123.131;  578.276;10714.406
819.591;10734.981;  528.275;10469.165
820.157;10447.752;  434.273;10235.523
820.723;10728.002;  525.271;10847.563
821.289;11420.513;  791.270;11040.980
821.855;11095.184;  537.268;10357.100
822.421;10743.094;  444.266; 9978.918
822.987;10633.544;  433.264; 9754.177
823.553;10544.595;  512.263;10065.755
824.119;10986.525;  543.261;10036.294
824.685;11156.616;  600.259;10029.192
825.251;10934.847;  542.258;10199.230
825.816;10666.517;  622.256; 9820.189
826.382;10084.248;  556.254; 9297.248
826.948;10043.138;  585.253; 9381.347
827.513;10146.068;  504.251; 9450.726
828.079;10332.199;  469.249; 9472.444
828.645;10217.830;  543.247; 9292.643
829.210; 9980.021;  434.246; 9065.341
829.776; 9754.031;  570.244; 9132.620
830.341; 9480.382;  564.242; 9092.878
830.906; 9337.572;  584.241; 9078.557
831.472; 9006.923;  449.239; 8534.535
832.037; 8916.213;  581.237; 8677.874
832.602; 8523.363;  467.235; 8628.692
833.167; 8566.734;  540.234; 8879.031
833.733; 8589.484;  556.232; 9189.790
834.298; 8510.275;  412.230; 9052.608
834.863; 8397.546;  522.229; 8895.087
835.428; 8429.856;  565.227; 8824.266
835.993; 8390.767;  546.225; 8845.385
836.558; 8187.718;  548.224; 8888.563
837.123; 8136.928;  686.222; 8966.582
837.688; 7792.479;  521.220; 8617.860
838.253; 7669.189;  510.218; 8590.699
838.817; 7642.040;  487.217; 8443.797
839.382; 8096.630;  608.215; 8799.356
839.947; 8305.741;  537.213; 8810.595
840.511; 8458.552;  610.212; 8796.394
841.076; 7788.582;  413.210; 8347.231
841.641; 7636.333;  549.208; 8224.330
842.205; 7543.583;  548.206; 8223.349
842.770; 7762.194;  632.205; 8622.107
843.334; 7869.684;  493.203; 8410.386
843.898; 7811.875;  500.201; 8337.465
844.463; 7658.865;  598.200; 8506.283
845.027; 7370.356;  512.198; 8280.962
845.591; 7291.906;  562.196; 8231.141
846.156; 7285.177;  490.195; 7969.179
846.720; 7488.748;  592.193; 7768.278
847.284; 7420.658;  497.191; 7630.957
847.848; 7260.469;  570.189; 7472.395
848.412; 6950.599;  553.188; 7437.394
848.976; 6816.730;  637.186; 7674.592
849.540; 6742.400;  660.184; 7836.011
850.104; 6655.811;  600.183; 7913.669
850.668; 6484.062;  405.181; 7694.508
851.232; 6455.952;  426.179; 7756.887
851.796; 6317.723;  506.177; 7926.545
852.359; 6251.333;  596.176; 7827.844
852.923; 6362.063;  574.174; 7641.163
853.487; 6516.154;  578.172; 7342.501
854.050; 6302.925;  371.171; 7042.820
854.614; 6054.375;  501.169; 7151.338
855.177; 5887.126;  542.167; 7105.077
855.741; 5914.997;  555.166; 6989.675
856.304; 5826.427;  575.164; 6596.634
856.868; 5792.578;  453.162; 6356.272
857.431; 5791.988;  522.160; 6468.571
857.995; 5666.838;  497.159; 6373.210
858.558; 5740.649;  551.157; 6324.448
859.121; 5704.459;  567.155; 6408.327
859.684; 5664.230;  516.154; 6347.886
860.247; 5715.261;  519.152; 6321.264
860.810; 5627.591;  486.150; 6301.903
861.374; 5824.702;  667.148; 6607.881
861.937; 5728.652;  465.147; 6408.200
862.500; 5901.823;  506.145; 6572.639
863.062; 5710.594;  431.143; 6387.297
863.625; 5706.304;  541.142; 6190.836
864.188; 5475.915;  497.140; 5807.254
864.751; 5276.685;  498.138; 5682.413
865.314; 5124.816;  535.136; 5547.492
865.876; 5074.266;  555.135; 5500.150
866.439; 5005.997;  556.133; 5415.909
867.002; 5213.688;  688.131; 5501.567
867.564; 5127.638;  595.130; 5413.946
868.127; 4905.789;  527.128; 5160.325
868.689; 4772.059;  549.126; 5133.183
869.252; 4714.149;  596.125; 5252.382
869.814; 4564.700;  474.123; 5297.141
870.377; 4773.651;  533.121; 5390.919
870.939; 5014.761;  773.119; 5599.898
871.501; 4773.972;  550.118; 5248.336
872.063; 4594.703;  398.116; 4854.235
872.626; 4611.613;  419.114; 4817.074
873.188; 4688.624;  534.113; 4987.732
873.750; 4474.134;  532.111; 4868.651
874.312; 4446.984;  525.109; 4779.330
874.874; 4667.835;  635.107; 4866.348
875.436; 4613.506;  571.106; 4718.887
875.998; 4438.396;  631.104; 4660.005
876.560; 4228.567;  552.102; 4462.964
877.122; 4034.297;  466.101; 4145.042
877.683; 4098.808;  609.099; 4056.481
878.245; 3986.739;  493.097; 3950.740
878.807; 3947.869;  561.096; 4058.958
879.369; 3840.600;  448.094; 3954.677
879.930; 3819.270;  447.092; 3941.495
880.492; 3948.181;  620.090; 4067.014
881.053; 3822.371;  462.089; 3859.633
881.615; 3737.842;  468.087; 3776.071
882.176; 3652.932;  518.085; 3734.750
882.738; 3709.183;  603.084; 3678.489
883.299; 3425.414;  378.082; 3405.407
883.860; 3268.484;  423.080; 3351.106
884.422; 3309.314;  552.078; 3394.044
884.983; 3170.725;  481.077; 3166.443
885.544; 3227.456;  559.075; 3189.802
886.105; 3186.686;  525.073; 3160.360
886.666; 3076.437;  513.072; 3093.059
887.227; 2886.967;  450.070; 2941.957
887.788; 2903.858;  528.068; 2974.836
888.349; 2721.668;  437.067; 2721.214
888.910; 2746.919;  596.065; 2696.493
889.471; 2667.830;  546.063; 2560.172
890.032; 2616.220;  541.061; 2558.190
890.593; 2590.831;  574.060; 2567.669
891.153; 2446.961;  504.058; 2460.307
891.714; 2291.512;  434.056; 2372.046
892.275; 2243.462;  417.055; 2309.505
892.835; 2296.213;  590.053; 2382.543
893.396; 2197.683;  565.051; 2295.502
893.956; 2049.894;  484.049; 2162.420
894.517; 2027.365;  533.048; 2125.439
895.077; 1987.435;  534.046; 2086.978
895.638; 1984.726;  637.044; 2126.316
896.198; 1740.796;  486.043; 1838.275
896.758; 1804.827;  580.041; 1892.813
897.319; 1706.697;  512.039; 1792.232
897.879; 1669.888;  535.038; 1762.751
898.439; 1515.338;  418.036; 1661.149
898.999; 1610.969;  543.034; 1781.468
899.559; 1553.900;  534.032; 1703.347
900.119; 1395.970;  450.031; 1537.525
900.679; 1531.601;  647.029; 1638.384
901.239; 1430.451;  565.027; 1527.902
901.799; 1372.682;  493.026; 1456.441
902.359; 1269.032;  463.024; 1357.140
902.919; 1231.083;  481.022; 1331.118
903.479; 1227.513;  501.020; 1317.257
904.038; 1174.804;  436.019; 1262.595
904.598; 1069.034;  380.017; 1152.034
905.158; 1142.145;  497.015; 1240.893
905.717; 1141.396;  492.014; 1233.691
906.277; 1131.706;  518.012; 1217.330
906.836; 1127.597;  544.010; 1222.408
907.396; 1109.447;  552.009; 1193.047
907.955; 1085.138;  574.007; 1182.526
908.515; 1012.548;  476.005; 1099.364
909.074;  995.919;  497.003; 1092.863
909.633;  989.789;  514.002; 1069.121
910.192; 1099.400;  642.000; 1196.460
910.752;  953.940;  493.000; 1029.960
911.311;  928.340;  464.000; 1009.780
911.870;  901.720;  506.000;  971.460
912.429; 1007.660;  575.000; 1094.080
912.988;  981.220;  599.000; 1081.060
913.547;  861.020;  460.000;  940.380
914.106;  906.980;  552.000;  999.420
914.665;  898.660;  519.000;  984.020
915.224;  950.820;  619.000; 1035.760
915.782;  845.980;  487.000;  922.560
916.341;  957.840;  600.000; 1049.840
916.900;  841.820;  510.000;  925.260
917.458;  809.420;  455.000;  884.220
918.017;  863.660;  535.000;  942.600
918.576;  832.420;  513.000;  904.440
919.134;  769.000;  450.000;  837.980
919.693;  815.360;  491.000;  893.060
920.251;  803.580;  503.000;  876.500
920.809;  767.780;  471.000;  839.580
921.368;  807.260;  478.000;  885.360
921.926;  774.080;  443.000;  842.940
922.484;  826.600;  529.000;  903.360
923.042;  806.700;  491.000;  880.340
923.601;  914.680;  585.000;  998.680
924.159;  858.340;  547.000;  935.560
924.717;  770.220;  485.000;  841.080
925.275;  819.700;  524.000;  903.240
925.833;  715.800;  377.000;  779.320
926.391;  854.780;  520.000;  938.380
926.949;  787.980;  479.000;  857.680
927.506;  827.300;  552.000;  903.500
928.064;  799.860;  504.000;  877.580
928.622;  809.280;  500.000;  880.100
929.180;  747.500;  446.000;  814.180
929.737;  737.220;  435.000;  808.540
930.295;  845.640;  532.000;  928.480
930.853;  775.700;  448.000;  849.100
931.410;  749.600;  426.000;  821.120
931.968;  860.640;  539.000;  940.660
932.525;  831.940;  517.000;  909.380
933.082;  746.880;  406.000;  811.440
933.640;  847.240;  538.000;  925.900
934.197;  813.000;  503.000;  886.360
934.754;  819.240;  461.000;  897.780
935.312;  797.020;  466.000;  863.340
935.869;  932.500;  577.000; 1012.980
936.426;  804.640;  497.000;  872.800
936.983;  823.860;  465.000;  889.020
937.540;  770.040;  422.000;  838.280
938.097;  866.240;  529.000;  940.120
938.654;  823.420;  502.000;  898.860
939.211;  874.700;  512.000;  952.480
939.768;  842.840;  478.000;  915.420
940.324;  827.340;  467.000;  904.200
940.881;  809.960;  476.000;  878.500
941.438;  935.420;  581.000; 1021.200
941.995;  914.540;  560.000;  992.560
942.551;  807.900;  439.000;  875.620
943.108;  865.540;  529.000;  937.920
943.664;  810.040;  450.000;  869.340
944.221; 1000.500;  628.000; 1088.140
944.777;  796.500;  418.000;  869.680
945.334;  815.180;  471.000;  884.840
945.890;  866.660;  486.000;  946.480
946.446;  871.200;  505.000;  947.020
947.003;  882.540;  508.000;  964.940
947.559;  975.680;  643.000; 1063.040
948.115;  941.840;  581.000; 1026.540
948.671;  889.980;  511.000;  967.300
949.227;  784.940;  412.000;  859.560
949.783;  783.240;  428.000;  858.900
950.339;  908.140;  531.000;  991.000
950.895;  934.540;  552.000; 1023.840
951.451;  846.080;  501.000;  925.280
952.007;  908.180;  544.000;  998.540
952.563;  855.220;  498.000;  937.780
953.118;  840.800;  475.000;  904.940
953.674;  860.280;  504.000;  935.780
954.230;  866.740;  500.000;  949.640
954.785;  857.240;  484.000;  936.640
955.341;  913.540;  535.000;  998.160
955.897;  757.920;  393.000;  834.660
956.452;  866.500;  524.000;  953.840
957.008;  991.940;  616.000; 1083.640
957.563;  920.800;  554.000; 1009.540
958.118;  792.460;  473.000;  877.700
958.674;  860.320;  524.000;  946.780
959.229;  928.660;  572.000; 1013.980
959.784;  772.120;  402.000;  832.400
960.339;  912.940;  563.000; 1001.280
960.894;  879.460;  532.000;  963.760
961.449;  779.120;  452.000;  859.960
962.004; 1094.860;  790.000; 1212.840
962.559;  780.380;  455.000;  860.140
963.114;  679.020;  347.000;  742.480
963.669;  831.820;  502.000;  915.500
964.224;  797.700;  452.000;  874.340
964.779;  750.940;  409.000;  828.420
965.334;  916.900;  609.000; 1017.860
965.888;  787.520;  475.000;  875.360
966.443;  874.780;  549.000;  972.380
966.998;  729.300;  396.000;  819.460
967.552;  820.600;  480.000;  908.380
968.107;  792.800;  482.000;  868.300
968.661;  839.800;  539.000;  922.440
969.216;  773.140;  484.000;  856.280
969.770;  835.660;  516.000;  917.200
970.324;  844.780;  530.000;  923.140
970.879;  866.680;  579.000;  947.180
971.433;  858.000;  549.000;  952.720
971.987;  816.760;  520.000;  895.340
972.541;  835.000;  520.000;  917.100
973.095;  915.620;  583.000; 1009.460
973.649;  729.300;  449.000;  809.480
974.203;  745.780;  446.000;  829.040
974.757;  770.220;  492.000;  855.220
975.311;  788.920;  480.000;  872.600
975.865;  796.460;  511.000;  881.820
976.419;  779.900;  504.000;  857.400
976.973;  766.540;  461.000;  849.620
977.526;  859.700;  556.000;  949.920
978.080;  720.920;  424.000;  796.780
978.634;  829.980;  567.000;  921.320
979.187;  821.780;  526.000;  905.400
979.741;  926.620;  608.000; 1018.380
980.294;  712.800;  412.000;  789.160
980.848;  649.320;  396.000;  717.220
981.401;  745.760;  475.000;  816.540
981.955;  769.600;  513.000;  844.300
982.508;  678.120;  410.000;  746.340
983.061;  830.520;  556.000;  915.260
983.615;  721.760;  454.000;  798.800
984.168;  697.400;  425.000;  770.080
984.721;  788.660;  508.000;  880.760
985.274;  780.880;  533.000;  867.500
985.827;  751.240;  518.000;  834.220
986.380;  654.640;  385.000;  721.340
986.933;  776.700;  524.000;  864.800
987.486;  768.000;  522.000;  861.920
988.039;  782.260;  558.000;  863.100
988.591;  807.700;  575.000;  893.260
989.144;  664.040;  434.000;  737.260
989.697;  687.820;  452.000;  758.740
990.250;  773.800;  543.000;  858.100
990.802;  680.580;  437.000;  755.860
991.355;  881.100;  669.000;  974.880
991.907;  779.770;  572.500;  864.320
992.460;  678.440;  476.000;  753.760
993.012;  675.880;  481.000;  749.540
993.565;  635.040;  436.000;  711.360
994.117;  853.740;  670.000;  950.780
994.669;  633.620;  441.000;  701.320
995.221;  715.860;  512.000;  791.920
995.774;  709.780;  512.000;  787.580
996.326;  667.020;  496.000;  740.220
996.878;  756.600;  571.000;  838.420
997.430;  630.420;  464.000;  699.860
997.982;  670.180;  508.000;  750.140
998.534;  661.440;  486.000;  739.060
999.086;  663.440;  486.000;  738.220
999.638;  590.260;  423.000;  661.380
1000.190;  632.480;  492.000;  699.320
1000.741;  664.220;  536.000;  742.700
1001.293;  617.380;  431.000;  686.020
1001.845;  607.580;  465.000;  676.640
1002.396;  663.240;  539.000;  743.400
1002.948;  660.080;  528.000;  737.400
1003.500;  644.300;  494.000;  723.780
1004.051;  818.660;  675.000;  907.580
1004.603;  709.560;  574.000;  791.820
1005.154;  542.840;  419.000;  608.980
1005.705;  643.500;  524.000;  723.960
1006.257;  633.600;  501.000;  707.220
1006.808;  604.040;  507.000;  685.460
1007.359;  687.520;  575.000;  763.240
1007.910;  574.260;  453.000;  646.640
1008.461;  655.940;  542.000;  732.940
1009.013;  524.040;  412.000;  588.340
1009.564;  708.020;  619.000;  793.520
1010.115;  529.500;  427.000;  597.040
1010.665;  539.260;  434.000;  602.160
1011.216;  593.600;  497.000;  667.920
1011.767;  621.540;  512.000;  697.920
1012.318;  651.740;  549.000;  736.980
1012.869;  599.800;  497.000;  679.000
1013.419;  536.140;  411.000;  603.120
1013.970;  599.800;  490.000;  666.640
1014.521;  548.520;  456.000;  620.620
1015.071;  599.360;  476.000;  670.380
1015.622;  563.300;  496.000;  635.460
1016.172;  530.120;  455.000;  596.820
1016.723;  547.060;  473.000;  614.380
1017.273;  541.240;  454.000;  604.160
1017.823;  577.500;  496.000;  650.340
1018.374;  546.660;  440.000;  611.760
1018.924;  639.260;  559.000;  716.880
1019.474;  633.760;  544.000;  718.880
1020.024;  585.000;  487.000;  657.580
1020.574;  640.840;  570.000;  726.160
1021.124;  603.500;  528.000;  673.580
1021.674;  503.020;  401.000;  559.120
1022.224;  629.140;  522.000;  708.940
1022.774;  593.720;  489.000;  668.820
1023.324;  672.000;  593.000;  753.520
1023.874;  781.020;  660.000;  875.760
1024.423;  544.660;  456.000;  613.700
1024.973;  540.380;  487.000;  610.760
1025.523;  553.180;  452.000;  620.960
1026.072;  539.680;  448.000;  606.420
1026.622;  598.420;  518.000;  675.740
1027.172;  640.520;  580.000;  715.660
1027.721;  538.760;  437.000;  601.220
1028.270;  594.380;  500.000;  663.400
1028.820;  571.240;  494.000;  638.080
1029.369;  543.800;  477.000;  612.700
1029.918;  576.920;  464.000;  649.840
1030.468;  502.500;  402.000;  564.780
1031.017;  563.920;  494.000;  634.800
1031.566;  540.160;  491.000;  608.900
1032.115;  623.040;  536.000;  694.500
1032.664;  538.360;  418.000;  596.480
1033.213;  650.640;  567.000;  735.420
1033.762;  566.240;  497.000;  635.620
1034.311;  596.720;  507.000;  677.220
1034.860;  613.800;  534.000;  691.000
1035.408;  641.840;  543.000;  722.720
1035.957;  638.140;  537.000;  719.540
1036.506;  471.000;  374.000;  530.800
1037.055;  752.280;  665.000;  844.320
1037.603;  587.180;  507.000;  664.000
1038.152;  471.960;  395.000;  534.760
1038.700;  519.820;  410.000;  585.740
1039.249;  605.920;  531.000;  681.220
1039.797;  562.300;  482.000;  633.360
1040.345;  627.740;  545.000;  705.420
1040.894;  560.980;  461.000;  625.300
1041.442;  562.740;  503.000;  632.200
1041.990;  496.720;  399.000;  559.160
1042.538;  480.840;  399.000;  536.180
1043.087;  503.540;  464.000;  570.860
1043.635;  601.620;  524.000;  670.500
1044.183;  522.880;  453.000;  586.400
1044.731;  510.660;  427.000;  576.000
1045.279;  600.220;  519.000;  674.920
1045.827;  797.100;  714.000;  892.400
1046.374;  452.260;  398.000;  515.420
1046.922;  526.500;  474.000;  590.580
1047.470;  615.860;  541.000;  691.300
1048.018;  577.360;  509.000;  647.960
1048.565;  636.500;  575.000;  708.600
1049.113;  489.580;  401.000;  557.000
1049.660;  559.300;  485.000;  629.660
1050.208;  598.860;  554.000;  675.640
1050.755;  535.680;  468.000;  606.580
1051.303;  607.560;  547.000;  686.820
1051.850;  563.280;  494.000;  635.120
1052.397;  422.020;  340.000;  473.960
1052.945;  550.320;  513.000;  617.760
1053.492;  656.300;  618.000;  741.840
1054.039;  637.880;  561.000;  720.180
1054.586;  497.880;  397.000;  557.240
1055.133;  615.020;  528.000;  693.140
1055.680;  574.280;  508.000;  646.620
1056.227;  480.860;  385.000;  542.780
1056.774;  704.020;  624.000;  794.980
1057.321;  457.260;  400.000;  523.260
1057.868;  570.200;  536.000;  651.320
1058.415;  579.940;  502.000;  651.980
1058.961;  599.100;  510.000;  678.940
1059.508;  564.220;  472.000;  643.820
1060.055;  517.520;  456.000;  581.780
1060.601;  551.180;  470.000;  624.300
1061.148;  549.660;  495.000;  616.820
1061.694;  526.760;  463.000;  592.580
1062.241;  530.860;  498.000;  596.320
1062.787;  593.240;  554.000;  663.140
1063.334;  721.360;  665.000;  808.560
1063.880;  597.720;  531.000;  668.360
1064.426;  628.800;  583.000;  706.820
1064.972;  527.700;  461.000;  601.340
1065.518;  501.440;  415.000;  566.640
1066.065;  552.360;  502.000;  624.460
1066.611;  528.340;  483.000;  598.800
1067.157;  569.180;  509.000;  641.860
1067.703;  597.540;  514.000;  668.480
1068.249;  537.600;  475.000;  605.220
1068.794;  556.700;  499.000;  626.880
1069.340;  511.160;  447.000;  578.960
1069.886;  524.760;  470.000;  590.700
1070.432;  473.660;  405.000;  541.720
1070.977;  537.260;  477.000;  601.080
1071.523;  502.360;  431.000;  573.060
1072.068;  515.880;  441.000;  582.000
1072.614;  463.500;  387.000;  527.760
1073.160;  610.140;  556.000;  687.040
1073.705;  510.260;  488.000;  572.520
1074.250;  492.540;  479.000;  559.900
1074.796;  581.040;  502.000;  655.160
1075.341;  592.140;  525.000;  664.100
1075.886;  527.800;  470.000;  594.240
1076.431;  579.340;  514.000;  649.880
1076.976;  565.960;  491.000;  639.220
1077.521;  513.220;  463.000;  583.080
1078.067;  515.500;  450.000;  579.400
1078.612;  593.540;  537.000;  661.620
1079.156;  528.640;  481.000;  601.540
1079.701;  611.400;  543.000;  693.260
1080.246;  616.840;  599.000;  696.300
1080.791;  557.940;  485.000;  625.020
1081.336;  586.680;  502.000;  659.320
1081.880;  571.380;  526.000;  649.680
1082.425;  506.900;  421.000;  573.480
1082.970;  638.560;  577.000;  717.040
1083.514;  528.140;  482.000;  597.000
1084.059;  515.720;  455.000;  586.720
1084.603;  504.220;  437.000;  565.840
1085.147;  574.120;  496.000;  645.220
1085.692;  634.560;  566.000;  716.800
1086.236;  445.140;  419.000;  503.140
1086.780;  667.920;  621.000;  751.440
1087.325;  576.060;  518.000;  654.620
1087.869;  545.680;  482.000;  610.700
1088.413;  627.880;  567.000;  705.040
1088.957;  474.880;  457.000;  543.400
1089.501;  679.480;  634.000;  766.640
1090.045;  645.060;  611.000;  726.480
1090.589;  503.480;  453.000;  569.920
1091.133;  598.960;  513.000;  673.340
1091.676;  527.800;  450.000;  591.940
1092.220;  528.520;  481.000;  600.920
1092.764;  630.200;  579.000;  706.960
1093.307;  594.660;  526.000;  673.780
1093.851;  492.920;  442.000;  556.540
1094.395;  602.860;  571.000;  683.140
1094.938;  560.260;  516.000;  632.520
1095.482;  495.140;  455.000;  559.800
1096.025;  634.040;  565.000;  710.880
1096.568;  690.160;  631.000;  779.280
1097.112;  446.520;  405.000;  508.180
1097.655;  530.340;  518.000;  603.000
1098.198;  529.580;  473.000;  600.180
1098.741;  545.020;  490.000;  612.860
1099.285;  585.840;  531.000;  657.300
1099.828;  385.040;  330.000;  439.400
1100.371;  536.100;  497.000;  608.160
1100.914;  599.800;  552.000;  682.660
1101.457;  604.340;  555.000;  679.900
1101.999;  511.800;  447.000;  584.680
1102.542;  572.020;  491.000;  641.440
1103.085;  583.620;  548.000;  658.500
1103.628;  676.080;  642.000;  762.060
1104.170;  518.540;  463.000;  588.280
1104.713;  572.220;  529.000;  646.700
1105.256;  490.440;  403.000;  557.440
1105.798;  441.940;  400.000;  499.980
1106.341;  649.040;  603.000;  728.900
1106.883;  463.500;  393.000;  521.340
1107.425;  591.240;  534.000;  668.180
1107.968;  545.480;  517.000;  612.380
1108.510;  609.440;  572.000;  684.960
1109.052;  548.920;  473.000;  612.620
1109.594;  489.280;  408.000;  554.440
1110.136;  570.120;  509.000;  643.220
1110.679;  563.200;  552.000;  633.080
1111.221;  540.200;  462.000;  604.460
1111.763;  487.840;  444.000;  559.220
1112.304;  481.420;  428.000;  547.140
1112.846;  589.100;  564.000;  666.240
1113.388;  839.720;  770.000;  942.180
1113.930;  612.000;  589.000;  694.200
1114.472;  536.160;  488.000;  606.540
1115.013;  486.780;  424.000;  551.280
1115.555;  523.220;  486.000;  587.100
1116.097;  505.140;  459.000;  579.480
1116.638;  604.700;  582.000;  684.600
1117.180;  588.460;  526.000;  667.740
1117.721;  509.900;  456.000;  568.580
1118.262;  598.640;  521.000;  677.960
1118.804;  562.680;  529.000;  637.340
1119.345;  516.320;  461.000;  578.400
1119.886;  627.580;  601.000;  704.040
1120.427;  517.080;  478.000;  589.020
1120.969;  527.580;  480.000;  597.920
1121.510;  499.060;  442.000;  563.060
1122.051;  644.500;  598.000;  723.580
1122.592;  577.340;  514.000;  655.420
1123.133;  480.820;  473.000;  547.940
1123.673;  625.260;  586.000;  706.480
1124.214;  540.680;  511.000;  612.460
1124.755;  568.720;  537.000;  639.460
1125.296;  548.940;  505.000;  627.320
1125.836;  611.200;  570.000;  691.500
1126.377;  536.640;  467.000;  599.660
1126.918;  541.880;  505.000;  614.980
1127.458;  547.240;  528.000;  622.220
1127.999;  579.200;  548.000;  656.980
1128.539;  614.660;  545.000;  694.240
1129.079;  557.380;  527.000;  632.720
1129.620;  492.940;  440.000;  558.100
1130.160;  479.200;  456.000;  539.480
1130.700;  563.040;  512.000;  640.840
1131.240;  570.960;  546.000;  643.700
1131.781;  547.600;  535.000;  619.680
1132.321;  534.060;  504.000;  599.120
1132.861;  501.120;  446.000;  564.200
1133.401;  523.940;  484.000;  593.940
1133.941;  549.120;  551.000;  626.280
1134.481;  533.620;  505.000;  597.580
1135.020;  539.900;  488.000;  609.160
1135.560;  596.420;  567.000;  674.940
1136.100;  438.240;  398.000;  501.160
1136.640;  450.640;  411.000;  510.480
1137.179;  474.820;  428.000;  537.960
1137.719;  535.100;  486.000;  605.400
1138.258;  518.420;  501.000;  587.360
1138.798;  583.200;  547.000;  663.780
1139.337;  420.420;  369.000;  482.840
1139.877;  569.660;  524.000;  642.360
1140.416;  778.280;  763.000;  878.060
1140.955;  466.440;  404.000;  535.380
1141.494;  592.480;  559.000;  669.280
1142.034;  512.480;  482.000;  583.520
1142.573;  573.240;  560.000;  646.280
1143.112;  488.160;  469.000;  553.480
1143.651;  475.420;  452.000;  536.480
1144.190;  606.760;  551.000;  691.640
1144.729;  531.820;  479.000;  607.420
1145.267;  510.480;  500.000;  584.900
1145.806;  562.640;  544.000;  637.040
1146.345;  569.080;  528.000;  635.020
1146.884;  551.220;  499.000;  622.500
1147.422;  467.320;  443.000;  533.060
1147.961;  630.920;  580.000;  708.460
1148.500;  592.000;  556.000;  669.720
1149.038;  561.620;  532.000;  632.500
1149.577;  618.400;  607.000;  698.640
1150.115;  395.600;  325.000;  452.280
1150.653;  533.080;  512.000;  607.340
1151.192;  494.020;  456.000;  552.920
1151.730;  577.380;  562.000;  652.560
1152.268;  518.660;  471.000;  589.520
1152.806;  504.000;  494.000;  571.180
1153.344;  505.240;  484.000;  577.640
1153.882;  537.540;  494.000;  600.060
1154.421;  414.900;  363.000;  470.620
1154.958;  528.540;  501.000;  595.240
1155.496;  568.400;  553.000;  645.280
1156.034;  638.180;  600.000;  721.880
1156.572;  595.320;  537.000;  667.060
1157.110;  411.160;  367.000;  473.940
1157.647;  598.820;  576.000;  676.960
1158.185;  499.800;  484.000;  564.320
1158.723;  448.280;  412.000;  509.200
1159.260;  614.420;  588.000;  701.700
1159.798;  578.820;  555.000;  658.160
1160.335;  554.200;  536.000;  631.820

