
Integration time [ms]:   3.276
Averaging Nr. [scans]: 1000
Smoothing Nr. [pixels]: 0
Data measured with spectrometer [name]: 7414430SP
Wave   ;Sample   ;Dark     ;Reference
[nm]   ;[counts] ;[counts] ;[counts] 

288.544;  149.394;    7.793;  793.890
289.143;  154.241;    7.462;  681.602
289.742;  154.597;    8.602;  828.814
290.341;  139.765;    1.321;  789.841
290.940;  128.133;   -0.709;  730.702
291.538;  130.067;    0.881;  881.108
292.137;  130.670;    0.122;  792.581
292.736;  134.374;   -1.929;  975.101
293.335;  130.786;   -8.229;  735.086
293.934;  131.073;   -5.279;  781.677
294.532;  129.971;   -1.369; 1031.958
295.131;  115.288;   -7.641;  834.394
295.730;  114.832;   -8.420;  809.588
296.328;  114.697;   -5.611;  783.442
296.927;  115.250;   -5.781;  779.652
297.525;  117.158;   -6.361;  781.236
298.124;  107.050;  -11.382;  654.009
298.722;  109.637;   -7.641;  761.933
299.321;  109.182;   -6.811;  708.597
299.919;  105.966;   -6.991;  751.918
300.518;  103.142;  -10.362;  689.338
301.116;  104.998;   -9.581;  691.381
301.715;  105.532;   -4.891;  730.222
302.313;  104.564;   -8.801;  704.943
302.911;   98.656;   -8.522;  733.830
303.509;  104.774;   -6.171;  925.627
304.108;  102.400;   -7.311;  760.383
304.706;  102.037;   -8.321;  801.664
305.304;   95.597;  -10.222;  796.707
305.902;  101.021;   -6.021;  784.484
306.500;   96.733;   -4.971;  728.200
307.098;   95.268;   -7.061;  746.560
307.696;   93.228;   -8.801;  780.432
308.294;   94.590;   -6.411;  731.359
308.892;   96.755;   -2.901;  759.769
309.490;   92.499;   -5.041;  712.161
310.088;   90.294;   -5.002;  788.444
310.686;   95.026;   -2.041;  821.749
311.284;   90.457;   -2.351;  766.040
311.882;   87.496;   -4.422;  731.225
312.480;   84.935;   -4.192;  697.167
313.078;   86.324;   -1.172;  808.331
313.675;   87.634;   -2.601;  691.600
314.273;   82.662;   -1.312;  797.837
314.871;   81.734;   -3.942;  589.829
315.468;   80.448;   -2.802;  652.090
316.066;   82.502;   -0.701;  694.427
316.664;   75.137;   -4.362;  656.351
317.261;   78.777;   -2.872;  910.128
317.859;   74.970;   -2.022;  768.735
318.456;   75.734;   -0.531;  830.096
319.054;   71.623;   -3.912;  787.828
319.651;   70.058;   -4.752;  759.928
320.249;   69.013;   -2.602;  810.188
320.846;   67.502;   -0.821;  714.286
321.443;   65.098;   -4.642;  832.135
322.041;   60.551;   -5.002;  812.315
322.638;   58.578;   -3.982;  701.456
323.235;   61.251;   -3.411;  665.683
323.833;   58.171;   -7.361;  740.354
324.430;   52.976;   -8.611;  615.900
325.027;   53.079;   -4.061;  876.855
325.624;   54.346;   -4.031;  644.532
326.221;   50.911;   -7.481;  689.717
326.818;   50.031;   -5.281;  818.332
327.415;   53.436;   -7.460;  748.828
328.012;   53.383;   -5.510;  690.585
328.609;   51.507;   -7.880;  731.389
329.206;   49.439;   -8.331;  778.621
329.803;   49.750;   -5.121;  737.841
330.400;   53.042;   -4.510;  704.260
330.997;   53.193;   -6.441;  817.147
331.594;   52.669;   -8.831;  788.185
332.191;   58.010;   -7.621;  728.722
332.787;   61.405;   -4.591;  844.463
333.384;   59.251;   -7.412;  763.093
333.981;   57.164;   -8.293;  815.687
334.578;   60.206;   -7.052;  708.378
335.174;   64.287;   -3.102;  731.469
335.771;   63.092;   -5.943;  836.456
336.367;   59.438;   -7.393;  710.631
336.964;   63.453;   -4.063;  793.266
337.561;   61.947;   -3.813;  731.112
338.157;   57.971;   -4.654;  911.916
338.754;   54.300;   -7.934;  796.589
339.350;   52.984;   -4.414;  722.493
339.946;   56.062;   -4.664;  773.135
340.543;   47.873;   -6.375;  846.136
341.139;   41.363;   -9.815;  720.836
341.735;   38.751;   -4.526;  772.593
342.332;   38.299;   -4.895;  691.472
342.928;   38.524;   -4.295;  795.394
343.524;   31.931;   -5.476;  761.684
344.120;   29.337;   -5.856;  738.562
344.716;   32.600;   -2.155;  723.717
345.313;   29.129;   -6.275;  795.342
345.909;   24.443;   -8.815;  627.336
346.505;   25.957;   -5.305;  740.247
347.101;   27.325;   -2.674;  827.864
347.697;   27.471;   -4.344;  785.398
348.293;   21.518;   -9.975;  627.244
348.889;   22.430;   -5.774;  745.914
349.485;   22.982;   -5.004;  688.205
350.081;   22.727;   -4.704;  772.592
350.676;   17.883;   -6.635;  691.606
351.272;   22.354;   -4.504;  809.530
351.868;   22.808;   -3.914;  780.497
352.464;   19.118;   -9.044;  723.932
353.059;   15.484;   -8.314;  646.017
353.655;   18.490;   -7.024;  777.063
354.251;   19.523;   -5.343;  759.845
354.846;   13.956;   -8.604;  740.646
355.442;   11.596;   -6.945;  753.071
356.038;   13.565;   -7.564;  751.708
356.633;   14.779;   -5.814;  728.594
357.229;   12.384;   -7.364;  724.757
357.824;   10.252;   -8.024;  703.600
358.420;    9.281;   -9.384;  679.726
359.015;   10.425;   -5.104;  695.357
359.610;   11.110;   -6.854;  763.920
360.206;    4.620;  -10.185;  603.240
360.801;    7.789;   -7.054;  646.503
361.396;   10.885;   -5.034;  725.975
361.992;    5.813;   -8.284;  668.220
362.587;    2.141;   -8.625;  670.160
363.182;    4.522;   -7.674;  689.631
363.777;    5.898;   -5.164;  738.242
364.372;    5.221;   -8.604;  737.314
364.967;    0.758;   -9.055;  680.744
365.563;    5.569;   -6.114;  815.567
366.158;    2.926;   -5.814;  685.161
366.753;    3.059;   -7.854;  649.263
367.348;    1.319;   -7.804;  746.056
367.942;    1.662;   -7.954;  697.298
368.537;    0.660;   -4.984;  754.245
369.132;    0.926;   -8.564;  703.428
369.727;   -3.317;   -8.855;  638.079
370.322;   -1.965;   -6.245;  580.186
370.917;   -2.036;   -6.425;  710.646
371.511;   -0.091;   -6.294;  861.834
372.106;   -3.189;   -7.685;  776.964
372.701;   -6.260;   -7.335;  585.988
373.296;   -0.502;   -4.564;  863.135
373.890;   -5.427;  -10.235;  647.840
374.485;   -7.732;   -7.885;  691.199
375.079;   -3.528;   -7.324;  738.685
375.674;   -1.915;   -3.494;  812.970
376.268;   -6.888;   -8.525;  691.759
376.863;  -12.586;  -10.086;  580.327
377.457;   -5.727;   -7.025;  662.490
378.052;   -7.588;   -3.585;  764.884
378.646;   -9.278;   -7.595;  741.167
379.240;   -9.503;   -8.335;  721.176
379.835;   -8.710;   -5.785;  636.978
380.429;  -10.526;   -4.335;  562.557
381.023;  -10.354;   -6.805;  779.205
381.617;  -12.493;   -9.195;  680.106
382.212;   -9.518;   -6.905;  685.303
382.806;   -8.672;   -3.745;  760.690
383.400;  -12.522;   -7.745;  672.281
383.994;  -13.566;   -9.765;  664.870
384.588;   -9.731;   -6.564;  697.701
385.182;   -7.973;   -5.344;  726.624
385.776;  -10.233;   -8.514;  706.875
386.370;  -13.732;   -9.555;  681.968
386.964;  -11.717;   -8.715;  684.155
387.558;  -10.279;   -6.174;  598.360
388.152;  -14.481;   -8.725;  681.959
388.745;  -12.607;   -7.965;  814.707
389.339;   -9.970;   -5.924;  747.642
389.933;   -9.472;   -5.524;  695.370
390.527;  -10.915;   -7.114;  859.029
391.120;  -17.106;  -10.725;  595.318
391.714;  -14.314;   -8.035;  711.633
392.308;  -10.109;   -3.574;  780.253
392.901;  -14.319;   -7.245;  642.460
393.495;  -16.612;   -9.285;  595.414
394.089;  -14.036;   -5.895;  760.452
394.682;  -13.881;   -4.295;  697.188
395.275;  -15.290;   -9.875;  719.927
395.869;  -16.317;   -8.485;  667.314
396.462;  -15.185;   -7.455;  616.609
397.056;  -10.384;   -5.424;  776.621
397.649;  -15.423;   -6.605;  731.575
398.242;  -14.084;   -8.224;  712.645
398.836;  -12.546;   -7.474;  766.408
399.429;  -13.190;   -7.094;  631.041
400.022;  -16.614;   -9.475;  665.902
400.615;  -15.203;   -7.145;  805.609
401.208;  -12.959;   -7.174;  691.451
401.802;  -14.429;   -5.515;  699.329
402.395;  -15.682;   -9.875;  683.502
402.988;  -16.975;   -8.845;  696.627
403.581;  -13.358;   -8.874;  646.878
404.174;  -10.949;   -5.324;  686.568
404.767;  -14.315;   -9.575;  638.583
405.360;  -17.042;  -10.965;  621.445
405.953;  -11.558;   -8.764;  759.034
406.545;  -10.788;   -7.514;  725.342
407.138;  -14.796;  -10.025;  618.350
407.731;  -14.584;  -10.034;  613.303
408.324;  -10.428;   -9.374;  660.554
408.917;  -10.589;   -6.534;  681.864
409.509;  -11.949;   -8.004;  740.396
410.102;  -14.924;   -9.875;  643.948
410.695;   -8.727;   -8.604;  665.758
411.287;   -9.008;   -6.794;  599.821
411.880;  -11.172;   -9.334;  585.421
412.472;  -14.568;  -10.254;  613.092
413.065;  -11.038;   -6.714;  629.408
413.657;   -9.351;   -7.234;  576.678
414.250;   -9.126;  -10.544;  646.681
414.842;  -10.164;   -9.744;  676.353
415.434;   -8.903;   -6.994;  570.463
416.027;   -4.396;   -5.893;  652.196
416.619;   -6.025;   -7.264;  713.400
417.211;   -7.112;  -10.374;  599.352
417.804;   -3.524;   -7.993;  628.499
418.396;   -6.548;   -7.234;  607.643
418.988;   -5.199;   -9.443;  659.238
419.580;   -9.125;  -10.724;  568.276
420.172;   -6.841;  -10.323;  536.196
420.764;   -1.533;   -8.793;  672.482
421.356;   -2.764;  -11.143;  636.898
421.948;   -4.507;   -8.293;  677.661
422.540;    0.547;   -7.893;  680.027
423.132;    0.688;   -7.082;  600.641
423.724;   -3.382;   -8.653;  561.267
424.316;   -1.683;  -10.213;  621.345
424.908;    2.292;   -9.762;  591.517
425.500;    3.413;   -5.572;  647.978
426.092;    3.787;   -8.422;  648.268
426.683;    2.679;   -9.283;  684.836
427.275;    5.025;   -7.852;  641.471
427.867;    6.891;   -5.272;  668.948
428.458;    7.058;   -7.682;  732.344
429.050;    4.987;  -10.612;  680.749
429.642;    7.331;   -9.882;  743.124
430.233;    8.751;   -6.962;  569.356
430.825;    9.346;   -6.842;  724.809
431.416;    6.538;   -9.672;  698.241
432.008;   10.635;   -6.552;  651.723
432.599;   11.602;   -6.891;  656.073
433.190;    8.379;  -10.912;  637.670
433.782;    7.244;  -11.172;  590.395
434.373;   13.919;   -6.061;  884.765
434.964;   13.244;   -8.251;  602.920
435.556;   11.232;   -9.722;  634.537
436.147;   13.388;   -9.082;  758.490
436.738;   13.920;   -8.041;  701.099
437.329;   19.748;   -7.341;  721.723
437.920;   11.935;   -8.162;  666.688
438.511;   11.825;  -11.802;  564.526
439.103;   18.938;  -10.191;  623.998
439.694;   20.467;   -7.601;  681.583
440.285;   20.866;   -8.541;  764.432
440.876;   19.290;   -9.751;  845.738
441.466;   18.965;   -9.401;  575.162
442.057;   24.929;   -7.760;  665.814
442.648;   23.103;   -9.971;  746.255
443.239;   21.303;  -11.001;  620.477
443.830;   26.245;   -7.990;  704.958
444.421;   28.353;   -7.910;  655.474
445.011;   24.114;   -8.131;  693.619
445.602;   23.592;   -7.111;  743.126
446.193;   25.571;  -10.920;  488.117
446.783;   30.555;   -6.500;  640.397
447.374;   25.869;   -8.671;  692.759
447.964;   25.405;  -10.781;  713.770
448.555;   34.356;   -9.650;  822.742
449.145;   31.342;   -8.660;  662.853
449.736;   32.171;   -8.990;  803.179
450.326;   31.969;   -9.500;  713.626
450.917;   37.051;   -8.680;  675.324
451.507;   36.365;   -7.520;  600.661
452.097;   36.761;   -8.590;  746.267
452.688;   36.857;  -11.340;  742.160
453.278;   37.172;  -10.100;  566.840
453.868;   41.591;   -6.019;  793.550
454.458;   39.974;   -9.440;  651.141
455.048;   39.777;  -10.560;  711.783
455.639;   41.039;  -11.799;  567.096
456.229;   46.842;   -6.899;  710.694
456.819;   47.421;   -7.389;  751.158
457.409;   46.482;  -11.119;  773.993
457.999;   49.372;   -9.289;  737.505
458.589;   49.992;   -6.139;  686.606
459.179;   49.254;   -8.729;  717.658
459.769;   47.526;   -9.789;  627.099
460.358;   52.784;  -10.259;  797.262
460.948;   53.365;   -7.299;  689.503
461.538;   54.144;  -10.289;  660.677
462.128;   51.133;  -11.269;  664.934
462.717;   58.687;   -9.368;  710.326
463.307;   62.141;   -7.908;  705.846
463.897;   57.314;   -9.599;  656.942
464.486;   56.094;   -9.769;  837.128
465.076;   61.362;   -8.048;  733.776
465.666;   65.608;   -9.358;  652.900
466.255;   62.676;   -7.919;  785.651
466.845;   61.918;  -11.689;  666.749
467.434;   64.173;   -7.818;  725.873
468.023;   65.944;   -7.678;  658.357
468.613;   63.182;  -10.939;  713.946
469.202;   67.009;  -10.118;  646.507
469.791;   71.121;   -9.108;  737.811
470.381;   73.682;   -6.058;  742.813
470.970;   73.743;  -10.428;  711.099
471.559;   72.376;  -10.268;  733.291
472.148;   75.601;   -8.448;  675.737
472.738;   78.560;   -6.917;  765.466
473.327;   77.956;  -11.978;  637.529
473.916;   76.955;  -11.888;  737.446
474.505;   81.491;   -9.437;  751.703
475.094;   85.300;   -6.747;  806.570
475.683;   83.985;   -9.367;  797.699
476.272;   84.739;  -12.637;  730.632
476.861;   87.650;  -10.027;  706.754
477.449;   94.495;   -8.716;  728.487
478.038;   89.222;   -9.577;  692.513
478.627;   89.793;   -9.718;  714.852
479.216;   96.201;   -8.947;  769.441
479.805;  100.807;   -6.256;  783.375
480.393;   99.367;   -7.937; 1008.945
480.982;   97.336;   -7.717;  874.501
481.571;  103.873;   -9.266;  858.333
482.159;  104.306;   -7.636;  705.386
482.748;  104.701;   -9.667;  821.385
483.336;  108.347;  -10.376;  858.209
483.925;  109.827;   -7.147;  774.373
484.513;  116.475;   -7.996;  758.962
485.102;  113.576;  -10.027;  810.965
485.690;  121.049;  -10.446; 1011.050
486.278;  123.279;   -8.446;  979.329
486.867;  125.020;   -6.356;  809.662
487.455;  126.377;   -9.136;  898.229
488.043;  127.397;  -10.646;  748.361
488.631;  135.664;   -7.456; 1005.079
489.220;  139.998;   -6.636;  908.626
489.808;  139.589;  -11.036;  741.415
490.396;  147.114;  -10.246;  914.645
490.984;  152.955;   -8.556;  830.161
491.572;  163.094;   -5.886;  940.315
492.160;  167.469;   -9.486;  919.081
492.748;  179.806;  -10.976;  884.341
493.336;  201.488;   -8.776; 1019.693
493.924;  226.964;   -5.465;  958.077
494.512;  253.220;   -9.986; 1066.638
495.100;  287.563;  -10.636; 1103.280
495.687;  340.640;  -10.885; 1206.373
496.275;  399.634;   -8.126; 1150.796
496.863;  468.631;  -10.586; 1281.171
497.451;  565.879;  -11.926; 1386.805
498.038;  689.372;  -10.885; 1556.729
498.626;  791.618;   -6.315; 1741.407
499.214;  936.097;   -7.326; 2016.609
499.801; 1122.467;  -11.906; 2220.633
500.389; 1360.169;  -10.466; 2312.494
500.976; 1649.181;   -5.236; 2744.849
501.564; 2060.414;   -8.936; 3148.565
502.151; 2414.359;  -13.176; 3515.999
502.738; 2843.051;  -10.646; 3971.274
503.326; 3222.302;   -9.525; 4403.796
503.913; 3594.156;  -10.856; 5161.749
504.500; 3941.949;  -11.586; 5986.420
505.088; 4356.056;  -10.336; 6381.201
505.675; 4863.465;   -6.355; 6925.547
506.262; 5548.932;   -9.046; 7619.060
506.849; 6233.367;  -10.416; 8733.969
507.436; 6689.788;  -10.305; 9790.121
508.023; 7247.378;   -5.496; 9985.472
508.610; 7506.694;   -7.856;10434.618
509.197; 8098.150;  -10.097;11198.435
509.784; 9396.397;  -10.886;12391.194
510.371;10410.143;   -9.315;13603.713
510.958;11197.700;   -9.936;14426.586
511.545;11967.962;   -9.326;15243.775
512.132;12740.644;  -10.075;15945.876
512.719;13277.099;   -7.796;16340.369
513.305;14204.109;  -10.606;18011.766
513.892;15001.446;  -11.486;19754.971
514.479;16346.527;   -9.126;20967.805
515.066;17800.018;   -6.026;22299.793
515.652;19139.854;   -8.466;22908.660
516.239;20368.102;  -10.886;23798.875
516.825;21265.832;  -11.496;25567.275
517.412;22257.453;   -5.796;28154.959
517.998;22911.877;  -10.506;28344.111
518.585;23026.293;  -10.076;27134.219
519.171;23591.844;   -8.315;27268.576
519.758;25088.307;   -8.596;28964.129
520.344;26961.951;   -8.466;30664.494
520.930;26906.910;  -11.006;32550.605
521.516;28052.289;  -10.495;35422.895
522.103;30236.842;   -5.526;38280.004
522.689;30824.227;   -8.746;37835.117
523.275;30490.443;  -11.376;37288.613
523.861;31828.492;  -11.156;37281.395
524.447;33313.770;   -8.135;37846.949
525.033;33334.566;   -7.896;38321.949
525.619;33574.328;  -12.476;38579.285
526.205;35056.113;   -9.516;40622.875
526.791;37366.906;   -6.926;42258.836
527.377;37606.367;   -8.346;42966.902
527.963;39000.703;   -8.717;42018.949
528.549;37612.293;  -11.016;42476.828
529.135;36268.023;   -8.536;41854.852
529.721;35441.320;   -9.666;41237.711
530.306;34710.621;  -10.066;41259.445
530.892;34602.707;  -11.356;41506.047
531.478;36085.328;   -6.596;43559.613
532.063;39190.023;   -8.836;47695.563
532.649;39841.281;  -10.047;50808.324
533.235;40534.496;   -9.746;51787.500
533.820;41023.875;   -6.566;52145.035
534.406;42393.227;  -10.817;51133.488
534.991;42080.945;   -9.416;49996.805
535.576;40700.043;   -9.036;48882.852
536.162;41393.836;   -6.156;46942.285
536.747;42290.180;  -11.607;45711.746
537.333;45683.148;  -11.787;48510.180
537.918;48698.371;  -12.437;50439.891
538.503;47592.992;   -7.196;50863.711
539.088;44223.027;  -10.556;50906.922
539.673;43911.254;   -8.767;52621.965
540.259;44260.680;  -10.026;52368.094
540.844;41994.051;   -7.416;50879.109
541.429;43322.332;   -9.467;52077.777
542.014;45858.934;   -9.527;52716.695
542.599;45011.164;   -9.946;52363.281
543.184;42616.098;   -7.927;53187.137
543.769;44000.352;   -9.297;54697.605
544.354;43696.773;  -10.127;53913.914
544.938;42523.422;   -9.267;49680.164
545.523;44385.070;   -6.506;47386.277
546.108;47212.090;   -9.787;49151.949
546.693;49024.160;  -11.587;51384.637
547.278;48733.031;  -10.986;51853.254
547.862;45908.477;   -8.206;51173.750
548.447;41520.574;  -10.067;51691.395
549.031;41084.418;   -9.637;52456.703
549.616;45865.910;   -9.926;52714.516
550.201;45208.543;   -6.347;52414.598
550.785;46306.328;   -7.917;52355.059
551.370;45429.438;  -10.867;54589.453
551.954;44910.027;   -9.047;58267.348
552.538;45722.969;   -7.827;59062.176
553.123;44060.148;  -10.287;58115.285
553.707;41824.883;  -12.178;56556.285
554.291;43475.359;   -8.717;56201.668
554.876;46033.336;   -7.457;55335.762
555.460;45970.516;  -10.387;54155.703
556.044;46629.391;   -9.618;53721.484
556.628;45410.773;  -11.567;53731.016
557.212;44247.176;   -8.097;54312.531
557.796;42688.719;  -11.077;53797.773
558.380;42739.344;  -11.108;56145.984
558.964;43301.887;   -9.057;57277.930
559.548;44460.406;   -6.977;56459.641
560.132;42686.074;  -11.457;54434.543
560.716;41200.316;  -11.378;54800.617
561.300;42230.160;   -9.577;57606.945
561.884;43434.328;   -7.127;58972.445
562.467;41729.078;   -7.118;57327.570
563.051;41001.578;  -13.358;54962.434
563.635;42032.551;  -10.178;52594.473
564.219;42401.684;   -7.837;50610.410
564.802;43359.484;  -11.398;49551.180
565.386;43092.363;  -12.788;48370.953
565.969;42222.148;   -9.077;48178.871
566.553;41454.027;   -6.207;49957.305
567.136;42213.793;   -8.568;50369.594
567.720;38823.664;  -11.868;49492.004
568.303;36893.563;   -8.268;50616.352
568.887;36882.801;   -8.698;50727.148
569.470;37110.738;   -6.808;51698.379
570.053;35704.930;  -13.188;52122.078
570.637;34147.199;  -12.037;52536.438
571.220;34110.250;   -8.577;51186.098
571.803;34781.953;   -8.498;51032.762
572.386;36608.602;  -10.498;49609.887
572.969;38935.180;   -9.388;48285.926
573.552;37459.551;   -8.338;47624.285
574.135;36137.008;   -8.518;45498.641
574.718;33849.867;  -13.628;41970.434
575.301;32883.238;  -10.893;41447.137
575.884;31916.609;   -8.158;40923.836
576.467;32916.848;  -10.328;45267.723
577.050;34490.078;  -13.058;48175.543
577.633;35535.371;   -9.458;47729.328
578.216;34362.137;   -8.928;47579.793
578.799;32987.156;   -9.358;47820.996
579.381;31764.891;  -11.388;48115.551
579.964;30498.584;  -11.718;47333.766
580.547;32733.145;   -8.588;46668.969
581.129;34306.359;   -8.859;44466.141
581.712;35387.141;  -10.729;44164.922
582.294;35918.785;  -11.118;46477.855
582.877;35620.723;   -5.218;48244.254
583.459;33378.156;   -8.679;47437.895
584.042;31310.369;  -10.709;46943.219
584.624;31676.664;  -11.669;46792.227
585.206;31267.770;   -8.218;46557.250
585.789;31016.494;  -10.569;45793.773
586.371;33226.395;  -11.859;43836.391
586.953;33203.555;  -10.719;42972.492
587.536;33525.480;   -7.198;42487.211
588.118;32134.324;   -8.720;42086.414
588.700;26872.568;  -10.439;43389.930
589.282;25862.361;   -9.198;43646.039
589.864;29220.791;   -9.199;43438.109
590.446;32861.078;  -11.319;43151.926
591.028;34056.090;  -11.159;42781.867
591.610;33466.402;  -11.779;42839.098
592.192;30971.014;   -7.668;42820.402
592.774;29383.756;  -11.949;40724.277
593.356;28116.381;  -12.129;39874.789
593.937;27088.250;  -10.669;39980.648
594.519;29205.703;   -6.509;42069.633
595.101;31327.850;  -10.849;42976.031
595.683;31467.494;  -11.679;44084.441
596.264;32401.529;   -9.049;43478.797
596.846;31915.697;   -8.849;43803.672
597.427;31956.137;   -9.570;42986.934
598.009;33570.063;  -12.620;42832.219
598.591;33934.227;  -10.039;42580.086
599.172;33186.746;  -10.369;43061.805
599.753;33362.648;   -9.140;41691.469
600.335;34962.961;  -11.430;40692.520
600.916;33199.383;   -9.939;39982.422
601.498;30624.760;   -8.479;40318.617
602.079;29095.023;  -10.920;40670.609
602.660;28963.078;  -11.480;41450.898
603.241;30495.867;  -11.699;41137.738
603.823;29287.902;   -9.579;38868.797
604.404;28646.166;  -10.620;38182.785
604.985;30373.254;  -10.450;38078.047
605.566;30310.930;   -9.129;38056.633
606.147;30480.932;   -7.510;37020.418
606.728;31933.379;  -10.660;37883.359
607.309;30520.879;  -11.740;38748.273
607.890;30115.332;   -9.759;38850.230
608.471;29618.291;   -8.250;37457.918
609.051;28697.734;   -9.240;36066.457
609.632;27626.379;  -12.120;35991.074
610.213;28338.064;   -9.110;37402.641
610.794;29093.605;   -8.030;38383.363
611.374;28799.682;   -8.110;40562.387
611.955;29525.057;  -13.560;38533.727
612.536;30836.254;  -11.400;36951.789
613.116;30556.063;   -8.070;37197.891
613.697;30782.428;  -10.830;38411.125
614.277;29051.779;  -11.641;38673.938
614.858;29871.529;  -13.310;37075.863
615.438;29181.619;   -7.460;35092.906
616.019;26673.910;   -7.601;33666.301
616.599;27238.471;  -12.020;34189.023
617.179;29066.180;  -11.780;36952.047
617.760;30247.229;   -8.570;39582.574
618.340;31291.904;  -11.471;38943.977
618.920;32385.484;  -11.170;37594.156
619.500;32234.125;  -11.071;37866.938
620.080;31206.283;   -7.750;37869.043
620.660;32340.631;  -12.711;36868.617
621.241;33657.688;  -10.211;36352.309
621.821;33965.793;  -10.961;35459.520
622.401;33021.012;   -7.720;35207.414
622.980;32241.350;   -8.981;35980.422
623.560;30808.156;   -9.331;37351.328
624.140;29568.387;   -9.850;34388.582
624.720;24639.152;   -7.451;32368.764
625.300;21257.506;   -9.070;32638.629
625.880;24605.266;  -12.601;34599.035
626.459;28527.957;  -11.751;36831.738
627.039;31403.156;   -9.281;38299.098
627.619;31140.059;   -8.801;38289.574
628.198;29643.896;  -12.071;37220.695
628.778;28906.098;   -9.461;37632.563
629.357;29608.240;   -8.491;38003.012
629.937;29507.393;   -9.721;38402.039
630.516;29142.453;   -9.951;37868.801
631.096;29000.455;  -11.731;35760.410
631.675;31358.598;   -8.572;35225.219
632.254;36153.578;  -11.282;35130.289
632.834;35563.805;  -13.322;35794.570
633.413;33839.855;  -10.301;35788.922
633.992;31363.477;   -8.582;34532.863
634.571;32297.490;   -8.352;33590.113
635.151;35263.711;  -11.912;34943.863
635.730;33507.801;  -10.511;35352.523
636.309;29926.750;   -7.731;35366.605
636.888;27474.191;   -9.952;36165.637
637.467;28130.828;  -11.672;37515.902
638.046;29795.488;   -8.901;39288.695
638.625;32946.691;   -7.912;38279.699
639.204;32755.930;  -10.022;37741.598
639.782;31267.275;  -12.252;38364.551
640.361;27666.855;  -10.041;36740.621
640.940;24887.643;  -11.161;34950.082
641.519;25650.145;   -9.701;34137.398
642.097;28476.072;  -11.271;35654.258
642.676;31135.492;   -8.651;35637.957
643.255;31935.436;   -8.711;36567.074
643.833;31244.172;   -9.581;37809.434
644.412;31210.072;  -13.711;37337.293
644.990;30085.916;  -11.811;37018.531
645.569;30013.678;   -9.411;36518.469
646.147;29217.510;  -10.291;36186.430
646.726;29157.369;  -12.401;36267.688
647.304;30507.305;  -10.411;36647.625
647.882;32226.271;   -9.651;39286.742
648.461;33692.102;   -9.631;39157.703
649.039;32003.123;  -11.881;35412.883
649.617;31273.549;   -9.661;34744.918
650.195;30952.295;   -9.301;35403.098
650.773;29566.607;  -10.511;35053.797
651.352;27125.316;  -11.521;33756.816
651.930;24820.795;  -12.211;31868.773
652.508;23339.861;   -9.171;33121.551
653.086;27270.012;   -9.371;33564.793
653.663;30210.602;  -13.161;34054.668
654.241;28938.766;  -13.031;35693.309
654.819;30541.471;   -9.371;36422.906
655.397;30736.385;  -10.511;38213.484
655.975;30272.070;  -10.371;39507.625
656.553;30073.801;  -10.051;39498.223
657.130;28467.467;  -10.061;40395.480
657.708;27697.516;   -9.561;39242.020
658.286;27805.033;  -11.511;38920.020
658.863;29244.902;  -10.261;40202.898
659.441;32385.637;   -7.531;39677.938
660.018;31909.955;   -9.501;40413.355
660.596;30623.293;  -13.301;39931.414
661.173;32422.824;  -11.211;39604.531
661.750;32399.654;   -9.951;39700.070
662.328;31145.295;   -9.390;39292.809
662.905;30395.949;  -11.330;38235.648
663.482;26338.266;   -9.050;36212.305
664.060;24526.000;   -8.240;35944.945
664.637;27271.789;  -10.050;35170.785
665.214;29208.797;  -11.760;34197.523
665.791;30834.689;  -10.530;34549.520
666.368;29525.850;   -9.690;35118.578
666.945;30025.287;   -9.320;36019.418
667.522;31654.963;  -11.860;36048.438
668.099;31302.932;  -10.770;36243.914
668.676;30057.848;   -6.260;35958.875
669.253;28819.828;   -7.000;37384.730
669.830;29501.854;  -10.190;36779.629
670.407;29211.313;   -9.550;35231.289
670.984;28991.307;   -9.260;35544.270
671.560;29611.188;   -9.280;35466.867
672.137;28957.979;  -11.810;34280.863
672.714;29750.348;  -11.490;34632.863
673.290;30289.584;   -7.740;35135.422
673.867;30537.488;  -10.660;36114.480
674.443;30523.645;  -12.230;36152.859
675.020;28649.623;  -10.450;35327.238
675.596;29755.279;   -9.260;35795.176
676.173;30231.475;  -10.780;35430.355
676.749;29969.313;  -13.690;33549.516
677.326;29997.273;  -11.980;32210.012
677.902;30008.807;   -8.630;32068.871
678.478;29367.738;  -10.730;32583.891
679.054;28709.484;  -10.520;32088.928
679.631;29018.861;  -11.920;30978.848
680.207;30532.486;   -7.490;33160.887
680.783;32105.061;   -9.860;35570.363
681.359;31181.760;  -13.380;36125.184
681.935;30620.570;  -12.480;35240.922
682.511;30025.105;   -7.900;34429.961
683.087;30174.670;   -7.710;34463.680
683.663;29764.793;  -11.480;34648.898
684.239;28491.037;  -14.090;34546.457
684.815;28034.234;   -7.560;35586.375
685.390;28471.988;   -9.910;35821.895
685.966;28969.377;  -11.159;35085.871
686.542;31249.264;  -11.169;34198.230
687.118;33548.980;   -5.959;32847.707
687.693;33888.953;  -10.329;32794.027
688.269;33503.617;  -12.059;33072.367
688.844;31560.111;  -10.909;33141.664
689.420;29309.314;   -8.019;33965.742
689.995;27147.746;   -8.399;34655.523
690.571;25898.188;  -10.949;33576.742
691.146;26271.885;   -9.619;32657.219
691.722;25775.627;   -8.999;32526.979
692.297;25549.488;  -11.589;33014.617
692.872;27270.438;  -11.739;34012.254
693.448;26951.445;  -11.059;34237.434
694.023;26203.357;  -10.139;34142.672
694.598;28064.910;   -9.029;34132.031
695.173;28310.109;  -13.319;34205.250
695.748;27549.627;  -10.169;32882.488
696.323;27697.158;   -8.339;32864.906
696.898;27963.275;   -8.169;33170.004
697.473;28027.213;  -12.309;32432.984
698.048;27550.436;  -10.989;31649.303
698.623;27329.996;   -9.329;30778.141
699.198;29229.469;   -9.849;31140.119
699.773;30235.529;  -12.329;31764.299
700.348;28568.186;  -10.389;31780.816
700.922;28610.625;   -9.269;32046.375
701.497;29582.844;   -9.329;32603.574
702.072;29771.518;  -10.789;34799.871
702.646;28340.846;  -10.839;35793.172
703.221;26118.674;   -9.099;35201.590
703.795;28192.535;  -10.939;34764.527
704.370;28709.000;  -12.859;34307.367
704.944;29289.133;  -11.559;33509.887
705.519;30167.625;   -7.939;31388.584
706.093;31395.693;  -10.499;31340.104
706.668;31669.857;  -11.289;32630.281
707.242;30627.369;  -11.509;32728.779
707.816;29077.004;   -9.639;32947.238
708.390;27580.480;  -11.429;33277.855
708.965;28023.854;  -11.869;33834.336
709.539;27948.744;  -11.689;33709.273
710.113;28382.352;  -10.478;33044.313
710.687;27879.465;  -10.228;31953.992
711.261;26215.422;  -13.698;30505.949
711.835;26006.148;  -13.378;30262.369
712.409;26745.779;   -9.698;31254.447
712.983;28809.031;  -11.898;32754.986
713.557;29785.783;  -15.138;34018.824
714.131;29374.592;  -14.098;34579.625
714.704;28509.750;   -9.958;33890.262
715.278;26285.873;  -10.028;33531.102
715.852;25189.197;  -11.148;33601.660
716.425;25911.328;   -9.068;33515.117
716.999;26704.078;  -10.038;33185.555
717.573;27732.834;   -9.798;33905.996
718.146;28767.986;  -12.378;35199.293
718.720;28802.129;  -11.918;35060.551
719.293;28290.070;   -8.088;34973.230
719.867;31147.162;  -10.888;36394.449
720.440;30899.684;  -11.938;36663.008
721.013;29321.283;  -12.818;35102.426
721.587;27939.340;  -10.298;33985.266
722.160;26835.723;  -10.048;33524.965
722.733;25778.730;  -12.108;32987.043
723.306;26087.037;  -10.818;33066.301
723.880;28530.281;   -8.908;33399.500
724.453;30658.072;   -9.878;33468.297
725.026;29807.422;  -11.188;33816.637
725.599;26975.492;  -11.678;32797.996
726.172;27100.422;   -9.618;33187.434
726.745;28142.684;   -8.258;35136.613
727.318;29438.713;  -12.978;35751.730
727.891;29985.811;  -12.148;35890.430
728.463;29661.828;   -8.968;34822.090
729.036;28658.352;  -10.188;32895.086
729.609;29114.289;  -11.788;31823.225
730.182;26064.217;  -11.788;31445.283
730.754;23672.088;  -10.268;32373.223
731.327;23809.113;   -9.998;33676.820
731.900;24075.607;  -12.228;33417.000
732.472;25302.777;  -13.848;31978.498
733.045;27257.393;   -8.698;30368.777
733.617;27321.605;  -10.607;30574.215
734.190;27040.408;  -11.507;31280.975
734.762;24184.898;  -13.647;31674.412
735.334;22325.213;   -9.767;31247.291
735.907;23043.559;   -9.897;29876.211
736.479;23286.137;  -11.637;29808.488
737.051;22987.107;   -9.567;30233.547
737.623;23922.270;   -8.187;31469.086
738.195;24534.756;  -11.187;31784.225
738.768;26233.037;  -12.337;32120.523
739.340;26643.699;  -12.227;32094.342
739.912;25631.609;  -11.057;31312.680
740.484;24122.938;  -10.207;31946.238
741.056;22878.174;  -10.047;32984.059
741.628;24623.502;  -13.627;33897.715
742.199;26848.920;   -7.177;33213.016
742.771;25201.379;  -10.797;31369.113
743.343;22925.570;  -11.997;31865.473
743.915;21918.848;  -12.867;32388.631
744.487;21946.926;   -7.617;31079.568
745.058;22141.092;   -9.557;30570.107
745.630;22551.854;   -9.877;29970.127
746.201;23470.725;  -14.177;29186.766
746.773;24140.000;   -9.237;28805.723
747.344;24034.658;   -9.847;29591.223
747.916;22644.129;  -11.657;31412.201
748.487;22795.369;  -10.587;32194.898
749.059;23890.594;   -8.707;32533.719
749.630;24436.969;  -10.537;32158.518
750.201;23341.773;  -11.687;30855.395
750.773;21557.264;  -11.647;28622.555
751.344;21479.217;   -7.147;28405.732
751.915;22799.039;   -9.757;28461.551
752.486;22902.986;  -12.427;27842.850
753.057;20713.961;  -12.227;27845.008
753.628;19463.662;  -10.417;27728.107
754.199;20549.066;  -11.767;27381.086
754.770;21537.574;  -11.187;25882.203
755.341;21509.035;  -10.507;25886.184
755.912;21649.736;   -9.387;26050.861
756.483;21250.111;  -10.647;26798.779
757.054;19480.205;  -11.837;27048.238
757.625;18145.926;  -12.716;26294.838
758.195;17777.779;   -9.666;26142.076
758.766;17480.494;   -8.656;26392.234
759.337;18314.344;  -12.856;26334.594
759.907;19965.461;  -13.366;27579.652
760.478;20848.906;   -8.576;28352.770
761.048;20264.582;  -10.526;27325.088
761.619;19410.189;  -11.116;26460.428
762.189;19442.645;  -12.136;26029.826
762.760;20485.328;   -9.456;26430.145
763.330;21632.250;   -7.136;26670.902
763.900;21135.867;  -11.786;26603.021
764.471;18561.301;  -11.546;25542.740
765.041;17301.658;   -8.096;24358.459
765.611;17380.381;   -8.876;23991.297
766.181;17783.484;  -12.196;24470.236
766.751;18750.195;  -11.636;24845.975
767.321;18509.174;  -10.156;24533.633
767.891;16629.039;  -11.766;24916.492
768.461;16074.658;  -14.936;24776.771
769.031;16524.205;  -12.356;24757.988
769.601;18115.840;   -7.526;24181.088
770.171;18033.629;  -10.766;23670.387
770.741;17235.889;  -13.176;22960.045
771.311;17376.260;  -10.616;22917.523
771.880;17826.701;   -9.576;23562.941
772.450;17522.191;  -10.336;24216.500
773.020;17386.859;  -13.516;24140.398
773.589;16583.289;  -13.466;24414.857
774.159;15914.793;   -8.686;23858.717
774.729;15639.176;   -9.476;22942.135
775.298;15250.094;  -13.666;22324.033
775.867;14839.297;  -11.716;21140.313
776.437;14907.990;   -9.906;20838.092
777.006;14728.968;  -12.166;20599.510
777.576;14602.332;  -12.356;20508.809
778.145;14665.359;  -11.646;20732.947
778.714;14558.327;   -8.226;21062.465
779.283;13860.826;   -9.556;20949.664
779.853;13368.476;  -14.116;20508.623
780.422;13875.336;  -11.506;20649.082
780.991;13417.599;   -9.556;21527.520
781.560;12240.729;   -9.095;22632.658
782.129;12115.935;  -12.135;23048.277
782.698;12150.800;  -10.865;23438.555
783.267;11732.684;   -9.335;23267.734
783.836;11615.870;  -11.045;22415.133
784.404;12636.621;  -13.865;20443.152
784.973;13252.204;  -13.095;19699.150
785.542;13177.545;  -11.575;19763.828
786.111;12997.353;   -9.705;20341.408
786.679;12499.226;  -12.105;20207.967
787.248;12201.080;  -12.455;19516.465
787.817;11999.490;  -11.535;18900.363
788.385;11645.348;   -9.765;17879.121
788.954;11109.466;  -14.005;17658.301
789.522;10593.931;  -11.955;17788.879
790.090;11152.780;  -10.135;18118.277
790.659;11578.771;  -10.975;18338.736
791.227;11088.768;  -13.375;18508.615
791.795;11538.397;  -12.375;17898.254
792.364;11931.526;  -10.725;17295.133
792.932;12276.030;   -9.715;16822.051
793.500;12408.410;  -12.675;17040.148
794.068;12626.876;  -13.495;17179.787
794.636;12787.629;  -10.885;16664.246
795.204;12148.555;  -11.045;16524.545
795.772;12185.766;  -13.175;17274.564
796.340;11676.257;  -12.445;17891.002
796.908;11480.324;   -9.735;17648.561
797.476;11432.983;   -9.815;17064.080
798.044;11020.983;  -13.985;16672.777
798.612;10189.631;  -13.115;17023.996
799.180; 9789.952;  -10.185;16561.615
799.747; 9717.520;   -9.055;15962.773
800.315; 9457.996;  -12.385;15296.992
800.883; 9149.993;  -15.035;14801.771
801.450; 9210.000;  -10.365;14534.430
802.018; 9289.296;   -9.855;14173.248
802.585; 9384.539;  -11.905;14029.547
803.153; 9401.609;  -11.585;13836.846
803.720; 9228.935;   -9.095;13567.324
804.287; 8777.816;   -9.135;13360.622
804.855; 8326.319;  -11.604;13681.981
805.422; 8222.818;  -11.794;13536.560
805.989; 8263.038;  -10.734;13355.958
806.556; 8406.000;  -10.444;13747.896
807.124; 8636.761;  -12.764;13987.376
807.691; 8593.228;  -12.964;14038.674
808.258; 8400.409;  -11.134;14120.152
808.825; 8091.167;   -9.854;13860.111
809.392; 8161.988;  -10.504;13268.790
809.959; 7674.145;  -13.054;12680.389
810.526; 7206.594;   -8.294;12427.308
811.093; 7243.848;   -8.394;12030.105
811.659; 7906.781;  -12.304;11653.664
812.226; 8449.351;  -13.944;11637.183
812.793; 8154.907;  -10.484;11611.521
813.360; 7513.618;  -10.144;11885.181
813.926; 7166.270;  -11.684;12770.539
814.493; 6932.186;  -13.644;12677.638
815.060; 6513.591;   -9.724;11974.336
815.626; 6501.320;   -9.854;11594.715
816.193; 6916.003;  -13.254;11579.474
816.759; 6939.541;  -13.204;11666.972
817.325; 6992.151;   -9.434;11325.530
817.892; 7342.792;  -10.134;11105.369
818.458; 7745.556;  -13.474;10843.928
819.024; 7347.645;  -11.854;10714.406
819.591; 7027.341;  -10.244;10469.165
820.157; 6794.541;  -10.704;10235.523
820.723; 6268.430;  -12.324;10847.563
821.289; 5983.196;   -9.444;11040.980
821.855; 5933.360;   -8.374;10357.100
822.421; 5951.958;  -10.234; 9978.918
822.987; 5960.785;  -13.294; 9754.177
823.553; 5612.818;  -10.884;10065.755
824.119; 5404.197;   -8.884;10036.294
824.685; 5489.763;   -6.784;10029.192
825.251; 5588.517;  -12.004;10199.230
825.816; 5568.745;  -11.474; 9820.189
826.382; 5355.102;   -9.174; 9297.248
826.948; 5554.427;   -9.214; 9381.347
827.513; 5946.117;  -10.774; 9450.726
828.079; 5755.131;  -11.924; 9472.444
828.645; 5140.144;  -10.543; 9292.643
829.210; 5012.905;  -10.533; 9065.341
829.776; 4989.958;  -10.753; 9132.620
830.341; 4877.719;  -10.173; 9092.878
830.906; 5072.489;  -10.743; 9078.557
831.472; 5428.934;  -11.113; 8534.535
832.037; 5194.571;  -10.603; 8677.874
832.602; 4641.785;  -13.323; 8628.692
833.167; 4370.845;  -10.823; 8879.031
833.733; 4321.907;  -10.113; 9189.790
834.298; 4478.819;  -13.583; 9052.608
834.863; 4567.747;  -12.703; 8895.087
835.428; 4550.748;  -10.523; 8824.266
835.993; 4383.042;   -6.963; 8845.385
836.558; 4194.684;  -10.763; 8888.563
837.123; 4306.369;   -9.903; 8966.582
837.688; 4543.711;   -9.913; 8617.860
838.253; 4804.861;  -10.283; 8590.699
838.817; 4996.468;  -12.963; 8443.797
839.382; 4887.781;  -14.243; 8799.356
839.947; 4565.194;  -10.733; 8810.595
840.511; 4280.030;   -9.383; 8796.394
841.076; 3926.699;  -12.563; 8347.231
841.641; 3990.310;  -12.953; 8224.330
842.205; 4095.599;   -7.043; 8223.349
842.770; 4189.250;   -8.163; 8622.107
843.334; 4340.806;  -12.503; 8410.386
843.898; 4255.521;  -11.693; 8337.465
844.463; 4253.383;  -10.203; 8506.283
845.027; 4030.454;   -9.533; 8280.962
845.591; 3851.085;  -13.443; 8231.141
846.156; 3851.667;  -13.143; 7969.179
846.720; 3751.613;   -9.433; 7768.278
847.284; 3640.228;  -11.033; 7630.957
847.848; 3521.722;  -10.403; 7472.395
848.412; 3439.826;  -11.553; 7437.394
848.976; 3488.017;   -8.393; 7674.592
849.540; 3417.154;   -8.713; 7836.011
850.104; 3518.900;  -12.463; 7913.669
850.668; 3880.543;  -12.973; 7694.508
851.232; 3989.291;  -10.793; 7756.887
851.796; 3825.326;  -10.662; 7926.545
852.359; 3525.251;  -13.082; 7827.844
852.923; 3362.450;  -12.192; 7641.163
853.487; 3195.527;  -11.912; 7342.501
854.050; 3163.388;  -10.892; 7042.820
854.614; 3311.578;  -13.992; 7151.338
855.177; 3430.696;  -11.732; 7105.077
855.741; 3462.636;   -8.962; 6989.675
856.304; 3342.256;   -9.442; 6596.634
856.868; 3295.806;  -14.192; 6356.272
857.431; 3379.779;  -12.702; 6468.571
857.995; 3479.102;   -9.942; 6373.210
858.558; 3488.205;   -9.112; 6324.448
859.121; 3225.711;  -12.932; 6408.327
859.684; 3107.141;  -13.442; 6347.886
860.247; 3230.081;  -10.632; 6321.264
860.810; 3238.732;  -11.272; 6301.903
861.374; 2984.137;   -9.832; 6607.881
861.937; 2726.280;  -11.762; 6408.200
862.500; 2724.281;   -9.722; 6572.639
863.062; 2902.457;  -10.512; 6387.297
863.625; 3076.416;  -11.232; 6190.836
864.188; 3241.889;  -14.112; 5807.254
864.751; 3295.487;  -11.302; 5682.413
865.314; 3178.421;  -10.112; 5547.492
865.876; 2951.850;  -12.182; 5500.150
866.439; 2928.780;  -10.722; 5415.909
867.002; 2882.472;   -9.252; 5501.567
867.564; 2686.972;   -9.572; 5413.946
868.127; 2464.739;  -13.142; 5160.325
868.689; 2356.798;  -12.902; 5133.183
869.252; 2259.078;   -9.732; 5252.382
869.814; 2162.425;   -9.432; 5297.141
870.377; 2170.472;  -11.552; 5390.919
870.939; 2237.661;   -9.052; 5599.898
871.501; 2303.269;  -10.982; 5248.336
872.063; 2310.352;  -12.292; 4854.235
872.626; 2265.193;  -14.912; 4817.074
873.188; 2282.726;  -13.112; 4987.732
873.750; 2249.507;  -13.442; 4868.651
874.312; 2142.853;   -9.402; 4779.330
874.874; 2047.542;  -11.062; 4866.348
875.436; 1960.750;  -13.931; 4718.887
875.998; 1954.230;   -9.561; 4660.005
876.560; 1983.479;  -11.321; 4462.964
877.122; 1927.403;  -12.221; 4145.042
877.683; 1827.037;  -12.191; 4056.481
878.245; 1751.019;  -12.101; 3950.740
878.807; 1789.234;   -8.971; 4058.958
879.369; 1811.037;  -12.071; 3954.677
879.930; 1716.568;  -14.621; 3941.495
880.492; 1648.426;  -10.311; 4067.014
881.053; 1610.872;  -10.901; 3859.633
881.615; 1502.933;  -14.411; 3776.071
882.176; 1401.595;  -13.761; 3734.750
882.738; 1350.003;   -9.181; 3678.489
883.299; 1319.105;  -11.791; 3405.407
883.860; 1320.743;  -13.121; 3351.106
884.422; 1323.188;  -11.211; 3394.044
884.983; 1282.548;  -10.091; 3166.443
885.544; 1207.984;   -8.461; 3189.802
886.105; 1123.482;  -12.361; 3160.360
886.666; 1051.836;  -14.141; 3093.059
887.227;  991.558;  -11.361; 2941.957
887.788;  930.952;  -11.401; 2974.836
888.349;  868.365;  -13.791; 2721.214
888.910;  864.673;  -13.191; 2696.493
889.471;  871.688;   -9.881; 2560.172
890.032;  854.825;   -9.881; 2558.190
890.593;  831.025;  -10.371; 2567.669
891.153;  803.180;  -13.301; 2460.307
891.714;  754.747;  -11.431; 2372.046
892.275;  717.983;  -11.291; 2309.505
892.835;  677.871;  -11.471; 2382.543
893.396;  624.782;  -11.541; 2295.502
893.956;  567.955;  -11.181; 2162.420
894.517;  530.632;  -11.741; 2125.439
895.077;  523.337;  -11.671; 2086.978
895.638;  523.132;  -11.311; 2126.316
896.198;  495.254;   -9.831; 1838.275
896.758;  451.202;   -8.421; 1892.813
897.319;  420.159;  -12.351; 1792.232
897.879;  402.973;  -13.511; 1762.751
898.439;  378.985;  -12.001; 1661.149
898.999;  355.920;  -10.180; 1781.468
899.559;  346.829;  -12.030; 1703.347
900.119;  341.883;  -15.710; 1537.525
900.679;  336.824;   -8.900; 1638.384
901.239;  322.975;   -8.340; 1527.902
901.799;  311.577;  -13.910; 1456.441
902.359;  305.355;  -13.460; 1357.140
902.919;  299.772;  -11.490; 1331.118
903.479;  286.559;  -12.110; 1317.257
904.038;  265.830;  -11.720; 1262.595
904.598;  248.940;  -13.610; 1152.034
905.158;  246.535;  -11.040; 1240.893
905.717;  239.458;  -10.900; 1233.691
906.277;  227.544;  -15.080; 1217.330
906.836;  216.573;  -13.380; 1222.408
907.396;  209.044;  -10.780; 1193.047
907.955;  201.621;   -8.500; 1182.526
908.515;  196.391;  -12.760; 1099.364
909.074;  189.106;  -11.900; 1092.863
909.633;  184.268;   -8.950; 1069.121
910.192;  180.073;   -8.770; 1196.460
910.752;  174.183;  -12.390; 1029.960
911.311;  168.797;  -13.680; 1009.780
911.870;  167.512;  -12.370;  971.460
912.429;  167.888;  -10.900; 1094.080
912.988;  166.677;  -11.690; 1081.060
913.547;  161.724;  -13.240;  940.380
914.106;  157.450;  -11.990;  999.420
914.665;  154.615;   -9.990;  984.020
915.224;  153.299;  -12.880; 1035.760
915.782;  152.924;  -12.350;  922.560
916.341;  153.221;   -9.110; 1049.840
916.900;  149.160;   -9.270;  925.260
917.458;  146.199;  -13.240;  884.220
918.017;  147.016;  -13.550;  942.600
918.576;  146.534;  -12.320;  904.440
919.134;  145.072;  -11.490;  837.980
919.693;  142.834;  -13.670;  893.060
920.251;  140.055;  -15.470;  876.500
920.809;  139.286;  -11.290;  839.580
921.368;  139.096;  -10.210;  885.360
921.926;  138.442;  -12.140;  842.940
922.484;  136.716;  -13.080;  903.360
923.042;  135.748;  -11.720;  880.340
923.601;  139.748;   -7.480;  998.680
924.159;  138.147;  -11.570;  935.560
924.717;  133.657;  -13.840;  841.080
925.275;  135.262;  -10.640;  903.240
925.833;  135.234;  -11.540;  779.320
926.391;  134.868;  -12.960;  938.380
926.949;  132.634;  -14.130;  857.680
927.506;  134.037;  -11.750;  903.500
928.064;  134.382;  -10.250;  877.580
928.622;  133.112;  -13.030;  880.100
929.180;  132.699;  -13.400;  814.180
929.737;  134.281;  -10.700;  808.540
930.295;  138.237;  -10.070;  928.480
930.853;  139.452;  -11.960;  849.100
931.410;  139.511;  -13.120;  821.120
931.968;  139.298;  -10.770;  940.660
932.525;  139.513;  -10.680;  909.380
933.082;  140.122;  -13.130;  811.440
933.640;  141.116;  -13.210;  925.900
934.197;  138.921;  -11.060;  886.360
934.754;  140.238;   -9.580;  897.780
935.312;  142.506;  -14.000;  863.340
935.869;  146.500;  -10.710; 1012.980
936.426;  147.557;   -9.860;  872.800
936.983;  149.453;   -9.710;  889.020
937.540;  148.840;  -13.990;  838.280
938.097;  146.695;  -14.040;  940.120
938.654;  148.181;  -10.310;  898.860
939.211;  150.806;  -10.560;  952.480
939.768;  153.923;  -13.900;  915.420
940.324;  157.278;  -14.760;  904.200
940.881;  158.576;  -10.370;  878.500
941.438;  160.504;   -8.260; 1021.200
941.995;  156.655;  -12.540;  992.560
942.551;  153.303;  -14.670;  875.620
943.108;  153.335;  -10.450;  937.920
943.664;  156.052;  -10.750;  869.340
944.221;  160.135;  -11.550; 1088.140
944.777;  157.417;  -14.770;  869.680
945.334;  158.261;  -12.820;  884.840
945.890;  160.730;  -10.130;  946.480
946.446;  159.724;  -13.470;  947.020
947.003;  160.704;  -12.120;  964.940
947.559;  164.264;   -9.980; 1063.040
948.115;  164.353;   -9.080; 1026.540
948.671;  162.355;  -10.830;  967.300
949.227;  158.855;  -12.440;  859.560
949.783;  155.792;  -12.910;  858.900
950.339;  158.352;  -10.270;  991.000
950.895;  158.498;  -13.630; 1023.840
951.451;  157.548;  -15.100;  925.280
952.007;  157.890;  -11.330;  998.540
952.563;  158.587;  -10.580;  937.780
953.118;  157.548;  -13.440;  904.940
953.674;  157.955;  -12.710;  935.780
954.230;  157.751;  -10.350;  949.640
954.785;  155.521;   -9.190;  936.640
955.341;  152.429;  -11.200;  998.160
955.897;  149.627;  -16.560;  834.660
956.452;  151.916;  -12.570;  953.840
957.008;  151.192;   -7.970; 1083.640
957.563;  148.089;  -11.940; 1009.540
958.118;  142.207;  -13.450;  877.700
958.674;  144.125;  -12.030;  946.780
959.229;  145.699;   -9.410; 1013.980
959.784;  142.748;  -12.000;  832.400
960.339;  141.907;  -14.780; 1001.280
960.894;  138.007;   -9.860;  963.760
961.449;  135.591;   -9.970;  859.960
962.004;  135.201;  -10.900; 1212.840
962.559;  129.789;  -13.150;  860.140
963.114;  127.443;  -13.740;  742.480
963.669;  127.724;   -9.820;  915.500
964.224;  125.540;  -13.890;  874.340
964.779;  124.111;  -12.600;  828.420
965.334;  125.936;  -10.950; 1017.860
965.888;  126.735;  -11.170;  875.360
966.443;  129.938;  -12.540;  972.380
966.998;  128.335;  -15.780;  819.460
967.552;  127.550;   -9.760;  908.380
968.107;  124.718;   -9.060;  868.300
968.661;  124.839;  -11.950;  922.440
969.216;  125.561;  -12.800;  856.280
969.770;  124.872;  -11.210;  917.200
970.324;  124.387;  -11.610;  923.140
970.879;  120.507;  -11.370;  947.180
971.433;  117.806;  -12.540;  952.720
971.987;  113.327;  -11.320;  895.340
972.541;  111.224;  -10.720;  917.100
973.095;  112.854;   -9.680; 1009.460
973.649;  109.241;  -11.440;  809.480
974.203;  103.724;  -11.210;  829.040
974.757;   96.142;  -10.240;  855.220
975.311;   89.186;  -13.720;  872.600
975.865;   82.635;  -13.770;  881.820
976.419;   78.615;  -11.690;  857.400
976.973;   80.348;   -9.510;  849.620
977.526;   82.618;  -12.620;  949.920
978.080;   83.585;  -12.010;  796.780
978.634;   87.445;  -10.170;  921.320
979.187;   86.995;   -9.020;  905.400
979.741;   86.753;   -9.820; 1018.380
980.294;   83.004;  -14.870;  789.160
980.848;   82.186;  -12.380;  717.220
981.401;   85.867;  -10.350;  816.540
981.955;   87.464;  -13.720;  844.300
982.508;   86.452;  -11.490;  746.340
983.061;   87.060;  -10.000;  915.260
983.615;   84.440;  -11.480;  798.800
984.168;   81.618;  -13.220;  770.080
984.721;   80.663;  -13.960;  880.760
985.274;   80.452;  -10.870;  867.500
985.827;   79.744;   -9.790;  834.220
986.380;   78.276;  -13.120;  721.340
986.933;   76.740;  -12.450;  864.800
987.486;   75.435;  -10.210;  861.920
988.039;   75.315;   -8.430;  863.100
988.591;   73.977;  -10.520;  893.260
989.144;   70.736;  -14.860;  737.260
989.697;   70.891;  -13.080;  758.740
990.250;   71.876;  -10.150;  858.100
990.802;   70.513;  -13.430;  755.860
991.355;   70.847;  -12.750;  974.880
991.907;   69.489;  -12.040;  864.320
992.460;   68.131;  -11.330;  753.760
993.012;   66.195;  -13.610;  749.540
993.565;   64.992;  -13.460;  711.360
994.117;   67.492;   -9.360;  950.780
994.669;   63.784;  -11.300;  701.320
995.221;   61.963;  -13.540;  791.920
995.774;   60.094;  -13.430;  787.580
996.326;   58.638;  -12.520;  740.220
996.878;   57.535;  -10.950;  838.420
997.430;   54.870;  -14.300;  699.860
997.982;   52.140;  -13.760;  750.140
998.534;   51.995;  -11.530;  739.060
999.086;   51.744;  -10.310;  738.220
999.638;   51.041;  -12.530;  661.380
1000.190;   50.657;  -11.840;  699.320
1000.741;   50.911;  -10.260;  742.700
1001.293;   51.015;   -8.860;  686.020
1001.845;   48.346;  -13.700;  676.640
1002.396;   49.521;  -12.100;  743.400
1002.948;   48.559;  -12.760;  737.400
1003.500;   47.226;  -10.380;  723.780
1004.051;   47.836;  -11.900;  907.580
1004.603;   46.318;  -12.250;  791.820
1005.154;   42.420;  -13.210;  608.980
1005.705;   42.002;  -10.950;  723.960
1006.257;   42.165;  -13.880;  707.220
1006.808;   40.453;  -12.840;  685.460
1007.359;   41.255;  -10.570;  763.240
1007.910;   40.158;   -9.620;  646.640
1008.461;   39.484;  -13.630;  732.940
1009.013;   37.516;  -17.200;  588.340
1009.564;   39.392;  -10.200;  793.520
1010.115;   37.400;  -12.570;  597.040
1010.665;   37.090;  -15.150;  602.160
1011.216;   36.262;  -14.480;  667.920
1011.767;   36.139;  -11.340;  697.920
1012.318;   36.870;   -9.780;  736.980
1012.869;   36.057;  -12.380;  679.000
1013.419;   34.744;  -15.560;  603.120
1013.970;   35.507;  -11.010;  666.640
1014.521;   35.038;  -11.610;  620.620
1015.071;   35.130;  -13.450;  670.380
1015.622;   34.172;  -13.870;  635.460
1016.172;   34.145;  -11.610;  596.820
1016.723;   33.527;  -12.120;  614.380
1017.273;   33.214;  -13.620;  604.160
1017.823;   33.194;  -14.140;  650.340
1018.374;   32.993;  -12.800;  611.760
1018.924;   33.261;  -12.340;  716.880
1019.474;   34.089;  -11.410;  718.880
1020.024;   31.835;  -14.770;  657.580
1020.574;   31.957;   -9.780;  726.160
1021.124;   33.431;   -8.560;  673.580
1021.674;   31.354;  -15.190;  559.120
1022.224;   31.698;  -13.530;  708.940
1022.774;   32.294;  -13.280;  668.820
1023.324;   31.816;  -10.690;  753.520
1023.874;   33.083;  -10.240;  875.760
1024.423;   30.370;  -12.540;  613.700
1024.973;   30.401;  -10.010;  610.760
1025.523;   29.685;  -10.550;  620.960
1026.072;   30.231;  -13.560;  606.420
1026.622;   29.325;  -15.120;  675.740
1027.172;   29.866;  -11.260;  715.660
1027.721;   29.731;  -11.410;  601.220
1028.270;   30.071;  -13.530;  663.400
1028.820;   28.803;  -13.680;  638.080
1029.369;   29.032;  -13.520;  612.700
1029.918;   29.319;  -10.980;  649.840
1030.468;   28.336;  -13.530;  564.780
1031.017;   28.543;  -13.170;  634.800
1031.566;   27.247;  -12.200;  608.900
1032.115;   28.658;   -9.960;  694.500
1032.664;   27.808;  -13.210;  596.480
1033.213;   28.070;  -12.500;  735.420
1033.762;   27.259;  -11.910;  635.620
1034.311;   27.875;   -9.640;  677.220
1034.860;   27.689;  -13.310;  691.000
1035.408;   27.082;  -11.830;  722.720
1035.957;   27.813;  -12.000;  719.540
1036.506;   26.208;  -11.690;  530.800
1037.055;   28.133;  -10.990;  844.320
1037.603;   25.826;  -15.120;  664.000
1038.152;   24.317;  -12.450;  534.760
1038.700;   25.904;  -10.560;  585.740
1039.249;   25.693;  -11.080;  681.220
1039.797;   25.086;  -12.540;  633.360
1040.345;   24.792;  -11.920;  705.420
1040.894;   24.827;  -11.410;  625.300
1041.442;   24.317;  -14.320;  632.200
1041.990;   23.636;  -16.240;  559.160
1042.538;   23.427;  -11.680;  536.180
1043.087;   24.555;  -10.760;  570.860
1043.635;   25.334;  -11.850;  670.500
1044.183;   23.404;  -15.480;  586.400
1044.731;   22.931;  -11.770;  576.000
1045.279;   23.655;  -13.090;  674.920
1045.827;   25.019;  -12.440;  892.400
1046.374;   22.123;  -13.840;  515.420
1046.922;   21.847;  -13.220;  590.580
1047.470;   24.001;  -10.230;  691.300
1048.018;   22.972;  -14.590;  647.960
1048.565;   23.249;  -12.050;  708.600
1049.113;   21.459;  -11.650;  557.000
1049.660;   22.727;  -10.510;  629.660
1050.208;   22.681;  -13.310;  675.640
1050.755;   21.037;  -15.900;  606.580
1051.303;   22.223;  -11.430;  686.820
1051.850;   21.653;   -8.480;  635.120
1052.397;   19.668;  -15.010;  473.960
1052.945;   19.754;  -13.960;  617.760
1053.492;   22.663;  -13.150;  741.840
1054.039;   22.696;   -9.630;  720.180
1054.586;   20.456;  -13.680;  557.240
1055.133;   20.762;  -14.570;  693.140
1055.680;   21.144;  -13.820;  646.620
1056.227;   20.381;  -11.730;  542.780
1056.774;   21.574;  -12.480;  794.980
1057.321;   19.095;  -13.930;  523.260
1057.868;   19.285;  -11.690;  651.320
1058.415;   19.864;   -9.520;  651.980
1058.961;   20.484;  -13.160;  678.940
1059.508;   19.178;  -12.920;  643.820
1060.055;   19.177;  -11.920;  581.780
1060.601;   20.612;  -11.500;  624.300
1061.148;   19.342;  -14.330;  616.820
1061.694;   18.205;  -16.870;  592.580
1062.241;   18.638;  -10.330;  596.320
1062.787;   19.374;  -10.620;  663.140
1063.334;   20.330;  -10.110;  808.560
1063.880;   18.700;  -13.400;  668.360
1064.426;   18.153;  -10.680;  706.820
1064.972;   17.941;   -9.920;  601.340
1065.518;   17.400;  -10.980;  566.640
1066.065;   18.378;  -14.890;  624.460
1066.611;   17.052;  -12.870;  598.800
1067.157;   18.861;  -12.950;  641.860
1067.703;   17.562;  -13.540;  668.480
1068.249;   17.759;  -13.540;  605.220
1068.794;   16.810;  -12.600;  626.880
1069.340;   17.051;  -10.620;  578.960
1069.886;   17.668;  -12.830;  590.700
1070.432;   15.272;  -14.870;  541.720
1070.977;   16.133;  -11.980;  601.080
1071.523;   16.937;   -8.200;  573.060
1072.068;   17.141;  -12.330;  582.000
1072.614;   15.582;  -16.370;  527.760
1073.160;   17.008;  -11.100;  687.040
1073.705;   16.256;  -10.480;  572.520
1074.250;   15.950;  -14.520;  559.900
1074.796;   16.494;  -11.460;  655.160
1075.341;   15.703;  -11.950;  664.100
1075.886;   16.464;  -11.460;  594.240
1076.431;   15.171;  -13.770;  649.880
1076.976;   14.635;  -12.680;  639.220
1077.521;   14.052;  -13.170;  583.080
1078.067;   14.707;  -10.860;  579.400
1078.612;   15.753;  -13.920;  661.620
1079.156;   14.983;  -13.880;  601.540
1079.701;   14.926;  -13.120;  693.260
1080.246;   15.827;   -9.940;  696.300
1080.791;   14.829;  -14.740;  625.020
1081.336;   14.459;  -13.750;  659.320
1081.880;   14.519;  -13.400;  649.680
1082.425;   14.006;  -12.220;  573.480
1082.970;   16.122;  -11.610;  717.040
1083.514;   13.941;  -13.580;  597.000
1084.059;   13.215;  -12.810;  586.720
1084.603;   13.727;  -12.320;  565.840
1085.147;   13.503;  -13.190;  645.220
1085.692;   14.325;  -12.480;  716.800
1086.236;   12.710;  -13.020;  503.140
1086.780;   15.458;   -9.190;  751.440
1087.325;   14.053;  -12.480;  654.620
1087.869;   12.540;  -12.450;  610.700
1088.413;   13.545;  -12.240;  705.040
1088.957;   11.940;   -9.020;  543.400
1089.501;   14.418;  -10.320;  766.640
1090.045;   12.958;  -12.720;  726.480
1090.589;   10.518;  -13.690;  569.920
1091.133;   12.925;  -10.020;  673.340
1091.676;   13.007;  -12.330;  591.940
1092.220;   11.754;  -14.970;  600.920
1092.764;   12.908;  -12.430;  706.960
1093.307;   12.895;   -9.800;  673.780
1093.851;   10.876;  -14.970;  556.540
1094.395;   11.613;  -15.310;  683.140
1094.938;   10.763;  -10.370;  632.520
1095.482;   12.036;  -11.050;  559.800
1096.025;   12.011;  -11.840;  710.880
1096.568;   11.205;  -12.840;  779.280
1097.112;    9.288;  -14.700;  508.180
1097.655;   12.088;   -8.720;  603.000
1098.198;   10.419;  -13.610;  600.180
1098.741;    9.421;  -13.350;  612.860
1099.285;   10.994;  -11.230;  657.300
1099.828;    9.922;  -11.840;  439.400
1100.371;   10.911;  -10.840;  608.160
1100.914;   10.115;  -14.190;  682.660
1101.457;   10.014;  -11.240;  679.900
1101.999;    9.435;  -11.270;  584.680
1102.542;   10.462;  -11.480;  641.440
1103.085;    8.855;  -11.750;  658.500
1103.628;    9.573;  -11.400;  762.060
1104.170;   10.140;  -10.490;  588.280
1104.713;   10.461;  -10.600;  646.700
1105.256;    8.612;  -14.360;  557.440
1105.798;    8.022;  -13.210;  499.980
1106.341;   11.065;  -10.270;  728.900
1106.883;    9.084;  -12.200;  521.340
1107.425;    8.426;  -13.110;  668.180
1107.968;    8.228;  -12.840;  612.380
1108.510;    9.342;   -6.480;  684.960
1109.052;    8.118;  -13.940;  612.620
1109.594;    8.167;  -13.690;  554.440
1110.136;    9.156;  -11.880;  643.220
1110.679;    8.025;   -9.500;  633.080
1111.221;    8.698;  -14.160;  604.460
1111.763;    7.003;  -13.980;  559.220
1112.304;    7.172;  -13.880;  547.140
1112.846;    8.863;  -12.210;  666.240
1113.388;   10.804;  -11.390;  942.180
1113.930;    7.068;  -14.540;  694.200
1114.472;    6.859;  -12.640;  606.540
1115.013;    6.557;  -11.620;  551.280
1115.555;    6.692;  -13.640;  587.100
1116.097;    5.564;  -15.380;  579.480
1116.638;    7.488;  -12.640;  684.600
1117.180;    8.421;   -9.850;  667.740
1117.721;    6.918;  -13.690;  568.580
1118.262;    6.454;  -12.680;  677.960
1118.804;    6.908;  -12.530;  637.340
1119.345;    6.598;  -11.690;  578.400
1119.886;    7.437;  -13.380;  704.040
1120.427;    6.170;  -14.070;  589.020
1120.969;    4.976;  -13.500;  597.920
1121.510;    5.659;  -11.480;  563.060
1122.051;    6.610;  -12.830;  723.580
1122.592;    5.167;  -14.290;  655.420
1123.133;    4.401;  -12.400;  547.940
1123.673;    6.671;  -10.130;  706.480
1124.214;    5.821;  -12.930;  612.460
1124.755;    6.315;  -14.380;  639.460
1125.296;    5.531;  -14.000;  627.320
1125.836;    6.214;  -10.070;  691.500
1126.377;    5.306;  -12.640;  599.660
1126.918;    5.111;  -12.960;  614.980
1127.458;    5.114;  -13.350;  622.220
1127.999;    6.113;  -10.750;  656.980
1128.539;    5.817;  -12.350;  694.240
1129.079;    4.099;  -14.860;  632.720
1129.620;    4.086;  -13.840;  558.100
1130.160;    4.496;  -12.330;  539.480
1130.700;    5.291;  -14.530;  640.840
1131.240;    4.628;  -12.530;  643.700
1131.781;    3.409;  -14.450;  619.680
1132.321;    5.058;   -9.790;  599.120
1132.861;    3.646;  -14.860;  564.200
1133.401;    2.680;  -14.290;  593.940
1133.941;    3.692;  -11.750;  626.280
1134.481;    3.989;   -9.920;  597.580
1135.020;    3.872;  -12.290;  609.160
1135.560;    3.341;  -11.650;  674.940
1136.100;    2.936;  -16.270;  501.160
1136.640;    3.300;  -10.890;  510.480
1137.179;    3.782;  -14.180;  537.960
1137.719;    3.293;  -16.250;  605.400
1138.258;    3.409;  -14.230;  587.360
1138.798;    3.990;   -9.090;  663.780
1139.337;    2.374;  -15.130;  482.840
1139.877;    3.429;  -13.680;  642.360
1140.416;    4.552;  -11.320;  878.060
1140.955;    2.839;  -10.860;  535.380
1141.494;    3.029;  -12.920;  669.280
1142.034;    2.169;  -13.930;  583.520
1142.573;    3.142;  -11.440;  646.280
1143.112;    2.964;  -12.000;  553.480
1143.651;    2.041;  -13.670;  536.480
1144.190;    3.165;  -12.730;  691.640
1144.729;    2.188;  -14.560;  607.420
1145.267;    3.351;  -11.830;  584.900
1145.806;    3.112;  -12.230;  637.040
1146.345;    1.073;  -14.130;  635.020
1146.884;    1.498;  -11.590;  622.500
1147.422;    1.661;  -12.550;  533.060
1147.961;    3.253;  -11.180;  708.460
1148.500;    2.720;  -11.510;  669.720
1149.038;    2.559;  -11.640;  632.500
1149.577;    2.389;  -10.130;  698.640
1150.115;    0.363;  -13.970;  452.280
1150.653;    1.676;  -14.520;  607.340
1151.192;    1.019;  -12.810;  552.920
1151.730;    1.642;   -9.100;  652.560
1152.268;    1.162;  -12.220;  589.520
1152.806;    1.233;  -14.140;  571.180
1153.344;   -0.590;  -12.350;  577.640
1153.882;    2.143;   -8.980;  600.060
1154.421;    0.739;  -15.190;  470.620
1154.958;   -0.001;  -15.210;  595.240
1155.496;    1.682;  -12.850;  645.280
1156.034;    1.219;   -9.940;  721.880
1156.572;    2.504;  -13.570;  667.060
1157.110;   -0.890;  -14.590;  473.940
1157.647;    0.643;  -13.030;  676.960
1158.185;    0.667;  -12.140;  564.320
1158.723;   -0.571;  -14.390;  509.200
1159.260;    0.109;  -14.090;  701.700
1159.798;    0.180;  -11.920;  658.160
1160.335;    0.756;  -11.110;  631.820

