
Integration time [ms]:   3.276
Averaging Nr. [scans]: 1000
Smoothing Nr. [pixels]: 0
Data measured with spectrometer [name]: 7414430SP
Wave   ;Sample   ;Dark     ;Reference
[nm]   ;[counts] ;[counts] ;[counts] 

288.544;  149.791;    7.793;  793.890
289.143;  153.661;    7.462;  681.602
289.742;  154.422;    8.602;  828.814
290.341;  139.804;    1.321;  789.841
290.940;  128.399;   -0.709;  730.702
291.538;  128.991;    0.881;  881.108
292.137;  129.363;    0.122;  792.581
292.736;  133.516;   -1.929;  975.101
293.335;  130.610;   -8.229;  735.086
293.934;  130.575;   -5.279;  781.677
294.532;  129.437;   -1.369; 1031.958
295.131;  115.192;   -7.641;  834.394
295.730;  114.305;   -8.420;  809.588
296.328;  114.828;   -5.611;  783.442
296.927;  115.236;   -5.781;  779.652
297.525;  117.027;   -6.361;  781.236
298.124;  106.443;  -11.382;  654.009
298.722;  109.606;   -7.641;  761.933
299.321;  108.286;   -6.811;  708.597
299.919;  106.045;   -6.991;  751.918
300.518;  103.152;  -10.362;  689.338
301.116;  104.780;   -9.581;  691.381
301.715;  105.514;   -4.891;  730.222
302.313;  103.609;   -8.801;  704.943
302.911;   99.293;   -8.522;  733.830
303.509;  104.437;   -6.171;  925.627
304.108;  101.819;   -7.311;  760.383
304.706;  101.317;   -8.321;  801.664
305.304;   95.850;  -10.222;  796.707
305.902;  101.482;   -6.021;  784.484
306.500;   97.243;   -4.971;  728.200
307.098;   95.652;   -7.061;  746.560
307.696;   93.390;   -8.801;  780.432
308.294;   93.278;   -6.411;  731.359
308.892;   96.963;   -2.901;  759.769
309.490;   92.241;   -5.041;  712.161
310.088;   90.890;   -5.002;  788.444
310.686;   94.432;   -2.041;  821.749
311.284;   91.309;   -2.351;  766.040
311.882;   88.196;   -4.422;  731.225
312.480;   84.796;   -4.192;  697.167
313.078;   86.335;   -1.172;  808.331
313.675;   87.047;   -2.601;  691.600
314.273;   82.666;   -1.312;  797.837
314.871;   81.441;   -3.942;  589.829
315.468;   79.638;   -2.802;  652.090
316.066;   82.984;   -0.701;  694.427
316.664;   75.774;   -4.362;  656.351
317.261;   78.964;   -2.872;  910.128
317.859;   74.620;   -2.022;  768.735
318.456;   76.047;   -0.531;  830.096
319.054;   72.316;   -3.912;  787.828
319.651;   70.314;   -4.752;  759.928
320.249;   69.086;   -2.602;  810.188
320.846;   68.311;   -0.821;  714.286
321.443;   65.310;   -4.642;  832.135
322.041;   61.868;   -5.002;  812.315
322.638;   59.910;   -3.982;  701.456
323.235;   61.135;   -3.411;  665.683
323.833;   58.347;   -7.361;  740.354
324.430;   53.804;   -8.611;  615.900
325.027;   54.067;   -4.061;  876.855
325.624;   54.732;   -4.031;  644.532
326.221;   51.910;   -7.481;  689.717
326.818;   50.472;   -5.281;  818.332
327.415;   54.205;   -7.460;  748.828
328.012;   54.479;   -5.510;  690.585
328.609;   52.407;   -7.880;  731.389
329.206;   50.166;   -8.331;  778.621
329.803;   50.842;   -5.121;  737.841
330.400;   54.183;   -4.510;  704.260
330.997;   54.641;   -6.441;  817.147
331.594;   53.403;   -8.831;  788.185
332.191;   58.530;   -7.621;  728.722
332.787;   61.040;   -4.591;  844.463
333.384;   59.920;   -7.412;  763.093
333.981;   58.546;   -8.293;  815.687
334.578;   61.133;   -7.052;  708.378
335.174;   64.612;   -3.102;  731.469
335.771;   63.556;   -5.943;  836.456
336.367;   60.636;   -7.393;  710.631
336.964;   64.144;   -4.063;  793.266
337.561;   62.075;   -3.813;  731.112
338.157;   58.351;   -4.654;  911.916
338.754;   55.699;   -7.934;  796.589
339.350;   54.221;   -4.414;  722.493
339.946;   56.482;   -4.664;  773.135
340.543;   48.276;   -6.375;  846.136
341.139;   42.413;   -9.815;  720.836
341.735;   40.538;   -4.526;  772.593
342.332;   38.996;   -4.895;  691.472
342.928;   39.861;   -4.295;  795.394
343.524;   33.574;   -5.476;  761.684
344.120;   29.914;   -5.856;  738.562
344.716;   33.308;   -2.155;  723.717
345.313;   31.841;   -6.275;  795.342
345.909;   25.595;   -8.815;  627.336
346.505;   27.281;   -5.305;  740.247
347.101;   28.598;   -2.674;  827.864
347.697;   28.187;   -4.344;  785.398
348.293;   23.111;   -9.975;  627.244
348.889;   24.026;   -5.774;  745.914
349.485;   23.535;   -5.004;  688.205
350.081;   23.551;   -4.704;  772.592
350.676;   18.402;   -6.635;  691.606
351.272;   22.549;   -4.504;  809.530
351.868;   23.673;   -3.914;  780.497
352.464;   20.637;   -9.044;  723.932
353.059;   16.752;   -8.314;  646.017
353.655;   20.170;   -7.024;  777.063
354.251;   21.675;   -5.343;  759.845
354.846;   15.575;   -8.604;  740.646
355.442;   13.763;   -6.945;  753.071
356.038;   15.363;   -7.564;  751.708
356.633;   16.578;   -5.814;  728.594
357.229;   14.001;   -7.364;  724.757
357.824;   11.447;   -8.024;  703.600
358.420;   11.539;   -9.384;  679.726
359.015;   11.649;   -5.104;  695.357
359.610;   13.102;   -6.854;  763.920
360.206;    6.217;  -10.185;  603.240
360.801;    9.482;   -7.054;  646.503
361.396;   12.039;   -5.034;  725.975
361.992;    7.329;   -8.284;  668.220
362.587;    4.858;   -8.625;  670.160
363.182;    5.770;   -7.674;  689.631
363.777;    7.101;   -5.164;  738.242
364.372;    7.261;   -8.604;  737.314
364.967;    2.357;   -9.055;  680.744
365.563;    8.192;   -6.114;  815.567
366.158;    5.271;   -5.814;  685.161
366.753;    5.481;   -7.854;  649.263
367.348;    3.499;   -7.804;  746.056
367.942;    3.130;   -7.954;  697.298
368.537;    2.718;   -4.984;  754.245
369.132;    2.634;   -8.564;  703.428
369.727;   -0.686;   -8.855;  638.079
370.322;   -0.602;   -6.245;  580.186
370.917;   -0.251;   -6.425;  710.646
371.511;    2.788;   -6.294;  861.834
372.106;   -0.945;   -7.685;  776.964
372.701;   -4.284;   -7.335;  585.988
373.296;    1.806;   -4.564;  863.135
373.890;   -3.672;  -10.235;  647.840
374.485;   -5.493;   -7.885;  691.199
375.079;   -1.752;   -7.324;  738.685
375.674;   -0.587;   -3.494;  812.970
376.268;   -5.006;   -8.525;  691.759
376.863;   -9.633;  -10.086;  580.327
377.457;   -4.593;   -7.025;  662.490
378.052;   -5.857;   -3.585;  764.884
378.646;   -6.104;   -7.595;  741.167
379.240;   -7.172;   -8.335;  721.176
379.835;   -6.357;   -5.785;  636.978
380.429;   -8.027;   -4.335;  562.557
381.023;   -7.874;   -6.805;  779.205
381.617;  -10.451;   -9.195;  680.106
382.212;   -6.693;   -6.905;  685.303
382.806;   -6.519;   -3.745;  760.690
383.400;  -10.116;   -7.745;  672.281
383.994;  -10.998;   -9.765;  664.870
384.588;   -6.698;   -6.564;  697.701
385.182;   -5.644;   -5.344;  726.624
385.776;   -7.236;   -8.514;  706.875
386.370;  -10.528;   -9.555;  681.968
386.964;   -9.777;   -8.715;  684.155
387.558;   -7.848;   -6.174;  598.360
388.152;  -10.790;   -8.725;  681.959
388.745;   -9.138;   -7.965;  814.707
389.339;   -7.178;   -5.924;  747.642
389.933;   -6.457;   -5.524;  695.370
390.527;   -8.252;   -7.114;  859.029
391.120;  -14.932;  -10.725;  595.318
391.714;  -11.481;   -8.035;  711.633
392.308;   -7.715;   -3.574;  780.253
392.901;  -11.034;   -7.245;  642.460
393.495;  -13.510;   -9.285;  595.414
394.089;  -11.561;   -5.895;  760.452
394.682;  -11.604;   -4.295;  697.188
395.275;  -13.000;   -9.875;  719.927
395.869;  -13.968;   -8.485;  667.314
396.462;  -12.110;   -7.455;  616.609
397.056;   -8.535;   -5.424;  776.621
397.649;  -12.916;   -6.605;  731.575
398.242;  -11.119;   -8.224;  712.645
398.836;   -9.829;   -7.474;  766.408
399.429;  -10.143;   -7.094;  631.041
400.022;  -13.991;   -9.475;  665.902
400.615;  -11.925;   -7.145;  805.609
401.208;  -10.035;   -7.174;  691.451
401.802;  -11.132;   -5.515;  699.329
402.395;  -13.047;   -9.875;  683.502
402.988;  -14.070;   -8.845;  696.627
403.581;  -10.890;   -8.874;  646.878
404.174;   -8.454;   -5.324;  686.568
404.767;  -11.541;   -9.575;  638.583
405.360;  -14.400;  -10.965;  621.445
405.953;   -7.814;   -8.764;  759.034
406.545;   -7.745;   -7.514;  725.342
407.138;  -11.603;  -10.025;  618.350
407.731;  -11.013;  -10.034;  613.303
408.324;   -7.305;   -9.374;  660.554
408.917;   -7.985;   -6.534;  681.864
409.509;   -8.846;   -8.004;  740.396
410.102;  -11.389;   -9.875;  643.948
410.695;   -5.845;   -8.604;  665.758
411.287;   -6.185;   -6.794;  599.821
411.880;   -7.326;   -9.334;  585.421
412.472;  -10.807;  -10.254;  613.092
413.065;   -8.146;   -6.714;  629.408
413.657;   -5.307;   -7.234;  576.678
414.250;   -6.136;  -10.544;  646.681
414.842;   -7.776;   -9.744;  676.353
415.434;   -5.511;   -6.994;  570.463
416.027;   -0.879;   -5.893;  652.196
416.619;   -3.574;   -7.264;  713.400
417.211;   -3.738;  -10.374;  599.352
417.804;   -0.605;   -7.993;  628.499
418.396;   -3.589;   -7.234;  607.643
418.988;   -1.577;   -9.443;  659.238
419.580;   -5.103;  -10.724;  568.276
420.172;   -3.182;  -10.323;  536.196
420.764;    1.535;   -8.793;  672.482
421.356;    0.265;  -11.143;  636.898
421.948;   -0.457;   -8.293;  677.661
422.540;    4.532;   -7.893;  680.027
423.132;    3.970;   -7.082;  600.641
423.724;    0.978;   -8.653;  561.267
424.316;    2.341;  -10.213;  621.345
424.908;    5.622;   -9.762;  591.517
425.500;    7.400;   -5.572;  647.978
426.092;    7.270;   -8.422;  648.268
426.683;    5.730;   -9.283;  684.836
427.275;    8.916;   -7.852;  641.471
427.867;   10.997;   -5.272;  668.948
428.458;   10.844;   -7.682;  732.344
429.050;    9.733;  -10.612;  680.749
429.642;   11.019;   -9.882;  743.124
430.233;   12.218;   -6.962;  569.356
430.825;   13.783;   -6.842;  724.809
431.416;   11.009;   -9.672;  698.241
432.008;   14.380;   -6.552;  651.723
432.599;   15.236;   -6.891;  656.073
433.190;   12.486;  -10.912;  637.670
433.782;   11.557;  -11.172;  590.395
434.373;   18.246;   -6.061;  884.765
434.964;   18.123;   -8.251;  602.920
435.556;   15.919;   -9.722;  634.537
436.147;   18.331;   -9.082;  758.490
436.738;   18.376;   -8.041;  701.099
437.329;   23.071;   -7.341;  721.723
437.920;   17.238;   -8.162;  666.688
438.511;   16.517;  -11.802;  564.526
439.103;   22.992;  -10.191;  623.998
439.694;   25.416;   -7.601;  681.583
440.285;   26.565;   -8.541;  764.432
440.876;   23.738;   -9.751;  845.738
441.466;   23.442;   -9.401;  575.162
442.057;   29.013;   -7.760;  665.814
442.648;   27.813;   -9.971;  746.255
443.239;   25.660;  -11.001;  620.477
443.830;   30.664;   -7.990;  704.958
444.421;   32.434;   -7.910;  655.474
445.011;   28.945;   -8.131;  693.619
445.602;   28.060;   -7.111;  743.126
446.193;   30.374;  -10.920;  488.117
446.783;   35.410;   -6.500;  640.397
447.374;   30.610;   -8.671;  692.759
447.964;   32.066;  -10.781;  713.770
448.555;   39.995;   -9.650;  822.742
449.145;   36.713;   -8.660;  662.853
449.736;   37.432;   -8.990;  803.179
450.326;   36.971;   -9.500;  713.626
450.917;   41.942;   -8.680;  675.324
451.507;   41.457;   -7.520;  600.661
452.097;   41.932;   -8.590;  746.267
452.688;   42.486;  -11.340;  742.160
453.278;   42.796;  -10.100;  566.840
453.868;   47.476;   -6.019;  793.550
454.458;   45.737;   -9.440;  651.141
455.048;   45.833;  -10.560;  711.783
455.639;   47.164;  -11.799;  567.096
456.229;   51.564;   -6.899;  710.694
456.819;   52.416;   -7.389;  751.158
457.409;   52.660;  -11.119;  773.993
457.999;   55.293;   -9.289;  737.505
458.589;   55.679;   -6.139;  686.606
459.179;   56.184;   -8.729;  717.658
459.769;   53.697;   -9.789;  627.099
460.358;   58.465;  -10.259;  797.262
460.948;   59.096;   -7.299;  689.503
461.538;   60.259;  -10.289;  660.677
462.128;   57.812;  -11.269;  664.934
462.717;   64.799;   -9.368;  710.326
463.307;   67.872;   -7.908;  705.846
463.897;   63.697;   -9.599;  656.942
464.486;   62.868;   -9.769;  837.128
465.076;   67.773;   -8.048;  733.776
465.666;   71.556;   -9.358;  652.900
466.255;   69.206;   -7.919;  785.651
466.845;   67.885;  -11.689;  666.749
467.434;   70.800;   -7.818;  725.873
468.023;   72.967;   -7.678;  658.357
468.613;   70.146;  -10.939;  713.946
469.202;   74.016;  -10.118;  646.507
469.791;   77.949;   -9.108;  737.811
470.381;   79.968;   -6.058;  742.813
470.970;   80.125;  -10.428;  711.099
471.559;   79.964;  -10.268;  733.291
472.148;   83.085;   -8.448;  675.737
472.738;   86.016;   -6.917;  765.466
473.327;   85.880;  -11.978;  637.529
473.916;   84.775;  -11.888;  737.446
474.505;   88.696;   -9.437;  751.703
475.094;   92.797;   -6.747;  806.570
475.683;   92.014;   -9.367;  797.699
476.272;   92.572;  -12.637;  730.632
476.861;   95.360;  -10.027;  706.754
477.449;  103.164;   -8.716;  728.487
478.038;   97.575;   -9.577;  692.513
478.627;   97.435;   -9.718;  714.852
479.216;  104.182;   -8.947;  769.441
479.805;  108.399;   -6.256;  783.375
480.393;  107.572;   -7.937; 1008.945
480.982;  106.492;   -7.717;  874.501
481.571;  112.247;   -9.266;  858.333
482.159;  113.801;   -7.636;  705.386
482.748;  114.103;   -9.667;  821.385
483.336;  118.867;  -10.376;  858.209
483.925;  118.347;   -7.147;  774.373
484.513;  125.566;   -7.996;  758.962
485.102;  122.911;  -10.027;  810.965
485.690;  131.342;  -10.446; 1011.050
486.278;  133.208;   -8.446;  979.329
486.867;  134.829;   -6.356;  809.662
487.455;  136.049;   -9.136;  898.229
488.043;  137.726;  -10.646;  748.361
488.631;  146.594;   -7.456; 1005.079
489.220;  150.736;   -6.636;  908.626
489.808;  151.160;  -11.036;  741.415
490.396;  158.911;  -10.246;  914.645
490.984;  164.704;   -8.556;  830.161
491.572;  175.989;   -5.886;  940.315
492.160;  181.324;   -9.486;  919.081
492.748;  193.310;  -10.976;  884.341
493.336;  217.081;   -8.776; 1019.693
493.924;  245.175;   -5.465;  958.077
494.512;  273.946;   -9.986; 1066.638
495.100;  313.123;  -10.636; 1103.280
495.687;  369.525;  -10.885; 1206.373
496.275;  435.843;   -8.126; 1150.796
496.863;  510.545;  -10.586; 1281.171
497.451;  618.414;  -11.926; 1386.805
498.038;  753.304;  -10.885; 1556.729
498.626;  869.037;   -6.315; 1741.407
499.214; 1026.971;   -7.326; 2016.609
499.801; 1234.010;  -11.906; 2220.633
500.389; 1496.296;  -10.466; 2312.494
500.976; 1822.461;   -5.236; 2744.849
501.564; 2283.179;   -8.936; 3148.565
502.151; 2679.686;  -13.176; 3515.999
502.738; 3159.787;  -10.646; 3971.274
503.326; 3565.177;   -9.525; 4403.796
503.913; 3973.200;  -10.856; 5161.749
504.500; 4376.539;  -11.586; 5986.420
505.088; 4829.805;  -10.336; 6381.201
505.675; 5376.771;   -6.355; 6925.547
506.262; 6139.808;   -9.046; 7619.060
506.849; 6899.771;  -10.416; 8733.969
507.436; 7415.957;  -10.305; 9790.121
508.023; 8051.742;   -5.496; 9985.472
508.610; 8329.384;   -7.856;10434.618
509.197; 8988.563;  -10.097;11198.435
509.784;10424.297;  -10.886;12391.194
510.371;11546.262;   -9.315;13603.713
510.958;12359.180;   -9.936;14426.586
511.545;13186.710;   -9.326;15243.775
512.132;14061.128;  -10.075;15945.876
512.719;14697.629;   -7.796;16340.369
513.305;15723.804;  -10.606;18011.766
513.892;16565.121;  -11.486;19754.971
514.479;17995.641;   -9.126;20967.805
515.066;19529.752;   -6.026;22299.793
515.652;20883.209;   -8.466;22908.660
516.239;22274.354;  -10.886;23798.875
516.825;23407.010;  -11.496;25567.275
517.412;24528.928;   -5.796;28154.959
517.998;25165.041;  -10.506;28344.111
518.585;25246.002;  -10.076;27134.219
519.171;25777.887;   -8.315;27268.576
519.758;27387.605;   -8.596;28964.129
520.344;29250.574;   -8.466;30664.494
520.930;29183.527;  -11.006;32550.605
521.516;30739.912;  -10.495;35422.895
522.103;33246.961;   -5.526;38280.004
522.689;33820.547;   -8.746;37835.117
523.275;33200.965;  -11.376;37288.613
523.861;34416.875;  -11.156;37281.395
524.447;35960.207;   -8.135;37846.949
525.033;35871.090;   -7.896;38321.949
525.619;36049.848;  -12.476;38579.285
526.205;37630.648;   -9.516;40622.875
526.791;40087.063;   -6.926;42258.836
527.377;40279.281;   -8.346;42966.902
527.963;41934.371;   -8.717;42018.949
528.549;40339.129;  -11.016;42476.828
529.135;38879.813;   -8.536;41854.852
529.721;38238.352;   -9.666;41237.711
530.306;37578.586;  -10.066;41259.445
530.892;37362.551;  -11.356;41506.047
531.478;38795.082;   -6.596;43559.613
532.063;41962.188;   -8.836;47695.563
532.649;42454.672;  -10.047;50808.324
533.235;43296.574;   -9.746;51787.500
533.820;44064.797;   -6.566;52145.035
534.406;45680.000;  -10.817;51133.488
534.991;45447.695;   -9.416;49996.805
535.576;43930.781;   -9.036;48882.852
536.162;44429.016;   -6.156;46942.285
536.747;45406.926;  -11.607;45711.746
537.333;49262.227;  -11.787;48510.180
537.918;52402.441;  -12.437;50439.891
538.503;50913.785;   -7.196;50863.711
539.088;47252.559;  -10.556;50906.922
539.673;47089.289;   -8.767;52621.965
540.259;47324.129;  -10.026;52368.094
540.844;44609.449;   -7.416;50879.109
541.429;45935.496;   -9.467;52077.777
542.014;48784.633;   -9.527;52716.695
542.599;48054.902;   -9.946;52363.281
543.184;45637.555;   -7.927;53187.137
543.769;47257.184;   -9.297;54697.605
544.354;46720.609;  -10.127;53913.914
544.938;45385.707;   -9.267;49680.164
545.523;47314.211;   -6.506;47386.277
546.108;50053.703;   -9.787;49151.949
546.693;52097.664;  -11.587;51384.637
547.278;51931.051;  -10.986;51853.254
547.862;48919.391;   -8.206;51173.750
548.447;44217.574;  -10.067;51691.395
549.031;43880.879;   -9.637;52456.703
549.616;49004.949;   -9.926;52714.516
550.201;48127.000;   -6.347;52414.598
550.785;49360.969;   -7.917;52355.059
551.370;48417.297;  -10.867;54589.453
551.954;48035.582;   -9.047;58267.348
552.538;48737.609;   -7.827;59062.176
553.123;47004.754;  -10.287;58115.285
553.707;44971.258;  -12.178;56556.285
554.291;46572.852;   -8.717;56201.668
554.876;49070.645;   -7.457;55335.762
555.460;49218.664;  -10.387;54155.703
556.044;50172.379;   -9.618;53721.484
556.628;48762.613;  -11.567;53731.016
557.212;47455.688;   -8.097;54312.531
557.796;45778.633;  -11.077;53797.773
558.380;45654.820;  -11.108;56145.984
558.964;46176.227;   -9.057;57277.930
559.548;47390.273;   -6.977;56459.641
560.132;45747.488;  -11.457;54434.543
560.716;44289.891;  -11.378;54800.617
561.300;45405.875;   -9.577;57606.945
561.884;46635.738;   -7.127;58972.445
562.467;44929.793;   -7.118;57327.570
563.051;44092.547;  -13.358;54962.434
563.635;45076.473;  -10.178;52594.473
564.219;45515.277;   -7.837;50610.410
564.802;46508.691;  -11.398;49551.180
565.386;46359.145;  -12.788;48370.953
565.969;45550.734;   -9.077;48178.871
566.553;44758.684;   -6.207;49957.305
567.136;45360.199;   -8.568;50369.594
567.720;41654.145;  -11.868;49492.004
568.303;39619.977;   -8.268;50616.352
568.887;39757.668;   -8.698;50727.148
569.470;39994.207;   -6.808;51698.379
570.053;38495.055;  -13.188;52122.078
570.637;36779.113;  -12.037;52536.438
571.220;36665.371;   -8.577;51186.098
571.803;37283.027;   -8.498;51032.762
572.386;39474.289;  -10.498;49609.887
572.969;41917.340;   -9.388;48285.926
573.552;40093.656;   -8.338;47624.285
574.135;38862.625;   -8.518;45498.641
574.718;36521.555;  -13.628;41970.434
575.301;35329.320;  -10.893;41447.137
575.884;34137.086;   -8.158;40923.836
576.467;35389.414;  -10.328;45267.723
577.050;37513.234;  -13.058;48175.543
577.633;38930.051;   -9.458;47729.328
578.216;37916.984;   -8.928;47579.793
578.799;36989.832;   -9.358;47820.996
579.381;35727.914;  -11.388;48115.551
579.964;33896.434;  -11.718;47333.766
580.547;35604.773;   -8.588;46668.969
581.129;36871.996;   -8.859;44466.141
581.712;37778.516;  -10.729;44164.922
582.294;38317.773;  -11.118;46477.855
582.877;38067.582;   -5.218;48244.254
583.459;35620.094;   -8.679;47437.895
584.042;33587.109;  -10.709;46943.219
584.624;34230.324;  -11.669;46792.227
585.206;33820.676;   -8.218;46557.250
585.789;33873.188;  -10.569;45793.773
586.371;36769.949;  -11.859;43836.391
586.953;37337.957;  -10.719;42972.492
587.536;38626.922;   -7.198;42487.211
588.118;38454.195;   -8.720;42086.414
588.700;34800.820;  -10.439;43389.930
589.282;33936.992;   -9.198;43646.039
589.864;34927.418;   -9.199;43438.109
590.446;36040.797;  -11.319;43151.926
591.028;35943.418;  -11.159;42781.867
591.610;34841.012;  -11.779;42839.098
592.192;32167.234;   -7.668;42820.402
592.774;30525.162;  -11.949;40724.277
593.356;29298.559;  -12.129;39874.789
593.937;28355.234;  -10.669;39980.648
594.519;30614.092;   -6.509;42069.633
595.101;32652.426;  -10.849;42976.031
595.683;32696.154;  -11.679;44084.441
596.264;33751.129;   -9.049;43478.797
596.846;33038.770;   -8.849;43803.672
597.427;32961.121;   -9.570;42986.934
598.009;34730.109;  -12.620;42832.219
598.591;35120.000;  -10.039;42580.086
599.172;34156.848;  -10.369;43061.805
599.753;34268.984;   -9.140;41691.469
600.335;35962.109;  -11.430;40692.520
600.916;34252.379;   -9.939;39982.422
601.498;31565.945;   -8.479;40318.617
602.079;30061.682;  -10.920;40670.609
602.660;30010.463;  -11.480;41450.898
603.241;31544.010;  -11.699;41137.738
603.823;30276.314;   -9.579;38868.797
604.404;29894.723;  -10.620;38182.785
604.985;31498.936;  -10.450;38078.047
605.566;31265.504;   -9.129;38056.633
606.147;31500.053;   -7.510;37020.418
606.728;33039.676;  -10.660;37883.359
607.309;31510.480;  -11.740;38748.273
607.890;30883.709;   -9.759;38850.230
608.471;30489.891;   -8.250;37457.918
609.051;29739.629;   -9.240;36066.457
609.632;28628.852;  -12.120;35991.074
610.213;29298.553;   -9.110;37402.641
610.794;29930.793;   -8.030;38383.363
611.374;29578.717;   -8.110;40562.387
611.955;30199.631;  -13.560;38533.727
612.536;31494.074;  -11.400;36951.789
613.116;31424.703;   -8.070;37197.891
613.697;31678.695;  -10.830;38411.125
614.277;30028.453;  -11.641;38673.938
614.858;30924.027;  -13.310;37075.863
615.438;30091.770;   -7.460;35092.906
616.019;27338.275;   -7.601;33666.301
616.599;27953.125;  -12.020;34189.023
617.179;29787.248;  -11.780;36952.047
617.760;30746.385;   -8.570;39582.574
618.340;31745.664;  -11.471;38943.977
618.920;33034.363;  -11.170;37594.156
619.500;32939.688;  -11.071;37866.938
620.080;31995.357;   -7.750;37869.043
620.660;33136.602;  -12.711;36868.617
621.241;34572.473;  -10.211;36352.309
621.821;34844.621;  -10.961;35459.520
622.401;33842.984;   -7.720;35207.414
622.980;33110.492;   -8.981;35980.422
623.560;31522.238;   -9.331;37351.328
624.140;30278.867;   -9.850;34388.582
624.720;25153.336;   -7.451;32368.764
625.300;21656.680;   -9.070;32638.629
625.880;25051.445;  -12.601;34599.035
626.459;29046.527;  -11.751;36831.738
627.039;32199.369;   -9.281;38299.098
627.619;32073.518;   -8.801;38289.574
628.198;30463.908;  -12.071;37220.695
628.778;29590.879;   -9.461;37632.563
629.357;30217.416;   -8.491;38003.012
629.937;30208.852;   -9.721;38402.039
630.516;29857.121;   -9.951;37868.801
631.096;29616.082;  -11.731;35760.410
631.675;32241.961;   -8.572;35225.219
632.254;37313.922;  -11.282;35130.289
632.834;36605.016;  -13.322;35794.570
633.413;34634.465;  -10.301;35788.922
633.992;31823.814;   -8.582;34532.863
634.571;32754.582;   -8.352;33590.113
635.151;35725.961;  -11.912;34943.863
635.730;34085.320;  -10.511;35352.523
636.309;30545.770;   -7.731;35366.605
636.888;28055.113;   -9.952;36165.637
637.467;28964.002;  -11.672;37515.902
638.046;30652.834;   -8.901;39288.695
638.625;33852.852;   -7.912;38279.699
639.204;33559.352;  -10.022;37741.598
639.782;31971.793;  -12.252;38364.551
640.361;28233.623;  -10.041;36740.621
640.940;25405.746;  -11.161;34950.082
641.519;26151.004;   -9.701;34137.398
642.097;29120.691;  -11.271;35654.258
642.676;31758.033;   -8.651;35637.957
643.255;32321.746;   -8.711;36567.074
643.833;31545.674;   -9.581;37809.434
644.412;31611.697;  -13.711;37337.293
644.990;30707.256;  -11.811;37018.531
645.569;30846.973;   -9.411;36518.469
646.147;29832.004;  -10.291;36186.430
646.726;29444.281;  -12.401;36267.688
647.304;30597.736;  -10.411;36647.625
647.882;32532.574;   -9.651;39286.742
648.461;34228.953;   -9.631;39157.703
649.039;32446.146;  -11.881;35412.883
649.617;31630.510;   -9.661;34744.918
650.195;31250.688;   -9.301;35403.098
650.773;29737.689;  -10.511;35053.797
651.352;27341.471;  -11.521;33756.816
651.930;25106.230;  -12.211;31868.773
652.508;23625.406;   -9.171;33121.551
653.086;27669.924;   -9.371;33564.793
653.663;30471.570;  -13.161;34054.668
654.241;29307.895;  -13.031;35693.309
654.819;30917.957;   -9.371;36422.906
655.397;30993.955;  -10.511;38213.484
655.975;30647.703;  -10.371;39507.625
656.553;30382.646;  -10.051;39498.223
657.130;28752.182;  -10.061;40395.480
657.708;28088.955;   -9.561;39242.020
658.286;28168.664;  -11.511;38920.020
658.863;29484.549;  -10.261;40202.898
659.441;32670.029;   -7.531;39677.938
660.018;32144.652;   -9.501;40413.355
660.596;30899.141;  -13.301;39931.414
661.173;32735.527;  -11.211;39604.531
661.750;32809.055;   -9.951;39700.070
662.328;31724.656;   -9.390;39292.809
662.905;30853.314;  -11.330;38235.648
663.482;26401.797;   -9.050;36212.305
664.060;24539.623;   -8.240;35944.945
664.637;27414.494;  -10.050;35170.785
665.214;29368.260;  -11.760;34197.523
665.791;30913.527;  -10.530;34549.520
666.368;29589.156;   -9.690;35118.578
666.945;30242.039;   -9.320;36019.418
667.522;31854.553;  -11.860;36048.438
668.099;31628.021;  -10.770;36243.914
668.676;30374.730;   -6.260;35958.875
669.253;28965.848;   -7.000;37384.730
669.830;29677.348;  -10.190;36779.629
670.407;29492.861;   -9.550;35231.289
670.984;29395.584;   -9.260;35544.270
671.560;29848.641;   -9.280;35466.867
672.137;29035.363;  -11.810;34280.863
672.714;29911.945;  -11.490;34632.863
673.290;30398.596;   -7.740;35135.422
673.867;30586.773;  -10.660;36114.480
674.443;30509.254;  -12.230;36152.859
675.020;28707.912;  -10.450;35327.238
675.596;29815.215;   -9.260;35795.176
676.173;30276.686;  -10.780;35430.355
676.749;30048.502;  -13.690;33549.516
677.326;30054.566;  -11.980;32210.012
677.902;30067.365;   -8.630;32068.871
678.478;29393.977;  -10.730;32583.891
679.054;28779.369;  -10.520;32088.928
679.631;29048.396;  -11.920;30978.848
680.207;30659.055;   -7.490;33160.887
680.783;32249.150;   -9.860;35570.363
681.359;31273.326;  -13.380;36125.184
681.935;30682.197;  -12.480;35240.922
682.511;29981.717;   -7.900;34429.961
683.087;30185.193;   -7.710;34463.680
683.663;29733.262;  -11.480;34648.898
684.239;28407.682;  -14.090;34546.457
684.815;27999.031;   -7.560;35586.375
685.390;28387.832;   -9.910;35821.895
685.966;28822.941;  -11.159;35085.871
686.542;31198.785;  -11.169;34198.230
687.118;33388.480;   -5.959;32847.707
687.693;33598.230;  -10.329;32794.027
688.269;33222.785;  -12.059;33072.367
688.844;31311.637;  -10.909;33141.664
689.420;29065.689;   -8.019;33965.742
689.995;26788.256;   -8.399;34655.523
690.571;25454.357;  -10.949;33576.742
691.146;25909.307;   -9.619;32657.219
691.722;25415.662;   -8.999;32526.979
692.297;25347.246;  -11.589;33014.617
692.872;27155.850;  -11.739;34012.254
693.448;26754.715;  -11.059;34237.434
694.023;26019.660;  -10.139;34142.672
694.598;28030.416;   -9.029;34132.031
695.173;28338.717;  -13.319;34205.250
695.748;27563.309;  -10.169;32882.488
696.323;27568.803;   -8.339;32864.906
696.898;27788.102;   -8.169;33170.004
697.473;27754.260;  -12.309;32432.984
698.048;27223.822;  -10.989;31649.303
698.623;27109.512;   -9.329;30778.141
699.198;29057.760;   -9.849;31140.119
699.773;30001.314;  -12.329;31764.299
700.348;28326.170;  -10.389;31780.816
700.922;28317.451;   -9.269;32046.375
701.497;29140.668;   -9.329;32603.574
702.072;29248.445;  -10.789;34799.871
702.646;27931.039;  -10.839;35793.172
703.221;25948.260;   -9.099;35201.590
703.795;27986.016;  -10.939;34764.527
704.370;28296.133;  -12.859;34307.367
704.944;28796.248;  -11.559;33509.887
705.519;29744.281;   -7.939;31388.584
706.093;31113.064;  -10.499;31340.104
706.668;31381.549;  -11.289;32630.281
707.242;30397.830;  -11.509;32728.779
707.816;28830.525;   -9.639;32947.238
708.390;27203.600;  -11.429;33277.855
708.965;27683.621;  -11.869;33834.336
709.539;27807.342;  -11.689;33709.273
710.113;28312.275;  -10.478;33044.313
710.687;27723.295;  -10.228;31953.992
711.261;25940.744;  -13.698;30505.949
711.835;25755.256;  -13.378;30262.369
712.409;26595.709;   -9.698;31254.447
712.983;28583.592;  -11.898;32754.986
713.557;29516.602;  -15.138;34018.824
714.131;29124.590;  -14.098;34579.625
714.704;28237.979;   -9.958;33890.262
715.278;26025.551;  -10.028;33531.102
715.852;25061.527;  -11.148;33601.660
716.425;25821.684;   -9.068;33515.117
716.999;26586.176;  -10.038;33185.555
717.573;27645.475;   -9.798;33905.996
718.146;28723.582;  -12.378;35199.293
718.720;28670.602;  -11.918;35060.551
719.293;28082.947;   -8.088;34973.230
719.867;30905.053;  -10.888;36394.449
720.440;30505.402;  -11.938;36663.008
721.013;28824.068;  -12.818;35102.426
721.587;27525.680;  -10.298;33985.266
722.160;26587.199;  -10.048;33524.965
722.733;25504.518;  -12.108;32987.043
723.306;25760.688;  -10.818;33066.301
723.880;28161.400;   -8.908;33399.500
724.453;30084.291;   -9.878;33468.297
725.026;29166.447;  -11.188;33816.637
725.599;26540.586;  -11.678;32797.996
726.172;26878.674;   -9.618;33187.434
726.745;27909.471;   -8.258;35136.613
727.318;29236.164;  -12.978;35751.730
727.891;29630.529;  -12.148;35890.430
728.463;29295.738;   -8.968;34822.090
729.036;28362.930;  -10.188;32895.086
729.609;28759.531;  -11.788;31823.225
730.182;25775.844;  -11.788;31445.283
730.754;23376.221;  -10.268;32373.223
731.327;23413.748;   -9.998;33676.820
731.900;23708.920;  -12.228;33417.000
732.472;25001.248;  -13.848;31978.498
733.045;26842.105;   -8.698;30368.777
733.617;26872.809;  -10.607;30574.215
734.190;26489.135;  -11.507;31280.975
734.762;23620.816;  -13.647;31674.412
735.334;21904.629;   -9.767;31247.291
735.907;22633.572;   -9.897;29876.211
736.479;22765.266;  -11.637;29808.488
737.051;22436.980;   -9.567;30233.547
737.623;23328.586;   -8.187;31469.086
738.195;24073.883;  -11.187;31784.225
738.768;25944.697;  -12.337;32120.523
739.340;26134.115;  -12.227;32094.342
739.912;24966.453;  -11.057;31312.680
740.484;23555.131;  -10.207;31946.238
741.056;22498.363;  -10.047;32984.059
741.628;24336.496;  -13.627;33897.715
742.199;26568.270;   -7.177;33213.016
742.771;24826.877;  -10.797;31369.113
743.343;22480.418;  -11.997;31865.473
743.915;21536.566;  -12.867;32388.631
744.487;21648.049;   -7.617;31079.568
745.058;21830.545;   -9.557;30570.107
745.630;22233.262;   -9.877;29970.127
746.201;22990.396;  -14.177;29186.766
746.773;23427.127;   -9.237;28805.723
747.344;23326.266;   -9.847;29591.223
747.916;22078.076;  -11.657;31412.201
748.487;22290.541;  -10.587;32194.898
749.059;23345.332;   -8.707;32533.719
749.630;23917.350;  -10.537;32158.518
750.201;22989.029;  -11.687;30855.395
750.773;21288.770;  -11.647;28622.555
751.344;21222.162;   -7.147;28405.732
751.915;22435.443;   -9.757;28461.551
752.486;22366.363;  -12.427;27842.850
753.057;20193.934;  -12.227;27845.008
753.628;19026.232;  -10.417;27728.107
754.199;20181.516;  -11.767;27381.086
754.770;21150.887;  -11.187;25882.203
755.341;21069.121;  -10.507;25886.184
755.912;21068.396;   -9.387;26050.861
756.483;20630.473;  -10.647;26798.779
757.054;18882.385;  -11.837;27048.238
757.625;17589.770;  -12.716;26294.838
758.195;17329.459;   -9.666;26142.076
758.766;17126.652;   -8.656;26392.234
759.337;17906.619;  -12.856;26334.594
759.907;19513.609;  -13.366;27579.652
760.478;20380.240;   -8.576;28352.770
761.048;19739.281;  -10.526;27325.088
761.619;18908.152;  -11.116;26460.428
762.189;18952.531;  -12.136;26029.826
762.760;20103.438;   -9.456;26430.145
763.330;21210.326;   -7.136;26670.902
763.900;20672.217;  -11.786;26603.021
764.471;18147.234;  -11.546;25542.740
765.041;16875.699;   -8.096;24358.459
765.611;16923.836;   -8.876;23991.297
766.181;17325.609;  -12.196;24470.236
766.751;18289.516;  -11.636;24845.975
767.321;18023.219;  -10.156;24533.633
767.891;16036.187;  -11.766;24916.492
768.461;15508.453;  -14.936;24776.771
769.031;16023.637;  -12.356;24757.988
769.601;17530.090;   -7.526;24181.088
770.171;17408.498;  -10.766;23670.387
770.741;16741.016;  -13.176;22960.045
771.311;16989.443;  -10.616;22917.523
771.880;17343.453;   -9.576;23562.941
772.450;17039.816;  -10.336;24216.500
773.020;16994.902;  -13.516;24140.398
773.589;16223.234;  -13.466;24414.857
774.159;15557.305;   -8.686;23858.717
774.729;15260.103;   -9.476;22942.135
775.298;14846.501;  -13.666;22324.033
775.867;14491.195;  -11.716;21140.313
776.437;14539.457;   -9.906;20838.092
777.006;14318.258;  -12.166;20599.510
777.576;14193.440;  -12.356;20508.809
778.145;14323.505;  -11.646;20732.947
778.714;14212.071;   -8.226;21062.465
779.283;13500.165;   -9.556;20949.664
779.853;13004.015;  -14.116;20508.623
780.422;13483.457;  -11.506;20649.082
780.991;13073.710;   -9.556;21527.520
781.560;11935.093;   -9.095;22632.658
782.129;11765.295;  -12.135;23048.277
782.698;11786.913;  -10.865;23438.555
783.267;11375.877;   -9.335;23267.734
783.836;11333.723;  -11.045;22415.133
784.404;12349.688;  -13.865;20443.152
784.973;12899.777;  -13.095;19699.150
785.542;12842.269;  -11.575;19763.828
786.111;12686.487;   -9.705;20341.408
786.679;12172.385;  -12.105;20207.967
787.248;11885.768;  -12.455;19516.465
787.817;11702.411;  -11.535;18900.363
788.385;11313.288;   -9.765;17879.121
788.954;10755.346;  -14.005;17658.301
789.522;10254.604;  -11.955;17788.879
790.090;10823.648;  -10.135;18118.277
790.659;11218.676;  -10.975;18338.736
791.227;10715.564;  -13.375;18508.615
791.795;11151.030;  -12.375;17898.254
792.364;11506.023;  -10.725;17295.133
792.932;11775.115;   -9.715;16822.051
793.500;11934.938;  -12.675;17040.148
794.068;12191.375;  -13.495;17179.787
794.636;12320.728;  -10.885;16664.246
795.204;11738.747;  -11.045;16524.545
795.772;11783.466;  -13.175;17274.564
796.340;11297.424;  -12.445;17891.002
796.908;11116.802;   -9.735;17648.561
797.476;11047.713;   -9.815;17064.080
798.044;10628.486;  -13.985;16672.777
798.612; 9830.345;  -13.115;17023.996
799.180; 9438.422;  -10.185;16561.615
799.747; 9373.390;   -9.055;15962.773
800.315; 9120.525;  -12.385;15296.992
800.883; 8778.373;  -15.035;14801.771
801.450; 8783.661;  -10.365;14534.430
802.018; 8848.330;   -9.855;14173.248
802.585; 8972.197;  -11.905;14029.547
803.153; 9005.321;  -11.585;13836.846
803.720; 8831.433;   -9.095;13567.324
804.287; 8400.335;   -9.135;13360.622
804.855; 7984.674;  -11.604;13681.981
805.422; 7864.557;  -11.794;13536.560
805.989; 7885.846;  -10.734;13355.958
806.556; 8066.664;  -10.444;13747.896
807.124; 8312.322;  -12.764;13987.376
807.691; 8269.442;  -12.964;14038.674
808.258; 8073.137;  -11.134;14120.152
808.825; 7760.308;   -9.854;13860.111
809.392; 7828.699;  -10.504;13268.790
809.959; 7367.955;  -13.054;12680.389
810.526; 6938.457;   -8.294;12427.308
811.093; 6991.848;   -8.394;12030.105
811.659; 7595.838;  -12.304;11653.664
812.226; 8071.939;  -13.944;11637.183
812.793; 7757.540;  -10.484;11611.521
813.360; 7131.750;  -10.144;11885.181
813.926; 6838.920;  -11.684;12770.539
814.493; 6648.670;  -13.644;12677.638
815.060; 6276.958;   -9.724;11974.336
815.626; 6288.534;   -9.854;11594.715
816.193; 6679.411;  -13.254;11579.474
816.759; 6687.248;  -13.204;11666.972
817.325; 6752.895;   -9.434;11325.530
817.892; 7128.994;  -10.134;11105.369
818.458; 7561.579;  -13.474;10843.928
819.024; 7191.863;  -11.854;10714.406
819.591; 6887.982;  -10.244;10469.165
820.157; 6662.334;  -10.704;10235.523
820.723; 6156.421;  -12.324;10847.563
821.289; 5835.677;   -9.444;11040.980
821.855; 5733.961;   -8.374;10357.100
822.421; 5705.584;  -10.234; 9978.918
822.987; 5707.788;  -13.294; 9754.177
823.553; 5408.269;  -10.884;10065.755
824.119; 5238.612;   -8.884;10036.294
824.685; 5326.591;   -6.784;10029.192
825.251; 5412.451;  -12.004;10199.230
825.816; 5390.986;  -11.474; 9820.189
826.382; 5184.229;   -9.174; 9297.248
826.948; 5398.653;   -9.214; 9381.347
827.513; 5776.033;  -10.774; 9450.726
828.079; 5583.621;  -11.924; 9472.444
828.645; 5016.876;  -10.543; 9292.643
829.210; 4932.000;  -10.533; 9065.341
829.776; 4906.158;  -10.753; 9132.620
830.341; 4789.002;  -10.173; 9092.878
830.906; 4973.999;  -10.743; 9078.557
831.472; 5304.831;  -11.113; 8534.535
832.037; 5045.879;  -10.603; 8677.874
832.602; 4497.228;  -13.323; 8628.692
833.167; 4243.862;  -10.823; 8879.031
833.733; 4196.264;  -10.113; 9189.790
834.298; 4335.101;  -13.583; 9052.608
834.863; 4389.253;  -12.703; 8895.087
835.428; 4370.022;  -10.523; 8824.266
835.993; 4238.531;   -6.963; 8845.385
836.558; 4079.906;  -10.763; 8888.563
837.123; 4208.398;   -9.903; 8966.582
837.688; 4439.401;   -9.913; 8617.860
838.253; 4676.440;  -10.283; 8590.699
838.817; 4884.028;  -12.963; 8443.797
839.382; 4795.110;  -14.243; 8799.356
839.947; 4484.542;  -10.733; 8810.595
840.511; 4190.944;   -9.383; 8796.394
841.076; 3820.855;  -12.563; 8347.231
841.641; 3871.391;  -12.953; 8224.330
842.205; 3962.864;   -7.043; 8223.349
842.770; 4062.088;   -8.163; 8622.107
843.334; 4230.545;  -12.503; 8410.386
843.898; 4173.432;  -11.693; 8337.465
844.463; 4177.941;  -10.203; 8506.283
845.027; 3950.979;   -9.533; 8280.962
845.591; 3767.303;  -13.443; 8231.141
846.156; 3753.803;  -13.143; 7969.179
846.720; 3648.081;   -9.433; 7768.278
847.284; 3526.422;  -11.033; 7630.957
847.848; 3399.446;  -10.403; 7472.395
848.412; 3309.178;  -11.553; 7437.394
848.976; 3350.226;   -8.393; 7674.592
849.540; 3286.426;   -8.713; 7836.011
850.104; 3400.172;  -12.463; 7913.669
850.668; 3739.863;  -12.973; 7694.508
851.232; 3828.020;  -10.793; 7756.887
851.796; 3669.883;  -10.662; 7926.545
852.359; 3382.596;  -13.082; 7827.844
852.923; 3227.784;  -12.192; 7641.163
853.487; 3060.917;  -11.912; 7342.501
854.050; 3019.379;  -10.892; 7042.820
854.614; 3144.884;  -13.992; 7151.338
855.177; 3260.303;  -11.732; 7105.077
855.741; 3287.855;   -8.962; 6989.675
856.304; 3177.558;   -9.442; 6596.634
856.868; 3135.157;  -14.192; 6356.272
857.431; 3222.003;  -12.702; 6468.571
857.995; 3329.656;   -9.942; 6373.210
858.558; 3332.318;   -9.112; 6324.448
859.121; 3071.949;  -12.932; 6408.327
859.684; 2960.713;  -13.442; 6347.886
860.247; 3069.313;  -10.632; 6321.264
860.810; 3067.720;  -11.272; 6301.903
861.374; 2823.234;   -9.832; 6607.881
861.937; 2578.358;  -11.762; 6408.200
862.500; 2577.223;   -9.722; 6572.639
863.062; 2752.619;  -10.512; 6387.297
863.625; 2921.398;  -11.232; 6190.836
864.188; 3079.310;  -14.112; 5807.254
864.751; 3137.349;  -11.302; 5682.413
865.314; 3022.714;  -10.112; 5547.492
865.876; 2813.383;  -12.182; 5500.150
866.439; 2794.507;  -10.722; 5415.909
867.002; 2741.824;   -9.252; 5501.567
867.564; 2544.097;   -9.572; 5413.946
868.127; 2330.852;  -13.142; 5160.325
868.689; 2232.328;  -12.902; 5133.183
869.252; 2132.613;   -9.732; 5252.382
869.814; 2042.490;   -9.432; 5297.141
870.377; 2051.795;  -11.552; 5390.919
870.939; 2121.052;   -9.052; 5599.898
871.501; 2182.948;  -10.982; 5248.336
872.063; 2183.498;  -12.292; 4854.235
872.626; 2138.902;  -14.912; 4817.074
873.188; 2162.052;  -13.112; 4987.732
873.750; 2131.403;  -13.442; 4868.651
874.312; 2038.456;   -9.402; 4779.330
874.874; 1953.366;  -11.062; 4866.348
875.436; 1867.589;  -13.931; 4718.887
875.998; 1857.917;   -9.561; 4660.005
876.560; 1879.532;  -11.321; 4462.964
877.122; 1826.190;  -12.221; 4145.042
877.683; 1739.171;  -12.191; 4056.481
878.245; 1671.074;  -12.101; 3950.740
878.807; 1711.690;   -8.971; 4058.958
879.369; 1738.047;  -12.071; 3954.677
879.930; 1647.437;  -14.621; 3941.495
880.492; 1586.571;  -10.311; 4067.014
881.053; 1546.705;  -10.901; 3859.633
881.615; 1434.159;  -14.411; 3776.071
882.176; 1338.656;  -13.761; 3734.750
882.738; 1291.560;   -9.181; 3678.489
883.299; 1267.156;  -11.791; 3405.407
883.860; 1275.404;  -13.121; 3351.106
884.422; 1275.852;  -11.211; 3394.044
884.983; 1230.283;  -10.091; 3166.443
885.544; 1154.983;   -8.461; 3189.802
886.105; 1076.674;  -12.361; 3160.360
886.666; 1011.535;  -14.141; 3093.059
887.227;  954.506;  -11.361; 2941.957
887.788;  895.781;  -11.401; 2974.836
888.349;  836.140;  -13.791; 2721.214
888.910;  833.890;  -13.191; 2696.493
889.471;  839.286;   -9.881; 2560.172
890.032;  821.987;   -9.881; 2558.190
890.593;  800.384;  -10.371; 2567.669
891.153;  773.981;  -13.301; 2460.307
891.714;  725.461;  -11.431; 2372.046
892.275;  688.101;  -11.291; 2309.505
892.835;  650.600;  -11.471; 2382.543
893.396;  599.485;  -11.541; 2295.502
893.956;  544.348;  -11.181; 2162.420
894.517;  508.720;  -11.741; 2125.439
895.077;  503.228;  -11.671; 2086.978
895.638;  502.803;  -11.311; 2126.316
896.198;  475.404;   -9.831; 1838.275
896.758;  434.247;   -8.421; 1892.813
897.319;  404.115;  -12.351; 1792.232
897.879;  388.143;  -13.511; 1762.751
898.439;  363.291;  -12.001; 1661.149
898.999;  340.642;  -10.180; 1781.468
899.559;  333.009;  -12.030; 1703.347
900.119;  328.576;  -15.710; 1537.525
900.679;  323.419;   -8.900; 1638.384
901.239;  309.100;   -8.340; 1527.902
901.799;  299.628;  -13.910; 1456.441
902.359;  293.025;  -13.460; 1357.140
902.919;  287.124;  -11.490; 1331.118
903.479;  275.046;  -12.110; 1317.257
904.038;  254.876;  -11.720; 1262.595
904.598;  239.681;  -13.610; 1152.034
905.158;  236.480;  -11.040; 1240.893
905.717;  229.674;  -10.900; 1233.691
906.277;  218.281;  -15.080; 1217.330
906.836;  208.631;  -13.380; 1222.408
907.396;  200.369;  -10.780; 1193.047
907.955;  193.763;   -8.500; 1182.526
908.515;  187.966;  -12.760; 1099.364
909.074;  181.591;  -11.900; 1092.863
909.633;  176.762;   -8.950; 1069.121
910.192;  172.956;   -8.770; 1196.460
910.752;  166.693;  -12.390; 1029.960
911.311;  163.706;  -13.680; 1009.780
911.870;  161.457;  -12.370;  971.460
912.429;  162.716;  -10.900; 1094.080
912.988;  162.588;  -11.690; 1081.060
913.547;  156.262;  -13.240;  940.380
914.106;  151.891;  -11.990;  999.420
914.665;  148.349;   -9.990;  984.020
915.224;  148.053;  -12.880; 1035.760
915.782;  149.197;  -12.350;  922.560
916.341;  147.424;   -9.110; 1049.840
916.900;  143.956;   -9.270;  925.260
917.458;  142.207;  -13.240;  884.220
918.017;  141.911;  -13.550;  942.600
918.576;  141.285;  -12.320;  904.440
919.134;  139.610;  -11.490;  837.980
919.693;  137.286;  -13.670;  893.060
920.251;  135.071;  -15.470;  876.500
920.809;  134.984;  -11.290;  839.580
921.368;  135.097;  -10.210;  885.360
921.926;  133.106;  -12.140;  842.940
922.484;  132.323;  -13.080;  903.360
923.042;  131.352;  -11.720;  880.340
923.601;  135.508;   -7.480;  998.680
924.159;  132.904;  -11.570;  935.560
924.717;  129.970;  -13.840;  841.080
925.275;  128.723;  -10.640;  903.240
925.833;  129.434;  -11.540;  779.320
926.391;  130.522;  -12.960;  938.380
926.949;  127.954;  -14.130;  857.680
927.506;  129.018;  -11.750;  903.500
928.064;  129.663;  -10.250;  877.580
928.622;  127.518;  -13.030;  880.100
929.180;  127.546;  -13.400;  814.180
929.737;  128.533;  -10.700;  808.540
930.295;  132.588;  -10.070;  928.480
930.853;  133.590;  -11.960;  849.100
931.410;  133.584;  -13.120;  821.120
931.968;  134.528;  -10.770;  940.660
932.525;  134.229;  -10.680;  909.380
933.082;  133.917;  -13.130;  811.440
933.640;  133.858;  -13.210;  925.900
934.197;  133.166;  -11.060;  886.360
934.754;  134.288;   -9.580;  897.780
935.312;  135.636;  -14.000;  863.340
935.869;  141.333;  -10.710; 1012.980
936.426;  141.694;   -9.860;  872.800
936.983;  142.551;   -9.710;  889.020
937.540;  141.604;  -13.990;  838.280
938.097;  140.381;  -14.040;  940.120
938.654;  140.685;  -10.310;  898.860
939.211;  143.596;  -10.560;  952.480
939.768;  146.939;  -13.900;  915.420
940.324;  149.460;  -14.760;  904.200
940.881;  150.337;  -10.370;  878.500
941.438;  152.561;   -8.260; 1021.200
941.995;  147.305;  -12.540;  992.560
942.551;  145.225;  -14.670;  875.620
943.108;  145.567;  -10.450;  937.920
943.664;  148.834;  -10.750;  869.340
944.221;  151.353;  -11.550; 1088.140
944.777;  148.594;  -14.770;  869.680
945.334;  149.096;  -12.820;  884.840
945.890;  151.267;  -10.130;  946.480
946.446;  150.990;  -13.470;  947.020
947.003;  152.608;  -12.120;  964.940
947.559;  154.759;   -9.980; 1063.040
948.115;  154.526;   -9.080; 1026.540
948.671;  152.079;  -10.830;  967.300
949.227;  149.488;  -12.440;  859.560
949.783;  147.212;  -12.910;  858.900
950.339;  149.656;  -10.270;  991.000
950.895;  149.307;  -13.630; 1023.840
951.451;  148.707;  -15.100;  925.280
952.007;  149.003;  -11.330;  998.540
952.563;  149.954;  -10.580;  937.780
953.118;  148.110;  -13.440;  904.940
953.674;  147.709;  -12.710;  935.780
954.230;  147.386;  -10.350;  949.640
954.785;  145.011;   -9.190;  936.640
955.341;  142.735;  -11.200;  998.160
955.897;  141.488;  -16.560;  834.660
956.452;  142.647;  -12.570;  953.840
957.008;  142.022;   -7.970; 1083.640
957.563;  139.259;  -11.940; 1009.540
958.118;  134.023;  -13.450;  877.700
958.674;  134.841;  -12.030;  946.780
959.229;  137.209;   -9.410; 1013.980
959.784;  133.597;  -12.000;  832.400
960.339;  132.827;  -14.780; 1001.280
960.894;  129.480;   -9.860;  963.760
961.449;  126.456;   -9.970;  859.960
962.004;  126.201;  -10.900; 1212.840
962.559;  120.404;  -13.150;  860.140
963.114;  118.242;  -13.740;  742.480
963.669;  118.400;   -9.820;  915.500
964.224;  116.790;  -13.890;  874.340
964.779;  115.296;  -12.600;  828.420
965.334;  115.698;  -10.950; 1017.860
965.888;  116.863;  -11.170;  875.360
966.443;  119.077;  -12.540;  972.380
966.998;  117.812;  -15.780;  819.460
967.552;  116.905;   -9.760;  908.380
968.107;  113.825;   -9.060;  868.300
968.661;  114.997;  -11.950;  922.440
969.216;  114.666;  -12.800;  856.280
969.770;  114.770;  -11.210;  917.200
970.324;  114.715;  -11.610;  923.140
970.879;  111.302;  -11.370;  947.180
971.433;  107.469;  -12.540;  952.720
971.987;  103.035;  -11.320;  895.340
972.541;  100.643;  -10.720;  917.100
973.095;   99.956;   -9.680; 1009.460
973.649;   98.560;  -11.440;  809.480
974.203;   97.919;  -11.210;  829.040
974.757;   98.481;  -10.240;  855.220
975.311;   98.001;  -13.720;  872.600
975.865;   96.100;  -13.770;  881.820
976.419;   95.009;  -11.690;  857.400
976.973;   95.677;   -9.510;  849.620
977.526;   97.827;  -12.620;  949.920
978.080;   95.712;  -12.010;  796.780
978.634;   97.316;  -10.170;  921.320
979.187;   95.045;   -9.020;  905.400
979.741;   92.919;   -9.820; 1018.380
980.294;   87.651;  -14.870;  789.160
980.848;   85.346;  -12.380;  717.220
981.401;   88.328;  -10.350;  816.540
981.955;   90.196;  -13.720;  844.300
982.508;   88.943;  -11.490;  746.340
983.061;   89.313;  -10.000;  915.260
983.615;   85.852;  -11.480;  798.800
984.168;   82.177;  -13.220;  770.080
984.721;   81.880;  -13.960;  880.760
985.274;   80.954;  -10.870;  867.500
985.827;   79.834;   -9.790;  834.220
986.380;   77.213;  -13.120;  721.340
986.933;   76.958;  -12.450;  864.800
987.486;   75.046;  -10.210;  861.920
988.039;   75.464;   -8.430;  863.100
988.591;   72.535;  -10.520;  893.260
989.144;   69.123;  -14.860;  737.260
989.697;   69.532;  -13.080;  758.740
990.250;   70.056;  -10.150;  858.100
990.802;   69.114;  -13.430;  755.860
991.355;   69.933;  -12.750;  974.880
991.907;   67.726;  -12.040;  864.320
992.460;   65.518;  -11.330;  753.760
993.012;   64.548;  -13.610;  749.540
993.565;   63.270;  -13.460;  711.360
994.117;   64.414;   -9.360;  950.780
994.669;   61.384;  -11.300;  701.320
995.221;   59.144;  -13.540;  791.920
995.774;   57.561;  -13.430;  787.580
996.326;   56.209;  -12.520;  740.220
996.878;   56.482;  -10.950;  838.420
997.430;   54.405;  -14.300;  699.860
997.982;   53.010;  -13.760;  750.140
998.534;   52.376;  -11.530;  739.060
999.086;   52.073;  -10.310;  738.220
999.638;   50.879;  -12.530;  661.380
1000.190;   49.432;  -11.840;  699.320
1000.741;   49.610;  -10.260;  742.700
1001.293;   49.322;   -8.860;  686.020
1001.845;   47.529;  -13.700;  676.640
1002.396;   47.754;  -12.100;  743.400
1002.948;   47.762;  -12.760;  737.400
1003.500;   45.962;  -10.380;  723.780
1004.051;   46.887;  -11.900;  907.580
1004.603;   44.767;  -12.250;  791.820
1005.154;   41.294;  -13.210;  608.980
1005.705;   40.119;  -10.950;  723.960
1006.257;   40.663;  -13.880;  707.220
1006.808;   39.291;  -12.840;  685.460
1007.359;   39.119;  -10.570;  763.240
1007.910;   38.664;   -9.620;  646.640
1008.461;   37.532;  -13.630;  732.940
1009.013;   36.741;  -17.200;  588.340
1009.564;   37.291;  -10.200;  793.520
1010.115;   35.842;  -12.570;  597.040
1010.665;   35.481;  -15.150;  602.160
1011.216;   35.211;  -14.480;  667.920
1011.767;   34.548;  -11.340;  697.920
1012.318;   35.541;   -9.780;  736.980
1012.869;   34.128;  -12.380;  679.000
1013.419;   33.298;  -15.560;  603.120
1013.970;   33.496;  -11.010;  666.640
1014.521;   33.779;  -11.610;  620.620
1015.071;   33.851;  -13.450;  670.380
1015.622;   32.658;  -13.870;  635.460
1016.172;   32.172;  -11.610;  596.820
1016.723;   32.582;  -12.120;  614.380
1017.273;   31.927;  -13.620;  604.160
1017.823;   31.799;  -14.140;  650.340
1018.374;   31.697;  -12.800;  611.760
1018.924;   30.764;  -12.340;  716.880
1019.474;   31.479;  -11.410;  718.880
1020.024;   30.046;  -14.770;  657.580
1020.574;   31.550;   -9.780;  726.160
1021.124;   31.851;   -8.560;  673.580
1021.674;   30.086;  -15.190;  559.120
1022.224;   30.857;  -13.530;  708.940
1022.774;   29.899;  -13.280;  668.820
1023.324;   30.449;  -10.690;  753.520
1023.874;   32.177;  -10.240;  875.760
1024.423;   29.543;  -12.540;  613.700
1024.973;   28.466;  -10.010;  610.760
1025.523;   28.881;  -10.550;  620.960
1026.072;   28.542;  -13.560;  606.420
1026.622;   27.804;  -15.120;  675.740
1027.172;   29.014;  -11.260;  715.660
1027.721;   28.669;  -11.410;  601.220
1028.270;   28.270;  -13.530;  663.400
1028.820;   28.206;  -13.680;  638.080
1029.369;   27.344;  -13.520;  612.700
1029.918;   27.322;  -10.980;  649.840
1030.468;   27.280;  -13.530;  564.780
1031.017;   26.836;  -13.170;  634.800
1031.566;   26.169;  -12.200;  608.900
1032.115;   27.420;   -9.960;  694.500
1032.664;   25.427;  -13.210;  596.480
1033.213;   26.307;  -12.500;  735.420
1033.762;   25.165;  -11.910;  635.620
1034.311;   26.470;   -9.640;  677.220
1034.860;   26.395;  -13.310;  691.000
1035.408;   25.986;  -11.830;  722.720
1035.957;   26.097;  -12.000;  719.540
1036.506;   23.233;  -11.690;  530.800
1037.055;   26.116;  -10.990;  844.320
1037.603;   24.647;  -15.120;  664.000
1038.152;   23.030;  -12.450;  534.760
1038.700;   24.081;  -10.560;  585.740
1039.249;   23.556;  -11.080;  681.220
1039.797;   23.604;  -12.540;  633.360
1040.345;   23.597;  -11.920;  705.420
1040.894;   23.859;  -11.410;  625.300
1041.442;   23.138;  -14.320;  632.200
1041.990;   22.511;  -16.240;  559.160
1042.538;   21.831;  -11.680;  536.180
1043.087;   22.681;  -10.760;  570.860
1043.635;   24.174;  -11.850;  670.500
1044.183;   22.275;  -15.480;  586.400
1044.731;   21.754;  -11.770;  576.000
1045.279;   22.069;  -13.090;  674.920
1045.827;   24.116;  -12.440;  892.400
1046.374;   20.484;  -13.840;  515.420
1046.922;   20.379;  -13.220;  590.580
1047.470;   22.220;  -10.230;  691.300
1048.018;   21.910;  -14.590;  647.960
1048.565;   22.655;  -12.050;  708.600
1049.113;   20.035;  -11.650;  557.000
1049.660;   21.399;  -10.510;  629.660
1050.208;   20.574;  -13.310;  675.640
1050.755;   19.538;  -15.900;  606.580
1051.303;   20.668;  -11.430;  686.820
1051.850;   19.675;   -8.480;  635.120
1052.397;   19.117;  -15.010;  473.960
1052.945;   19.936;  -13.960;  617.760
1053.492;   20.657;  -13.150;  741.840
1054.039;   20.939;   -9.630;  720.180
1054.586;   19.561;  -13.680;  557.240
1055.133;   20.152;  -14.570;  693.140
1055.680;   19.716;  -13.820;  646.620
1056.227;   18.431;  -11.730;  542.780
1056.774;   20.552;  -12.480;  794.980
1057.321;   18.580;  -13.930;  523.260
1057.868;   18.920;  -11.690;  651.320
1058.415;   18.291;   -9.520;  651.980
1058.961;   19.161;  -13.160;  678.940
1059.508;   18.595;  -12.920;  643.820
1060.055;   18.239;  -11.920;  581.780
1060.601;   18.837;  -11.500;  624.300
1061.148;   18.130;  -14.330;  616.820
1061.694;   17.178;  -16.870;  592.580
1062.241;   18.226;  -10.330;  596.320
1062.787;   17.270;  -10.620;  663.140
1063.334;   19.388;  -10.110;  808.560
1063.880;   17.338;  -13.400;  668.360
1064.426;   17.042;  -10.680;  706.820
1064.972;   16.623;   -9.920;  601.340
1065.518;   15.675;  -10.980;  566.640
1066.065;   16.127;  -14.890;  624.460
1066.611;   15.770;  -12.870;  598.800
1067.157;   17.458;  -12.950;  641.860
1067.703;   17.194;  -13.540;  668.480
1068.249;   16.319;  -13.540;  605.220
1068.794;   16.119;  -12.600;  626.880
1069.340;   15.455;  -10.620;  578.960
1069.886;   16.596;  -12.830;  590.700
1070.432;   14.546;  -14.870;  541.720
1070.977;   14.524;  -11.980;  601.080
1071.523;   15.286;   -8.200;  573.060
1072.068;   15.309;  -12.330;  582.000
1072.614;   15.183;  -16.370;  527.760
1073.160;   15.964;  -11.100;  687.040
1073.705;   14.354;  -10.480;  572.520
1074.250;   13.776;  -14.520;  559.900
1074.796;   15.277;  -11.460;  655.160
1075.341;   15.191;  -11.950;  664.100
1075.886;   14.773;  -11.460;  594.240
1076.431;   14.321;  -13.770;  649.880
1076.976;   13.852;  -12.680;  639.220
1077.521;   13.538;  -13.170;  583.080
1078.067;   13.384;  -10.860;  579.400
1078.612;   13.930;  -13.920;  661.620
1079.156;   13.730;  -13.880;  601.540
1079.701;   14.122;  -13.120;  693.260
1080.246;   14.338;   -9.940;  696.300
1080.791;   13.650;  -14.740;  625.020
1081.336;   12.694;  -13.750;  659.320
1081.880;   13.248;  -13.400;  649.680
1082.425;   12.968;  -12.220;  573.480
1082.970;   14.182;  -11.610;  717.040
1083.514;   12.379;  -13.580;  597.000
1084.059;   11.576;  -12.810;  586.720
1084.603;   12.614;  -12.320;  565.840
1085.147;   12.853;  -13.190;  645.220
1085.692;   13.266;  -12.480;  716.800
1086.236;   11.416;  -13.020;  503.140
1086.780;   13.798;   -9.190;  751.440
1087.325;   12.346;  -12.480;  654.620
1087.869;   11.824;  -12.450;  610.700
1088.413;   12.377;  -12.240;  705.040
1088.957;   10.860;   -9.020;  543.400
1089.501;   12.982;  -10.320;  766.640
1090.045;   11.656;  -12.720;  726.480
1090.589;    9.877;  -13.690;  569.920
1091.133;   11.621;  -10.020;  673.340
1091.676;   11.681;  -12.330;  591.940
1092.220;   10.967;  -14.970;  600.920
1092.764;   11.645;  -12.430;  706.960
1093.307;   11.915;   -9.800;  673.780
1093.851;    9.587;  -14.970;  556.540
1094.395;   10.693;  -15.310;  683.140
1094.938;   10.165;  -10.370;  632.520
1095.482;    9.704;  -11.050;  559.800
1096.025;   10.903;  -11.840;  710.880
1096.568;   10.921;  -12.840;  779.280
1097.112;    8.261;  -14.700;  508.180
1097.655;   10.451;   -8.720;  603.000
1098.198;    9.177;  -13.610;  600.180
1098.741;    9.108;  -13.350;  612.860
1099.285;    9.329;  -11.230;  657.300
1099.828;    7.681;  -11.840;  439.400
1100.371;    9.416;  -10.840;  608.160
1100.914;    8.665;  -14.190;  682.660
1101.457;    8.761;  -11.240;  679.900
1101.999;    8.444;  -11.270;  584.680
1102.542;    9.112;  -11.480;  641.440
1103.085;    8.164;  -11.750;  658.500
1103.628;    9.152;  -11.400;  762.060
1104.170;    8.465;  -10.490;  588.280
1104.713;    9.301;  -10.600;  646.700
1105.256;    8.441;  -14.360;  557.440
1105.798;    6.595;  -13.210;  499.980
1106.341;    9.143;  -10.270;  728.900
1106.883;    8.165;  -12.200;  521.340
1107.425;    8.016;  -13.110;  668.180
1107.968;    7.847;  -12.840;  612.380
1108.510;    8.187;   -6.480;  684.960
1109.052;    6.978;  -13.940;  612.620
1109.594;    6.711;  -13.690;  554.440
1110.136;    7.495;  -11.880;  643.220
1110.679;    7.300;   -9.500;  633.080
1111.221;    7.325;  -14.160;  604.460
1111.763;    6.651;  -13.980;  559.220
1112.304;    6.091;  -13.880;  547.140
1112.846;    7.555;  -12.210;  666.240
1113.388;    9.479;  -11.390;  942.180
1113.930;    6.425;  -14.540;  694.200
1114.472;    5.890;  -12.640;  606.540
1115.013;    5.236;  -11.620;  551.280
1115.555;    5.867;  -13.640;  587.100
1116.097;    4.564;  -15.380;  579.480
1116.638;    5.838;  -12.640;  684.600
1117.180;    7.006;   -9.850;  667.740
1117.721;    5.971;  -13.690;  568.580
1118.262;    6.069;  -12.680;  677.960
1118.804;    6.239;  -12.530;  637.340
1119.345;    5.654;  -11.690;  578.400
1119.886;    6.763;  -13.380;  704.040
1120.427;    5.179;  -14.070;  589.020
1120.969;    4.391;  -13.500;  597.920
1121.510;    4.795;  -11.480;  563.060
1122.051;    5.491;  -12.830;  723.580
1122.592;    4.377;  -14.290;  655.420
1123.133;    3.435;  -12.400;  547.940
1123.673;    5.801;  -10.130;  706.480
1124.214;    4.978;  -12.930;  612.460
1124.755;    5.325;  -14.380;  639.460
1125.296;    4.207;  -14.000;  627.320
1125.836;    5.945;  -10.070;  691.500
1126.377;    4.212;  -12.640;  599.660
1126.918;    5.086;  -12.960;  614.980
1127.458;    3.783;  -13.350;  622.220
1127.999;    4.801;  -10.750;  656.980
1128.539;    4.975;  -12.350;  694.240
1129.079;    3.772;  -14.860;  632.720
1129.620;    3.334;  -13.840;  558.100
1130.160;    4.090;  -12.330;  539.480
1130.700;    4.414;  -14.530;  640.840
1131.240;    4.292;  -12.530;  643.700
1131.781;    3.179;  -14.450;  619.680
1132.321;    3.697;   -9.790;  599.120
1132.861;    2.946;  -14.860;  564.200
1133.401;    2.437;  -14.290;  593.940
1133.941;    2.991;  -11.750;  626.280
1134.481;    3.007;   -9.920;  597.580
1135.020;    3.239;  -12.290;  609.160
1135.560;    3.255;  -11.650;  674.940
1136.100;    2.440;  -16.270;  501.160
1136.640;    2.583;  -10.890;  510.480
1137.179;    2.491;  -14.180;  537.960
1137.719;    2.264;  -16.250;  605.400
1138.258;    1.990;  -14.230;  587.360
1138.798;    3.336;   -9.090;  663.780
1139.337;    1.531;  -15.130;  482.840
1139.877;    2.512;  -13.680;  642.360
1140.416;    4.490;  -11.320;  878.060
1140.955;    1.656;  -10.860;  535.380
1141.494;    2.204;  -12.920;  669.280
1142.034;    1.218;  -13.930;  583.520
1142.573;    2.221;  -11.440;  646.280
1143.112;    1.715;  -12.000;  553.480
1143.651;    1.706;  -13.670;  536.480
1144.190;    2.314;  -12.730;  691.640
1144.729;    1.517;  -14.560;  607.420
1145.267;    1.757;  -11.830;  584.900
1145.806;    2.059;  -12.230;  637.040
1146.345;    0.540;  -14.130;  635.020
1146.884;    0.863;  -11.590;  622.500
1147.422;    0.541;  -12.550;  533.060
1147.961;    3.110;  -11.180;  708.460
1148.500;    1.677;  -11.510;  669.720
1149.038;    1.655;  -11.640;  632.500
1149.577;    2.037;  -10.130;  698.640
1150.115;   -0.016;  -13.970;  452.280
1150.653;    1.434;  -14.520;  607.340
1151.192;    0.568;  -12.810;  552.920
1151.730;    1.139;   -9.100;  652.560
1152.268;    0.671;  -12.220;  589.520
1152.806;    0.086;  -14.140;  571.180
1153.344;   -0.429;  -12.350;  577.640
1153.882;    0.373;   -8.980;  600.060
1154.421;   -1.054;  -15.190;  470.620
1154.958;   -0.280;  -15.210;  595.240
1155.496;    0.427;  -12.850;  645.280
1156.034;    0.710;   -9.940;  721.880
1156.572;    1.269;  -13.570;  667.060
1157.110;   -1.386;  -14.590;  473.940
1157.647;   -0.046;  -13.030;  676.960
1158.185;   -0.226;  -12.140;  564.320
1158.723;   -1.669;  -14.390;  509.200
1159.260;   -0.193;  -14.090;  701.700
1159.798;   -0.045;  -11.920;  658.160
1160.335;   -0.219;  -11.110;  631.820

