
Integration time [ms]:   3.276
Averaging Nr. [scans]: 1000
Smoothing Nr. [pixels]: 0
Data measured with spectrometer [name]: 7414430SP
Wave   ;Sample   ;Dark     ;Reference
[nm]   ;[counts] ;[counts] ;[counts] 

288.544;  150.192;    7.793;  793.890
289.143;  153.447;    7.462;  681.602
289.742;  154.048;    8.602;  828.814
290.341;  139.548;    1.321;  789.841
290.940;  128.490;   -0.709;  730.702
291.538;  129.547;    0.881;  881.108
292.137;  129.481;    0.122;  792.581
292.736;  134.637;   -1.929;  975.101
293.335;  130.757;   -8.229;  735.086
293.934;  131.224;   -5.279;  781.677
294.532;  130.332;   -1.369; 1031.958
295.131;  115.350;   -7.641;  834.394
295.730;  115.504;   -8.420;  809.588
296.328;  114.559;   -5.611;  783.442
296.927;  114.709;   -5.781;  779.652
297.525;  117.243;   -6.361;  781.236
298.124;  106.636;  -11.382;  654.009
298.722;  110.468;   -7.641;  761.933
299.321;  108.841;   -6.811;  708.597
299.919;  106.859;   -6.991;  751.918
300.518;  103.247;  -10.362;  689.338
301.116;  104.339;   -9.581;  691.381
301.715;  105.292;   -4.891;  730.222
302.313;  104.004;   -8.801;  704.943
302.911;   98.985;   -8.522;  733.830
303.509;  104.537;   -6.171;  925.627
304.108;  101.930;   -7.311;  760.383
304.706;  102.207;   -8.321;  801.664
305.304;   95.861;  -10.222;  796.707
305.902;  101.293;   -6.021;  784.484
306.500;   96.933;   -4.971;  728.200
307.098;   96.033;   -7.061;  746.560
307.696;   93.928;   -8.801;  780.432
308.294;   93.512;   -6.411;  731.359
308.892;   95.419;   -2.901;  759.769
309.490;   92.223;   -5.041;  712.161
310.088;   90.870;   -5.002;  788.444
310.686;   93.946;   -2.041;  821.749
311.284;   90.919;   -2.351;  766.040
311.882;   88.645;   -4.422;  731.225
312.480;   85.624;   -4.192;  697.167
313.078;   86.193;   -1.172;  808.331
313.675;   88.098;   -2.601;  691.600
314.273;   82.650;   -1.312;  797.837
314.871;   81.568;   -3.942;  589.829
315.468;   79.035;   -2.802;  652.090
316.066;   81.846;   -0.701;  694.427
316.664;   75.596;   -4.362;  656.351
317.261;   80.157;   -2.872;  910.128
317.859;   75.146;   -2.022;  768.735
318.456;   75.422;   -0.531;  830.096
319.054;   71.408;   -3.912;  787.828
319.651;   70.529;   -4.752;  759.928
320.249;   69.753;   -2.602;  810.188
320.846;   67.519;   -0.821;  714.286
321.443;   64.692;   -4.642;  832.135
322.041;   61.050;   -5.002;  812.315
322.638;   59.440;   -3.982;  701.456
323.235;   60.261;   -3.411;  665.683
323.833;   58.296;   -7.361;  740.354
324.430;   53.038;   -8.611;  615.900
325.027;   54.042;   -4.061;  876.855
325.624;   53.317;   -4.031;  644.532
326.221;   51.954;   -7.481;  689.717
326.818;   50.524;   -5.281;  818.332
327.415;   53.925;   -7.460;  748.828
328.012;   52.812;   -5.510;  690.585
328.609;   51.800;   -7.880;  731.389
329.206;   49.155;   -8.331;  778.621
329.803;   49.764;   -5.121;  737.841
330.400;   52.891;   -4.510;  704.260
330.997;   54.565;   -6.441;  817.147
331.594;   52.461;   -8.831;  788.185
332.191;   57.101;   -7.621;  728.722
332.787;   60.098;   -4.591;  844.463
333.384;   59.146;   -7.412;  763.093
333.981;   57.731;   -8.293;  815.687
334.578;   60.724;   -7.052;  708.378
335.174;   63.361;   -3.102;  731.469
335.771;   63.772;   -5.943;  836.456
336.367;   59.614;   -7.393;  710.631
336.964;   63.777;   -4.063;  793.266
337.561;   62.331;   -3.813;  731.112
338.157;   58.026;   -4.654;  911.916
338.754;   54.239;   -7.934;  796.589
339.350;   53.680;   -4.414;  722.493
339.946;   55.623;   -4.664;  773.135
340.543;   47.611;   -6.375;  846.136
341.139;   41.412;   -9.815;  720.836
341.735;   40.004;   -4.526;  772.593
342.332;   37.703;   -4.895;  691.472
342.928;   38.627;   -4.295;  795.394
343.524;   32.770;   -5.476;  761.684
344.120;   29.146;   -5.856;  738.562
344.716;   31.909;   -2.155;  723.717
345.313;   29.935;   -6.275;  795.342
345.909;   24.568;   -8.815;  627.336
346.505;   26.582;   -5.305;  740.247
347.101;   26.751;   -2.674;  827.864
347.697;   27.460;   -4.344;  785.398
348.293;   21.524;   -9.975;  627.244
348.889;   22.487;   -5.774;  745.914
349.485;   22.039;   -5.004;  688.205
350.081;   23.273;   -4.704;  772.592
350.676;   18.647;   -6.635;  691.606
351.272;   22.087;   -4.504;  809.530
351.868;   22.115;   -3.914;  780.497
352.464;   19.947;   -9.044;  723.932
353.059;   15.714;   -8.314;  646.017
353.655;   18.260;   -7.024;  777.063
354.251;   19.845;   -5.343;  759.845
354.846;   14.433;   -8.604;  740.646
355.442;   12.623;   -6.945;  753.071
356.038;   14.255;   -7.564;  751.708
356.633;   14.498;   -5.814;  728.594
357.229;   12.041;   -7.364;  724.757
357.824;   10.048;   -8.024;  703.600
358.420;    9.751;   -9.384;  679.726
359.015;   10.125;   -5.104;  695.357
359.610;   11.431;   -6.854;  763.920
360.206;    5.236;  -10.185;  603.240
360.801;    8.046;   -7.054;  646.503
361.396;   10.231;   -5.034;  725.975
361.992;    6.274;   -8.284;  668.220
362.587;    3.170;   -8.625;  670.160
363.182;    4.973;   -7.674;  689.631
363.777;    5.681;   -5.164;  738.242
364.372;    5.979;   -8.604;  737.314
364.967;    1.017;   -9.055;  680.744
365.563;    5.745;   -6.114;  815.567
366.158;    3.311;   -5.814;  685.161
366.753;    3.384;   -7.854;  649.263
367.348;    1.354;   -7.804;  746.056
367.942;    0.836;   -7.954;  697.298
368.537;    0.681;   -4.984;  754.245
369.132;    0.658;   -8.564;  703.428
369.727;   -3.043;   -8.855;  638.079
370.322;   -1.574;   -6.245;  580.186
370.917;   -2.297;   -6.425;  710.646
371.511;    0.311;   -6.294;  861.834
372.106;   -3.069;   -7.685;  776.964
372.701;   -5.478;   -7.335;  585.988
373.296;    0.049;   -4.564;  863.135
373.890;   -4.999;  -10.235;  647.840
374.485;   -8.168;   -7.885;  691.199
375.079;   -3.470;   -7.324;  738.685
375.674;   -2.345;   -3.494;  812.970
376.268;   -6.857;   -8.525;  691.759
376.863;  -12.897;  -10.086;  580.327
377.457;   -6.142;   -7.025;  662.490
378.052;   -7.606;   -3.585;  764.884
378.646;   -8.773;   -7.595;  741.167
379.240;   -9.322;   -8.335;  721.176
379.835;   -8.569;   -5.785;  636.978
380.429;   -9.380;   -4.335;  562.557
381.023;   -9.973;   -6.805;  779.205
381.617;  -12.266;   -9.195;  680.106
382.212;   -9.297;   -6.905;  685.303
382.806;   -8.328;   -3.745;  760.690
383.400;  -12.166;   -7.745;  672.281
383.994;  -14.045;   -9.765;  664.870
384.588;   -9.849;   -6.564;  697.701
385.182;   -7.790;   -5.344;  726.624
385.776;   -9.956;   -8.514;  706.875
386.370;  -12.647;   -9.555;  681.968
386.964;  -12.093;   -8.715;  684.155
387.558;  -10.281;   -6.174;  598.360
388.152;  -13.799;   -8.725;  681.959
388.745;  -11.658;   -7.965;  814.707
389.339;  -10.912;   -5.924;  747.642
389.933;   -8.760;   -5.524;  695.370
390.527;  -10.170;   -7.114;  859.029
391.120;  -16.361;  -10.725;  595.318
391.714;  -13.747;   -8.035;  711.633
392.308;  -10.774;   -3.574;  780.253
392.901;  -14.265;   -7.245;  642.460
393.495;  -16.562;   -9.285;  595.414
394.089;  -14.094;   -5.895;  760.452
394.682;  -14.879;   -4.295;  697.188
395.275;  -14.322;   -9.875;  719.927
395.869;  -16.635;   -8.485;  667.314
396.462;  -14.793;   -7.455;  616.609
397.056;  -10.322;   -5.424;  776.621
397.649;  -15.164;   -6.605;  731.575
398.242;  -13.483;   -8.224;  712.645
398.836;  -12.236;   -7.474;  766.408
399.429;  -13.008;   -7.094;  631.041
400.022;  -16.850;   -9.475;  665.902
400.615;  -14.500;   -7.145;  805.609
401.208;  -12.712;   -7.174;  691.451
401.802;  -14.516;   -5.515;  699.329
402.395;  -15.752;   -9.875;  683.502
402.988;  -16.978;   -8.845;  696.627
403.581;  -13.603;   -8.874;  646.878
404.174;  -11.219;   -5.324;  686.568
404.767;  -13.974;   -9.575;  638.583
405.360;  -16.770;  -10.965;  621.445
405.953;  -11.807;   -8.764;  759.034
406.545;  -10.938;   -7.514;  725.342
407.138;  -14.697;  -10.025;  618.350
407.731;  -14.452;  -10.034;  613.303
408.324;  -10.034;   -9.374;  660.554
408.917;  -10.500;   -6.534;  681.864
409.509;  -12.844;   -8.004;  740.396
410.102;  -14.747;   -9.875;  643.948
410.695;   -8.741;   -8.604;  665.758
411.287;   -9.347;   -6.794;  599.821
411.880;  -11.326;   -9.334;  585.421
412.472;  -13.797;  -10.254;  613.092
413.065;  -11.517;   -6.714;  629.408
413.657;   -8.308;   -7.234;  576.678
414.250;   -9.359;  -10.544;  646.681
414.842;  -10.416;   -9.744;  676.353
415.434;   -8.397;   -6.994;  570.463
416.027;   -4.471;   -5.893;  652.196
416.619;   -7.009;   -7.264;  713.400
417.211;   -7.409;  -10.374;  599.352
417.804;   -3.386;   -7.993;  628.499
418.396;   -7.380;   -7.234;  607.643
418.988;   -4.579;   -9.443;  659.238
419.580;   -8.232;  -10.724;  568.276
420.172;   -6.060;  -10.323;  536.196
420.764;   -1.964;   -8.793;  672.482
421.356;   -2.663;  -11.143;  636.898
421.948;   -3.921;   -8.293;  677.661
422.540;    1.175;   -7.893;  680.027
423.132;   -0.161;   -7.082;  600.641
423.724;   -2.849;   -8.653;  561.267
424.316;   -0.389;  -10.213;  621.345
424.908;    2.297;   -9.762;  591.517
425.500;    2.748;   -5.572;  647.978
426.092;    3.521;   -8.422;  648.268
426.683;    2.824;   -9.283;  684.836
427.275;    5.176;   -7.852;  641.471
427.867;    7.292;   -5.272;  668.948
428.458;    7.124;   -7.682;  732.344
429.050;    5.388;  -10.612;  680.749
429.642;    7.745;   -9.882;  743.124
430.233;    7.936;   -6.962;  569.356
430.825;    9.568;   -6.842;  724.809
431.416;    6.521;   -9.672;  698.241
432.008;   10.927;   -6.552;  651.723
432.599;   11.735;   -6.891;  656.073
433.190;    8.471;  -10.912;  637.670
433.782;    7.446;  -11.172;  590.395
434.373;   14.847;   -6.061;  884.765
434.964;   13.215;   -8.251;  602.920
435.556;   11.172;   -9.722;  634.537
436.147;   14.050;   -9.082;  758.490
436.738;   13.893;   -8.041;  701.099
437.329;   19.335;   -7.341;  721.723
437.920;   12.258;   -8.162;  666.688
438.511;   12.344;  -11.802;  564.526
439.103;   17.873;  -10.191;  623.998
439.694;   21.141;   -7.601;  681.583
440.285;   20.768;   -8.541;  764.432
440.876;   19.187;   -9.751;  845.738
441.466;   18.191;   -9.401;  575.162
442.057;   24.544;   -7.760;  665.814
442.648;   23.758;   -9.971;  746.255
443.239;   21.362;  -11.001;  620.477
443.830;   25.893;   -7.990;  704.958
444.421;   27.917;   -7.910;  655.474
445.011;   24.022;   -8.131;  693.619
445.602;   24.098;   -7.111;  743.126
446.193;   26.428;  -10.920;  488.117
446.783;   30.657;   -6.500;  640.397
447.374;   26.521;   -8.671;  692.759
447.964;   26.062;  -10.781;  713.770
448.555;   34.526;   -9.650;  822.742
449.145;   31.874;   -8.660;  662.853
449.736;   32.286;   -8.990;  803.179
450.326;   31.999;   -9.500;  713.626
450.917;   36.698;   -8.680;  675.324
451.507;   36.043;   -7.520;  600.661
452.097;   37.449;   -8.590;  746.267
452.688;   37.491;  -11.340;  742.160
453.278;   36.614;  -10.100;  566.840
453.868;   42.303;   -6.019;  793.550
454.458;   40.201;   -9.440;  651.141
455.048;   40.397;  -10.560;  711.783
455.639;   41.991;  -11.799;  567.096
456.229;   45.345;   -6.899;  710.694
456.819;   47.725;   -7.389;  751.158
457.409;   47.104;  -11.119;  773.993
457.999;   49.969;   -9.289;  737.505
458.589;   50.097;   -6.139;  686.606
459.179;   50.040;   -8.729;  717.658
459.769;   48.446;   -9.789;  627.099
460.358;   52.650;  -10.259;  797.262
460.948;   52.164;   -7.299;  689.503
461.538;   54.324;  -10.289;  660.677
462.128;   52.230;  -11.269;  664.934
462.717;   58.534;   -9.368;  710.326
463.307;   62.006;   -7.908;  705.846
463.897;   58.280;   -9.599;  656.942
464.486;   56.676;   -9.769;  837.128
465.076;   60.643;   -8.048;  733.776
465.666;   64.605;   -9.358;  652.900
466.255;   62.835;   -7.919;  785.651
466.845;   62.343;  -11.689;  666.749
467.434;   64.939;   -7.818;  725.873
468.023;   65.776;   -7.678;  658.357
468.613;   63.949;  -10.939;  713.946
469.202;   67.898;  -10.118;  646.507
469.791;   71.465;   -9.108;  737.811
470.381;   73.701;   -6.058;  742.813
470.970;   73.796;  -10.428;  711.099
471.559;   72.861;  -10.268;  733.291
472.148;   75.554;   -8.448;  675.737
472.738;   78.496;   -6.917;  765.466
473.327;   78.853;  -11.978;  637.529
473.916;   77.404;  -11.888;  737.446
474.505;   81.321;   -9.437;  751.703
475.094;   84.957;   -6.747;  806.570
475.683;   85.092;   -9.367;  797.699
476.272;   86.166;  -12.637;  730.632
476.861;   88.721;  -10.027;  706.754
477.449;   95.028;   -8.716;  728.487
478.038;   90.053;   -9.577;  692.513
478.627;   90.295;   -9.718;  714.852
479.216;   96.728;   -8.947;  769.441
479.805;   99.565;   -6.256;  783.375
480.393;   99.447;   -7.937; 1008.945
480.982;   98.339;   -7.717;  874.501
481.571;  105.122;   -9.266;  858.333
482.159;  105.428;   -7.636;  705.386
482.748;  105.270;   -9.667;  821.385
483.336;  109.098;  -10.376;  858.209
483.925;  110.461;   -7.147;  774.373
484.513;  117.163;   -7.996;  758.962
485.102;  113.803;  -10.027;  810.965
485.690;  121.944;  -10.446; 1011.050
486.278;  124.227;   -8.446;  979.329
486.867;  124.817;   -6.356;  809.662
487.455;  126.589;   -9.136;  898.229
488.043;  127.296;  -10.646;  748.361
488.631;  136.164;   -7.456; 1005.079
489.220;  140.068;   -6.636;  908.626
489.808;  139.771;  -11.036;  741.415
490.396;  147.173;  -10.246;  914.645
490.984;  153.669;   -8.556;  830.161
491.572;  163.180;   -5.886;  940.315
492.160;  170.250;   -9.486;  919.081
492.748;  180.665;  -10.976;  884.341
493.336;  203.588;   -8.776; 1019.693
493.924;  229.609;   -5.465;  958.077
494.512;  257.210;   -9.986; 1066.638
495.100;  292.260;  -10.636; 1103.280
495.687;  346.498;  -10.885; 1206.373
496.275;  405.400;   -8.126; 1150.796
496.863;  472.071;  -10.586; 1281.171
497.451;  571.074;  -11.926; 1386.805
498.038;  702.986;  -10.885; 1556.729
498.626;  810.883;   -6.315; 1741.407
499.214;  954.448;   -7.326; 2016.609
499.801; 1143.659;  -11.906; 2220.633
500.389; 1391.970;  -10.466; 2312.494
500.976; 1700.256;   -5.236; 2744.849
501.564; 2110.427;   -8.936; 3148.565
502.151; 2463.550;  -13.176; 3515.999
502.738; 2912.202;  -10.646; 3971.274
503.326; 3314.293;   -9.525; 4403.796
503.913; 3688.174;  -10.856; 5161.749
504.500; 4005.893;  -11.586; 5986.420
505.088; 4472.796;  -10.336; 6381.201
505.675; 4997.221;   -6.355; 6925.547
506.262; 5609.482;   -9.046; 7619.060
506.849; 6328.301;  -10.416; 8733.969
507.436; 6783.977;  -10.305; 9790.121
508.023; 7314.273;   -5.496; 9985.472
508.610; 7585.743;   -7.856;10434.618
509.197; 8211.811;  -10.097;11198.435
509.784; 9566.505;  -10.886;12391.194
510.371;10548.707;   -9.315;13603.713
510.958;11285.930;   -9.936;14426.586
511.545;12053.395;   -9.326;15243.775
512.132;12828.907;  -10.075;15945.876
512.719;13371.731;   -7.796;16340.369
513.305;14269.175;  -10.606;18011.766
513.892;15028.577;  -11.486;19754.971
514.479;16499.230;   -9.126;20967.805
515.066;18040.387;   -6.026;22299.793
515.652;19179.703;   -8.466;22908.660
516.239;20169.352;  -10.886;23798.875
516.825;21122.158;  -11.496;25567.275
517.412;22160.928;   -5.796;28154.959
517.998;23027.363;  -10.506;28344.111
518.585;23108.492;  -10.076;27134.219
519.171;23255.098;   -8.315;27268.576
519.758;24280.273;   -8.596;28964.129
520.344;26187.395;   -8.466;30664.494
520.930;26526.824;  -11.006;32550.605
521.516;27931.566;  -10.495;35422.895
522.103;30318.164;   -5.526;38280.004
522.689;31100.320;   -8.746;37835.117
523.275;30739.813;  -11.376;37288.613
523.861;31368.266;  -11.156;37281.395
524.447;32204.252;   -8.135;37846.949
525.033;31512.346;   -7.896;38321.949
525.619;31381.143;  -12.476;38579.285
526.205;32084.900;   -9.516;40622.875
526.791;32755.436;   -6.926;42258.836
527.377;31023.586;   -8.346;42966.902
527.963;33630.738;   -8.717;42018.949
528.549;35495.590;  -11.016;42476.828
529.135;36207.750;   -8.536;41854.852
529.721;36483.656;   -9.666;41237.711
530.306;35961.121;  -10.066;41259.445
530.892;35987.898;  -11.356;41506.047
531.478;37376.156;   -6.596;43559.613
532.063;39613.008;   -8.836;47695.563
532.649;39736.813;  -10.047;50808.324
533.235;40829.090;   -9.746;51787.500
533.820;42025.410;   -6.566;52145.035
534.406;42646.363;  -10.817;51133.488
534.991;41939.691;   -9.416;49996.805
535.576;40625.277;   -9.036;48882.852
536.162;40796.113;   -6.156;46942.285
536.747;41415.684;  -11.607;45711.746
537.333;44170.828;  -11.787;48510.180
537.918;46367.379;  -12.437;50439.891
538.503;43582.934;   -7.196;50863.711
539.088;38330.078;  -10.556;50906.922
539.673;36053.129;   -8.767;52621.965
540.259;36195.703;  -10.026;52368.094
540.844;36720.539;   -7.416;50879.109
541.429;40488.055;   -9.467;52077.777
542.014;46013.738;   -9.527;52716.695
542.599;47243.816;   -9.946;52363.281
543.184;44713.688;   -7.927;53187.137
543.769;45686.484;   -9.297;54697.605
544.354;45275.598;  -10.127;53913.914
544.938;44373.902;   -9.267;49680.164
545.523;46548.773;   -6.506;47386.277
546.108;49071.813;   -9.787;49151.949
546.693;51263.699;  -11.587;51384.637
547.278;50898.777;  -10.986;51853.254
547.862;47563.020;   -8.206;51173.750
548.447;42927.316;  -10.067;51691.395
549.031;42170.719;   -9.637;52456.703
549.616;46700.969;   -9.926;52714.516
550.201;46028.867;   -6.347;52414.598
550.785;46803.984;   -7.917;52355.059
551.370;46219.895;  -10.867;54589.453
551.954;46069.844;   -9.047;58267.348
552.538;47396.301;   -7.827;59062.176
553.123;45785.531;  -10.287;58115.285
553.707;43289.781;  -12.178;56556.285
554.291;44032.215;   -8.717;56201.668
554.876;45786.398;   -7.457;55335.762
555.460;46402.422;  -10.387;54155.703
556.044;48445.445;   -9.618;53721.484
556.628;46766.910;  -11.567;53731.016
557.212;45290.168;   -8.097;54312.531
557.796;43263.430;  -11.077;53797.773
558.380;43613.441;  -11.108;56145.984
558.964;44980.781;   -9.057;57277.930
559.548;46059.625;   -6.977;56459.641
560.132;43791.152;  -11.457;54434.543
560.716;42517.359;  -11.378;54800.617
561.300;43253.801;   -9.577;57606.945
561.884;44393.965;   -7.127;58972.445
562.467;43314.734;   -7.118;57327.570
563.051;42749.766;  -13.358;54962.434
563.635;43018.090;  -10.178;52594.473
564.219;43369.355;   -7.837;50610.410
564.802;44330.941;  -11.398;49551.180
565.386;44599.270;  -12.788;48370.953
565.969;44209.828;   -9.077;48178.871
566.553;43086.695;   -6.207;49957.305
567.136;43292.070;   -8.568;50369.594
567.720;39685.672;  -11.868;49492.004
568.303;37908.070;   -8.268;50616.352
568.887;37804.465;   -8.698;50727.148
569.470;37980.848;   -6.808;51698.379
570.053;36978.047;  -13.188;52122.078
570.637;35701.734;  -12.037;52536.438
571.220;35278.086;   -8.577;51186.098
571.803;35345.684;   -8.498;51032.762
572.386;37206.305;  -10.498;49609.887
572.969;39951.438;   -9.388;48285.926
573.552;38801.391;   -8.338;47624.285
574.135;37673.879;   -8.518;45498.641
574.718;35061.949;  -13.628;41970.434
575.301;33966.309;  -10.893;41447.137
575.884;32870.672;   -8.158;40923.836
576.467;33886.195;  -10.328;45267.723
577.050;36005.910;  -13.058;48175.543
577.633;37721.594;   -9.458;47729.328
578.216;36746.520;   -8.928;47579.793
578.799;35672.219;   -9.358;47820.996
579.381;34269.934;  -11.388;48115.551
579.964;32549.039;  -11.718;47333.766
580.547;33827.273;   -8.588;46668.969
581.129;34591.457;   -8.859;44466.141
581.712;35106.301;  -10.729;44164.922
582.294;35918.691;  -11.118;46477.855
582.877;36163.672;   -5.218;48244.254
583.459;34305.848;   -8.679;47437.895
584.042;32628.572;  -10.709;46943.219
584.624;32981.848;  -11.669;46792.227
585.206;32446.654;   -8.218;46557.250
585.789;32424.559;  -10.569;45793.773
586.371;35288.617;  -11.859;43836.391
586.953;36209.359;  -10.719;42972.492
587.536;37246.750;   -7.198;42487.211
588.118;37426.898;   -8.720;42086.414
588.700;33586.676;  -10.439;43389.930
589.282;32540.313;   -9.198;43646.039
589.864;33388.453;   -9.199;43438.109
590.446;34728.449;  -11.319;43151.926
591.028;34621.195;  -11.159;42781.867
591.610;33619.105;  -11.779;42839.098
592.192;30666.951;   -7.668;42820.402
592.774;28956.695;  -11.949;40724.277
593.356;27818.781;  -12.129;39874.789
593.937;27322.943;  -10.669;39980.648
594.519;29255.010;   -6.509;42069.633
595.101;31579.303;  -10.849;42976.031
595.683;31993.385;  -11.679;44084.441
596.264;33016.848;   -9.049;43478.797
596.846;31902.396;   -8.849;43803.672
597.427;31295.721;   -9.570;42986.934
598.009;33039.074;  -12.620;42832.219
598.591;33511.270;  -10.039;42580.086
599.172;32810.656;  -10.369;43061.805
599.753;32723.859;   -9.140;41691.469
600.335;34429.297;  -11.430;40692.520
600.916;33049.668;   -9.939;39982.422
601.498;30386.184;   -8.479;40318.617
602.079;29006.951;  -10.920;40670.609
602.660;28877.947;  -11.480;41450.898
603.241;30053.578;  -11.699;41137.738
603.823;29128.920;   -9.579;38868.797
604.404;28882.182;  -10.620;38182.785
604.985;30298.148;  -10.450;38078.047
605.566;29585.877;   -9.129;38056.633
606.147;29487.055;   -7.510;37020.418
606.728;31627.754;  -10.660;37883.359
607.309;30711.588;  -11.740;38748.273
607.890;29956.541;   -9.759;38850.230
608.471;29621.730;   -8.250;37457.918
609.051;28965.238;   -9.240;36066.457
609.632;28054.270;  -12.120;35991.074
610.213;28862.801;   -9.110;37402.641
610.794;29466.410;   -8.030;38383.363
611.374;28753.014;   -8.110;40562.387
611.955;29200.660;  -13.560;38533.727
612.536;30857.328;  -11.400;36951.789
613.116;30328.785;   -8.070;37197.891
613.697;30548.602;  -10.830;38411.125
614.277;29062.977;  -11.641;38673.938
614.858;29957.553;  -13.310;37075.863
615.438;29306.531;   -7.460;35092.906
616.019;26555.254;   -7.601;33666.301
616.599;27194.746;  -12.020;34189.023
617.179;29280.098;  -11.780;36952.047
617.760;30173.061;   -8.570;39582.574
618.340;31408.693;  -11.471;38943.977
618.920;32911.316;  -11.170;37594.156
619.500;32477.031;  -11.071;37866.938
620.080;31598.387;   -7.750;37869.043
620.660;32430.777;  -12.711;36868.617
621.241;33181.020;  -10.211;36352.309
621.821;33293.566;  -10.961;35459.520
622.401;33010.793;   -7.720;35207.414
622.980;32148.037;   -8.981;35980.422
623.560;30587.756;   -9.331;37351.328
624.140;29649.768;   -9.850;34388.582
624.720;24947.389;   -7.451;32368.764
625.300;21290.863;   -9.070;32638.629
625.880;24430.766;  -12.601;34599.035
626.459;28110.875;  -11.751;36831.738
627.039;31162.734;   -9.281;38299.098
627.619;31168.875;   -8.801;38289.574
628.198;29494.129;  -12.071;37220.695
628.778;28866.678;   -9.461;37632.563
629.357;29635.658;   -8.491;38003.012
629.937;29402.986;   -9.721;38402.039
630.516;28747.990;   -9.951;37868.801
631.096;28744.943;  -11.731;35760.410
631.675;31554.799;   -8.572;35225.219
632.254;36659.008;  -11.282;35130.289
632.834;35965.285;  -13.322;35794.570
633.413;34002.703;  -10.301;35788.922
633.992;31131.676;   -8.582;34532.863
634.571;32294.541;   -8.352;33590.113
635.151;35226.852;  -11.912;34943.863
635.730;33647.590;  -10.511;35352.523
636.309;30240.188;   -7.731;35366.605
636.888;27682.629;   -9.952;36165.637
637.467;28231.807;  -11.672;37515.902
638.046;30251.365;   -8.901;39288.695
638.625;33377.203;   -7.912;38279.699
639.204;33127.063;  -10.022;37741.598
639.782;31233.686;  -12.252;38364.551
640.361;27709.801;  -10.041;36740.621
640.940;24867.248;  -11.161;34950.082
641.519;25236.072;   -9.701;34137.398
642.097;27718.672;  -11.271;35654.258
642.676;30781.166;   -8.651;35637.957
643.255;31989.572;   -8.711;36567.074
643.833;31082.076;   -9.581;37809.434
644.412;31292.723;  -13.711;37337.293
644.990;30490.893;  -11.811;37018.531
645.569;30146.176;   -9.411;36518.469
646.147;29187.857;  -10.291;36186.430
646.726;28648.412;  -12.401;36267.688
647.304;30063.086;  -10.411;36647.625
647.882;31930.264;   -9.651;39286.742
648.461;33386.773;   -9.631;39157.703
649.039;31934.840;  -11.881;35412.883
649.617;31369.002;   -9.661;34744.918
650.195;31264.867;   -9.301;35403.098
650.773;30211.336;  -10.511;35053.797
651.352;27501.496;  -11.521;33756.816
651.930;25069.920;  -12.211;31868.773
652.508;23440.762;   -9.171;33121.551
653.086;27143.555;   -9.371;33564.793
653.663;30310.535;  -13.161;34054.668
654.241;29048.020;  -13.031;35693.309
654.819;30736.977;   -9.371;36422.906
655.397;30840.471;  -10.511;38213.484
655.975;30501.035;  -10.371;39507.625
656.553;30603.145;  -10.051;39498.223
657.130;28920.340;  -10.061;40395.480
657.708;28213.178;   -9.561;39242.020
658.286;28176.863;  -11.511;38920.020
658.863;29360.684;  -10.261;40202.898
659.441;32045.229;   -7.531;39677.938
660.018;31260.037;   -9.501;40413.355
660.596;30185.627;  -13.301;39931.414
661.173;32260.127;  -11.211;39604.531
661.750;32395.586;   -9.951;39700.070
662.328;31302.305;   -9.390;39292.809
662.905;30565.686;  -11.330;38235.648
663.482;26470.814;   -9.050;36212.305
664.060;24519.514;   -8.240;35944.945
664.637;27099.936;  -10.050;35170.785
665.214;28986.354;  -11.760;34197.523
665.791;30847.461;  -10.530;34549.520
666.368;29438.307;   -9.690;35118.578
666.945;29809.465;   -9.320;36019.418
667.522;31432.816;  -11.860;36048.438
668.099;31784.840;  -10.770;36243.914
668.676;31187.461;   -6.260;35958.875
669.253;29531.094;   -7.000;37384.730
669.830;29825.117;  -10.190;36779.629
670.407;29477.617;   -9.550;35231.289
670.984;29666.701;   -9.260;35544.270
671.560;29927.582;   -9.280;35466.867
672.137;28556.832;  -11.810;34280.863
672.714;29244.748;  -11.490;34632.863
673.290;29611.232;   -7.740;35135.422
673.867;29795.385;  -10.660;36114.480
674.443;30304.197;  -12.230;36152.859
675.020;28723.273;  -10.450;35327.238
675.596;29616.395;   -9.260;35795.176
676.173;29989.223;  -10.780;35430.355
676.749;29652.826;  -13.690;33549.516
677.326;29981.627;  -11.980;32210.012
677.902;30335.914;   -8.630;32068.871
678.478;29534.609;  -10.730;32583.891
679.054;29130.330;  -10.520;32088.928
679.631;29896.842;  -11.920;30978.848
680.207;30676.182;   -7.490;33160.887
680.783;31892.896;   -9.860;35570.363
681.359;31076.059;  -13.380;36125.184
681.935;30190.941;  -12.480;35240.922
682.511;29140.314;   -7.900;34429.961
683.087;29128.313;   -7.710;34463.680
683.663;29091.059;  -11.480;34648.898
684.239;28318.822;  -14.090;34546.457
684.815;27884.889;   -7.560;35586.375
685.390;28342.150;   -9.910;35821.895
685.966;28872.098;  -11.159;35085.871
686.542;31430.139;  -11.169;34198.230
687.118;33451.602;   -5.959;32847.707
687.693;33526.609;  -10.329;32794.027
688.269;32753.563;  -12.059;33072.367
688.844;30680.482;  -10.909;33141.664
689.420;28726.613;   -8.019;33965.742
689.995;26552.107;   -8.399;34655.523
690.571;25407.805;  -10.949;33576.742
691.146;25950.820;   -9.619;32657.219
691.722;25219.834;   -8.999;32526.979
692.297;24903.732;  -11.589;33014.617
692.872;26863.889;  -11.739;34012.254
693.448;26394.980;  -11.059;34237.434
694.023;25576.742;  -10.139;34142.672
694.598;27798.637;   -9.029;34132.031
695.173;28068.674;  -13.319;34205.250
695.748;27511.773;  -10.169;32882.488
696.323;27388.980;   -8.339;32864.906
696.898;27321.379;   -8.169;33170.004
697.473;27069.191;  -12.309;32432.984
698.048;26806.514;  -10.989;31649.303
698.623;27194.328;   -9.329;30778.141
699.198;29136.078;   -9.849;31140.119
699.773;30026.166;  -12.329;31764.299
700.348;28503.447;  -10.389;31780.816
700.922;28735.020;   -9.269;32046.375
701.497;29255.564;   -9.329;32603.574
702.072;29398.457;  -10.789;34799.871
702.646;28529.752;  -10.839;35793.172
703.221;26374.236;   -9.099;35201.590
703.795;28313.246;  -10.939;34764.527
704.370;28859.799;  -12.859;34307.367
704.944;29259.646;  -11.559;33509.887
705.519;30334.135;   -7.939;31388.584
706.093;31311.922;  -10.499;31340.104
706.668;31451.207;  -11.289;32630.281
707.242;29994.539;  -11.509;32728.779
707.816;28395.748;   -9.639;32947.238
708.390;27108.764;  -11.429;33277.855
708.965;28062.840;  -11.869;33834.336
709.539;28633.584;  -11.689;33709.273
710.113;29102.795;  -10.478;33044.313
710.687;28457.143;  -10.228;31953.992
711.261;26338.652;  -13.698;30505.949
711.835;26039.383;  -13.378;30262.369
712.409;26982.205;   -9.698;31254.447
712.983;28593.053;  -11.898;32754.986
713.557;29536.332;  -15.138;34018.824
714.131;29293.170;  -14.098;34579.625
714.704;28431.855;   -9.958;33890.262
715.278;26003.566;  -10.028;33531.102
715.852;25268.143;  -11.148;33601.660
716.425;26036.992;   -9.068;33515.117
716.999;26553.076;  -10.038;33185.555
717.573;27640.760;   -9.798;33905.996
718.146;28942.160;  -12.378;35199.293
718.720;28562.963;  -11.918;35060.551
719.293;27939.199;   -8.088;34973.230
719.867;30898.676;  -10.888;36394.449
720.440;31058.646;  -11.938;36663.008
721.013;29627.131;  -12.818;35102.426
721.587;28076.506;  -10.298;33985.266
722.160;26123.328;  -10.048;33524.965
722.733;25040.533;  -12.108;32987.043
723.306;25838.367;  -10.818;33066.301
723.880;28076.711;   -8.908;33399.500
724.453;30032.506;   -9.878;33468.297
725.026;29100.301;  -11.188;33816.637
725.599;26415.135;  -11.678;32797.996
726.172;26790.797;   -9.618;33187.434
726.745;28182.857;   -8.258;35136.613
727.318;29826.316;  -12.978;35751.730
727.891;30529.045;  -12.148;35890.430
728.463;30362.316;   -8.968;34822.090
729.036;29161.510;  -10.188;32895.086
729.609;29359.572;  -11.788;31823.225
730.182;26014.580;  -11.788;31445.283
730.754;23511.535;  -10.268;32373.223
731.327;23673.623;   -9.998;33676.820
731.900;23757.035;  -12.228;33417.000
732.472;25156.486;  -13.848;31978.498
733.045;27405.010;   -8.698;30368.777
733.617;27337.568;  -10.607;30574.215
734.190;26821.371;  -11.507;31280.975
734.762;23936.471;  -13.647;31674.412
735.334;22243.539;   -9.767;31247.291
735.907;22644.035;   -9.897;29876.211
736.479;22417.592;  -11.637;29808.488
737.051;22180.846;   -9.567;30233.547
737.623;23760.027;   -8.187;31469.086
738.195;24836.521;  -11.187;31784.225
738.768;26422.148;  -12.337;32120.523
739.340;26345.871;  -12.227;32094.342
739.912;25162.322;  -11.057;31312.680
740.484;24016.834;  -10.207;31946.238
741.056;22916.600;  -10.047;32984.059
741.628;24631.369;  -13.627;33897.715
742.199;27044.141;   -7.177;33213.016
742.771;25349.387;  -10.797;31369.113
743.343;22883.955;  -11.997;31865.473
743.915;21640.750;  -12.867;32388.631
744.487;21790.180;   -7.617;31079.568
745.058;22073.215;   -9.557;30570.107
745.630;22779.348;   -9.877;29970.127
746.201;23701.645;  -14.177;29186.766
746.773;24038.176;   -9.237;28805.723
747.344;23973.523;   -9.847;29591.223
747.916;22572.496;  -11.657;31412.201
748.487;22334.662;  -10.587;32194.898
749.059;23601.488;   -8.707;32533.719
749.630;24826.803;  -10.537;32158.518
750.201;23863.596;  -11.687;30855.395
750.773;22015.115;  -11.647;28622.555
751.344;22051.518;   -7.147;28405.732
751.915;23043.486;   -9.757;28461.551
752.486;22245.094;  -12.427;27842.850
753.057;19938.838;  -12.227;27845.008
753.628;18843.813;  -10.417;27728.107
754.199;20097.178;  -11.767;27381.086
754.770;21343.943;  -11.187;25882.203
755.341;21325.395;  -10.507;25886.184
755.912;21545.838;   -9.387;26050.861
756.483;20873.172;  -10.647;26798.779
757.054;18993.541;  -11.837;27048.238
757.625;17744.525;  -12.716;26294.838
758.195;17482.537;   -9.666;26142.076
758.766;17144.572;   -8.656;26392.234
759.337;18104.158;  -12.856;26334.594
759.907;20098.400;  -13.366;27579.652
760.478;20991.924;   -8.576;28352.770
761.048;20398.023;  -10.526;27325.088
761.619;19607.705;  -11.116;26460.428
762.189;19467.012;  -12.136;26029.826
762.760;20328.930;   -9.456;26430.145
763.330;21533.998;   -7.136;26670.902
763.900;20938.369;  -11.786;26603.021
764.471;18161.406;  -11.546;25542.740
765.041;16891.924;   -8.096;24358.459
765.611;17196.113;   -8.876;23991.297
766.181;17747.830;  -12.196;24470.236
766.751;18449.650;  -11.636;24845.975
767.321;18315.264;  -10.156;24533.633
767.891;16451.703;  -11.766;24916.492
768.461;15874.973;  -14.936;24776.771
769.031;16343.699;  -12.356;24757.988
769.601;18097.900;   -7.526;24181.088
770.171;18119.553;  -10.766;23670.387
770.741;17148.566;  -13.176;22960.045
771.311;17227.723;  -10.616;22917.523
771.880;17529.879;   -9.576;23562.941
772.450;16934.188;  -10.336;24216.500
773.020;16800.666;  -13.516;24140.398
773.589;16485.182;  -13.466;24414.857
774.159;16103.804;   -8.686;23858.717
774.729;15768.814;   -9.476;22942.135
775.298;15264.073;  -13.666;22324.033
775.867;14818.925;  -11.716;21140.313
776.437;14853.805;   -9.906;20838.092
777.006;14535.819;  -12.166;20599.510
777.576;14513.130;  -12.356;20508.809
778.145;14717.177;  -11.646;20732.947
778.714;14589.807;   -8.226;21062.465
779.283;13726.747;   -9.556;20949.664
779.853;13307.389;  -14.116;20508.623
780.422;13784.450;  -11.506;20649.082
780.991;13376.184;   -9.556;21527.520
781.560;12362.543;   -9.095;22632.658
782.129;12209.969;  -12.135;23048.277
782.698;12180.351;  -10.865;23438.555
783.267;11813.278;   -9.335;23267.734
783.836;11709.352;  -11.045;22415.133
784.404;12644.558;  -13.865;20443.152
784.973;13066.920;  -13.095;19699.150
785.542;12908.111;  -11.575;19763.828
786.111;12805.902;   -9.705;20341.408
786.679;12465.514;  -12.105;20207.967
787.248;12256.719;  -12.455;19516.465
787.817;12010.453;  -11.535;18900.363
788.385;11565.519;   -9.765;17879.121
788.954;10947.166;  -14.005;17658.301
789.522;10503.594;  -11.955;17788.879
790.090;11103.644;  -10.135;18118.277
790.659;11499.065;  -10.975;18338.736
791.227;10868.861;  -13.375;18508.615
791.795;11293.700;  -12.375;17898.254
792.364;11735.345;  -10.725;17295.133
792.932;12042.028;   -9.715;16822.051
793.500;12212.269;  -12.675;17040.148
794.068;12464.099;  -13.495;17179.787
794.636;12617.224;  -10.885;16664.246
795.204;12091.730;  -11.045;16524.545
795.772;12096.516;  -13.175;17274.564
796.340;11589.405;  -12.445;17891.002
796.908;11413.598;   -9.735;17648.561
797.476;11456.148;   -9.815;17064.080
798.044;11075.953;  -13.985;16672.777
798.612;10215.177;  -13.115;17023.996
799.180; 9832.108;  -10.185;16561.615
799.747; 9716.715;   -9.055;15962.773
800.315; 9397.397;  -12.385;15296.992
800.883; 9070.021;  -15.035;14801.771
801.450; 9051.046;  -10.365;14534.430
802.018; 9070.319;   -9.855;14173.248
802.585; 9090.750;  -11.905;14029.547
803.153; 9141.537;  -11.585;13836.846
803.720; 9116.182;   -9.095;13567.324
804.287; 8799.974;   -9.135;13360.622
804.855; 8331.910;  -11.604;13681.981
805.422; 8179.963;  -11.794;13536.560
805.989; 8143.991;  -10.734;13355.958
806.556; 8276.239;  -10.444;13747.896
807.124; 8558.922;  -12.764;13987.376
807.691; 8492.460;  -12.964;14038.674
808.258; 8296.980;  -11.134;14120.152
808.825; 7987.270;   -9.854;13860.111
809.392; 8075.782;  -10.504;13268.790
809.959; 7615.799;  -13.054;12680.389
810.526; 7180.946;   -8.294;12427.308
811.093; 7205.665;   -8.394;12030.105
811.659; 7814.801;  -12.304;11653.664
812.226; 8284.215;  -13.944;11637.183
812.793; 7986.057;  -10.484;11611.521
813.360; 7334.016;  -10.144;11885.181
813.926; 6899.439;  -11.684;12770.539
814.493; 6600.560;  -13.644;12677.638
815.060; 6232.739;   -9.724;11974.336
815.626; 6312.328;   -9.854;11594.715
816.193; 6771.444;  -13.254;11579.474
816.759; 6812.505;  -13.204;11666.972
817.325; 6926.949;   -9.434;11325.530
817.892; 7283.538;  -10.134;11105.369
818.458; 7680.933;  -13.474;10843.928
819.024; 7334.821;  -11.854;10714.406
819.591; 6990.561;  -10.244;10469.165
820.157; 6709.504;  -10.704;10235.523
820.723; 6157.692;  -12.324;10847.563
821.289; 5903.327;   -9.444;11040.980
821.855; 5878.180;   -8.374;10357.100
822.421; 5945.109;  -10.234; 9978.918
822.987; 5928.244;  -13.294; 9754.177
823.553; 5591.712;  -10.884;10065.755
824.119; 5390.284;   -8.884;10036.294
824.685; 5469.870;   -6.784;10029.192
825.251; 5550.629;  -12.004;10199.230
825.816; 5508.039;  -11.474; 9820.189
826.382; 5305.981;   -9.174; 9297.248
826.948; 5506.962;   -9.214; 9381.347
827.513; 5927.483;  -10.774; 9450.726
828.079; 5746.535;  -11.924; 9472.444
828.645; 5164.325;  -10.543; 9292.643
829.210; 5061.133;  -10.533; 9065.341
829.776; 5032.699;  -10.753; 9132.620
830.341; 4889.016;  -10.173; 9092.878
830.906; 5062.321;  -10.743; 9078.557
831.472; 5454.381;  -11.113; 8534.535
832.037; 5253.549;  -10.603; 8677.874
832.602; 4687.747;  -13.323; 8628.692
833.167; 4340.083;  -10.823; 8879.031
833.733; 4257.847;  -10.113; 9189.790
834.298; 4367.490;  -13.583; 9052.608
834.863; 4392.130;  -12.703; 8895.087
835.428; 4356.486;  -10.523; 8824.266
835.993; 4266.525;   -6.963; 8845.385
836.558; 4148.661;  -10.763; 8888.563
837.123; 4266.060;   -9.903; 8966.582
837.688; 4459.497;   -9.913; 8617.860
838.253; 4666.222;  -10.283; 8590.699
838.817; 4863.840;  -12.963; 8443.797
839.382; 4790.416;  -14.243; 8799.356
839.947; 4489.946;  -10.733; 8810.595
840.511; 4192.220;   -9.383; 8796.394
841.076; 3834.704;  -12.563; 8347.231
841.641; 3873.313;  -12.953; 8224.330
842.205; 3943.444;   -7.043; 8223.349
842.770; 4051.295;   -8.163; 8622.107
843.334; 4287.867;  -12.503; 8410.386
843.898; 4276.729;  -11.693; 8337.465
844.463; 4304.101;  -10.203; 8506.283
845.027; 4062.813;   -9.533; 8280.962
845.591; 3862.715;  -13.443; 8231.141
846.156; 3885.823;  -13.143; 7969.179
846.720; 3768.413;   -9.433; 7768.278
847.284; 3649.512;  -11.033; 7630.957
847.848; 3478.916;  -10.403; 7472.395
848.412; 3388.050;  -11.553; 7437.394
848.976; 3448.097;   -8.393; 7674.592
849.540; 3394.941;   -8.713; 7836.011
850.104; 3476.775;  -12.463; 7913.669
850.668; 3826.169;  -12.973; 7694.508
851.232; 3953.638;  -10.793; 7756.887
851.796; 3779.398;  -10.662; 7926.545
852.359; 3467.801;  -13.082; 7827.844
852.923; 3309.614;  -12.192; 7641.163
853.487; 3138.360;  -11.912; 7342.501
854.050; 3069.362;  -10.892; 7042.820
854.614; 3205.617;  -13.992; 7151.338
855.177; 3322.247;  -11.732; 7105.077
855.741; 3382.184;   -8.962; 6989.675
856.304; 3282.680;   -9.442; 6596.634
856.868; 3207.029;  -14.192; 6356.272
857.431; 3312.639;  -12.702; 6468.571
857.995; 3416.122;   -9.942; 6373.210
858.558; 3431.121;   -9.112; 6324.448
859.121; 3178.500;  -12.932; 6408.327
859.684; 3072.990;  -13.442; 6347.886
860.247; 3211.693;  -10.632; 6321.264
860.810; 3193.570;  -11.272; 6301.903
861.374; 2946.221;   -9.832; 6607.881
861.937; 2691.058;  -11.762; 6408.200
862.500; 2651.635;   -9.722; 6572.639
863.062; 2797.982;  -10.512; 6387.297
863.625; 2977.723;  -11.232; 6190.836
864.188; 3148.714;  -14.112; 5807.254
864.751; 3200.529;  -11.302; 5682.413
865.314; 3087.506;  -10.112; 5547.492
865.876; 2903.892;  -12.182; 5500.150
866.439; 2913.120;  -10.722; 5415.909
867.002; 2870.929;   -9.252; 5501.567
867.564; 2652.863;   -9.572; 5413.946
868.127; 2441.691;  -13.142; 5160.325
868.689; 2356.166;  -12.902; 5133.183
869.252; 2295.031;   -9.732; 5252.382
869.814; 2208.213;   -9.432; 5297.141
870.377; 2221.429;  -11.552; 5390.919
870.939; 2292.185;   -9.052; 5599.898
871.501; 2347.673;  -10.982; 5248.336
872.063; 2348.678;  -12.292; 4854.235
872.626; 2308.123;  -14.912; 4817.074
873.188; 2322.415;  -13.112; 4987.732
873.750; 2281.441;  -13.442; 4868.651
874.312; 2184.063;   -9.402; 4779.330
874.874; 2099.962;  -11.062; 4866.348
875.436; 2024.744;  -13.931; 4718.887
875.998; 2019.563;   -9.561; 4660.005
876.560; 2028.473;  -11.321; 4462.964
877.122; 1962.460;  -12.221; 4145.042
877.683; 1859.514;  -12.191; 4056.481
878.245; 1810.186;  -12.101; 3950.740
878.807; 1914.591;   -8.971; 4058.958
879.369; 2047.301;  -12.071; 3954.677
879.930; 2021.052;  -14.621; 3941.495
880.492; 1898.658;  -10.311; 4067.014
881.053; 1639.588;  -10.901; 3859.633
881.615; 1225.713;  -14.411; 3776.071
882.176;  922.786;  -13.761; 3734.750
882.738;  826.450;   -9.181; 3678.489
883.299;  846.124;  -11.791; 3405.407
883.860;  908.334;  -13.121; 3351.106
884.422;  972.747;  -11.211; 3394.044
884.983;  996.609;  -10.091; 3166.443
885.544;  972.589;   -8.461; 3189.802
886.105;  941.501;  -12.361; 3160.360
886.666;  913.432;  -14.141; 3093.059
887.227;  884.578;  -11.361; 2941.957
887.788;  839.006;  -11.401; 2974.836
888.349;  794.512;  -13.791; 2721.214
888.910;  804.922;  -13.191; 2696.493
889.471;  819.975;   -9.881; 2560.172
890.032;  810.565;   -9.881; 2558.190
890.593;  790.755;  -10.371; 2567.669
891.153;  767.530;  -13.301; 2460.307
891.714;  723.274;  -11.431; 2372.046
892.275;  690.232;  -11.291; 2309.505
892.835;  653.699;  -11.471; 2382.543
893.396;  603.994;  -11.541; 2295.502
893.956;  553.372;  -11.181; 2162.420
894.517;  519.756;  -11.741; 2125.439
895.077;  514.060;  -11.671; 2086.978
895.638;  514.978;  -11.311; 2126.316
896.198;  487.313;   -9.831; 1838.275
896.758;  444.103;   -8.421; 1892.813
897.319;  412.161;  -12.351; 1792.232
897.879;  395.798;  -13.511; 1762.751
898.439;  371.235;  -12.001; 1661.149
898.999;  346.595;  -10.180; 1781.468
899.559;  337.861;  -12.030; 1703.347
900.119;  334.476;  -15.710; 1537.525
900.679;  332.171;   -8.900; 1638.384
901.239;  319.041;   -8.340; 1527.902
901.799;  307.885;  -13.910; 1456.441
902.359;  301.445;  -13.460; 1357.140
902.919;  294.111;  -11.490; 1331.118
903.479;  281.508;  -12.110; 1317.257
904.038;  259.428;  -11.720; 1262.595
904.598;  244.063;  -13.610; 1152.034
905.158;  239.631;  -11.040; 1240.893
905.717;  233.559;  -10.900; 1233.691
906.277;  222.973;  -15.080; 1217.330
906.836;  212.725;  -13.380; 1222.408
907.396;  206.550;  -10.780; 1193.047
907.955;  199.751;   -8.500; 1182.526
908.515;  193.978;  -12.760; 1099.364
909.074;  188.041;  -11.900; 1092.863
909.633;  181.781;   -8.950; 1069.121
910.192;  177.340;   -8.770; 1196.460
910.752;  172.178;  -12.390; 1029.960
911.311;  166.367;  -13.680; 1009.780
911.870;  162.485;  -12.370;  971.460
912.429;  161.486;  -10.900; 1094.080
912.988;  158.238;  -11.690; 1081.060
913.547;  152.897;  -13.240;  940.380
914.106;  150.931;  -11.990;  999.420
914.665;  148.083;   -9.990;  984.020
915.224;  147.292;  -12.880; 1035.760
915.782;  148.034;  -12.350;  922.560
916.341;  147.641;   -9.110; 1049.840
916.900;  144.179;   -9.270;  925.260
917.458;  142.397;  -13.240;  884.220
918.017;  142.382;  -13.550;  942.600
918.576;  142.208;  -12.320;  904.440
919.134;  139.599;  -11.490;  837.980
919.693;  137.481;  -13.670;  893.060
920.251;  136.871;  -15.470;  876.500
920.809;  135.727;  -11.290;  839.580
921.368;  134.080;  -10.210;  885.360
921.926;  134.132;  -12.140;  842.940
922.484;  133.615;  -13.080;  903.360
923.042;  132.042;  -11.720;  880.340
923.601;  135.258;   -7.480;  998.680
924.159;  133.005;  -11.570;  935.560
924.717;  130.460;  -13.840;  841.080
925.275;  130.355;  -10.640;  903.240
925.833;  131.002;  -11.540;  779.320
926.391;  130.963;  -12.960;  938.380
926.949;  129.201;  -14.130;  857.680
927.506;  129.837;  -11.750;  903.500
928.064;  130.713;  -10.250;  877.580
928.622;  128.848;  -13.030;  880.100
929.180;  128.515;  -13.400;  814.180
929.737;  129.817;  -10.700;  808.540
930.295;  132.889;  -10.070;  928.480
930.853;  134.757;  -11.960;  849.100
931.410;  135.312;  -13.120;  821.120
931.968;  135.117;  -10.770;  940.660
932.525;  135.301;  -10.680;  909.380
933.082;  134.366;  -13.130;  811.440
933.640;  136.259;  -13.210;  925.900
934.197;  134.005;  -11.060;  886.360
934.754;  135.030;   -9.580;  897.780
935.312;  137.910;  -14.000;  863.340
935.869;  141.774;  -10.710; 1012.980
936.426;  141.828;   -9.860;  872.800
936.983;  142.834;   -9.710;  889.020
937.540;  141.905;  -13.990;  838.280
938.097;  142.101;  -14.040;  940.120
938.654;  142.349;  -10.310;  898.860
939.211;  145.190;  -10.560;  952.480
939.768;  148.197;  -13.900;  915.420
940.324;  151.258;  -14.760;  904.200
940.881;  152.295;  -10.370;  878.500
941.438;  152.522;   -8.260; 1021.200
941.995;  148.616;  -12.540;  992.560
942.551;  145.673;  -14.670;  875.620
943.108;  146.724;  -10.450;  937.920
943.664;  149.159;  -10.750;  869.340
944.221;  151.298;  -11.550; 1088.140
944.777;  149.210;  -14.770;  869.680
945.334;  150.792;  -12.820;  884.840
945.890;  153.822;  -10.130;  946.480
946.446;  153.892;  -13.470;  947.020
947.003;  154.704;  -12.120;  964.940
947.559;  156.801;   -9.980; 1063.040
948.115;  156.009;   -9.080; 1026.540
948.671;  153.780;  -10.830;  967.300
949.227;  151.372;  -12.440;  859.560
949.783;  147.867;  -12.910;  858.900
950.339;  149.247;  -10.270;  991.000
950.895;  149.529;  -13.630; 1023.840
951.451;  148.695;  -15.100;  925.280
952.007;  150.828;  -11.330;  998.540
952.563;  151.897;  -10.580;  937.780
953.118;  151.801;  -13.440;  904.940
953.674;  151.455;  -12.710;  935.780
954.230;  150.492;  -10.350;  949.640
954.785;  148.358;   -9.190;  936.640
955.341;  145.490;  -11.200;  998.160
955.897;  143.153;  -16.560;  834.660
956.452;  144.533;  -12.570;  953.840
957.008;  143.442;   -7.970; 1083.640
957.563;  140.723;  -11.940; 1009.540
958.118;  136.340;  -13.450;  877.700
958.674;  137.782;  -12.030;  946.780
959.229;  138.520;   -9.410; 1013.980
959.784;  135.815;  -12.000;  832.400
960.339;  134.857;  -14.780; 1001.280
960.894;  131.052;   -9.860;  963.760
961.449;  127.985;   -9.970;  859.960
962.004;  128.096;  -10.900; 1212.840
962.559;  123.141;  -13.150;  860.140
963.114;  121.453;  -13.740;  742.480
963.669;  120.646;   -9.820;  915.500
964.224;  119.215;  -13.890;  874.340
964.779;  118.458;  -12.600;  828.420
965.334;  120.090;  -10.950; 1017.860
965.888;  120.019;  -11.170;  875.360
966.443;  121.665;  -12.540;  972.380
966.998;  120.579;  -15.780;  819.460
967.552;  119.841;   -9.760;  908.380
968.107;  115.181;   -9.060;  868.300
968.661;  116.867;  -11.950;  922.440
969.216;  116.490;  -12.800;  856.280
969.770;  117.888;  -11.210;  917.200
970.324;  116.889;  -11.610;  923.140
970.879;  113.536;  -11.370;  947.180
971.433;  109.193;  -12.540;  952.720
971.987;  104.953;  -11.320;  895.340
972.541;  102.977;  -10.720;  917.100
973.095;  101.680;   -9.680; 1009.460
973.649;  100.866;  -11.440;  809.480
974.203;  100.817;  -11.210;  829.040
974.757;  100.229;  -10.240;  855.220
975.311;  100.452;  -13.720;  872.600
975.865;   99.382;  -13.770;  881.820
976.419;   97.968;  -11.690;  857.400
976.973;   98.629;   -9.510;  849.620
977.526;   99.652;  -12.620;  949.920
978.080;   99.604;  -12.010;  796.780
978.634;  101.345;  -10.170;  921.320
979.187;   98.633;   -9.020;  905.400
979.741;   94.964;   -9.820; 1018.380
980.294;   90.258;  -14.870;  789.160
980.848;   88.460;  -12.380;  717.220
981.401;   91.195;  -10.350;  816.540
981.955;   93.849;  -13.720;  844.300
982.508;   91.862;  -11.490;  746.340
983.061;   92.182;  -10.000;  915.260
983.615;   88.021;  -11.480;  798.800
984.168;   84.896;  -13.220;  770.080
984.721;   84.001;  -13.960;  880.760
985.274;   84.087;  -10.870;  867.500
985.827;   82.537;   -9.790;  834.220
986.380;   79.934;  -13.120;  721.340
986.933;   79.457;  -12.450;  864.800
987.486;   78.110;  -10.210;  861.920
988.039;   76.527;   -8.430;  863.100
988.591;   74.353;  -10.520;  893.260
989.144;   71.467;  -14.860;  737.260
989.697;   72.120;  -13.080;  758.740
990.250;   71.726;  -10.150;  858.100
990.802;   70.734;  -13.430;  755.860
991.355;   71.817;  -12.750;  974.880
991.907;   69.485;  -12.040;  864.320
992.460;   67.153;  -11.330;  753.760
993.012;   65.963;  -13.610;  749.540
993.565;   65.195;  -13.460;  711.360
994.117;   66.763;   -9.360;  950.780
994.669;   62.536;  -11.300;  701.320
995.221;   61.381;  -13.540;  791.920
995.774;   59.520;  -13.430;  787.580
996.326;   58.410;  -12.520;  740.220
996.878;   58.105;  -10.950;  838.420
997.430;   55.646;  -14.300;  699.860
997.982;   55.473;  -13.760;  750.140
998.534;   54.115;  -11.530;  739.060
999.086;   53.316;  -10.310;  738.220
999.638;   51.631;  -12.530;  661.380
1000.190;   51.047;  -11.840;  699.320
1000.741;   50.982;  -10.260;  742.700
1001.293;   50.657;   -8.860;  686.020
1001.845;   48.677;  -13.700;  676.640
1002.396;   48.785;  -12.100;  743.400
1002.948;   48.675;  -12.760;  737.400
1003.500;   46.793;  -10.380;  723.780
1004.051;   47.252;  -11.900;  907.580
1004.603;   45.193;  -12.250;  791.820
1005.154;   43.282;  -13.210;  608.980
1005.705;   41.427;  -10.950;  723.960
1006.257;   40.930;  -13.880;  707.220
1006.808;   39.953;  -12.840;  685.460
1007.359;   40.234;  -10.570;  763.240
1007.910;   39.185;   -9.620;  646.640
1008.461;   38.374;  -13.630;  732.940
1009.013;   37.930;  -17.200;  588.340
1009.564;   38.842;  -10.200;  793.520
1010.115;   36.671;  -12.570;  597.040
1010.665;   36.046;  -15.150;  602.160
1011.216;   36.958;  -14.480;  667.920
1011.767;   35.800;  -11.340;  697.920
1012.318;   36.830;   -9.780;  736.980
1012.869;   34.304;  -12.380;  679.000
1013.419;   34.632;  -15.560;  603.120
1013.970;   35.702;  -11.010;  666.640
1014.521;   33.725;  -11.610;  620.620
1015.071;   34.030;  -13.450;  670.380
1015.622;   34.286;  -13.870;  635.460
1016.172;   33.871;  -11.610;  596.820
1016.723;   32.842;  -12.120;  614.380
1017.273;   32.373;  -13.620;  604.160
1017.823;   32.863;  -14.140;  650.340
1018.374;   32.431;  -12.800;  611.760
1018.924;   31.801;  -12.340;  716.880
1019.474;   32.151;  -11.410;  718.880
1020.024;   31.373;  -14.770;  657.580
1020.574;   31.671;   -9.780;  726.160
1021.124;   32.000;   -8.560;  673.580
1021.674;   31.199;  -15.190;  559.120
1022.224;   31.491;  -13.530;  708.940
1022.774;   31.672;  -13.280;  668.820
1023.324;   31.720;  -10.690;  753.520
1023.874;   32.053;  -10.240;  875.760
1024.423;   30.566;  -12.540;  613.700
1024.973;   30.082;  -10.010;  610.760
1025.523;   29.530;  -10.550;  620.960
1026.072;   28.740;  -13.560;  606.420
1026.622;   28.125;  -15.120;  675.740
1027.172;   30.236;  -11.260;  715.660
1027.721;   28.724;  -11.410;  601.220
1028.270;   29.076;  -13.530;  663.400
1028.820;   28.338;  -13.680;  638.080
1029.369;   28.465;  -13.520;  612.700
1029.918;   29.206;  -10.980;  649.840
1030.468;   27.357;  -13.530;  564.780
1031.017;   27.838;  -13.170;  634.800
1031.566;   27.914;  -12.200;  608.900
1032.115;   27.796;   -9.960;  694.500
1032.664;   26.342;  -13.210;  596.480
1033.213;   27.449;  -12.500;  735.420
1033.762;   27.284;  -11.910;  635.620
1034.311;   26.932;   -9.640;  677.220
1034.860;   26.430;  -13.310;  691.000
1035.408;   26.567;  -11.830;  722.720
1035.957;   27.300;  -12.000;  719.540
1036.506;   25.162;  -11.690;  530.800
1037.055;   27.338;  -10.990;  844.320
1037.603;   25.291;  -15.120;  664.000
1038.152;   24.298;  -12.450;  534.760
1038.700;   24.957;  -10.560;  585.740
1039.249;   24.274;  -11.080;  681.220
1039.797;   25.214;  -12.540;  633.360
1040.345;   24.957;  -11.920;  705.420
1040.894;   24.328;  -11.410;  625.300
1041.442;   23.979;  -14.320;  632.200
1041.990;   22.920;  -16.240;  559.160
1042.538;   22.889;  -11.680;  536.180
1043.087;   23.411;  -10.760;  570.860
1043.635;   24.420;  -11.850;  670.500
1044.183;   23.209;  -15.480;  586.400
1044.731;   22.996;  -11.770;  576.000
1045.279;   23.191;  -13.090;  674.920
1045.827;   24.522;  -12.440;  892.400
1046.374;   22.088;  -13.840;  515.420
1046.922;   21.621;  -13.220;  590.580
1047.470;   23.277;  -10.230;  691.300
1048.018;   22.252;  -14.590;  647.960
1048.565;   23.270;  -12.050;  708.600
1049.113;   22.015;  -11.650;  557.000
1049.660;   21.977;  -10.510;  629.660
1050.208;   22.056;  -13.310;  675.640
1050.755;   21.239;  -15.900;  606.580
1051.303;   21.119;  -11.430;  686.820
1051.850;   21.288;   -8.480;  635.120
1052.397;   19.980;  -15.010;  473.960
1052.945;   20.282;  -13.960;  617.760
1053.492;   21.435;  -13.150;  741.840
1054.039;   21.711;   -9.630;  720.180
1054.586;   19.425;  -13.680;  557.240
1055.133;   20.920;  -14.570;  693.140
1055.680;   20.476;  -13.820;  646.620
1056.227;   19.174;  -11.730;  542.780
1056.774;   20.571;  -12.480;  794.980
1057.321;   18.289;  -13.930;  523.260
1057.868;   19.349;  -11.690;  651.320
1058.415;   18.920;   -9.520;  651.980
1058.961;   19.738;  -13.160;  678.940
1059.508;   19.125;  -12.920;  643.820
1060.055;   19.482;  -11.920;  581.780
1060.601;   19.241;  -11.500;  624.300
1061.148;   19.170;  -14.330;  616.820
1061.694;   17.499;  -16.870;  592.580
1062.241;   18.652;  -10.330;  596.320
1062.787;   18.958;  -10.620;  663.140
1063.334;   19.872;  -10.110;  808.560
1063.880;   18.708;  -13.400;  668.360
1064.426;   18.125;  -10.680;  706.820
1064.972;   17.517;   -9.920;  601.340
1065.518;   16.343;  -10.980;  566.640
1066.065;   17.689;  -14.890;  624.460
1066.611;   17.465;  -12.870;  598.800
1067.157;   17.579;  -12.950;  641.860
1067.703;   17.289;  -13.540;  668.480
1068.249;   17.465;  -13.540;  605.220
1068.794;   17.033;  -12.600;  626.880
1069.340;   16.295;  -10.620;  578.960
1069.886;   16.765;  -12.830;  590.700
1070.432;   15.367;  -14.870;  541.720
1070.977;   15.841;  -11.980;  601.080
1071.523;   15.800;   -8.200;  573.060
1072.068;   16.052;  -12.330;  582.000
1072.614;   15.467;  -16.370;  527.760
1073.160;   16.087;  -11.100;  687.040
1073.705;   14.915;  -10.480;  572.520
1074.250;   15.293;  -14.520;  559.900
1074.796;   16.062;  -11.460;  655.160
1075.341;   16.393;  -11.950;  664.100
1075.886;   15.274;  -11.460;  594.240
1076.431;   14.613;  -13.770;  649.880
1076.976;   14.999;  -12.680;  639.220
1077.521;   14.513;  -13.170;  583.080
1078.067;   13.714;  -10.860;  579.400
1078.612;   14.006;  -13.920;  661.620
1079.156;   14.560;  -13.880;  601.540
1079.701;   15.294;  -13.120;  693.260
1080.246;   15.568;   -9.940;  696.300
1080.791;   13.952;  -14.740;  625.020
1081.336;   14.212;  -13.750;  659.320
1081.880;   14.366;  -13.400;  649.680
1082.425;   13.594;  -12.220;  573.480
1082.970;   14.436;  -11.610;  717.040
1083.514;   13.665;  -13.580;  597.000
1084.059;   12.687;  -12.810;  586.720
1084.603;   12.556;  -12.320;  565.840
1085.147;   13.333;  -13.190;  645.220
1085.692;   13.817;  -12.480;  716.800
1086.236;   11.466;  -13.020;  503.140
1086.780;   14.099;   -9.190;  751.440
1087.325;   12.802;  -12.480;  654.620
1087.869;   12.517;  -12.450;  610.700
1088.413;   14.017;  -12.240;  705.040
1088.957;   11.944;   -9.020;  543.400
1089.501;   13.165;  -10.320;  766.640
1090.045;   12.025;  -12.720;  726.480
1090.589;   10.357;  -13.690;  569.920
1091.133;   11.703;  -10.020;  673.340
1091.676;   11.698;  -12.330;  591.940
1092.220;   11.202;  -14.970;  600.920
1092.764;   12.336;  -12.430;  706.960
1093.307;   12.284;   -9.800;  673.780
1093.851;   10.460;  -14.970;  556.540
1094.395;   11.526;  -15.310;  683.140
1094.938;   10.764;  -10.370;  632.520
1095.482;   10.837;  -11.050;  559.800
1096.025;   10.759;  -11.840;  710.880
1096.568;   11.166;  -12.840;  779.280
1097.112;    9.522;  -14.700;  508.180
1097.655;   11.398;   -8.720;  603.000
1098.198;    8.752;  -13.610;  600.180
1098.741;    9.596;  -13.350;  612.860
1099.285;   11.427;  -11.230;  657.300
1099.828;    8.577;  -11.840;  439.400
1100.371;    9.980;  -10.840;  608.160
1100.914;    9.560;  -14.190;  682.660
1101.457;   10.202;  -11.240;  679.900
1101.999;    8.480;  -11.270;  584.680
1102.542;    9.313;  -11.480;  641.440
1103.085;    9.322;  -11.750;  658.500
1103.628;   10.615;  -11.400;  762.060
1104.170;    9.525;  -10.490;  588.280
1104.713;    9.387;  -10.600;  646.700
1105.256;    8.558;  -14.360;  557.440
1105.798;    8.060;  -13.210;  499.980
1106.341;   10.362;  -10.270;  728.900
1106.883;    8.084;  -12.200;  521.340
1107.425;    8.663;  -13.110;  668.180
1107.968;    8.687;  -12.840;  612.380
1108.510;    8.718;   -6.480;  684.960
1109.052;    7.329;  -13.940;  612.620
1109.594;    7.211;  -13.690;  554.440
1110.136;    8.648;  -11.880;  643.220
1110.679;    8.010;   -9.500;  633.080
1111.221;    8.019;  -14.160;  604.460
1111.763;    7.345;  -13.980;  559.220
1112.304;    7.118;  -13.880;  547.140
1112.846;    7.739;  -12.210;  666.240
1113.388;   10.255;  -11.390;  942.180
1113.930;    7.468;  -14.540;  694.200
1114.472;    7.135;  -12.640;  606.540
1115.013;    6.536;  -11.620;  551.280
1115.555;    6.005;  -13.640;  587.100
1116.097;    5.072;  -15.380;  579.480
1116.638;    7.155;  -12.640;  684.600
1117.180;    7.069;   -9.850;  667.740
1117.721;    6.075;  -13.690;  568.580
1118.262;    7.263;  -12.680;  677.960
1118.804;    7.388;  -12.530;  637.340
1119.345;    6.047;  -11.690;  578.400
1119.886;    7.003;  -13.380;  704.040
1120.427;    5.100;  -14.070;  589.020
1120.969;    5.950;  -13.500;  597.920
1121.510;    5.610;  -11.480;  563.060
1122.051;    5.774;  -12.830;  723.580
1122.592;    5.119;  -14.290;  655.420
1123.133;    4.462;  -12.400;  547.940
1123.673;    6.491;  -10.130;  706.480
1124.214;    5.464;  -12.930;  612.460
1124.755;    6.096;  -14.380;  639.460
1125.296;    5.494;  -14.000;  627.320
1125.836;    5.808;  -10.070;  691.500
1126.377;    4.294;  -12.640;  599.660
1126.918;    4.987;  -12.960;  614.980
1127.458;    5.123;  -13.350;  622.220
1127.999;    5.477;  -10.750;  656.980
1128.539;    5.639;  -12.350;  694.240
1129.079;    4.524;  -14.860;  632.720
1129.620;    3.901;  -13.840;  558.100
1130.160;    4.640;  -12.330;  539.480
1130.700;    4.607;  -14.530;  640.840
1131.240;    4.602;  -12.530;  643.700
1131.781;    4.446;  -14.450;  619.680
1132.321;    4.382;   -9.790;  599.120
1132.861;    3.405;  -14.860;  564.200
1133.401;    3.057;  -14.290;  593.940
1133.941;    3.552;  -11.750;  626.280
1134.481;    3.751;   -9.920;  597.580
1135.020;    2.652;  -12.290;  609.160
1135.560;    3.461;  -11.650;  674.940
1136.100;    3.203;  -16.270;  501.160
1136.640;    2.898;  -10.890;  510.480
1137.179;    2.501;  -14.180;  537.960
1137.719;    3.306;  -16.250;  605.400
1138.258;    3.528;  -14.230;  587.360
1138.798;    4.147;   -9.090;  663.780
1139.337;    1.861;  -15.130;  482.840
1139.877;    2.431;  -13.680;  642.360
1140.416;    5.442;  -11.320;  878.060
1140.955;    1.923;  -10.860;  535.380
1141.494;    2.318;  -12.920;  669.280
1142.034;    1.719;  -13.930;  583.520
1142.573;    3.173;  -11.440;  646.280
1143.112;    2.183;  -12.000;  553.480
1143.651;    1.948;  -13.670;  536.480
1144.190;    2.931;  -12.730;  691.640
1144.729;    2.563;  -14.560;  607.420
1145.267;    2.313;  -11.830;  584.900
1145.806;    2.434;  -12.230;  637.040
1146.345;    1.820;  -14.130;  635.020
1146.884;    1.805;  -11.590;  622.500
1147.422;    1.531;  -12.550;  533.060
1147.961;    2.804;  -11.180;  708.460
1148.500;    1.900;  -11.510;  669.720
1149.038;    3.116;  -11.640;  632.500
1149.577;    2.099;  -10.130;  698.640
1150.115;   -0.640;  -13.970;  452.280
1150.653;    1.268;  -14.520;  607.340
1151.192;    1.243;  -12.810;  552.920
1151.730;    1.435;   -9.100;  652.560
1152.268;    0.131;  -12.220;  589.520
1152.806;    1.216;  -14.140;  571.180
1153.344;   -0.349;  -12.350;  577.640
1153.882;    0.939;   -8.980;  600.060
1154.421;   -0.800;  -15.190;  470.620
1154.958;    0.663;  -15.210;  595.240
1155.496;    1.707;  -12.850;  645.280
1156.034;    1.062;   -9.940;  721.880
1156.572;    1.736;  -13.570;  667.060
1157.110;   -0.217;  -14.590;  473.940
1157.647;    1.101;  -13.030;  676.960
1158.185;   -0.067;  -12.140;  564.320
1158.723;   -0.970;  -14.390;  509.200
1159.260;    0.027;  -14.090;  701.700
1159.798;    0.924;  -11.920;  658.160
1160.335;   -0.355;  -11.110;  631.820

