
Integration time [ms]:   3.276
Averaging Nr. [scans]: 1000
Smoothing Nr. [pixels]: 0
Data measured with spectrometer [name]: 7414430SP
Wave   ;Sample   ;Dark     ;Reference
[nm]   ;[counts] ;[counts] ;[counts] 

288.544;  150.491;    7.793;  793.890
289.143;  154.332;    7.462;  681.602
289.742;  154.625;    8.602;  828.814
290.341;  139.789;    1.321;  789.841
290.940;  128.287;   -0.709;  730.702
291.538;  129.121;    0.881;  881.108
292.137;  129.795;    0.122;  792.581
292.736;  134.283;   -1.929;  975.101
293.335;  130.977;   -8.229;  735.086
293.934;  131.928;   -5.279;  781.677
294.532;  129.449;   -1.369; 1031.958
295.131;  115.376;   -7.641;  834.394
295.730;  116.204;   -8.420;  809.588
296.328;  114.762;   -5.611;  783.442
296.927;  115.768;   -5.781;  779.652
297.525;  116.808;   -6.361;  781.236
298.124;  105.835;  -11.382;  654.009
298.722;  110.591;   -7.641;  761.933
299.321;  108.010;   -6.811;  708.597
299.919;  106.721;   -6.991;  751.918
300.518;  103.638;  -10.362;  689.338
301.116;  105.252;   -9.581;  691.381
301.715;  104.631;   -4.891;  730.222
302.313;  103.784;   -8.801;  704.943
302.911;  100.449;   -8.522;  733.830
303.509;  104.460;   -6.171;  925.627
304.108;  102.266;   -7.311;  760.383
304.706;  101.514;   -8.321;  801.664
305.304;   96.308;  -10.222;  796.707
305.902;  101.818;   -6.021;  784.484
306.500;   97.741;   -4.971;  728.200
307.098;   95.330;   -7.061;  746.560
307.696;   93.516;   -8.801;  780.432
308.294;   94.416;   -6.411;  731.359
308.892;   96.484;   -2.901;  759.769
309.490;   92.740;   -5.041;  712.161
310.088;   90.798;   -5.002;  788.444
310.686;   95.147;   -2.041;  821.749
311.284;   90.959;   -2.351;  766.040
311.882;   88.371;   -4.422;  731.225
312.480;   86.161;   -4.192;  697.167
313.078;   87.001;   -1.172;  808.331
313.675;   87.832;   -2.601;  691.600
314.273;   83.030;   -1.312;  797.837
314.871;   82.832;   -3.942;  589.829
315.468;   80.012;   -2.802;  652.090
316.066;   82.591;   -0.701;  694.427
316.664;   76.470;   -4.362;  656.351
317.261;   79.724;   -2.872;  910.128
317.859;   76.149;   -2.022;  768.735
318.456;   75.983;   -0.531;  830.096
319.054;   72.262;   -3.912;  787.828
319.651;   71.079;   -4.752;  759.928
320.249;   69.471;   -2.602;  810.188
320.846;   67.166;   -0.821;  714.286
321.443;   65.025;   -4.642;  832.135
322.041;   62.170;   -5.002;  812.315
322.638;   60.358;   -3.982;  701.456
323.235;   60.474;   -3.411;  665.683
323.833;   58.403;   -7.361;  740.354
324.430;   53.358;   -8.611;  615.900
325.027;   54.342;   -4.061;  876.855
325.624;   54.013;   -4.031;  644.532
326.221;   51.749;   -7.481;  689.717
326.818;   51.530;   -5.281;  818.332
327.415;   54.871;   -7.460;  748.828
328.012;   54.154;   -5.510;  690.585
328.609;   51.988;   -7.880;  731.389
329.206;   50.982;   -8.331;  778.621
329.803;   50.890;   -5.121;  737.841
330.400;   53.750;   -4.510;  704.260
330.997;   55.152;   -6.441;  817.147
331.594;   53.537;   -8.831;  788.185
332.191;   59.165;   -7.621;  728.722
332.787;   62.668;   -4.591;  844.463
333.384;   60.179;   -7.412;  763.093
333.981;   59.693;   -8.293;  815.687
334.578;   62.568;   -7.052;  708.378
335.174;   64.437;   -3.102;  731.469
335.771;   64.291;   -5.943;  836.456
336.367;   60.421;   -7.393;  710.631
336.964;   64.534;   -4.063;  793.266
337.561;   62.156;   -3.813;  731.112
338.157;   57.633;   -4.654;  911.916
338.754;   55.518;   -7.934;  796.589
339.350;   53.774;   -4.414;  722.493
339.946;   56.307;   -4.664;  773.135
340.543;   47.376;   -6.375;  846.136
341.139;   43.094;   -9.815;  720.836
341.735;   40.285;   -4.526;  772.593
342.332;   39.003;   -4.895;  691.472
342.928;   39.099;   -4.295;  795.394
343.524;   34.009;   -5.476;  761.684
344.120;   30.933;   -5.856;  738.562
344.716;   32.595;   -2.155;  723.717
345.313;   31.812;   -6.275;  795.342
345.909;   25.881;   -8.815;  627.336
346.505;   28.125;   -5.305;  740.247
347.101;   28.041;   -2.674;  827.864
347.697;   28.578;   -4.344;  785.398
348.293;   22.970;   -9.975;  627.244
348.889;   25.079;   -5.774;  745.914
349.485;   24.144;   -5.004;  688.205
350.081;   23.816;   -4.704;  772.592
350.676;   19.567;   -6.635;  691.606
351.272;   24.292;   -4.504;  809.530
351.868;   23.073;   -3.914;  780.497
352.464;   20.538;   -9.044;  723.932
353.059;   17.417;   -8.314;  646.017
353.655;   20.146;   -7.024;  777.063
354.251;   21.492;   -5.343;  759.845
354.846;   15.673;   -8.604;  740.646
355.442;   14.217;   -6.945;  753.071
356.038;   16.218;   -7.564;  751.708
356.633;   15.961;   -5.814;  728.594
357.229;   13.688;   -7.364;  724.757
357.824;   12.204;   -8.024;  703.600
358.420;   11.926;   -9.384;  679.726
359.015;   11.486;   -5.104;  695.357
359.610;   12.516;   -6.854;  763.920
360.206;    7.810;  -10.185;  603.240
360.801;   10.044;   -7.054;  646.503
361.396;   13.041;   -5.034;  725.975
361.992;    7.942;   -8.284;  668.220
362.587;    5.151;   -8.625;  670.160
363.182;    7.477;   -7.674;  689.631
363.777;    7.699;   -5.164;  738.242
364.372;    6.743;   -8.604;  737.314
364.967;    3.270;   -9.055;  680.744
365.563;    7.920;   -6.114;  815.567
366.158;    5.356;   -5.814;  685.161
366.753;    4.641;   -7.854;  649.263
367.348;    3.637;   -7.804;  746.056
367.942;    4.121;   -7.954;  697.298
368.537;    3.404;   -4.984;  754.245
369.132;    2.113;   -8.564;  703.428
369.727;   -0.744;   -8.855;  638.079
370.322;    0.332;   -6.245;  580.186
370.917;    0.594;   -6.425;  710.646
371.511;    3.009;   -6.294;  861.834
372.106;    0.192;   -7.685;  776.964
372.701;   -3.255;   -7.335;  585.988
373.296;    1.438;   -4.564;  863.135
373.890;   -2.555;  -10.235;  647.840
374.485;   -4.967;   -7.885;  691.199
375.079;   -0.607;   -7.324;  738.685
375.674;    0.242;   -3.494;  812.970
376.268;   -4.438;   -8.525;  691.759
376.863;   -9.731;  -10.086;  580.327
377.457;   -3.520;   -7.025;  662.490
378.052;   -5.010;   -3.585;  764.884
378.646;   -6.796;   -7.595;  741.167
379.240;   -6.394;   -8.335;  721.176
379.835;   -5.525;   -5.785;  636.978
380.429;   -7.951;   -4.335;  562.557
381.023;   -7.516;   -6.805;  779.205
381.617;   -9.801;   -9.195;  680.106
382.212;   -6.901;   -6.905;  685.303
382.806;   -5.306;   -3.745;  760.690
383.400;   -9.355;   -7.745;  672.281
383.994;  -10.729;   -9.765;  664.870
384.588;   -6.535;   -6.564;  697.701
385.182;   -5.313;   -5.344;  726.624
385.776;   -7.742;   -8.514;  706.875
386.370;  -10.404;   -9.555;  681.968
386.964;   -8.961;   -8.715;  684.155
387.558;   -7.545;   -6.174;  598.360
388.152;  -11.075;   -8.725;  681.959
388.745;   -9.556;   -7.965;  814.707
389.339;   -6.977;   -5.924;  747.642
389.933;   -6.365;   -5.524;  695.370
390.527;   -7.342;   -7.114;  859.029
391.120;  -13.285;  -10.725;  595.318
391.714;   -9.956;   -8.035;  711.633
392.308;   -7.043;   -3.574;  780.253
392.901;  -11.403;   -7.245;  642.460
393.495;  -12.791;   -9.285;  595.414
394.089;  -10.208;   -5.895;  760.452
394.682;  -10.617;   -4.295;  697.188
395.275;  -11.800;   -9.875;  719.927
395.869;  -13.025;   -8.485;  667.314
396.462;  -11.486;   -7.455;  616.609
397.056;   -6.987;   -5.424;  776.621
397.649;  -12.269;   -6.605;  731.575
398.242;   -9.784;   -8.224;  712.645
398.836;   -8.406;   -7.474;  766.408
399.429;   -9.578;   -7.094;  631.041
400.022;  -13.428;   -9.475;  665.902
400.615;  -10.984;   -7.145;  805.609
401.208;   -8.803;   -7.174;  691.451
401.802;  -11.224;   -5.515;  699.329
402.395;  -11.973;   -9.875;  683.502
402.988;  -13.262;   -8.845;  696.627
403.581;   -9.631;   -8.874;  646.878
404.174;   -7.362;   -5.324;  686.568
404.767;  -10.728;   -9.575;  638.583
405.360;  -13.209;  -10.965;  621.445
405.953;   -7.514;   -8.764;  759.034
406.545;   -7.778;   -7.514;  725.342
407.138;  -11.626;  -10.025;  618.350
407.731;  -10.114;  -10.034;  613.303
408.324;   -6.268;   -9.374;  660.554
408.917;   -7.618;   -6.534;  681.864
409.509;   -9.637;   -8.004;  740.396
410.102;  -11.008;   -9.875;  643.948
410.695;   -5.207;   -8.604;  665.758
411.287;   -6.835;   -6.794;  599.821
411.880;   -7.305;   -9.334;  585.421
412.472;  -10.127;  -10.254;  613.092
413.065;   -7.361;   -6.714;  629.408
413.657;   -5.196;   -7.234;  576.678
414.250;   -5.421;  -10.544;  646.681
414.842;   -6.713;   -9.744;  676.353
415.434;   -4.182;   -6.994;  570.463
416.027;   -0.310;   -5.893;  652.196
416.619;   -2.476;   -7.264;  713.400
417.211;   -2.955;  -10.374;  599.352
417.804;    0.464;   -7.993;  628.499
418.396;   -2.756;   -7.234;  607.643
418.988;   -1.396;   -9.443;  659.238
419.580;   -4.350;  -10.724;  568.276
420.172;   -2.264;  -10.323;  536.196
420.764;    1.569;   -8.793;  672.482
421.356;    0.212;  -11.143;  636.898
421.948;   -0.136;   -8.293;  677.661
422.540;    5.337;   -7.893;  680.027
423.132;    3.927;   -7.082;  600.641
423.724;    0.319;   -8.653;  561.267
424.316;    3.833;  -10.213;  621.345
424.908;    6.535;   -9.762;  591.517
425.500;    6.660;   -5.572;  647.978
426.092;    7.614;   -8.422;  648.268
426.683;    6.510;   -9.283;  684.836
427.275;    9.790;   -7.852;  641.471
427.867;   10.490;   -5.272;  668.948
428.458;   11.122;   -7.682;  732.344
429.050;   10.157;  -10.612;  680.749
429.642;   11.994;   -9.882;  743.124
430.233;   12.396;   -6.962;  569.356
430.825;   14.291;   -6.842;  724.809
431.416;   11.494;   -9.672;  698.241
432.008;   14.986;   -6.552;  651.723
432.599;   15.907;   -6.891;  656.073
433.190;   13.053;  -10.912;  637.670
433.782;   12.414;  -11.172;  590.395
434.373;   19.891;   -6.061;  884.765
434.964;   17.507;   -8.251;  602.920
435.556;   16.410;   -9.722;  634.537
436.147;   18.742;   -9.082;  758.490
436.738;   19.593;   -8.041;  701.099
437.329;   24.315;   -7.341;  721.723
437.920;   17.368;   -8.162;  666.688
438.511;   17.607;  -11.802;  564.526
439.103;   24.120;  -10.191;  623.998
439.694;   25.760;   -7.601;  681.583
440.285;   25.620;   -8.541;  764.432
440.876;   24.465;   -9.751;  845.738
441.466;   23.827;   -9.401;  575.162
442.057;   29.802;   -7.760;  665.814
442.648;   27.440;   -9.971;  746.255
443.239;   26.565;  -11.001;  620.477
443.830;   31.310;   -7.990;  704.958
444.421;   33.071;   -7.910;  655.474
445.011;   30.113;   -8.131;  693.619
445.602;   29.776;   -7.111;  743.126
446.193;   31.659;  -10.920;  488.117
446.783;   35.701;   -6.500;  640.397
447.374;   31.085;   -8.671;  692.759
447.964;   32.100;  -10.781;  713.770
448.555;   40.422;   -9.650;  822.742
449.145;   37.790;   -8.660;  662.853
449.736;   37.989;   -8.990;  803.179
450.326;   37.926;   -9.500;  713.626
450.917;   42.577;   -8.680;  675.324
451.507;   41.889;   -7.520;  600.661
452.097;   42.621;   -8.590;  746.267
452.688;   43.676;  -11.340;  742.160
453.278;   43.208;  -10.100;  566.840
453.868;   47.788;   -6.019;  793.550
454.458;   45.662;   -9.440;  651.141
455.048;   46.680;  -10.560;  711.783
455.639;   47.715;  -11.799;  567.096
456.229;   51.852;   -6.899;  710.694
456.819;   52.445;   -7.389;  751.158
457.409;   53.427;  -11.119;  773.993
457.999;   56.422;   -9.289;  737.505
458.589;   55.974;   -6.139;  686.606
459.179;   56.009;   -8.729;  717.658
459.769;   54.406;   -9.789;  627.099
460.358;   59.055;  -10.259;  797.262
460.948;   59.286;   -7.299;  689.503
461.538;   60.941;  -10.289;  660.677
462.128;   58.822;  -11.269;  664.934
462.717;   65.840;   -9.368;  710.326
463.307;   68.959;   -7.908;  705.846
463.897;   64.958;   -9.599;  656.942
464.486;   63.611;   -9.769;  837.128
465.076;   68.848;   -8.048;  733.776
465.666;   71.990;   -9.358;  652.900
466.255;   68.995;   -7.919;  785.651
466.845;   68.691;  -11.689;  666.749
467.434;   71.995;   -7.818;  725.873
468.023;   73.294;   -7.678;  658.357
468.613;   70.675;  -10.939;  713.946
469.202;   74.703;  -10.118;  646.507
469.791;   79.078;   -9.108;  737.811
470.381;   81.191;   -6.058;  742.813
470.970;   80.227;  -10.428;  711.099
471.559;   81.610;  -10.268;  733.291
472.148;   83.817;   -8.448;  675.737
472.738;   85.914;   -6.917;  765.466
473.327;   85.844;  -11.978;  637.529
473.916;   86.954;  -11.888;  737.446
474.505;   90.095;   -9.437;  751.703
475.094;   93.305;   -6.747;  806.570
475.683;   92.490;   -9.367;  797.699
476.272;   94.292;  -12.637;  730.632
476.861;   96.929;  -10.027;  706.754
477.449;  103.362;   -8.716;  728.487
478.038;   97.196;   -9.577;  692.513
478.627;   98.697;   -9.718;  714.852
479.216;  106.149;   -8.947;  769.441
479.805;  108.028;   -6.256;  783.375
480.393;  107.909;   -7.937; 1008.945
480.982;  107.820;   -7.717;  874.501
481.571;  114.551;   -9.266;  858.333
482.159;  113.956;   -7.636;  705.386
482.748;  114.866;   -9.667;  821.385
483.336;  119.823;  -10.376;  858.209
483.925;  121.172;   -7.147;  774.373
484.513;  127.611;   -7.996;  758.962
485.102;  124.037;  -10.027;  810.965
485.690;  132.679;  -10.446; 1011.050
486.278;  136.095;   -8.446;  979.329
486.867;  135.614;   -6.356;  809.662
487.455;  137.877;   -9.136;  898.229
488.043;  140.247;  -10.646;  748.361
488.631;  149.679;   -7.456; 1005.079
489.220;  153.725;   -6.636;  908.626
489.808;  154.315;  -11.036;  741.415
490.396;  163.077;  -10.246;  914.645
490.984;  169.621;   -8.556;  830.161
491.572;  181.279;   -5.886;  940.315
492.160;  189.613;   -9.486;  919.081
492.748;  204.080;  -10.976;  884.341
493.336;  231.104;   -8.776; 1019.693
493.924;  262.409;   -5.465;  958.077
494.512;  298.975;   -9.986; 1066.638
495.100;  347.535;  -10.636; 1103.280
495.687;  412.467;  -10.885; 1206.373
496.275;  483.858;   -8.126; 1150.796
496.863;  558.004;  -10.586; 1281.171
497.451;  676.110;  -11.926; 1386.805
498.038;  847.312;  -10.885; 1556.729
498.626;  995.504;   -6.315; 1741.407
499.214; 1150.073;   -7.326; 2016.609
499.801; 1390.415;  -11.906; 2220.633
500.389; 1697.250;  -10.466; 2312.494
500.976; 2111.516;   -5.236; 2744.849
501.564; 2576.771;   -8.936; 3148.565
502.151; 3010.175;  -13.176; 3515.999
502.738; 3596.207;  -10.646; 3971.274
503.326; 4035.321;   -9.525; 4403.796
503.913; 4553.853;  -10.856; 5161.749
504.500; 4929.485;  -11.586; 5986.420
505.088; 5365.019;  -10.336; 6381.201
505.675; 5977.688;   -6.355; 6925.547
506.262; 6616.996;   -9.046; 7619.060
506.849; 7433.276;  -10.416; 8733.969
507.436; 7959.438;  -10.305; 9790.121
508.023; 8285.455;   -5.496; 9985.472
508.610; 8675.356;   -7.856;10434.618
509.197; 9560.280;  -10.097;11198.435
509.784;11303.367;  -10.886;12391.194
510.371;12612.647;   -9.315;13603.713
510.958;13461.609;   -9.936;14426.586
511.545;14116.689;   -9.326;15243.775
512.132;14559.670;  -10.075;15945.876
512.719;15231.606;   -7.796;16340.369
513.305;16733.262;  -10.606;18011.766
513.892;17695.135;  -11.486;19754.971
514.479;19145.441;   -9.126;20967.805
515.066;20202.695;   -6.026;22299.793
515.652;21115.391;   -8.466;22908.660
516.239;22727.686;  -10.886;23798.875
516.825;23218.844;  -11.496;25567.275
517.412;23934.459;   -5.796;28154.959
517.998;25144.332;  -10.506;28344.111
518.585;25572.500;  -10.076;27134.219
519.171;25650.932;   -8.315;27268.576
519.758;27304.740;   -8.596;28964.129
520.344;28388.723;   -8.466;30664.494
520.930;28512.602;  -11.006;32550.605
521.516;30411.141;  -10.495;35422.895
522.103;33256.012;   -5.526;38280.004
522.689;34347.383;   -8.746;37835.117
523.275;33273.098;  -11.376;37288.613
523.861;32993.898;  -11.156;37281.395
524.447;34851.762;   -8.135;37846.949
525.033;34860.082;   -7.896;38321.949
525.619;35410.340;  -12.476;38579.285
526.205;36731.613;   -9.516;40622.875
526.791;39371.148;   -6.926;42258.836
527.377;39932.863;   -8.346;42966.902
527.963;41925.004;   -8.717;42018.949
528.549;40882.363;  -11.016;42476.828
529.135;38228.352;   -8.536;41854.852
529.721;37806.184;   -9.666;41237.711
530.306;37519.727;  -10.066;41259.445
530.892;38026.996;  -11.356;41506.047
531.478;38891.887;   -6.596;43559.613
532.063;40423.285;   -8.836;47695.563
532.649;40798.773;  -10.047;50808.324
533.235;43522.871;   -9.746;51787.500
533.820;45390.363;   -6.566;52145.035
534.406;45170.164;  -10.817;51133.488
534.991;44338.121;   -9.416;49996.805
535.576;43060.813;   -9.036;48882.852
536.162;43776.789;   -6.156;46942.285
536.747;44735.969;  -11.607;45711.746
537.333;47843.535;  -11.787;48510.180
537.918;49898.020;  -12.437;50439.891
538.503;48395.809;   -7.196;50863.711
539.088;45949.973;  -10.556;50906.922
539.673;47869.605;   -8.767;52621.965
540.259;48193.840;  -10.026;52368.094
540.844;44504.992;   -7.416;50879.109
541.429;43900.566;   -9.467;52077.777
542.014;48067.664;   -9.527;52716.695
542.599;49341.398;   -9.946;52363.281
543.184;45774.133;   -7.927;53187.137
543.769;46745.391;   -9.297;54697.605
544.354;47036.953;  -10.127;53913.914
544.938;46612.242;   -9.267;49680.164
545.523;48780.598;   -6.506;47386.277
546.108;50158.648;   -9.787;49151.949
546.693;51617.078;  -11.587;51384.637
547.278;51463.188;  -10.986;51853.254
547.862;47227.613;   -8.206;51173.750
548.447;42832.277;  -10.067;51691.395
549.031;42316.672;   -9.637;52456.703
549.616;47162.641;   -9.926;52714.516
550.201;47313.320;   -6.347;52414.598
550.785;46447.301;   -7.917;52355.059
551.370;46485.191;  -10.867;54589.453
551.954;47997.230;   -9.047;58267.348
552.538;49952.922;   -7.827;59062.176
553.123;48889.395;  -10.287;58115.285
553.707;46718.645;  -12.178;56556.285
554.291;46721.035;   -8.717;56201.668
554.876;45577.918;   -7.457;55335.762
555.460;46355.496;  -10.387;54155.703
556.044;49198.523;   -9.618;53721.484
556.628;46932.551;  -11.567;53731.016
557.212;46845.777;   -8.097;54312.531
557.796;45660.359;  -11.077;53797.773
558.380;45876.688;  -11.108;56145.984
558.964;45653.883;   -9.057;57277.930
559.548;45314.121;   -6.977;56459.641
560.132;43865.328;  -11.457;54434.543
560.716;43191.281;  -11.378;54800.617
561.300;42910.582;   -9.577;57606.945
561.884;44167.363;   -7.127;58972.445
562.467;44181.613;   -7.118;57327.570
563.051;43553.973;  -13.358;54962.434
563.635;43882.289;  -10.178;52594.473
564.219;45560.164;   -7.837;50610.410
564.802;46336.398;  -11.398;49551.180
565.386;46285.832;  -12.788;48370.953
565.969;45449.809;   -9.077;48178.871
566.553;45211.949;   -6.207;49957.305
567.136;44896.723;   -8.568;50369.594
567.720;41173.078;  -11.868;49492.004
568.303;39984.688;   -8.268;50616.352
568.887;39985.703;   -8.698;50727.148
569.470;40265.379;   -6.808;51698.379
570.053;38428.891;  -13.188;52122.078
570.637;37470.832;  -12.037;52536.438
571.220;37199.094;   -8.577;51186.098
571.803;37485.859;   -8.498;51032.762
572.386;39627.035;  -10.498;49609.887
572.969;42743.168;   -9.388;48285.926
573.552;41271.859;   -8.338;47624.285
574.135;40688.289;   -8.518;45498.641
574.718;37455.547;  -13.628;41970.434
575.301;36034.559;  -10.893;41447.137
575.884;34613.570;   -8.158;40923.836
576.467;34822.148;  -10.328;45267.723
577.050;38265.426;  -13.058;48175.543
577.633;40139.281;   -9.458;47729.328
578.216;38613.000;   -8.928;47579.793
578.799;37527.387;   -9.358;47820.996
579.381;36117.262;  -11.388;48115.551
579.964;34605.465;  -11.718;47333.766
580.547;35456.984;   -8.588;46668.969
581.129;35529.402;   -8.859;44466.141
581.712;35113.488;  -10.729;44164.922
582.294;35770.734;  -11.118;46477.855
582.877;37331.379;   -5.218;48244.254
583.459;36323.078;   -8.679;47437.895
584.042;34835.195;  -10.709;46943.219
584.624;34626.000;  -11.669;46792.227
585.206;33223.301;   -8.218;46557.250
585.789;34055.316;  -10.569;45793.773
586.371;37200.688;  -11.859;43836.391
586.953;37399.031;  -10.719;42972.492
587.536;37798.770;   -7.198;42487.211
588.118;37365.473;   -8.720;42086.414
588.700;35032.523;  -10.439;43389.930
589.282;34397.664;   -9.198;43646.039
589.864;34660.352;   -9.199;43438.109
590.446;35763.586;  -11.319;43151.926
591.028;35214.895;  -11.159;42781.867
591.610;34211.473;  -11.779;42839.098
592.192;31506.541;   -7.668;42820.402
592.774;30192.152;  -11.949;40724.277
593.356;29714.170;  -12.129;39874.789
593.937;30240.902;  -10.669;39980.648
594.519;32480.508;   -6.509;42069.633
595.101;33946.625;  -10.849;42976.031
595.683;33812.172;  -11.679;44084.441
596.264;35022.094;   -9.049;43478.797
596.846;33562.500;   -8.849;43803.672
597.427;32221.021;   -9.570;42986.934
598.009;34125.945;  -12.620;42832.219
598.591;34669.398;  -10.039;42580.086
599.172;34333.098;  -10.369;43061.805
599.753;34606.180;   -9.140;41691.469
600.335;35536.824;  -11.430;40692.520
600.916;33822.629;   -9.939;39982.422
601.498;32675.830;   -8.479;40318.617
602.079;32013.617;  -10.920;40670.609
602.660;31593.844;  -11.480;41450.898
603.241;31145.623;  -11.699;41137.738
603.823;29694.074;   -9.579;38868.797
604.404;30959.725;  -10.620;38182.785
604.985;32161.572;  -10.450;38078.047
605.566;31106.318;   -9.129;38056.633
606.147;31038.205;   -7.510;37020.418
606.728;33743.965;  -10.660;37883.359
607.309;32819.828;  -11.740;38748.273
607.890;31765.668;   -9.759;38850.230
608.471;31316.676;   -8.250;37457.918
609.051;31136.344;   -9.240;36066.457
609.632;30077.197;  -12.120;35991.074
610.213;30739.658;   -9.110;37402.641
610.794;30856.535;   -8.030;38383.363
611.374;29297.488;   -8.110;40562.387
611.955;28873.205;  -13.560;38533.727
612.536;30509.949;  -11.400;36951.789
613.116;31370.592;   -8.070;37197.891
613.697;32138.104;  -10.830;38411.125
614.277;30466.305;  -11.641;38673.938
614.858;31034.320;  -13.310;37075.863
615.438;31454.611;   -7.460;35092.906
616.019;28871.078;   -7.601;33666.301
616.599;28925.775;  -12.020;34189.023
617.179;30846.438;  -11.780;36952.047
617.760;31228.840;   -8.570;39582.574
618.340;32705.436;  -11.471;38943.977
618.920;34199.102;  -11.170;37594.156
619.500;33725.004;  -11.071;37866.938
620.080;33517.035;   -7.750;37869.043
620.660;34397.453;  -12.711;36868.617
621.241;34791.973;  -10.211;36352.309
621.821;33736.543;  -10.961;35459.520
622.401;33416.289;   -7.720;35207.414
622.980;32431.383;   -8.981;35980.422
623.560;30928.666;   -9.331;37351.328
624.140;30859.236;   -9.850;34388.582
624.720;27030.080;   -7.451;32368.764
625.300;22917.283;   -9.070;32638.629
625.880;25560.461;  -12.601;34599.035
626.459;29022.590;  -11.751;36831.738
627.039;31672.877;   -9.281;38299.098
627.619;31675.521;   -8.801;38289.574
628.198;29870.162;  -12.071;37220.695
628.778;30067.020;   -9.461;37632.563
629.357;31302.902;   -8.491;38003.012
629.937;30942.508;   -9.721;38402.039
630.516;29693.793;   -9.951;37868.801
631.096;29645.439;  -11.731;35760.410
631.675;33103.621;   -8.572;35225.219
632.254;38030.465;  -11.282;35130.289
632.834;37229.789;  -13.322;35794.570
633.413;36157.375;  -10.301;35788.922
633.992;33663.188;   -8.582;34532.863
634.571;34762.543;   -8.352;33590.113
635.151;36156.941;  -11.912;34943.863
635.730;33750.965;  -10.511;35352.523
636.309;30915.814;   -7.731;35366.605
636.888;28686.723;   -9.952;36165.637
637.467;29188.098;  -11.672;37515.902
638.046;31384.914;   -8.901;39288.695
638.625;34105.871;   -7.912;38279.699
639.204;33725.633;  -10.022;37741.598
639.782;32342.670;  -12.252;38364.551
640.361;29179.971;  -10.041;36740.621
640.940;26336.652;  -11.161;34950.082
641.519;25648.207;   -9.701;34137.398
642.097;27810.395;  -11.271;35654.258
642.676;31188.893;   -8.651;35637.957
643.255;32871.035;   -8.711;36567.074
643.833;31676.688;   -9.581;37809.434
644.412;32217.748;  -13.711;37337.293
644.990;32026.877;  -11.811;37018.531
645.569;32118.471;   -9.411;36518.469
646.147;30394.887;  -10.291;36186.430
646.726;28918.592;  -12.401;36267.688
647.304;29963.576;  -10.411;36647.625
647.882;31313.088;   -9.651;39286.742
648.461;33213.664;   -9.631;39157.703
649.039;33013.836;  -11.881;35412.883
649.617;32919.113;   -9.661;34744.918
650.195;32827.102;   -9.301;35403.098
650.773;31897.701;  -10.511;35053.797
651.352;30040.969;  -11.521;33756.816
651.930;27046.178;  -12.211;31868.773
652.508;23908.750;   -9.171;33121.551
653.086;27171.613;   -9.371;33564.793
653.663;31049.244;  -13.161;34054.668
654.241;30168.936;  -13.031;35693.309
654.819;30773.064;   -9.371;36422.906
655.397;29631.686;  -10.511;38213.484
655.975;29854.525;  -10.371;39507.625
656.553;30618.389;  -10.051;39498.223
657.130;29708.697;  -10.061;40395.480
657.708;29385.650;   -9.561;39242.020
658.286;29235.311;  -11.511;38920.020
658.863;29542.885;  -10.261;40202.898
659.441;30886.500;   -7.531;39677.938
660.018;30022.615;   -9.501;40413.355
660.596;29714.854;  -13.301;39931.414
661.173;31881.732;  -11.211;39604.531
661.750;32105.910;   -9.951;39700.070
662.328;31163.832;   -9.390;39292.809
662.905;30294.316;  -11.330;38235.648
663.482;25881.365;   -9.050;36212.305
664.060;23928.104;   -8.240;35944.945
664.637;26617.881;  -10.050;35170.785
665.214;28334.086;  -11.760;34197.523
665.791;29989.738;  -10.530;34549.520
666.368;29519.486;   -9.690;35118.578
666.945;30559.779;   -9.320;36019.418
667.522;31293.197;  -11.860;36048.438
668.099;31410.385;  -10.770;36243.914
668.676;31317.268;   -6.260;35958.875
669.253;29985.686;   -7.000;37384.730
669.830;29870.105;  -10.190;36779.629
670.407;29353.465;   -9.550;35231.289
670.984;30476.523;   -9.260;35544.270
671.560;29704.814;   -9.280;35466.867
672.137;27884.607;  -11.810;34280.863
672.714;28997.514;  -11.490;34632.863
673.290;29119.836;   -7.740;35135.422
673.867;29148.551;  -10.660;36114.480
674.443;29618.029;  -12.230;36152.859
675.020;28000.760;  -10.450;35327.238
675.596;29315.514;   -9.260;35795.176
676.173;30050.879;  -10.780;35430.355
676.749;29108.092;  -13.690;33549.516
677.326;28949.068;  -11.980;32210.012
677.902;29160.730;   -8.630;32068.871
678.478;28358.260;  -10.730;32583.891
679.054;29014.836;  -10.520;32088.928
679.631;30826.836;  -11.920;30978.848
680.207;31117.051;   -7.490;33160.887
680.783;32077.143;   -9.860;35570.363
681.359;31077.156;  -13.380;36125.184
681.935;29101.848;  -12.480;35240.922
682.511;27298.682;   -7.900;34429.961
683.087;27287.709;   -7.710;34463.680
683.663;28416.820;  -11.480;34648.898
684.239;28878.063;  -14.090;34546.457
684.815;28808.420;   -7.560;35586.375
685.390;28985.428;   -9.910;35821.895
685.966;29169.154;  -11.159;35085.871
686.542;31473.311;  -11.169;34198.230
687.118;33415.336;   -5.959;32847.707
687.693;33141.211;  -10.329;32794.027
688.269;32053.094;  -12.059;33072.367
688.844;28954.619;  -10.909;33141.664
689.420;27391.330;   -8.019;33965.742
689.995;26348.738;   -8.399;34655.523
690.571;25908.975;  -10.949;33576.742
691.146;26662.082;   -9.619;32657.219
691.722;25627.555;   -8.999;32526.979
692.297;25109.555;  -11.589;33014.617
692.872;26979.207;  -11.739;34012.254
693.448;27176.885;  -11.059;34237.434
694.023;25825.480;  -10.139;34142.672
694.598;27416.107;   -9.029;34132.031
695.173;27187.756;  -13.319;34205.250
695.748;26749.449;  -10.169;32882.488
696.323;26559.717;   -8.339;32864.906
696.898;26195.756;   -8.169;33170.004
697.473;26053.582;  -12.309;32432.984
698.048;26277.270;  -10.989;31649.303
698.623;27125.734;   -9.329;30778.141
699.198;28610.615;   -9.849;31140.119
699.773;29362.549;  -12.329;31764.299
700.348;28644.939;  -10.389;31780.816
700.922;29200.150;   -9.269;32046.375
701.497;29254.041;   -9.329;32603.574
702.072;28875.518;  -10.789;34799.871
702.646;28739.250;  -10.839;35793.172
703.221;28148.123;   -9.099;35201.590
703.795;30057.057;  -10.939;34764.527
704.370;29335.346;  -12.859;34307.367
704.944;28918.301;  -11.559;33509.887
705.519;30329.617;   -7.939;31388.584
706.093;31600.527;  -10.499;31340.104
706.668;31295.717;  -11.289;32630.281
707.242;29759.654;  -11.509;32728.779
707.816;28696.088;   -9.639;32947.238
708.390;26962.244;  -11.429;33277.855
708.965;27560.867;  -11.869;33834.336
709.539;28470.809;  -11.689;33709.273
710.113;28773.898;  -10.478;33044.313
710.687;27646.824;  -10.228;31953.992
711.261;25016.824;  -13.698;30505.949
711.835;24985.184;  -13.378;30262.369
712.409;26456.133;   -9.698;31254.447
712.983;27784.568;  -11.898;32754.986
713.557;28803.221;  -15.138;34018.824
714.131;28639.139;  -14.098;34579.625
714.704;27574.768;   -9.958;33890.262
715.278;25212.984;  -10.028;33531.102
715.852;25586.271;  -11.148;33601.660
716.425;27038.316;   -9.068;33515.117
716.999;27118.330;  -10.038;33185.555
717.573;27444.619;   -9.798;33905.996
718.146;28467.365;  -12.378;35199.293
718.720;28487.637;  -11.918;35060.551
719.293;28507.752;   -8.088;34973.230
719.867;30874.850;  -10.888;36394.449
720.440;30975.033;  -11.938;36663.008
721.013;30128.838;  -12.818;35102.426
721.587;29015.475;  -10.298;33985.266
722.160;26730.104;  -10.048;33524.965
722.733;25520.061;  -12.108;32987.043
723.306;26350.846;  -10.818;33066.301
723.880;27797.176;   -8.908;33399.500
724.453;29409.623;   -9.878;33468.297
725.026;28508.484;  -11.188;33816.637
725.599;25680.676;  -11.678;32797.996
726.172;26304.043;   -9.618;33187.434
726.745;28137.084;   -8.258;35136.613
727.318;29848.064;  -12.978;35751.730
727.891;30167.100;  -12.148;35890.430
728.463;29926.045;   -8.968;34822.090
729.036;28828.832;  -10.188;32895.086
729.609;28886.430;  -11.788;31823.225
730.182;25344.252;  -11.788;31445.283
730.754;23185.615;  -10.268;32373.223
731.327;23422.344;   -9.998;33676.820
731.900;23158.258;  -12.228;33417.000
732.472;24656.563;  -13.848;31978.498
733.045;27458.199;   -8.698;30368.777
733.617;27672.648;  -10.607;30574.215
734.190;26715.156;  -11.507;31280.975
734.762;23712.135;  -13.647;31674.412
735.334;22526.746;   -9.767;31247.291
735.907;23189.830;   -9.897;29876.211
736.479;23005.658;  -11.637;29808.488
737.051;22394.295;   -9.567;30233.547
737.623;23445.164;   -8.187;31469.086
738.195;24580.979;  -11.187;31784.225
738.768;26179.428;  -12.337;32120.523
739.340;25618.455;  -12.227;32094.342
739.912;23896.990;  -11.057;31312.680
740.484;23517.434;  -10.207;31946.238
741.056;22843.203;  -10.047;32984.059
741.628;24126.861;  -13.627;33897.715
742.199;26645.771;   -7.177;33213.016
742.771;25766.867;  -10.797;31369.113
743.343;23373.754;  -11.997;31865.473
743.915;21798.164;  -12.867;32388.631
744.487;21778.293;   -7.617;31079.568
745.058;22529.867;   -9.557;30570.107
745.630;23859.340;   -9.877;29970.127
746.201;24984.533;  -14.177;29186.766
746.773;24800.102;   -9.237;28805.723
747.344;24174.139;   -9.847;29591.223
747.916;22607.115;  -11.657;31412.201
748.487;21956.432;  -10.587;32194.898
749.059;23400.264;   -8.707;32533.719
749.630;24616.582;  -10.537;32158.518
750.201;24116.934;  -11.687;30855.395
750.773;22960.766;  -11.647;28622.555
751.344;23050.410;   -7.147;28405.732
751.915;23942.756;   -9.757;28461.551
752.486;22736.801;  -12.427;27842.850
753.057;20433.549;  -12.227;27845.008
753.628;19533.162;  -10.417;27728.107
754.199;20179.486;  -11.767;27381.086
754.770;21071.078;  -11.187;25882.203
755.341;21115.049;  -10.507;25886.184
755.912;20884.973;   -9.387;26050.861
756.483;20319.750;  -10.647;26798.779
757.054;18778.020;  -11.837;27048.238
757.625;17886.531;  -12.716;26294.838
758.195;17782.732;   -9.666;26142.076
758.766;17488.514;   -8.656;26392.234
759.337;18409.188;  -12.856;26334.594
759.907;20057.529;  -13.366;27579.652
760.478;21051.451;   -8.576;28352.770
761.048;21191.170;  -10.526;27325.088
761.619;20690.393;  -11.116;26460.428
762.189;19979.568;  -12.136;26029.826
762.760;20156.486;   -9.456;26430.145
763.330;20880.514;   -7.136;26670.902
763.900;20051.043;  -11.786;26603.021
764.471;17210.449;  -11.546;25542.740
765.041;16329.003;   -8.096;24358.459
765.611;17285.748;   -8.876;23991.297
766.181;17866.365;  -12.196;24470.236
766.751;18425.746;  -11.636;24845.975
767.321;18146.898;  -10.156;24533.633
767.891;16022.178;  -11.766;24916.492
768.461;15349.563;  -14.936;24776.771
769.031;15693.397;  -12.356;24757.988
769.601;17325.291;   -7.526;24181.088
770.171;17487.023;  -10.766;23670.387
770.741;17016.588;  -13.176;22960.045
771.311;17142.088;  -10.616;22917.523
771.880;17110.660;   -9.576;23562.941
772.450;16693.703;  -10.336;24216.500
773.020;16928.123;  -13.516;24140.398
773.589;16681.936;  -13.466;24414.857
774.159;16423.639;   -8.686;23858.717
774.729;16036.530;   -9.476;22942.135
775.298;15170.377;  -13.666;22324.033
775.867;14574.178;  -11.716;21140.313
776.437;14588.233;   -9.906;20838.092
777.006;14379.129;  -12.166;20599.510
777.576;14438.474;  -12.356;20508.809
778.145;14708.830;  -11.646;20732.947
778.714;14410.768;   -8.226;21062.465
779.283;13233.091;   -9.556;20949.664
779.853;12989.353;  -14.116;20508.623
780.422;13468.697;  -11.506;20649.082
780.991;12960.176;   -9.556;21527.520
781.560;12206.017;   -9.095;22632.658
782.129;12192.073;  -12.135;23048.277
782.698;11914.849;  -10.865;23438.555
783.267;11491.842;   -9.335;23267.734
783.836;11480.517;  -11.045;22415.133
784.404;12127.388;  -13.865;20443.152
784.973;11937.840;  -13.095;19699.150
785.542;11635.151;  -11.575;19763.828
786.111;11704.972;   -9.705;20341.408
786.679;11589.463;  -12.105;20207.967
787.248;11551.095;  -12.455;19516.465
787.817;11142.537;  -11.535;18900.363
788.385;10509.379;   -9.765;17879.121
788.954; 9685.959;  -14.005;17658.301
789.522; 9435.132;  -11.955;17788.879
790.090;10125.548;  -10.135;18118.277
790.659;10484.698;  -10.975;18338.736
791.227; 9964.390;  -13.375;18508.615
791.795;10340.652;  -12.375;17898.254
792.364;10592.380;  -10.725;17295.133
792.932;10661.775;   -9.715;16822.051
793.500;10694.511;  -12.675;17040.148
794.068;10906.130;  -13.495;17179.787
794.636;11088.504;  -10.885;16664.246
795.204;10723.627;  -11.045;16524.545
795.772;10506.589;  -13.175;17274.564
796.340;10017.043;  -12.445;17891.002
796.908; 9878.059;   -9.735;17648.561
797.476; 9798.025;   -9.815;17064.080
798.044; 9278.776;  -13.985;16672.777
798.612; 8566.352;  -13.115;17023.996
799.180; 8336.037;  -10.185;16561.615
799.747; 8347.175;   -9.055;15962.773
800.315; 8164.176;  -12.385;15296.992
800.883; 7831.382;  -15.035;14801.771
801.450; 7705.332;  -10.365;14534.430
802.018; 7694.604;   -9.855;14173.248
802.585; 7744.549;  -11.905;14029.547
803.153; 7882.526;  -11.585;13836.846
803.720; 7826.216;   -9.095;13567.324
804.287; 7430.569;   -9.135;13360.622
804.855; 7069.383;  -11.604;13681.981
805.422; 6947.742;  -11.794;13536.560
805.989; 6782.516;  -10.734;13355.958
806.556; 6931.648;  -10.444;13747.896
807.124; 7374.360;  -12.764;13987.376
807.691; 7481.758;  -12.964;14038.674
808.258; 7372.361;  -11.134;14120.152
808.825; 7093.103;   -9.854;13860.111
809.392; 7089.978;  -10.504;13268.790
809.959; 6717.297;  -13.054;12680.389
810.526; 6389.542;   -8.294;12427.308
811.093; 6373.827;   -8.394;12030.105
811.659; 6836.255;  -12.304;11653.664
812.226; 7194.184;  -13.944;11637.183
812.793; 6914.566;  -10.484;11611.521
813.360; 6385.515;  -10.144;11885.181
813.926; 5970.153;  -11.684;12770.539
814.493; 5769.224;  -13.644;12677.638
815.060; 5426.939;   -9.724;11974.336
815.626; 5433.652;   -9.854;11594.715
816.193; 5870.086;  -13.254;11579.474
816.759; 6041.720;  -13.204;11666.972
817.325; 6299.459;   -9.434;11325.530
817.892; 6648.538;  -10.134;11105.369
818.458; 7036.383;  -13.474;10843.928
819.024; 6751.661;  -11.854;10714.406
819.591; 6446.148;  -10.244;10469.165
820.157; 6233.242;  -10.704;10235.523
820.723; 5942.539;  -12.324;10847.563
821.289; 5813.015;   -9.444;11040.980
821.855; 5796.464;   -8.374;10357.100
822.421; 5875.410;  -10.234; 9978.918
822.987; 5751.533;  -13.294; 9754.177
823.553; 5404.729;  -10.884;10065.755
824.119; 5320.936;   -8.884;10036.294
824.685; 5463.521;   -6.784;10029.192
825.251; 5499.423;  -12.004;10199.230
825.816; 5436.548;  -11.474; 9820.189
826.382; 5344.374;   -9.174; 9297.248
826.948; 5633.962;   -9.214; 9381.347
827.513; 6026.216;  -10.774; 9450.726
828.079; 5839.359;  -11.924; 9472.444
828.645; 5329.628;  -10.543; 9292.643
829.210; 5300.463;  -10.533; 9065.341
829.776; 5279.577;  -10.753; 9132.620
830.341; 5186.592;  -10.173; 9092.878
830.906; 5349.489;  -10.743; 9078.557
831.472; 5703.813;  -11.113; 8534.535
832.037; 5562.490;  -10.603; 8677.874
832.602; 5041.321;  -13.323; 8628.692
833.167; 4609.457;  -10.823; 8879.031
833.733; 4479.111;  -10.113; 9189.790
834.298; 4538.159;  -13.583; 9052.608
834.863; 4473.576;  -12.703; 8895.087
835.428; 4502.291;  -10.523; 8824.266
835.993; 4648.753;   -6.963; 8845.385
836.558; 4627.148;  -10.763; 8888.563
837.123; 4673.113;   -9.903; 8966.582
837.688; 4744.946;   -9.913; 8617.860
838.253; 4839.247;  -10.283; 8590.699
838.817; 4991.005;  -12.963; 8443.797
839.382; 4981.443;  -14.243; 8799.356
839.947; 4736.203;  -10.733; 8810.595
840.511; 4442.583;   -9.383; 8796.394
841.076; 4070.649;  -12.563; 8347.231
841.641; 4059.638;  -12.953; 8224.330
842.205; 4092.385;   -7.043; 8223.349
842.770; 4244.752;   -8.163; 8622.107
843.334; 4594.148;  -12.503; 8410.386
843.898; 4601.782;  -11.693; 8337.465
844.463; 4543.091;  -10.203; 8506.283
845.027; 4239.629;   -9.533; 8280.962
845.591; 4042.443;  -13.443; 8231.141
846.156; 4043.226;  -13.143; 7969.179
846.720; 3911.342;   -9.433; 7768.278
847.284; 3801.078;  -11.033; 7630.957
847.848; 3590.662;  -10.403; 7472.395
848.412; 3411.176;  -11.553; 7437.394
848.976; 3436.348;   -8.393; 7674.592
849.540; 3397.352;   -8.713; 7836.011
850.104; 3455.462;  -12.463; 7913.669
850.668; 3699.213;  -12.973; 7694.508
851.232; 3745.045;  -10.793; 7756.887
851.796; 3573.132;  -10.662; 7926.545
852.359; 3282.351;  -13.082; 7827.844
852.923; 3170.760;  -12.192; 7641.163
853.487; 3058.132;  -11.912; 7342.501
854.050; 3000.146;  -10.892; 7042.820
854.614; 3113.631;  -13.992; 7151.338
855.177; 3218.359;  -11.732; 7105.077
855.741; 3234.828;   -8.962; 6989.675
856.304; 3098.182;   -9.442; 6596.634
856.868; 3067.551;  -14.192; 6356.272
857.431; 3207.239;  -12.702; 6468.571
857.995; 3304.100;   -9.942; 6373.210
858.558; 3346.524;   -9.112; 6324.448
859.121; 3113.776;  -12.932; 6408.327
859.684; 2985.372;  -13.442; 6347.886
860.247; 3053.261;  -10.632; 6321.264
860.810; 2978.495;  -11.272; 6301.903
861.374; 2681.373;   -9.832; 6607.881
861.937; 2411.379;  -11.762; 6408.200
862.500; 2358.647;   -9.722; 6572.639
863.062; 2465.618;  -10.512; 6387.297
863.625; 2566.774;  -11.232; 6190.836
864.188; 2687.207;  -14.112; 5807.254
864.751; 2781.679;  -11.302; 5682.413
865.314; 2707.902;  -10.112; 5547.492
865.876; 2580.375;  -12.182; 5500.150
866.439; 2611.990;  -10.722; 5415.909
867.002; 2529.350;   -9.252; 5501.567
867.564; 2304.770;   -9.572; 5413.946
868.127; 2109.261;  -13.142; 5160.325
868.689; 2077.258;  -12.902; 5133.183
869.252; 2053.591;   -9.732; 5252.382
869.814; 1971.672;   -9.432; 5297.141
870.377; 1966.775;  -11.552; 5390.919
870.939; 2050.430;   -9.052; 5599.898
871.501; 2101.798;  -10.982; 5248.336
872.063; 2115.277;  -12.292; 4854.235
872.626; 2092.922;  -14.912; 4817.074
873.188; 2065.778;  -13.112; 4987.732
873.750; 1995.994;  -13.442; 4868.651
874.312; 1915.325;   -9.402; 4779.330
874.874; 1860.419;  -11.062; 4866.348
875.436; 1822.360;  -13.931; 4718.887
875.998; 1819.072;   -9.561; 4660.005
876.560; 1805.921;  -11.321; 4462.964
877.122; 1752.192;  -12.221; 4145.042
877.683; 1671.559;  -12.191; 4056.481
878.245; 1614.485;  -12.101; 3950.740
878.807; 1632.030;   -8.971; 4058.958
879.369; 1616.311;  -12.071; 3954.677
879.930; 1523.398;  -14.621; 3941.495
880.492; 1487.244;  -10.311; 4067.014
881.053; 1459.333;  -10.901; 3859.633
881.615; 1354.826;  -14.411; 3776.071
882.176; 1300.674;  -13.761; 3734.750
882.738; 1304.774;   -9.181; 3678.489
883.299; 1316.089;  -11.791; 3405.407
883.860; 1329.417;  -13.121; 3351.106
884.422; 1324.919;  -11.211; 3394.044
884.983; 1271.073;  -10.091; 3166.443
885.544; 1168.241;   -8.461; 3189.802
886.105; 1093.515;  -12.361; 3160.360
886.666; 1055.395;  -14.141; 3093.059
887.227; 1008.457;  -11.361; 2941.957
887.788;  928.784;  -11.401; 2974.836
888.349;  857.883;  -13.791; 2721.214
888.910;  867.454;  -13.191; 2696.493
889.471;  881.898;   -9.881; 2560.172
890.032;  852.493;   -9.881; 2558.190
890.593;  816.466;  -10.371; 2567.669
891.153;  792.294;  -13.301; 2460.307
891.714;  751.216;  -11.431; 2372.046
892.275;  714.405;  -11.291; 2309.505
892.835;  673.486;  -11.471; 2382.543
893.396;  621.620;  -11.541; 2295.502
893.956;  570.958;  -11.181; 2162.420
894.517;  532.004;  -11.741; 2125.439
895.077;  527.135;  -11.671; 2086.978
895.638;  531.552;  -11.311; 2126.316
896.198;  504.095;   -9.831; 1838.275
896.758;  456.785;   -8.421; 1892.813
897.319;  424.923;  -12.351; 1792.232
897.879;  415.826;  -13.511; 1762.751
898.439;  388.387;  -12.001; 1661.149
898.999;  358.917;  -10.180; 1781.468
899.559;  345.931;  -12.030; 1703.347
900.119;  342.543;  -15.710; 1537.525
900.679;  340.136;   -8.900; 1638.384
901.239;  328.039;   -8.340; 1527.902
901.799;  317.666;  -13.910; 1456.441
902.359;  309.644;  -13.460; 1357.140
902.919;  298.660;  -11.490; 1331.118
903.479;  282.072;  -12.110; 1317.257
904.038;  260.135;  -11.720; 1262.595
904.598;  245.683;  -13.610; 1152.034
905.158;  240.044;  -11.040; 1240.893
905.717;  230.382;  -10.900; 1233.691
906.277;  219.263;  -15.080; 1217.330
906.836;  211.390;  -13.380; 1222.408
907.396;  203.005;  -10.780; 1193.047
907.955;  195.732;   -8.500; 1182.526
908.515;  191.133;  -12.760; 1099.364
909.074;  184.346;  -11.900; 1092.863
909.633;  177.677;   -8.950; 1069.121
910.192;  174.285;   -8.770; 1196.460
910.752;  169.390;  -12.390; 1029.960
911.311;  166.194;  -13.680; 1009.780
911.870;  162.847;  -12.370;  971.460
912.429;  162.434;  -10.900; 1094.080
912.988;  161.111;  -11.690; 1081.060
913.547;  156.580;  -13.240;  940.380
914.106;  151.767;  -11.990;  999.420
914.665;  148.574;   -9.990;  984.020
915.224;  147.253;  -12.880; 1035.760
915.782;  146.422;  -12.350;  922.560
916.341;  146.843;   -9.110; 1049.840
916.900;  142.471;   -9.270;  925.260
917.458;  141.542;  -13.240;  884.220
918.017;  141.087;  -13.550;  942.600
918.576;  140.646;  -12.320;  904.440
919.134;  137.544;  -11.490;  837.980
919.693;  134.997;  -13.670;  893.060
920.251;  133.853;  -15.470;  876.500
920.809;  132.745;  -11.290;  839.580
921.368;  131.887;  -10.210;  885.360
921.926;  130.579;  -12.140;  842.940
922.484;  130.798;  -13.080;  903.360
923.042;  129.386;  -11.720;  880.340
923.601;  132.751;   -7.480;  998.680
924.159;  129.898;  -11.570;  935.560
924.717;  127.378;  -13.840;  841.080
925.275;  127.973;  -10.640;  903.240
925.833;  128.001;  -11.540;  779.320
926.391;  128.055;  -12.960;  938.380
926.949;  126.273;  -14.130;  857.680
927.506;  126.651;  -11.750;  903.500
928.064;  126.275;  -10.250;  877.580
928.622;  126.153;  -13.030;  880.100
929.180;  125.646;  -13.400;  814.180
929.737;  127.454;  -10.700;  808.540
930.295;  130.786;  -10.070;  928.480
930.853;  132.725;  -11.960;  849.100
931.410;  133.146;  -13.120;  821.120
931.968;  133.138;  -10.770;  940.660
932.525;  131.559;  -10.680;  909.380
933.082;  131.919;  -13.130;  811.440
933.640;  132.300;  -13.210;  925.900
934.197;  130.804;  -11.060;  886.360
934.754;  132.345;   -9.580;  897.780
935.312;  135.233;  -14.000;  863.340
935.869;  138.820;  -10.710; 1012.980
936.426;  139.136;   -9.860;  872.800
936.983;  139.106;   -9.710;  889.020
937.540;  137.994;  -13.990;  838.280
938.097;  137.211;  -14.040;  940.120
938.654;  137.585;  -10.310;  898.860
939.211;  140.356;  -10.560;  952.480
939.768;  143.730;  -13.900;  915.420
940.324;  147.862;  -14.760;  904.200
940.881;  148.874;  -10.370;  878.500
941.438;  148.871;   -8.260; 1021.200
941.995;  145.487;  -12.540;  992.560
942.551;  142.051;  -14.670;  875.620
943.108;  142.143;  -10.450;  937.920
943.664;  144.324;  -10.750;  869.340
944.221;  148.482;  -11.550; 1088.140
944.777;  146.050;  -14.770;  869.680
945.334;  148.603;  -12.820;  884.840
945.890;  150.938;  -10.130;  946.480
946.446;  150.739;  -13.470;  947.020
947.003;  151.124;  -12.120;  964.940
947.559;  152.711;   -9.980; 1063.040
948.115;  151.180;   -9.080; 1026.540
948.671;  149.369;  -10.830;  967.300
949.227;  145.079;  -12.440;  859.560
949.783;  143.138;  -12.910;  858.900
950.339;  144.851;  -10.270;  991.000
950.895;  146.035;  -13.630; 1023.840
951.451;  145.134;  -15.100;  925.280
952.007;  148.041;  -11.330;  998.540
952.563;  148.681;  -10.580;  937.780
953.118;  147.530;  -13.440;  904.940
953.674;  147.103;  -12.710;  935.780
954.230;  147.685;  -10.350;  949.640
954.785;  145.265;   -9.190;  936.640
955.341;  143.996;  -11.200;  998.160
955.897;  141.665;  -16.560;  834.660
956.452;  142.233;  -12.570;  953.840
957.008;  139.405;   -7.970; 1083.640
957.563;  138.123;  -11.940; 1009.540
958.118;  134.218;  -13.450;  877.700
958.674;  134.929;  -12.030;  946.780
959.229;  136.263;   -9.410; 1013.980
959.784;  133.393;  -12.000;  832.400
960.339;  131.475;  -14.780; 1001.280
960.894;  127.091;   -9.860;  963.760
961.449;  122.606;   -9.970;  859.960
962.004;  124.500;  -10.900; 1212.840
962.559;  119.950;  -13.150;  860.140
963.114;  118.256;  -13.740;  742.480
963.669;  117.218;   -9.820;  915.500
964.224;  115.286;  -13.890;  874.340
964.779;  114.350;  -12.600;  828.420
965.334;  114.404;  -10.950; 1017.860
965.888;  114.132;  -11.170;  875.360
966.443;  116.358;  -12.540;  972.380
966.998;  114.479;  -15.780;  819.460
967.552;  113.687;   -9.760;  908.380
968.107;  110.690;   -9.060;  868.300
968.661;  111.552;  -11.950;  922.440
969.216;  112.445;  -12.800;  856.280
969.770;  111.690;  -11.210;  917.200
970.324;  110.255;  -11.610;  923.140
970.879;  107.494;  -11.370;  947.180
971.433;  104.852;  -12.540;  952.720
971.987;  100.103;  -11.320;  895.340
972.541;   96.252;  -10.720;  917.100
973.095;   97.248;   -9.680; 1009.460
973.649;   95.945;  -11.440;  809.480
974.203;   96.025;  -11.210;  829.040
974.757;   97.089;  -10.240;  855.220
975.311;   97.012;  -13.720;  872.600
975.865;   95.874;  -13.770;  881.820
976.419;   94.336;  -11.690;  857.400
976.973;   93.668;   -9.510;  849.620
977.526;   95.928;  -12.620;  949.920
978.080;   94.800;  -12.010;  796.780
978.634;   96.352;  -10.170;  921.320
979.187;   94.231;   -9.020;  905.400
979.741;   92.559;   -9.820; 1018.380
980.294;   87.800;  -14.870;  789.160
980.848;   85.827;  -12.380;  717.220
981.401;   86.674;  -10.350;  816.540
981.955;   88.680;  -13.720;  844.300
982.508;   87.889;  -11.490;  746.340
983.061;   90.237;  -10.000;  915.260
983.615;   85.908;  -11.480;  798.800
984.168;   83.030;  -13.220;  770.080
984.721;   81.998;  -13.960;  880.760
985.274;   80.994;  -10.870;  867.500
985.827;   80.046;   -9.790;  834.220
986.380;   78.183;  -13.120;  721.340
986.933;   77.571;  -12.450;  864.800
987.486;   75.459;  -10.210;  861.920
988.039;   73.865;   -8.430;  863.100
988.591;   72.029;  -10.520;  893.260
989.144;   70.004;  -14.860;  737.260
989.697;   69.240;  -13.080;  758.740
990.250;   70.124;  -10.150;  858.100
990.802;   69.544;  -13.430;  755.860
991.355;   70.923;  -12.750;  974.880
991.907;   68.110;  -12.040;  864.320
992.460;   65.298;  -11.330;  753.760
993.012;   64.926;  -13.610;  749.540
993.565;   64.051;  -13.460;  711.360
994.117;   65.196;   -9.360;  950.780
994.669;   61.610;  -11.300;  701.320
995.221;   60.071;  -13.540;  791.920
995.774;   58.708;  -13.430;  787.580
996.326;   56.777;  -12.520;  740.220
996.878;   56.041;  -10.950;  838.420
997.430;   54.324;  -14.300;  699.860
997.982;   53.570;  -13.760;  750.140
998.534;   53.649;  -11.530;  739.060
999.086;   51.573;  -10.310;  738.220
999.638;   50.743;  -12.530;  661.380
1000.190;   50.560;  -11.840;  699.320
1000.741;   50.374;  -10.260;  742.700
1001.293;   49.439;   -8.860;  686.020
1001.845;   47.997;  -13.700;  676.640
1002.396;   48.699;  -12.100;  743.400
1002.948;   47.912;  -12.760;  737.400
1003.500;   45.899;  -10.380;  723.780
1004.051;   46.173;  -11.900;  907.580
1004.603;   44.554;  -12.250;  791.820
1005.154;   40.597;  -13.210;  608.980
1005.705;   40.272;  -10.950;  723.960
1006.257;   39.086;  -13.880;  707.220
1006.808;   39.736;  -12.840;  685.460
1007.359;   39.352;  -10.570;  763.240
1007.910;   37.376;   -9.620;  646.640
1008.461;   37.311;  -13.630;  732.940
1009.013;   36.618;  -17.200;  588.340
1009.564;   37.946;  -10.200;  793.520
1010.115;   35.327;  -12.570;  597.040
1010.665;   35.346;  -15.150;  602.160
1011.216;   35.593;  -14.480;  667.920
1011.767;   35.267;  -11.340;  697.920
1012.318;   35.219;   -9.780;  736.980
1012.869;   33.329;  -12.380;  679.000
1013.419;   33.668;  -15.560;  603.120
1013.970;   33.751;  -11.010;  666.640
1014.521;   32.539;  -11.610;  620.620
1015.071;   33.807;  -13.450;  670.380
1015.622;   33.262;  -13.870;  635.460
1016.172;   32.416;  -11.610;  596.820
1016.723;   31.600;  -12.120;  614.380
1017.273;   31.796;  -13.620;  604.160
1017.823;   31.691;  -14.140;  650.340
1018.374;   30.890;  -12.800;  611.760
1018.924;   31.189;  -12.340;  716.880
1019.474;   31.564;  -11.410;  718.880
1020.024;   30.190;  -14.770;  657.580
1020.574;   30.519;   -9.780;  726.160
1021.124;   30.916;   -8.560;  673.580
1021.674;   29.492;  -15.190;  559.120
1022.224;   31.064;  -13.530;  708.940
1022.774;   30.978;  -13.280;  668.820
1023.324;   30.349;  -10.690;  753.520
1023.874;   32.136;  -10.240;  875.760
1024.423;   29.521;  -12.540;  613.700
1024.973;   28.744;  -10.010;  610.760
1025.523;   27.917;  -10.550;  620.960
1026.072;   27.588;  -13.560;  606.420
1026.622;   27.870;  -15.120;  675.740
1027.172;   29.467;  -11.260;  715.660
1027.721;   27.815;  -11.410;  601.220
1028.270;   28.373;  -13.530;  663.400
1028.820;   28.833;  -13.680;  638.080
1029.369;   27.354;  -13.520;  612.700
1029.918;   27.891;  -10.980;  649.840
1030.468;   27.430;  -13.530;  564.780
1031.017;   27.721;  -13.170;  634.800
1031.566;   25.829;  -12.200;  608.900
1032.115;   26.962;   -9.960;  694.500
1032.664;   26.206;  -13.210;  596.480
1033.213;   26.124;  -12.500;  735.420
1033.762;   25.520;  -11.910;  635.620
1034.311;   25.905;   -9.640;  677.220
1034.860;   25.880;  -13.310;  691.000
1035.408;   26.545;  -11.830;  722.720
1035.957;   26.300;  -12.000;  719.540
1036.506;   24.215;  -11.690;  530.800
1037.055;   26.633;  -10.990;  844.320
1037.603;   24.629;  -15.120;  664.000
1038.152;   22.831;  -12.450;  534.760
1038.700;   23.400;  -10.560;  585.740
1039.249;   24.248;  -11.080;  681.220
1039.797;   24.359;  -12.540;  633.360
1040.345;   23.485;  -11.920;  705.420
1040.894;   23.198;  -11.410;  625.300
1041.442;   23.813;  -14.320;  632.200
1041.990;   22.990;  -16.240;  559.160
1042.538;   21.653;  -11.680;  536.180
1043.087;   22.197;  -10.760;  570.860
1043.635;   23.666;  -11.850;  670.500
1044.183;   22.434;  -15.480;  586.400
1044.731;   21.627;  -11.770;  576.000
1045.279;   21.687;  -13.090;  674.920
1045.827;   23.696;  -12.440;  892.400
1046.374;   21.221;  -13.840;  515.420
1046.922;   21.060;  -13.220;  590.580
1047.470;   22.167;  -10.230;  691.300
1048.018;   22.357;  -14.590;  647.960
1048.565;   22.601;  -12.050;  708.600
1049.113;   20.344;  -11.650;  557.000
1049.660;   21.013;  -10.510;  629.660
1050.208;   21.208;  -13.310;  675.640
1050.755;   20.133;  -15.900;  606.580
1051.303;   21.185;  -11.430;  686.820
1051.850;   20.234;   -8.480;  635.120
1052.397;   18.747;  -15.010;  473.960
1052.945;   19.162;  -13.960;  617.760
1053.492;   21.230;  -13.150;  741.840
1054.039;   21.535;   -9.630;  720.180
1054.586;   19.741;  -13.680;  557.240
1055.133;   20.130;  -14.570;  693.140
1055.680;   19.808;  -13.820;  646.620
1056.227;   18.639;  -11.730;  542.780
1056.774;   19.994;  -12.480;  794.980
1057.321;   18.699;  -13.930;  523.260
1057.868;   18.618;  -11.690;  651.320
1058.415;   18.652;   -9.520;  651.980
1058.961;   19.393;  -13.160;  678.940
1059.508;   18.717;  -12.920;  643.820
1060.055;   17.820;  -11.920;  581.780
1060.601;   18.147;  -11.500;  624.300
1061.148;   18.411;  -14.330;  616.820
1061.694;   16.998;  -16.870;  592.580
1062.241;   18.085;  -10.330;  596.320
1062.787;   18.275;  -10.620;  663.140
1063.334;   18.928;  -10.110;  808.560
1063.880;   17.920;  -13.400;  668.360
1064.426;   17.310;  -10.680;  706.820
1064.972;   16.761;   -9.920;  601.340
1065.518;   15.714;  -10.980;  566.640
1066.065;   17.526;  -14.890;  624.460
1066.611;   15.793;  -12.870;  598.800
1067.157;   16.172;  -12.950;  641.860
1067.703;   16.541;  -13.540;  668.480
1068.249;   17.108;  -13.540;  605.220
1068.794;   16.456;  -12.600;  626.880
1069.340;   15.581;  -10.620;  578.960
1069.886;   14.835;  -12.830;  590.700
1070.432;   14.228;  -14.870;  541.720
1070.977;   15.156;  -11.980;  601.080
1071.523;   14.517;   -8.200;  573.060
1072.068;   15.304;  -12.330;  582.000
1072.614;   15.070;  -16.370;  527.760
1073.160;   16.402;  -11.100;  687.040
1073.705;   14.136;  -10.480;  572.520
1074.250;   14.386;  -14.520;  559.900
1074.796;   15.794;  -11.460;  655.160
1075.341;   15.800;  -11.950;  664.100
1075.886;   13.933;  -11.460;  594.240
1076.431;   14.173;  -13.770;  649.880
1076.976;   14.687;  -12.680;  639.220
1077.521;   13.706;  -13.170;  583.080
1078.067;   13.312;  -10.860;  579.400
1078.612;   14.140;  -13.920;  661.620
1079.156;   13.990;  -13.880;  601.540
1079.701;   14.433;  -13.120;  693.260
1080.246;   14.303;   -9.940;  696.300
1080.791;   13.762;  -14.740;  625.020
1081.336;   13.118;  -13.750;  659.320
1081.880;   13.435;  -13.400;  649.680
1082.425;   12.782;  -12.220;  573.480
1082.970;   14.457;  -11.610;  717.040
1083.514;   13.068;  -13.580;  597.000
1084.059;   11.692;  -12.810;  586.720
1084.603;   12.646;  -12.320;  565.840
1085.147;   12.021;  -13.190;  645.220
1085.692;   13.114;  -12.480;  716.800
1086.236;   12.044;  -13.020;  503.140
1086.780;   13.570;   -9.190;  751.440
1087.325;   12.442;  -12.480;  654.620
1087.869;   12.825;  -12.450;  610.700
1088.413;   12.337;  -12.240;  705.040
1088.957;    9.577;   -9.020;  543.400
1089.501;   12.859;  -10.320;  766.640
1090.045;   11.789;  -12.720;  726.480
1090.589;   10.137;  -13.690;  569.920
1091.133;   11.514;  -10.020;  673.340
1091.676;   11.677;  -12.330;  591.940
1092.220;   11.417;  -14.970;  600.920
1092.764;   11.492;  -12.430;  706.960
1093.307;   11.571;   -9.800;  673.780
1093.851;   10.112;  -14.970;  556.540
1094.395;   11.266;  -15.310;  683.140
1094.938;   10.231;  -10.370;  632.520
1095.482;   10.015;  -11.050;  559.800
1096.025;   10.774;  -11.840;  710.880
1096.568;   11.409;  -12.840;  779.280
1097.112;    8.605;  -14.700;  508.180
1097.655;   10.542;   -8.720;  603.000
1098.198;    9.146;  -13.610;  600.180
1098.741;    9.023;  -13.350;  612.860
1099.285;   10.800;  -11.230;  657.300
1099.828;    8.151;  -11.840;  439.400
1100.371;    9.807;  -10.840;  608.160
1100.914;    9.511;  -14.190;  682.660
1101.457;    9.362;  -11.240;  679.900
1101.999;    7.646;  -11.270;  584.680
1102.542;    9.548;  -11.480;  641.440
1103.085;    9.235;  -11.750;  658.500
1103.628;    9.112;  -11.400;  762.060
1104.170;    8.924;  -10.490;  588.280
1104.713;    8.954;  -10.600;  646.700
1105.256;    8.294;  -14.360;  557.440
1105.798;    7.045;  -13.210;  499.980
1106.341;    9.310;  -10.270;  728.900
1106.883;    8.070;  -12.200;  521.340
1107.425;    8.343;  -13.110;  668.180
1107.968;    7.226;  -12.840;  612.380
1108.510;    8.082;   -6.480;  684.960
1109.052;    6.896;  -13.940;  612.620
1109.594;    7.386;  -13.690;  554.440
1110.136;    8.325;  -11.880;  643.220
1110.679;    6.846;   -9.500;  633.080
1111.221;    8.150;  -14.160;  604.460
1111.763;    6.533;  -13.980;  559.220
1112.304;    6.518;  -13.880;  547.140
1112.846;    6.847;  -12.210;  666.240
1113.388;   10.197;  -11.390;  942.180
1113.930;    7.239;  -14.540;  694.200
1114.472;    5.525;  -12.640;  606.540
1115.013;    5.487;  -11.620;  551.280
1115.555;    5.852;  -13.640;  587.100
1116.097;    5.514;  -15.380;  579.480
1116.638;    6.645;  -12.640;  684.600
1117.180;    6.450;   -9.850;  667.740
1117.721;    6.487;  -13.690;  568.580
1118.262;    6.680;  -12.680;  677.960
1118.804;    6.480;  -12.530;  637.340
1119.345;    5.190;  -11.690;  578.400
1119.886;    7.164;  -13.380;  704.040
1120.427;    5.592;  -14.070;  589.020
1120.969;    5.041;  -13.500;  597.920
1121.510;    4.276;  -11.480;  563.060
1122.051;    5.329;  -12.830;  723.580
1122.592;    5.126;  -14.290;  655.420
1123.133;    3.544;  -12.400;  547.940
1123.673;    6.426;  -10.130;  706.480
1124.214;    5.372;  -12.930;  612.460
1124.755;    6.169;  -14.380;  639.460
1125.296;    4.928;  -14.000;  627.320
1125.836;    5.231;  -10.070;  691.500
1126.377;    4.060;  -12.640;  599.660
1126.918;    5.056;  -12.960;  614.980
1127.458;    4.079;  -13.350;  622.220
1127.999;    4.583;  -10.750;  656.980
1128.539;    4.486;  -12.350;  694.240
1129.079;    4.450;  -14.860;  632.720
1129.620;    3.409;  -13.840;  558.100
1130.160;    3.385;  -12.330;  539.480
1130.700;    4.804;  -14.530;  640.840
1131.240;    4.411;  -12.530;  643.700
1131.781;    4.002;  -14.450;  619.680
1132.321;    3.540;   -9.790;  599.120
1132.861;    1.885;  -14.860;  564.200
1133.401;    2.522;  -14.290;  593.940
1133.941;    3.203;  -11.750;  626.280
1134.481;    2.621;   -9.920;  597.580
1135.020;    2.418;  -12.290;  609.160
1135.560;    3.553;  -11.650;  674.940
1136.100;    2.610;  -16.270;  501.160
1136.640;    1.947;  -10.890;  510.480
1137.179;    2.610;  -14.180;  537.960
1137.719;    3.429;  -16.250;  605.400
1138.258;    3.347;  -14.230;  587.360
1138.798;    2.798;   -9.090;  663.780
1139.337;    1.434;  -15.130;  482.840
1139.877;    2.601;  -13.680;  642.360
1140.416;    4.864;  -11.320;  878.060
1140.955;    2.007;  -10.860;  535.380
1141.494;    2.240;  -12.920;  669.280
1142.034;    1.879;  -13.930;  583.520
1142.573;    2.578;  -11.440;  646.280
1143.112;    1.964;  -12.000;  553.480
1143.651;    1.631;  -13.670;  536.480
1144.190;    2.646;  -12.730;  691.640
1144.729;    2.066;  -14.560;  607.420
1145.267;    1.352;  -11.830;  584.900
1145.806;    2.601;  -12.230;  637.040
1146.345;    1.440;  -14.130;  635.020
1146.884;    1.498;  -11.590;  622.500
1147.422;    0.440;  -12.550;  533.060
1147.961;    2.311;  -11.180;  708.460
1148.500;    2.121;  -11.510;  669.720
1149.038;    1.965;  -11.640;  632.500
1149.577;    1.929;  -10.130;  698.640
1150.115;   -0.012;  -13.970;  452.280
1150.653;    1.752;  -14.520;  607.340
1151.192;    0.877;  -12.810;  552.920
1151.730;    1.094;   -9.100;  652.560
1152.268;    0.274;  -12.220;  589.520
1152.806;    0.761;  -14.140;  571.180
1153.344;   -0.419;  -12.350;  577.640
1153.882;    0.459;   -8.980;  600.060
1154.421;   -0.391;  -15.190;  470.620
1154.958;    0.116;  -15.210;  595.240
1155.496;    1.158;  -12.850;  645.280
1156.034;    0.556;   -9.940;  721.880
1156.572;    1.770;  -13.570;  667.060
1157.110;   -0.695;  -14.590;  473.940
1157.647;    0.759;  -13.030;  676.960
1158.185;   -0.414;  -12.140;  564.320
1158.723;   -1.396;  -14.390;  509.200
1159.260;    0.543;  -14.090;  701.700
1159.798;    0.787;  -11.920;  658.160
1160.335;   -0.935;  -11.110;  631.820

