
Integration time [ms]:   3.276
Averaging Nr. [scans]: 1000
Smoothing Nr. [pixels]: 0
Data measured with spectrometer [name]: 7414430SP
Wave   ;Sample   ;Dark     ;Reference
[nm]   ;[counts] ;[counts] ;[counts] 

288.544;  150.110;    7.793;  793.890
289.143;  153.348;    7.462;  681.602
289.742;  153.579;    8.602;  828.814
290.341;  138.768;    1.321;  789.841
290.940;  128.062;   -0.709;  730.702
291.538;  128.450;    0.881;  881.108
292.137;  128.318;    0.122;  792.581
292.736;  133.861;   -1.929;  975.101
293.335;  130.113;   -8.229;  735.086
293.934;  130.498;   -5.279;  781.677
294.532;  127.479;   -1.369; 1031.958
295.131;  114.586;   -7.641;  834.394
295.730;  114.546;   -8.420;  809.588
296.328;  113.244;   -5.611;  783.442
296.927;  114.298;   -5.781;  779.652
297.525;  115.798;   -6.361;  781.236
298.124;  105.348;  -11.382;  654.009
298.722;  109.778;   -7.641;  761.933
299.321;  107.479;   -6.811;  708.597
299.919;  106.243;   -6.991;  751.918
300.518;  102.527;  -10.362;  689.338
301.116;  105.049;   -9.581;  691.381
301.715;  104.100;   -4.891;  730.222
302.313;  102.437;   -8.801;  704.943
302.911;   98.030;   -8.522;  733.830
303.509;  104.197;   -6.171;  925.627
304.108;  101.758;   -7.311;  760.383
304.706;  100.619;   -8.321;  801.664
305.304;   95.080;  -10.222;  796.707
305.902;  100.124;   -6.021;  784.484
306.500;   96.224;   -4.971;  728.200
307.098;   94.866;   -7.061;  746.560
307.696;   92.765;   -8.801;  780.432
308.294;   93.719;   -6.411;  731.359
308.892;   95.241;   -2.901;  759.769
309.490;   92.219;   -5.041;  712.161
310.088;   90.622;   -5.002;  788.444
310.686;   94.403;   -2.041;  821.749
311.284;   89.511;   -2.351;  766.040
311.882;   87.872;   -4.422;  731.225
312.480;   84.608;   -4.192;  697.167
313.078;   85.909;   -1.172;  808.331
313.675;   86.621;   -2.601;  691.600
314.273;   82.069;   -1.312;  797.837
314.871;   81.030;   -3.942;  589.829
315.468;   78.102;   -2.802;  652.090
316.066;   81.411;   -0.701;  694.427
316.664;   75.228;   -4.362;  656.351
317.261;   78.506;   -2.872;  910.128
317.859;   73.867;   -2.022;  768.735
318.456;   74.295;   -0.531;  830.096
319.054;   70.778;   -3.912;  787.828
319.651;   69.521;   -4.752;  759.928
320.249;   67.873;   -2.602;  810.188
320.846;   66.001;   -0.821;  714.286
321.443;   63.723;   -4.642;  832.135
322.041;   61.347;   -5.002;  812.315
322.638;   58.731;   -3.982;  701.456
323.235;   60.232;   -3.411;  665.683
323.833;   57.457;   -7.361;  740.354
324.430;   52.885;   -8.611;  615.900
325.027;   52.810;   -4.061;  876.855
325.624;   52.334;   -4.031;  644.532
326.221;   50.271;   -7.481;  689.717
326.818;   49.232;   -5.281;  818.332
327.415;   52.343;   -7.460;  748.828
328.012;   51.813;   -5.510;  690.585
328.609;   50.909;   -7.880;  731.389
329.206;   49.988;   -8.331;  778.621
329.803;   49.519;   -5.121;  737.841
330.400;   51.692;   -4.510;  704.260
330.997;   54.074;   -6.441;  817.147
331.594;   52.307;   -8.831;  788.185
332.191;   57.425;   -7.621;  728.722
332.787;   60.702;   -4.591;  844.463
333.384;   59.124;   -7.412;  763.093
333.981;   58.592;   -8.293;  815.687
334.578;   60.380;   -7.052;  708.378
335.174;   61.959;   -3.102;  731.469
335.771;   62.583;   -5.943;  836.456
336.367;   60.096;   -7.393;  710.631
336.964;   62.156;   -4.063;  793.266
337.561;   59.787;   -3.813;  731.112
338.157;   56.364;   -4.654;  911.916
338.754;   54.016;   -7.934;  796.589
339.350;   52.058;   -4.414;  722.493
339.946;   54.009;   -4.664;  773.135
340.543;   46.504;   -6.375;  846.136
341.139;   41.589;   -9.815;  720.836
341.735;   39.028;   -4.526;  772.593
342.332;   37.890;   -4.895;  691.472
342.928;   38.004;   -4.295;  795.394
343.524;   32.432;   -5.476;  761.684
344.120;   28.335;   -5.856;  738.562
344.716;   31.373;   -2.155;  723.717
345.313;   29.782;   -6.275;  795.342
345.909;   24.021;   -8.815;  627.336
346.505;   25.837;   -5.305;  740.247
347.101;   26.907;   -2.674;  827.864
347.697;   26.817;   -4.344;  785.398
348.293;   21.217;   -9.975;  627.244
348.889;   22.361;   -5.774;  745.914
349.485;   21.184;   -5.004;  688.205
350.081;   23.207;   -4.704;  772.592
350.676;   17.486;   -6.635;  691.606
351.272;   21.809;   -4.504;  809.530
351.868;   21.238;   -3.914;  780.497
352.464;   18.581;   -9.044;  723.932
353.059;   15.559;   -8.314;  646.017
353.655;   18.486;   -7.024;  777.063
354.251;   19.320;   -5.343;  759.845
354.846;   14.301;   -8.604;  740.646
355.442;   12.364;   -6.945;  753.071
356.038;   13.333;   -7.564;  751.708
356.633;   14.173;   -5.814;  728.594
357.229;   11.571;   -7.364;  724.757
357.824;   10.301;   -8.024;  703.600
358.420;    9.336;   -9.384;  679.726
359.015;    9.158;   -5.104;  695.357
359.610;   11.746;   -6.854;  763.920
360.206;    4.703;  -10.185;  603.240
360.801;    7.885;   -7.054;  646.503
361.396;    9.124;   -5.034;  725.975
361.992;    5.624;   -8.284;  668.220
362.587;    2.858;   -8.625;  670.160
363.182;    3.848;   -7.674;  689.631
363.777;    4.980;   -5.164;  738.242
364.372;    5.089;   -8.604;  737.314
364.967;    1.965;   -9.055;  680.744
365.563;    5.146;   -6.114;  815.567
366.158;    2.705;   -5.814;  685.161
366.753;    3.600;   -7.854;  649.263
367.348;    2.128;   -7.804;  746.056
367.942;    1.364;   -7.954;  697.298
368.537;    0.811;   -4.984;  754.245
369.132;    1.158;   -8.564;  703.428
369.727;   -3.073;   -8.855;  638.079
370.322;   -1.700;   -6.245;  580.186
370.917;   -2.426;   -6.425;  710.646
371.511;    0.930;   -6.294;  861.834
372.106;   -2.827;   -7.685;  776.964
372.701;   -5.911;   -7.335;  585.988
373.296;   -1.128;   -4.564;  863.135
373.890;   -4.869;  -10.235;  647.840
374.485;   -7.852;   -7.885;  691.199
375.079;   -3.591;   -7.324;  738.685
375.674;   -1.890;   -3.494;  812.970
376.268;   -6.294;   -8.525;  691.759
376.863;  -11.965;  -10.086;  580.327
377.457;   -5.987;   -7.025;  662.490
378.052;   -6.974;   -3.585;  764.884
378.646;   -7.726;   -7.595;  741.167
379.240;   -9.058;   -8.335;  721.176
379.835;   -7.707;   -5.785;  636.978
380.429;   -9.518;   -4.335;  562.557
381.023;   -9.669;   -6.805;  779.205
381.617;  -12.443;   -9.195;  680.106
382.212;   -9.497;   -6.905;  685.303
382.806;   -8.556;   -3.745;  760.690
383.400;  -12.322;   -7.745;  672.281
383.994;  -13.745;   -9.765;  664.870
384.588;  -10.410;   -6.564;  697.701
385.182;   -8.195;   -5.344;  726.624
385.776;   -9.414;   -8.514;  706.875
386.370;  -12.725;   -9.555;  681.968
386.964;  -12.078;   -8.715;  684.155
387.558;  -10.181;   -6.174;  598.360
388.152;  -13.444;   -8.725;  681.959
388.745;  -11.771;   -7.965;  814.707
389.339;  -10.054;   -5.924;  747.642
389.933;   -8.843;   -5.524;  695.370
390.527;  -10.069;   -7.114;  859.029
391.120;  -16.583;  -10.725;  595.318
391.714;  -14.018;   -8.035;  711.633
392.308;  -10.240;   -3.574;  780.253
392.901;  -13.696;   -7.245;  642.460
393.495;  -15.586;   -9.285;  595.414
394.089;  -13.791;   -5.895;  760.452
394.682;  -14.131;   -4.295;  697.188
395.275;  -14.648;   -9.875;  719.927
395.869;  -15.477;   -8.485;  667.314
396.462;  -14.667;   -7.455;  616.609
397.056;  -10.779;   -5.424;  776.621
397.649;  -15.896;   -6.605;  731.575
398.242;  -12.703;   -8.224;  712.645
398.836;  -12.050;   -7.474;  766.408
399.429;  -13.217;   -7.094;  631.041
400.022;  -16.153;   -9.475;  665.902
400.615;  -13.860;   -7.145;  805.609
401.208;  -12.212;   -7.174;  691.451
401.802;  -14.515;   -5.515;  699.329
402.395;  -15.450;   -9.875;  683.502
402.988;  -16.032;   -8.845;  696.627
403.581;  -13.730;   -8.874;  646.878
404.174;  -11.302;   -5.324;  686.568
404.767;  -13.517;   -9.575;  638.583
405.360;  -16.335;  -10.965;  621.445
405.953;  -10.626;   -8.764;  759.034
406.545;  -11.011;   -7.514;  725.342
407.138;  -14.461;  -10.025;  618.350
407.731;  -13.207;  -10.034;  613.303
408.324;   -9.472;   -9.374;  660.554
408.917;  -10.499;   -6.534;  681.864
409.509;  -12.306;   -8.004;  740.396
410.102;  -14.109;   -9.875;  643.948
410.695;   -8.259;   -8.604;  665.758
411.287;   -9.730;   -6.794;  599.821
411.880;  -10.280;   -9.334;  585.421
412.472;  -12.696;  -10.254;  613.092
413.065;  -10.718;   -6.714;  629.408
413.657;   -8.285;   -7.234;  576.678
414.250;   -8.604;  -10.544;  646.681
414.842;  -10.988;   -9.744;  676.353
415.434;   -7.755;   -6.994;  570.463
416.027;   -4.008;   -5.893;  652.196
416.619;   -5.843;   -7.264;  713.400
417.211;   -6.193;  -10.374;  599.352
417.804;   -4.040;   -7.993;  628.499
418.396;   -6.446;   -7.234;  607.643
418.988;   -4.446;   -9.443;  659.238
419.580;   -7.944;  -10.724;  568.276
420.172;   -5.595;  -10.323;  536.196
420.764;   -1.914;   -8.793;  672.482
421.356;   -2.427;  -11.143;  636.898
421.948;   -4.287;   -8.293;  677.661
422.540;    1.172;   -7.893;  680.027
423.132;    1.030;   -7.082;  600.641
423.724;   -2.614;   -8.653;  561.267
424.316;   -0.476;  -10.213;  621.345
424.908;    2.387;   -9.762;  591.517
425.500;    3.353;   -5.572;  647.978
426.092;    4.420;   -8.422;  648.268
426.683;    2.983;   -9.283;  684.836
427.275;    5.578;   -7.852;  641.471
427.867;    7.265;   -5.272;  668.948
428.458;    8.481;   -7.682;  732.344
429.050;    5.934;  -10.612;  680.749
429.642;    7.942;   -9.882;  743.124
430.233;    8.742;   -6.962;  569.356
430.825;    9.688;   -6.842;  724.809
431.416;    7.325;   -9.672;  698.241
432.008;   11.164;   -6.552;  651.723
432.599;   11.614;   -6.891;  656.073
433.190;    9.406;  -10.912;  637.670
433.782;    7.848;  -11.172;  590.395
434.373;   15.028;   -6.061;  884.765
434.964;   14.309;   -8.251;  602.920
435.556;   11.823;   -9.722;  634.537
436.147;   15.595;   -9.082;  758.490
436.738;   13.955;   -8.041;  701.099
437.329;   20.329;   -7.341;  721.723
437.920;   12.541;   -8.162;  666.688
438.511;   13.130;  -11.802;  564.526
439.103;   18.897;  -10.191;  623.998
439.694;   20.461;   -7.601;  681.583
440.285;   22.288;   -8.541;  764.432
440.876;   20.138;   -9.751;  845.738
441.466;   19.696;   -9.401;  575.162
442.057;   24.288;   -7.760;  665.814
442.648;   23.847;   -9.971;  746.255
443.239;   21.999;  -11.001;  620.477
443.830;   26.817;   -7.990;  704.958
444.421;   28.495;   -7.910;  655.474
445.011;   25.246;   -8.131;  693.619
445.602;   24.992;   -7.111;  743.126
446.193;   25.804;  -10.920;  488.117
446.783;   30.900;   -6.500;  640.397
447.374;   26.230;   -8.671;  692.759
447.964;   26.681;  -10.781;  713.770
448.555;   35.249;   -9.650;  822.742
449.145;   32.040;   -8.660;  662.853
449.736;   33.621;   -8.990;  803.179
450.326;   32.782;   -9.500;  713.626
450.917;   37.663;   -8.680;  675.324
451.507;   36.406;   -7.520;  600.661
452.097;   37.475;   -8.590;  746.267
452.688;   37.920;  -11.340;  742.160
453.278;   37.930;  -10.100;  566.840
453.868;   41.937;   -6.019;  793.550
454.458;   41.051;   -9.440;  651.141
455.048;   41.208;  -10.560;  711.783
455.639;   41.772;  -11.799;  567.096
456.229;   46.848;   -6.899;  710.694
456.819;   47.721;   -7.389;  751.158
457.409;   48.021;  -11.119;  773.993
457.999;   50.323;   -9.289;  737.505
458.589;   50.712;   -6.139;  686.606
459.179;   50.324;   -8.729;  717.658
459.769;   48.811;   -9.789;  627.099
460.358;   53.343;  -10.259;  797.262
460.948;   53.435;   -7.299;  689.503
461.538;   55.138;  -10.289;  660.677
462.128;   52.887;  -11.269;  664.934
462.717;   59.545;   -9.368;  710.326
463.307;   62.328;   -7.908;  705.846
463.897;   58.177;   -9.599;  656.942
464.486;   57.830;   -9.769;  837.128
465.076;   61.325;   -8.048;  733.776
465.666;   65.453;   -9.358;  652.900
466.255;   63.488;   -7.919;  785.651
466.845;   62.474;  -11.689;  666.749
467.434;   66.156;   -7.818;  725.873
468.023;   66.776;   -7.678;  658.357
468.613;   64.722;  -10.939;  713.946
469.202;   68.232;  -10.118;  646.507
469.791;   72.431;   -9.108;  737.811
470.381;   74.590;   -6.058;  742.813
470.970;   73.957;  -10.428;  711.099
471.559;   74.685;  -10.268;  733.291
472.148;   77.209;   -8.448;  675.737
472.738;   79.414;   -6.917;  765.466
473.327;   78.521;  -11.978;  637.529
473.916;   78.977;  -11.888;  737.446
474.505;   82.375;   -9.437;  751.703
475.094;   86.203;   -6.747;  806.570
475.683;   85.402;   -9.367;  797.699
476.272;   86.489;  -12.637;  730.632
476.861;   88.919;  -10.027;  706.754
477.449;   96.071;   -8.716;  728.487
478.038;   89.856;   -9.577;  692.513
478.627;   91.071;   -9.718;  714.852
479.216;   97.415;   -8.947;  769.441
479.805;  100.448;   -6.256;  783.375
480.393;  101.357;   -7.937; 1008.945
480.982;  100.656;   -7.717;  874.501
481.571;  105.972;   -9.266;  858.333
482.159;  106.726;   -7.636;  705.386
482.748;  107.252;   -9.667;  821.385
483.336;  111.258;  -10.376;  858.209
483.925;  111.051;   -7.147;  774.373
484.513;  117.652;   -7.996;  758.962
485.102;  114.942;  -10.027;  810.965
485.690;  124.489;  -10.446; 1011.050
486.278;  125.978;   -8.446;  979.329
486.867;  126.766;   -6.356;  809.662
487.455;  128.710;   -9.136;  898.229
488.043;  130.462;  -10.646;  748.361
488.631;  138.496;   -7.456; 1005.079
489.220;  142.478;   -6.636;  908.626
489.808;  142.899;  -11.036;  741.415
490.396;  151.154;  -10.246;  914.645
490.984;  157.970;   -8.556;  830.161
491.572;  168.425;   -5.886;  940.315
492.160;  175.757;   -9.486;  919.081
492.748;  188.936;  -10.976;  884.341
493.336;  213.362;   -8.776; 1019.693
493.924;  242.448;   -5.465;  958.077
494.512;  273.135;   -9.986; 1066.638
495.100;  314.176;  -10.636; 1103.280
495.687;  373.459;  -10.885; 1206.373
496.275;  444.671;   -8.126; 1150.796
496.863;  520.996;  -10.586; 1281.171
497.451;  632.572;  -11.926; 1386.805
498.038;  772.980;  -10.885; 1556.729
498.626;  889.333;   -6.315; 1741.407
499.214; 1055.985;   -7.326; 2016.609
499.801; 1268.343;  -11.906; 2220.633
500.389; 1538.084;  -10.466; 2312.494
500.976; 1871.547;   -5.236; 2744.849
501.564; 2351.155;   -8.936; 3148.565
502.151; 2744.513;  -13.176; 3515.999
502.738; 3217.046;  -10.646; 3971.274
503.326; 3637.166;   -9.525; 4403.796
503.913; 4056.688;  -10.856; 5161.749
504.500; 4442.312;  -11.586; 5986.420
505.088; 4893.789;  -10.336; 6381.201
505.675; 5451.785;   -6.355; 6925.547
506.262; 6193.412;   -9.046; 7619.060
506.849; 6947.050;  -10.416; 8733.969
507.436; 7419.312;  -10.305; 9790.121
508.023; 7977.278;   -5.496; 9985.472
508.610; 8241.312;   -7.856;10434.618
509.197; 8877.822;  -10.097;11198.435
509.784;10233.022;  -10.886;12391.194
510.371;11360.283;   -9.315;13603.713
510.958;12109.124;   -9.936;14426.586
511.545;12852.792;   -9.326;15243.775
512.132;13636.005;  -10.075;15945.876
512.719;14114.743;   -7.796;16340.369
513.305;15106.723;  -10.606;18011.766
513.892;15868.685;  -11.486;19754.971
514.479;17157.178;   -9.126;20967.805
515.066;18670.350;   -6.026;22299.793
515.652;20031.719;   -8.466;22908.660
516.239;21191.730;  -10.886;23798.875
516.825;22035.324;  -11.496;25567.275
517.412;22972.322;   -5.796;28154.959
517.998;23616.090;  -10.506;28344.111
518.585;23739.145;  -10.076;27134.219
519.171;24157.018;   -8.315;27268.576
519.758;25506.123;   -8.596;28964.129
520.344;27282.971;   -8.466;30664.494
520.930;27172.020;  -11.006;32550.605
521.516;28207.869;  -10.495;35422.895
522.103;30154.264;   -5.526;38280.004
522.689;30482.916;   -8.746;37835.117
523.275;30030.900;  -11.376;37288.613
523.861;31419.705;  -11.156;37281.395
524.447;32878.770;   -8.135;37846.949
525.033;32531.033;   -7.896;38321.949
525.619;32377.254;  -12.476;38579.285
526.205;33415.602;   -9.516;40622.875
526.791;35001.219;   -6.926;42258.836
527.377;33358.387;   -8.346;42966.902
527.963;32033.230;   -8.717;42018.949
528.549;30681.936;  -11.016;42476.828
529.135;32080.771;   -8.536;41854.852
529.721;34056.258;   -9.666;41237.711
530.306;34708.570;  -10.066;41259.445
530.892;34785.727;  -11.356;41506.047
531.478;36201.105;   -6.596;43559.613
532.063;39046.160;   -8.836;47695.563
532.649;39572.637;  -10.047;50808.324
533.235;40159.648;   -9.746;51787.500
533.820;40265.125;   -6.566;52145.035
534.406;41476.422;  -10.817;51133.488
534.991;40994.496;   -9.416;49996.805
535.576;39141.766;   -9.036;48882.852
536.162;39249.844;   -6.156;46942.285
536.747;39460.027;  -11.607;45711.746
537.333;41508.996;  -11.787;48510.180
537.918;42103.984;  -12.437;50439.891
538.503;38563.492;   -7.196;50863.711
539.088;34195.109;  -10.556;50906.922
539.673;35335.035;   -8.767;52621.965
540.259;39183.438;  -10.026;52368.094
540.844;40391.332;   -7.416;50879.109
541.429;43549.406;   -9.467;52077.777
542.014;46654.477;   -9.527;52716.695
542.599;45945.895;   -9.946;52363.281
543.184;43548.547;   -7.927;53187.137
543.769;45003.086;   -9.297;54697.605
544.354;44695.574;  -10.127;53913.914
544.938;43404.867;   -9.267;49680.164
545.523;45130.867;   -6.506;47386.277
546.108;47968.605;   -9.787;49151.949
546.693;49812.125;  -11.587;51384.637
547.278;49621.801;  -10.986;51853.254
547.862;47049.637;   -8.206;51173.750
548.447;42721.805;  -10.067;51691.395
549.031;42061.078;   -9.637;52456.703
549.616;46878.844;   -9.926;52714.516
550.201;46325.293;   -6.347;52414.598
550.785;47448.629;   -7.917;52355.059
551.370;46449.902;  -10.867;54589.453
551.954;45826.820;   -9.047;58267.348
552.538;46558.402;   -7.827;59062.176
553.123;44930.504;  -10.287;58115.285
553.707;42572.867;  -12.178;56556.285
554.291;44146.293;   -8.717;56201.668
554.876;46814.098;   -7.457;55335.762
555.460;46993.535;  -10.387;54155.703
556.044;47820.141;   -9.618;53721.484
556.628;46422.211;  -11.567;53731.016
557.212;45294.547;   -8.097;54312.531
557.796;43849.727;  -11.077;53797.773
558.380;44098.047;  -11.108;56145.984
558.964;44650.383;   -9.057;57277.930
559.548;46004.129;   -6.977;56459.641
560.132;44103.441;  -11.457;54434.543
560.716;42582.227;  -11.378;54800.617
561.300;43488.910;   -9.577;57606.945
561.884;44642.859;   -7.127;58972.445
562.467;43043.145;   -7.118;57327.570
563.051;42521.281;  -13.358;54962.434
563.635;43779.133;  -10.178;52594.473
564.219;43980.102;   -7.837;50610.410
564.802;44936.195;  -11.398;49551.180
565.386;44735.324;  -12.788;48370.953
565.969;44028.629;   -9.077;48178.871
566.553;43048.500;   -6.207;49957.305
567.136;43694.066;   -8.568;50369.594
567.720;40367.781;  -11.868;49492.004
568.303;38181.000;   -8.268;50616.352
568.887;38166.402;   -8.698;50727.148
569.470;38484.230;   -6.808;51698.379
570.053;37176.277;  -13.188;52122.078
570.637;35522.441;  -12.037;52536.438
571.220;35658.129;   -8.577;51186.098
571.803;36525.023;   -8.498;51032.762
572.386;38699.617;  -10.498;49609.887
572.969;41214.156;   -9.388;48285.926
573.552;39333.906;   -8.338;47624.285
574.135;37777.289;   -8.518;45498.641
574.718;35444.504;  -13.628;41970.434
575.301;34642.758;  -10.893;41447.137
575.884;33841.016;   -8.158;40923.836
576.467;34886.957;  -10.328;45267.723
577.050;36666.465;  -13.058;48175.543
577.633;38080.879;   -9.458;47729.328
578.216;37351.016;   -8.928;47579.793
578.799;36501.645;   -9.358;47820.996
579.381;35397.402;  -11.388;48115.551
579.964;33480.191;  -11.718;47333.766
580.547;35036.316;   -8.588;46668.969
581.129;35986.559;   -8.859;44466.141
581.712;36927.090;  -10.729;44164.922
582.294;37511.180;  -11.118;46477.855
582.877;37384.285;   -5.218;48244.254
583.459;35142.117;   -8.679;47437.895
584.042;33126.879;  -10.709;46943.219
584.624;33393.684;  -11.669;46792.227
585.206;32967.551;   -8.218;46557.250
585.789;32917.707;  -10.569;45793.773
586.371;35896.938;  -11.859;43836.391
586.953;36574.969;  -10.719;42972.492
587.536;37964.586;   -7.198;42487.211
588.118;38255.816;   -8.720;42086.414
588.700;34529.285;  -10.439;43389.930
589.282;33502.523;   -9.198;43646.039
589.864;34217.195;   -9.199;43438.109
590.446;35286.566;  -11.319;43151.926
591.028;35351.648;  -11.159;42781.867
591.610;34357.410;  -11.779;42839.098
592.192;31690.338;   -7.668;42820.402
592.774;30151.563;  -11.949;40724.277
593.356;28891.574;  -12.129;39874.789
593.937;27758.277;  -10.669;39980.648
594.519;29849.707;   -6.509;42069.633
595.101;32116.805;  -10.849;42976.031
595.683;32373.471;  -11.679;44084.441
596.264;33358.094;   -9.049;43478.797
596.846;32858.211;   -8.849;43803.672
597.427;32782.598;   -9.570;42986.934
598.009;34399.102;  -12.620;42832.219
598.591;34954.934;  -10.039;42580.086
599.172;34378.480;  -10.369;43061.805
599.753;34470.238;   -9.140;41691.469
600.335;35802.684;  -11.430;40692.520
600.916;33890.793;   -9.939;39982.422
601.498;31428.148;   -8.479;40318.617
602.079;29925.891;  -10.920;40670.609
602.660;29708.316;  -11.480;41450.898
603.241;31377.615;  -11.699;41137.738
603.823;30114.646;   -9.579;38868.797
604.404;29433.357;  -10.620;38182.785
604.985;31161.357;  -10.450;38078.047
605.566;31181.219;   -9.129;38056.633
606.147;31252.705;   -7.510;37020.418
606.728;32718.023;  -10.660;37883.359
607.309;31355.018;  -11.740;38748.273
607.890;30932.135;   -9.759;38850.230
608.471;30358.801;   -8.250;37457.918
609.051;29519.203;   -9.240;36066.457
609.632;28421.166;  -12.120;35991.074
610.213;29130.451;   -9.110;37402.641
610.794;29963.879;   -8.030;38383.363
611.374;29560.307;   -8.110;40562.387
611.955;30172.244;  -13.560;38533.727
612.536;31516.793;  -11.400;36951.789
613.116;31352.365;   -8.070;37197.891
613.697;31654.488;  -10.830;38411.125
614.277;29950.578;  -11.641;38673.938
614.858;30816.676;  -13.310;37075.863
615.438;29976.742;   -7.460;35092.906
616.019;27364.461;   -7.601;33666.301
616.599;28069.492;  -12.020;34189.023
617.179;29928.914;  -11.780;36952.047
617.760;30949.988;   -8.570;39582.574
618.340;31959.057;  -11.471;38943.977
618.920;33143.727;  -11.170;37594.156
619.500;32926.617;  -11.071;37866.938
620.080;31955.080;   -7.750;37869.043
620.660;33095.598;  -12.711;36868.617
621.241;34399.203;  -10.211;36352.309
621.821;34638.617;  -10.961;35459.520
622.401;33626.293;   -7.720;35207.414
622.980;32851.703;   -8.981;35980.422
623.560;31410.475;   -9.331;37351.328
624.140;30163.408;   -9.850;34388.582
624.720;25113.395;   -7.451;32368.764
625.300;21579.650;   -9.070;32638.629
625.880;24833.391;  -12.601;34599.035
626.459;28677.793;  -11.751;36831.738
627.039;31681.984;   -9.281;38299.098
627.619;31670.656;   -8.801;38289.574
628.198;30212.123;  -12.071;37220.695
628.778;29389.807;   -9.461;37632.563
629.357;30005.768;   -8.491;38003.012
629.937;29930.340;   -9.721;38402.039
630.516;29447.664;   -9.951;37868.801
631.096;29242.904;  -11.731;35760.410
631.675;31677.959;   -8.572;35225.219
632.254;36659.855;  -11.282;35130.289
632.834;36105.910;  -13.322;35794.570
633.413;34433.910;  -10.301;35788.922
633.992;31832.285;   -8.582;34532.863
634.571;32472.836;   -8.352;33590.113
635.151;35462.195;  -11.912;34943.863
635.730;33832.633;  -10.511;35352.523
636.309;30232.744;   -7.731;35366.605
636.888;27634.736;   -9.952;36165.637
637.467;28113.217;  -11.672;37515.902
638.046;29708.809;   -8.901;39288.695
638.625;32919.996;   -7.912;38279.699
639.204;32785.148;  -10.022;37741.598
639.782;31389.561;  -12.252;38364.551
640.361;27795.424;  -10.041;36740.621
640.940;25100.072;  -11.161;34950.082
641.519;25715.879;   -9.701;34137.398
642.097;28475.762;  -11.271;35654.258
642.676;31348.572;   -8.651;35637.957
643.255;32268.568;   -8.711;36567.074
643.833;31551.250;   -9.581;37809.434
644.412;31357.732;  -13.711;37337.293
644.990;30108.828;  -11.811;37018.531
645.569;29884.838;   -9.411;36518.469
646.147;29088.857;  -10.291;36186.430
646.726;29080.539;  -12.401;36267.688
647.304;30323.689;  -10.411;36647.625
647.882;32079.754;   -9.651;39286.742
648.461;33677.223;   -9.631;39157.703
649.039;31952.188;  -11.881;35412.883
649.617;31260.920;   -9.661;34744.918
650.195;30913.654;   -9.301;35403.098
650.773;29556.314;  -10.511;35053.797
651.352;27010.047;  -11.521;33756.816
651.930;24589.268;  -12.211;31868.773
652.508;23114.768;   -9.171;33121.551
653.086;27096.352;   -9.371;33564.793
653.663;30015.592;  -13.161;34054.668
654.241;28697.332;  -13.031;35693.309
654.819;30363.656;   -9.371;36422.906
655.397;30579.996;  -10.511;38213.484
655.975;30043.049;  -10.371;39507.625
656.553;29825.041;  -10.051;39498.223
657.130;28443.176;  -10.061;40395.480
657.708;27644.303;   -9.561;39242.020
658.286;27631.770;  -11.511;38920.020
658.863;28915.746;  -10.261;40202.898
659.441;32046.658;   -7.531;39677.938
660.018;31669.158;   -9.501;40413.355
660.596;30485.344;  -13.301;39931.414
661.173;32493.467;  -11.211;39604.531
661.750;32670.932;   -9.951;39700.070
662.328;31218.426;   -9.390;39292.809
662.905;30258.732;  -11.330;38235.648
663.482;26265.131;   -9.050;36212.305
664.060;24474.094;   -8.240;35944.945
664.637;27262.471;  -10.050;35170.785
665.214;28997.973;  -11.760;34197.523
665.791;30597.031;  -10.530;34549.520
666.368;29504.553;   -9.690;35118.578
666.945;30133.078;   -9.320;36019.418
667.522;31685.420;  -11.860;36048.438
668.099;31228.209;  -10.770;36243.914
668.676;30012.316;   -6.260;35958.875
669.253;28819.803;   -7.000;37384.730
669.830;29491.732;  -10.190;36779.629
670.407;29284.580;   -9.550;35231.289
670.984;29089.926;   -9.260;35544.270
671.560;29696.535;   -9.280;35466.867
672.137;29034.164;  -11.810;34280.863
672.714;29875.232;  -11.490;34632.863
673.290;30640.158;   -7.740;35135.422
673.867;30774.318;  -10.660;36114.480
674.443;30739.539;  -12.230;36152.859
675.020;29034.191;  -10.450;35327.238
675.596;30027.078;   -9.260;35795.176
676.173;30476.936;  -10.780;35430.355
676.749;30202.787;  -13.690;33549.516
677.326;29998.195;  -11.980;32210.012
677.902;29876.516;   -8.630;32068.871
678.478;29303.600;  -10.730;32583.891
679.054;28648.816;  -10.520;32088.928
679.631;29006.406;  -11.920;30978.848
680.207;30606.686;   -7.490;33160.887
680.783;32218.832;   -9.860;35570.363
681.359;31239.016;  -13.380;36125.184
681.935;30612.049;  -12.480;35240.922
682.511;30026.344;   -7.900;34429.961
683.087;30183.752;   -7.710;34463.680
683.663;29654.791;  -11.480;34648.898
684.239;28450.602;  -14.090;34546.457
684.815;28204.158;   -7.560;35586.375
685.390;28534.627;   -9.910;35821.895
685.966;29032.766;  -11.159;35085.871
686.542;31356.777;  -11.169;34198.230
687.118;33596.891;   -5.959;32847.707
687.693;33838.969;  -10.329;32794.027
688.269;33516.301;  -12.059;33072.367
688.844;31631.893;  -10.909;33141.664
689.420;29499.334;   -8.019;33965.742
689.995;27353.748;   -8.399;34655.523
690.571;26048.516;  -10.949;33576.742
691.146;26470.207;   -9.619;32657.219
691.722;26005.205;   -8.999;32526.979
692.297;25590.984;  -11.589;33014.617
692.872;27265.471;  -11.739;34012.254
693.448;26943.715;  -11.059;34237.434
694.023;26094.207;  -10.139;34142.672
694.598;28104.311;   -9.029;34132.031
695.173;28573.775;  -13.319;34205.250
695.748;27875.414;  -10.169;32882.488
696.323;28085.293;   -8.339;32864.906
696.898;28270.205;   -8.169;33170.004
697.473;28072.621;  -12.309;32432.984
698.048;27358.393;  -10.989;31649.303
698.623;27137.154;   -9.329;30778.141
699.198;29022.951;   -9.849;31140.119
699.773;30100.842;  -12.329;31764.299
700.348;28430.410;  -10.389;31780.816
700.922;28495.189;   -9.269;32046.375
701.497;29486.590;   -9.329;32603.574
702.072;29694.770;  -10.789;34799.871
702.646;28286.127;  -10.839;35793.172
703.221;26241.445;   -9.099;35201.590
703.795;28363.047;  -10.939;34764.527
704.370;28770.174;  -12.859;34307.367
704.944;29068.186;  -11.559;33509.887
705.519;29917.803;   -7.939;31388.584
706.093;31389.680;  -10.499;31340.104
706.668;31801.479;  -11.289;32630.281
707.242;30667.793;  -11.509;32728.779
707.816;29085.436;   -9.639;32947.238
708.390;27598.166;  -11.429;33277.855
708.965;27966.166;  -11.869;33834.336
709.539;27723.627;  -11.689;33709.273
710.113;28191.811;  -10.478;33044.313
710.687;27793.840;  -10.228;31953.992
711.261;26324.943;  -13.698;30505.949
711.835;26240.166;  -13.378;30262.369
712.409;26822.271;   -9.698;31254.447
712.983;28701.393;  -11.898;32754.986
713.557;29786.975;  -15.138;34018.824
714.131;29343.100;  -14.098;34579.625
714.704;28180.063;   -9.958;33890.262
715.278;25942.572;  -10.028;33531.102
715.852;24883.824;  -11.148;33601.660
716.425;25719.963;   -9.068;33515.117
716.999;26565.863;  -10.038;33185.555
717.573;27560.732;   -9.798;33905.996
718.146;28587.930;  -12.378;35199.293
718.720;28717.588;  -11.918;35060.551
719.293;28217.793;   -8.088;34973.230
719.867;31071.340;  -10.888;36394.449
720.440;30961.805;  -11.938;36663.008
721.013;29311.850;  -12.818;35102.426
721.587;27747.027;  -10.298;33985.266
722.160;26794.443;  -10.048;33524.965
722.733;25797.121;  -12.108;32987.043
723.306;25970.564;  -10.818;33066.301
723.880;28234.457;   -8.908;33399.500
724.453;30210.201;   -9.878;33468.297
725.026;29185.490;  -11.188;33816.637
725.599;26397.033;  -11.678;32797.996
726.172;26754.715;   -9.618;33187.434
726.745;27993.840;   -8.258;35136.613
727.318;29370.068;  -12.978;35751.730
727.891;29952.846;  -12.148;35890.430
728.463;29697.531;   -8.968;34822.090
729.036;28639.420;  -10.188;32895.086
729.609;29128.311;  -11.788;31823.225
730.182;26194.641;  -11.788;31445.283
730.754;23693.473;  -10.268;32373.223
731.327;23813.998;   -9.998;33676.820
731.900;24162.098;  -12.228;33417.000
732.472;25346.082;  -13.848;31978.498
733.045;27300.779;   -8.698;30368.777
733.617;27379.201;  -10.607;30574.215
734.190;27054.346;  -11.507;31280.975
734.762;24326.930;  -13.647;31674.412
735.334;22451.662;   -9.767;31247.291
735.907;22867.506;   -9.897;29876.211
736.479;23146.512;  -11.637;29808.488
737.051;23132.252;   -9.567;30233.547
737.623;24148.885;   -8.187;31469.086
738.195;24743.900;  -11.187;31784.225
738.768;26563.885;  -12.337;32120.523
739.340;27027.592;  -12.227;32094.342
739.912;25984.326;  -11.057;31312.680
740.484;24435.586;  -10.207;31946.238
741.056;23150.340;  -10.047;32984.059
741.628;24867.104;  -13.627;33897.715
742.199;27088.332;   -7.177;33213.016
742.771;25383.271;  -10.797;31369.113
743.343;23103.910;  -11.997;31865.473
743.915;22132.830;  -12.867;32388.631
744.487;22211.242;   -7.617;31079.568
745.058;22443.260;   -9.557;30570.107
745.630;22877.729;   -9.877;29970.127
746.201;23918.326;  -14.177;29186.766
746.773;24657.906;   -9.237;28805.723
747.344;24484.771;   -9.847;29591.223
747.916;22844.219;  -11.657;31412.201
748.487;22965.076;  -10.587;32194.898
749.059;24171.010;   -8.707;32533.719
749.630;24765.525;  -10.537;32158.518
750.201;23654.711;  -11.687;30855.395
750.773;21828.531;  -11.647;28622.555
751.344;21774.023;   -7.147;28405.732
751.915;23135.838;   -9.757;28461.551
752.486;23290.695;  -12.427;27842.850
753.057;21013.182;  -12.227;27845.008
753.628;19693.117;  -10.417;27728.107
754.199;20679.590;  -11.767;27381.086
754.770;21669.877;  -11.187;25882.203
755.341;21803.344;  -10.507;25886.184
755.912;22070.164;   -9.387;26050.861
756.483;21697.227;  -10.647;26798.779
757.054;19884.852;  -11.837;27048.238
757.625;18515.289;  -12.716;26294.838
758.195;18170.033;   -9.666;26142.076
758.766;17888.658;   -8.656;26392.234
759.337;18614.473;  -12.856;26334.594
759.907;20189.588;  -13.366;27579.652
760.478;21153.373;   -8.576;28352.770
761.048;20627.549;  -10.526;27325.088
761.619;19736.430;  -11.116;26460.428
762.189;19741.887;  -12.136;26029.826
762.760;20794.076;   -9.456;26430.145
763.330;21937.623;   -7.136;26670.902
763.900;21414.094;  -11.786;26603.021
764.471;18825.377;  -11.546;25542.740
765.041;17506.877;   -8.096;24358.459
765.611;17542.902;   -8.876;23991.297
766.181;17904.945;  -12.196;24470.236
766.751;18829.412;  -11.636;24845.975
767.321;18532.234;  -10.156;24533.633
767.891;16612.779;  -11.766;24916.492
768.461;16115.577;  -14.936;24776.771
769.031;16736.307;  -12.356;24757.988
769.601;18346.723;   -7.526;24181.088
770.171;18154.781;  -10.766;23670.387
770.741;17238.531;  -13.176;22960.045
771.311;17290.303;  -10.616;22917.523
771.880;17720.234;   -9.576;23562.941
772.450;17434.666;  -10.336;24216.500
773.020;17373.070;  -13.516;24140.398
773.589;16620.904;  -13.466;24414.857
774.159;15923.713;   -8.686;23858.717
774.729;15548.726;   -9.476;22942.135
775.298;15093.576;  -13.666;22324.033
775.867;14693.094;  -11.716;21140.313
776.437;14802.132;   -9.906;20838.092
777.006;14632.004;  -12.166;20599.510
777.576;14396.938;  -12.356;20508.809
778.145;14373.126;  -11.646;20732.947
778.714;14276.488;   -8.226;21062.465
779.283;13617.071;   -9.556;20949.664
779.853;13050.486;  -14.116;20508.623
780.422;13494.357;  -11.506;20649.082
780.991;13035.805;   -9.556;21527.520
781.560;11857.354;   -9.095;22632.658
782.129;11671.787;  -12.135;23048.277
782.698;11697.427;  -10.865;23438.555
783.267;11238.208;   -9.335;23267.734
783.836;11131.707;  -11.045;22415.133
784.404;12100.423;  -13.865;20443.152
784.973;12689.279;  -13.095;19699.150
785.542;12584.301;  -11.575;19763.828
786.111;12327.051;   -9.705;20341.408
786.679;11829.320;  -12.105;20207.967
787.248;11606.366;  -12.455;19516.465
787.817;11446.769;  -11.535;18900.363
788.385;11023.562;   -9.765;17879.121
788.954;10460.644;  -14.005;17658.301
789.522; 9972.362;  -11.955;17788.879
790.090;10470.236;  -10.135;18118.277
790.659;10834.117;  -10.975;18338.736
791.227;10323.016;  -13.375;18508.615
791.795;10669.901;  -12.375;17898.254
792.364;11013.883;  -10.725;17295.133
792.932;11363.246;   -9.715;16822.051
793.500;11508.922;  -12.675;17040.148
794.068;11656.142;  -13.495;17179.787
794.636;11738.771;  -10.885;16664.246
795.204;11095.420;  -11.045;16524.545
795.772;11120.278;  -13.175;17274.564
796.340;10683.230;  -12.445;17891.002
796.908;10454.613;   -9.735;17648.561
797.476;10331.097;   -9.815;17064.080
798.044; 9924.738;  -13.985;16672.777
798.612; 9169.920;  -13.115;17023.996
799.180; 8784.350;  -10.185;16561.615
799.747; 8723.863;   -9.055;15962.773
800.315; 8493.810;  -12.385;15296.992
800.883; 8184.317;  -15.035;14801.771
801.450; 8201.811;  -10.365;14534.430
802.018; 8264.751;   -9.855;14173.248
802.585; 8377.689;  -11.905;14029.547
803.153; 8397.401;  -11.585;13836.846
803.720; 8216.757;   -9.095;13567.324
804.287; 7780.991;   -9.135;13360.622
804.855; 7402.736;  -11.604;13681.981
805.422; 7303.569;  -11.794;13536.560
805.989; 7308.363;  -10.734;13355.958
806.556; 7435.478;  -10.444;13747.896
807.124; 7641.280;  -12.764;13987.376
807.691; 7646.009;  -12.964;14038.674
808.258; 7483.181;  -11.134;14120.152
808.825; 7208.348;   -9.854;13860.111
809.392; 7305.445;  -10.504;13268.790
809.959; 6872.476;  -13.054;12680.389
810.526; 6441.082;   -8.294;12427.308
811.093; 6513.399;   -8.394;12030.105
811.659; 7147.942;  -12.304;11653.664
812.226; 7669.967;  -13.944;11637.183
812.793; 7436.765;  -10.484;11611.521
813.360; 6893.795;  -10.144;11885.181
813.926; 6612.333;  -11.684;12770.539
814.493; 6385.771;  -13.644;12677.638
815.060; 5995.987;   -9.724;11974.336
815.626; 5987.407;   -9.854;11594.715
816.193; 6381.794;  -13.254;11579.474
816.759; 6441.936;  -13.204;11666.972
817.325; 6524.441;   -9.434;11325.530
817.892; 6892.372;  -10.134;11105.369
818.458; 7329.596;  -13.474;10843.928
819.024; 7003.435;  -11.854;10714.406
819.591; 6725.576;  -10.244;10469.165
820.157; 6535.500;  -10.704;10235.523
820.723; 6075.065;  -12.324;10847.563
821.289; 5820.629;   -9.444;11040.980
821.855; 5769.461;   -8.374;10357.100
822.421; 5794.891;  -10.234; 9978.918
822.987; 5842.568;  -13.294; 9754.177
823.553; 5539.411;  -10.884;10065.755
824.119; 5362.147;   -8.884;10036.294
824.685; 5498.873;   -6.784;10029.192
825.251; 5626.681;  -12.004;10199.230
825.816; 5597.810;  -11.474; 9820.189
826.382; 5366.595;   -9.174; 9297.248
826.948; 5564.732;   -9.214; 9381.347
827.513; 5994.775;  -10.774; 9450.726
828.079; 5861.382;  -11.924; 9472.444
828.645; 5278.557;  -10.543; 9292.643
829.210; 5165.273;  -10.533; 9065.341
829.776; 5153.857;  -10.753; 9132.620
830.341; 5072.965;  -10.173; 9092.878
830.906; 5308.529;  -10.743; 9078.557
831.472; 5722.987;  -11.113; 8534.535
832.037; 5496.957;  -10.603; 8677.874
832.602; 4929.988;  -13.323; 8628.692
833.167; 4659.137;  -10.823; 8879.031
833.733; 4581.557;  -10.113; 9189.790
834.298; 4746.094;  -13.583; 9052.608
834.863; 4856.360;  -12.703; 8895.087
835.428; 4856.227;  -10.523; 8824.266
835.993; 4704.233;   -6.963; 8845.385
836.558; 4511.416;  -10.763; 8888.563
837.123; 4618.096;   -9.903; 8966.582
837.688; 4865.298;   -9.913; 8617.860
838.253; 5145.159;  -10.283; 8590.699
838.817; 5370.219;  -12.963; 8443.797
839.382; 5282.494;  -14.243; 8799.356
839.947; 4948.855;  -10.733; 8810.595
840.511; 4637.711;   -9.383; 8796.394
841.076; 4221.974;  -12.563; 8347.231
841.641; 4273.700;  -12.953; 8224.330
842.205; 4379.159;   -7.043; 8223.349
842.770; 4462.829;   -8.163; 8622.107
843.334; 4608.355;  -12.503; 8410.386
843.898; 4529.160;  -11.693; 8337.465
844.463; 4538.024;  -10.203; 8506.283
845.027; 4315.191;   -9.533; 8280.962
845.591; 4118.764;  -13.443; 8231.141
846.156; 4093.713;  -13.143; 7969.179
846.720; 3974.744;   -9.433; 7768.278
847.284; 3851.201;  -11.033; 7630.957
847.848; 3719.405;  -10.403; 7472.395
848.412; 3615.824;  -11.553; 7437.394
848.976; 3643.163;   -8.393; 7674.592
849.540; 3547.166;   -8.713; 7836.011
850.104; 3644.918;  -12.463; 7913.669
850.668; 4002.893;  -12.973; 7694.508
851.232; 4100.817;  -10.793; 7756.887
851.796; 3923.102;  -10.662; 7926.545
852.359; 3610.982;  -13.082; 7827.844
852.923; 3416.344;  -12.192; 7641.163
853.487; 3211.967;  -11.912; 7342.501
854.050; 3152.616;  -10.892; 7042.820
854.614; 3287.187;  -13.992; 7151.338
855.177; 3405.188;  -11.732; 7105.077
855.741; 3422.388;   -8.962; 6989.675
856.304; 3292.207;   -9.442; 6596.634
856.868; 3250.635;  -14.192; 6356.272
857.431; 3327.846;  -12.702; 6468.571
857.995; 3422.865;   -9.942; 6373.210
858.558; 3420.349;   -9.112; 6324.448
859.121; 3144.734;  -12.932; 6408.327
859.684; 3017.332;  -13.442; 6347.886
860.247; 3114.431;  -10.632; 6321.264
860.810; 3108.339;  -11.272; 6301.903
861.374; 2845.963;   -9.832; 6607.881
861.937; 2584.527;  -11.762; 6408.200
862.500; 2575.410;   -9.722; 6572.639
863.062; 2744.996;  -10.512; 6387.297
863.625; 2905.354;  -11.232; 6190.836
864.188; 3057.750;  -14.112; 5807.254
864.751; 3118.812;  -11.302; 5682.413
865.314; 3012.106;  -10.112; 5547.492
865.876; 2809.110;  -12.182; 5500.150
866.439; 2785.725;  -10.722; 5415.909
867.002; 2734.800;   -9.252; 5501.567
867.564; 2543.527;   -9.572; 5413.946
868.127; 2346.610;  -13.142; 5160.325
868.689; 2252.498;  -12.902; 5133.183
869.252; 2152.329;   -9.732; 5252.382
869.814; 2057.020;   -9.432; 5297.141
870.377; 2065.000;  -11.552; 5390.919
870.939; 2134.575;   -9.052; 5599.898
871.501; 2201.937;  -10.982; 5248.336
872.063; 2205.427;  -12.292; 4854.235
872.626; 2163.443;  -14.912; 4817.074
873.188; 2198.219;  -13.112; 4987.732
873.750; 2182.305;  -13.442; 4868.651
874.312; 2093.006;   -9.402; 4779.330
874.874; 2016.448;  -11.062; 4866.348
875.436; 1939.103;  -13.931; 4718.887
875.998; 1945.485;   -9.561; 4660.005
876.560; 1992.493;  -11.321; 4462.964
877.122; 1937.499;  -12.221; 4145.042
877.683; 1837.835;  -12.191; 4056.481
878.245; 1765.155;  -12.101; 3950.740
878.807; 1802.915;   -8.971; 4058.958
879.369; 1844.640;  -12.071; 3954.677
879.930; 1801.071;  -14.621; 3941.495
880.492; 1841.590;  -10.311; 4067.014
881.053; 1921.240;  -10.901; 3859.633
881.615; 1825.289;  -14.411; 3776.071
882.176; 1566.793;  -13.761; 3734.750
882.738; 1240.765;   -9.181; 3678.489
883.299;  956.118;  -11.791; 3405.407
883.860;  802.232;  -13.121; 3351.106
884.422;  781.425;  -11.211; 3394.044
884.983;  810.760;  -10.091; 3166.443
885.544;  833.446;   -8.461; 3189.802
886.105;  833.837;  -12.361; 3160.360
886.666;  831.669;  -14.141; 3093.059
887.227;  826.005;  -11.361; 2941.957
887.788;  801.127;  -11.401; 2974.836
888.349;  770.412;  -13.791; 2721.214
888.910;  785.252;  -13.191; 2696.493
889.471;  803.957;   -9.881; 2560.172
890.032;  794.765;   -9.881; 2558.190
890.593;  780.390;  -10.371; 2567.669
891.153;  760.298;  -13.301; 2460.307
891.714;  718.019;  -11.431; 2372.046
892.275;  689.080;  -11.291; 2309.505
892.835;  655.403;  -11.471; 2382.543
893.396;  608.459;  -11.541; 2295.502
893.956;  554.725;  -11.181; 2162.420
894.517;  519.752;  -11.741; 2125.439
895.077;  516.248;  -11.671; 2086.978
895.638;  519.364;  -11.311; 2126.316
896.198;  492.181;   -9.831; 1838.275
896.758;  448.910;   -8.421; 1892.813
897.319;  418.942;  -12.351; 1792.232
897.879;  403.988;  -13.511; 1762.751
898.439;  378.156;  -12.001; 1661.149
898.999;  353.960;  -10.180; 1781.468
899.559;  345.580;  -12.030; 1703.347
900.119;  342.199;  -15.710; 1537.525
900.679;  338.438;   -8.900; 1638.384
901.239;  324.004;   -8.340; 1527.902
901.799;  312.032;  -13.910; 1456.441
902.359;  306.125;  -13.460; 1357.140
902.919;  299.384;  -11.490; 1331.118
903.479;  285.251;  -12.110; 1317.257
904.038;  263.686;  -11.720; 1262.595
904.598;  247.937;  -13.610; 1152.034
905.158;  243.880;  -11.040; 1240.893
905.717;  238.003;  -10.900; 1233.691
906.277;  227.082;  -15.080; 1217.330
906.836;  217.014;  -13.380; 1222.408
907.396;  209.019;  -10.780; 1193.047
907.955;  201.469;   -8.500; 1182.526
908.515;  195.291;  -12.760; 1099.364
909.074;  188.480;  -11.900; 1092.863
909.633;  181.698;   -8.950; 1069.121
910.192;  176.570;   -8.770; 1196.460
910.752;  169.207;  -12.390; 1029.960
911.311;  163.491;  -13.680; 1009.780
911.870;  159.556;  -12.370;  971.460
912.429;  160.411;  -10.900; 1094.080
912.988;  160.771;  -11.690; 1081.060
913.547;  156.997;  -13.240;  940.380
914.106;  152.424;  -11.990;  999.420
914.665;  150.217;   -9.990;  984.020
915.224;  148.866;  -12.880; 1035.760
915.782;  148.946;  -12.350;  922.560
916.341;  149.016;   -9.110; 1049.840
916.900;  145.762;   -9.270;  925.260
917.458;  144.069;  -13.240;  884.220
918.017;  143.311;  -13.550;  942.600
918.576;  143.110;  -12.320;  904.440
919.134;  141.091;  -11.490;  837.980
919.693;  138.809;  -13.670;  893.060
920.251;  137.183;  -15.470;  876.500
920.809;  136.727;  -11.290;  839.580
921.368;  136.780;  -10.210;  885.360
921.926;  135.046;  -12.140;  842.940
922.484;  133.936;  -13.080;  903.360
923.042;  133.915;  -11.720;  880.340
923.601;  137.269;   -7.480;  998.680
924.159;  134.956;  -11.570;  935.560
924.717;  131.260;  -13.840;  841.080
925.275;  131.736;  -10.640;  903.240
925.833;  131.773;  -11.540;  779.320
926.391;  132.489;  -12.960;  938.380
926.949;  130.740;  -14.130;  857.680
927.506;  130.535;  -11.750;  903.500
928.064;  131.628;  -10.250;  877.580
928.622;  130.245;  -13.030;  880.100
929.180;  129.950;  -13.400;  814.180
929.737;  131.361;  -10.700;  808.540
930.295;  134.939;  -10.070;  928.480
930.853;  135.928;  -11.960;  849.100
931.410;  136.744;  -13.120;  821.120
931.968;  136.006;  -10.770;  940.660
932.525;  136.511;  -10.680;  909.380
933.082;  137.312;  -13.130;  811.440
933.640;  137.397;  -13.210;  925.900
934.197;  136.009;  -11.060;  886.360
934.754;  136.455;   -9.580;  897.780
935.312;  138.333;  -14.000;  863.340
935.869;  142.859;  -10.710; 1012.980
936.426;  143.108;   -9.860;  872.800
936.983;  144.173;   -9.710;  889.020
937.540;  144.565;  -13.990;  838.280
938.097;  142.803;  -14.040;  940.120
938.654;  143.343;  -10.310;  898.860
939.211;  145.114;  -10.560;  952.480
939.768;  149.052;  -13.900;  915.420
940.324;  151.561;  -14.760;  904.200
940.881;  152.789;  -10.370;  878.500
941.438;  153.213;   -8.260; 1021.200
941.995;  149.987;  -12.540;  992.560
942.551;  147.022;  -14.670;  875.620
943.108;  146.998;  -10.450;  937.920
943.664;  150.439;  -10.750;  869.340
944.221;  153.321;  -11.550; 1088.140
944.777;  150.187;  -14.770;  869.680
945.334;  150.698;  -12.820;  884.840
945.890;  152.083;  -10.130;  946.480
946.446;  153.326;  -13.470;  947.020
947.003;  154.899;  -12.120;  964.940
947.559;  157.070;   -9.980; 1063.040
948.115;  157.222;   -9.080; 1026.540
948.671;  154.949;  -10.830;  967.300
949.227;  152.370;  -12.440;  859.560
949.783;  148.908;  -12.910;  858.900
950.339;  151.151;  -10.270;  991.000
950.895;  151.806;  -13.630; 1023.840
951.451;  150.903;  -15.100;  925.280
952.007;  150.747;  -11.330;  998.540
952.563;  151.926;  -10.580;  937.780
953.118;  149.573;  -13.440;  904.940
953.674;  149.899;  -12.710;  935.780
954.230;  149.602;  -10.350;  949.640
954.785;  146.821;   -9.190;  936.640
955.341;  145.009;  -11.200;  998.160
955.897;  142.146;  -16.560;  834.660
956.452;  143.721;  -12.570;  953.840
957.008;  143.995;   -7.970; 1083.640
957.563;  140.925;  -11.940; 1009.540
958.118;  135.724;  -13.450;  877.700
958.674;  135.545;  -12.030;  946.780
959.229;  137.117;   -9.410; 1013.980
959.784;  134.405;  -12.000;  832.400
960.339;  134.372;  -14.780; 1001.280
960.894;  131.240;   -9.860;  963.760
961.449;  127.648;   -9.970;  859.960
962.004;  127.138;  -10.900; 1212.840
962.559;  122.332;  -13.150;  860.140
963.114;  119.606;  -13.740;  742.480
963.669;  119.593;   -9.820;  915.500
964.224;  117.758;  -13.890;  874.340
964.779;  116.716;  -12.600;  828.420
965.334;  117.322;  -10.950; 1017.860
965.888;  117.084;  -11.170;  875.360
966.443;  120.290;  -12.540;  972.380
966.998;  119.186;  -15.780;  819.460
967.552;  117.402;   -9.760;  908.380
968.107;  115.022;   -9.060;  868.300
968.661;  115.396;  -11.950;  922.440
969.216;  115.460;  -12.800;  856.280
969.770;  115.729;  -11.210;  917.200
970.324;  114.853;  -11.610;  923.140
970.879;  112.512;  -11.370;  947.180
971.433;  109.498;  -12.540;  952.720
971.987;  103.839;  -11.320;  895.340
972.541;  101.517;  -10.720;  917.100
973.095;  102.359;   -9.680; 1009.460
973.649;  100.141;  -11.440;  809.480
974.203;   98.068;  -11.210;  829.040
974.757;   98.980;  -10.240;  855.220
975.311;   99.610;  -13.720;  872.600
975.865;   97.831;  -13.770;  881.820
976.419;   96.288;  -11.690;  857.400
976.973;   96.860;   -9.510;  849.620
977.526;   98.263;  -12.620;  949.920
978.080;   96.588;  -12.010;  796.780
978.634;   98.120;  -10.170;  921.320
979.187;   96.296;   -9.020;  905.400
979.741;   93.704;   -9.820; 1018.380
980.294;   88.980;  -14.870;  789.160
980.848;   86.712;  -12.380;  717.220
981.401;   88.504;  -10.350;  816.540
981.955;   91.015;  -13.720;  844.300
982.508;   89.591;  -11.490;  746.340
983.061;   90.434;  -10.000;  915.260
983.615;   86.255;  -11.480;  798.800
984.168;   83.184;  -13.220;  770.080
984.721;   81.819;  -13.960;  880.760
985.274;   81.451;  -10.870;  867.500
985.827;   80.790;   -9.790;  834.220
986.380;   78.683;  -13.120;  721.340
986.933;   77.693;  -12.450;  864.800
987.486;   76.313;  -10.210;  861.920
988.039;   75.031;   -8.430;  863.100
988.591;   73.616;  -10.520;  893.260
989.144;   71.772;  -14.860;  737.260
989.697;   71.016;  -13.080;  758.740
990.250;   71.012;  -10.150;  858.100
990.802;   69.476;  -13.430;  755.860
991.355;   70.249;  -12.750;  974.880
991.907;   68.132;  -12.040;  864.320
992.460;   66.014;  -11.330;  753.760
993.012;   66.438;  -13.610;  749.540
993.565;   64.140;  -13.460;  711.360
994.117;   65.439;   -9.360;  950.780
994.669;   62.275;  -11.300;  701.320
995.221;   60.698;  -13.540;  791.920
995.774;   58.906;  -13.430;  787.580
996.326;   57.679;  -12.520;  740.220
996.878;   57.597;  -10.950;  838.420
997.430;   55.328;  -14.300;  699.860
997.982;   54.294;  -13.760;  750.140
998.534;   54.074;  -11.530;  739.060
999.086;   52.880;  -10.310;  738.220
999.638;   51.533;  -12.530;  661.380
1000.190;   51.004;  -11.840;  699.320
1000.741;   50.057;  -10.260;  742.700
1001.293;   50.401;   -8.860;  686.020
1001.845;   48.557;  -13.700;  676.640
1002.396;   49.062;  -12.100;  743.400
1002.948;   48.268;  -12.760;  737.400
1003.500;   46.327;  -10.380;  723.780
1004.051;   47.774;  -11.900;  907.580
1004.603;   45.572;  -12.250;  791.820
1005.154;   42.155;  -13.210;  608.980
1005.705;   41.238;  -10.950;  723.960
1006.257;   41.541;  -13.880;  707.220
1006.808;   40.797;  -12.840;  685.460
1007.359;   39.344;  -10.570;  763.240
1007.910;   38.839;   -9.620;  646.640
1008.461;   38.694;  -13.630;  732.940
1009.013;   37.857;  -17.200;  588.340
1009.564;   38.488;  -10.200;  793.520
1010.115;   36.403;  -12.570;  597.040
1010.665;   36.689;  -15.150;  602.160
1011.216;   36.166;  -14.480;  667.920
1011.767;   35.771;  -11.340;  697.920
1012.318;   36.024;   -9.780;  736.980
1012.869;   35.057;  -12.380;  679.000
1013.419;   34.340;  -15.560;  603.120
1013.970;   33.915;  -11.010;  666.640
1014.521;   33.993;  -11.610;  620.620
1015.071;   34.621;  -13.450;  670.380
1015.622;   33.984;  -13.870;  635.460
1016.172;   32.708;  -11.610;  596.820
1016.723;   33.116;  -12.120;  614.380
1017.273;   32.410;  -13.620;  604.160
1017.823;   32.850;  -14.140;  650.340
1018.374;   32.395;  -12.800;  611.760
1018.924;   32.556;  -12.340;  716.880
1019.474;   32.200;  -11.410;  718.880
1020.024;   30.942;  -14.770;  657.580
1020.574;   31.867;   -9.780;  726.160
1021.124;   31.995;   -8.560;  673.580
1021.674;   30.385;  -15.190;  559.120
1022.224;   31.355;  -13.530;  708.940
1022.774;   31.208;  -13.280;  668.820
1023.324;   31.442;  -10.690;  753.520
1023.874;   32.116;  -10.240;  875.760
1024.423;   29.661;  -12.540;  613.700
1024.973;   29.255;  -10.010;  610.760
1025.523;   29.049;  -10.550;  620.960
1026.072;   29.343;  -13.560;  606.420
1026.622;   29.022;  -15.120;  675.740
1027.172;   29.505;  -11.260;  715.660
1027.721;   28.713;  -11.410;  601.220
1028.270;   28.911;  -13.530;  663.400
1028.820;   28.013;  -13.680;  638.080
1029.369;   28.054;  -13.520;  612.700
1029.918;   28.092;  -10.980;  649.840
1030.468;   27.845;  -13.530;  564.780
1031.017;   28.510;  -13.170;  634.800
1031.566;   26.778;  -12.200;  608.900
1032.115;   27.535;   -9.960;  694.500
1032.664;   26.431;  -13.210;  596.480
1033.213;   27.227;  -12.500;  735.420
1033.762;   25.621;  -11.910;  635.620
1034.311;   27.162;   -9.640;  677.220
1034.860;   26.965;  -13.310;  691.000
1035.408;   26.523;  -11.830;  722.720
1035.957;   26.167;  -12.000;  719.540
1036.506;   24.215;  -11.690;  530.800
1037.055;   27.343;  -10.990;  844.320
1037.603;   25.687;  -15.120;  664.000
1038.152;   23.176;  -12.450;  534.760
1038.700;   23.997;  -10.560;  585.740
1039.249;   25.000;  -11.080;  681.220
1039.797;   24.740;  -12.540;  633.360
1040.345;   24.725;  -11.920;  705.420
1040.894;   23.856;  -11.410;  625.300
1041.442;   23.771;  -14.320;  632.200
1041.990;   23.031;  -16.240;  559.160
1042.538;   22.046;  -11.680;  536.180
1043.087;   22.962;  -10.760;  570.860
1043.635;   24.620;  -11.850;  670.500
1044.183;   23.226;  -15.480;  586.400
1044.731;   22.671;  -11.770;  576.000
1045.279;   22.803;  -13.090;  674.920
1045.827;   24.828;  -12.440;  892.400
1046.374;   21.663;  -13.840;  515.420
1046.922;   21.180;  -13.220;  590.580
1047.470;   22.568;  -10.230;  691.300
1048.018;   22.397;  -14.590;  647.960
1048.565;   22.668;  -12.050;  708.600
1049.113;   21.260;  -11.650;  557.000
1049.660;   21.544;  -10.510;  629.660
1050.208;   21.841;  -13.310;  675.640
1050.755;   20.716;  -15.900;  606.580
1051.303;   21.397;  -11.430;  686.820
1051.850;   19.956;   -8.480;  635.120
1052.397;   19.232;  -15.010;  473.960
1052.945;   20.108;  -13.960;  617.760
1053.492;   21.051;  -13.150;  741.840
1054.039;   21.124;   -9.630;  720.180
1054.586;   20.246;  -13.680;  557.240
1055.133;   20.731;  -14.570;  693.140
1055.680;   20.773;  -13.820;  646.620
1056.227;   18.964;  -11.730;  542.780
1056.774;   20.771;  -12.480;  794.980
1057.321;   18.637;  -13.930;  523.260
1057.868;   18.712;  -11.690;  651.320
1058.415;   18.570;   -9.520;  651.980
1058.961;   19.745;  -13.160;  678.940
1059.508;   19.240;  -12.920;  643.820
1060.055;   18.326;  -11.920;  581.780
1060.601;   19.000;  -11.500;  624.300
1061.148;   18.466;  -14.330;  616.820
1061.694;   18.115;  -16.870;  592.580
1062.241;   18.279;  -10.330;  596.320
1062.787;   18.174;  -10.620;  663.140
1063.334;   19.129;  -10.110;  808.560
1063.880;   18.223;  -13.400;  668.360
1064.426;   17.866;  -10.680;  706.820
1064.972;   16.923;   -9.920;  601.340
1065.518;   16.239;  -10.980;  566.640
1066.065;   17.744;  -14.890;  624.460
1066.611;   16.692;  -12.870;  598.800
1067.157;   17.974;  -12.950;  641.860
1067.703;   16.861;  -13.540;  668.480
1068.249;   17.248;  -13.540;  605.220
1068.794;   16.490;  -12.600;  626.880
1069.340;   15.438;  -10.620;  578.960
1069.886;   17.406;  -12.830;  590.700
1070.432;   15.401;  -14.870;  541.720
1070.977;   15.150;  -11.980;  601.080
1071.523;   15.922;   -8.200;  573.060
1072.068;   15.752;  -12.330;  582.000
1072.614;   15.389;  -16.370;  527.760
1073.160;   15.838;  -11.100;  687.040
1073.705;   14.621;  -10.480;  572.520
1074.250;   14.577;  -14.520;  559.900
1074.796;   16.454;  -11.460;  655.160
1075.341;   15.304;  -11.950;  664.100
1075.886;   15.640;  -11.460;  594.240
1076.431;   14.938;  -13.770;  649.880
1076.976;   14.682;  -12.680;  639.220
1077.521;   14.094;  -13.170;  583.080
1078.067;   13.542;  -10.860;  579.400
1078.612;   14.817;  -13.920;  661.620
1079.156;   13.969;  -13.880;  601.540
1079.701;   14.573;  -13.120;  693.260
1080.246;   14.922;   -9.940;  696.300
1080.791;   14.456;  -14.740;  625.020
1081.336;   14.037;  -13.750;  659.320
1081.880;   13.390;  -13.400;  649.680
1082.425;   12.979;  -12.220;  573.480
1082.970;   14.720;  -11.610;  717.040
1083.514;   12.740;  -13.580;  597.000
1084.059;   12.073;  -12.810;  586.720
1084.603;   12.955;  -12.320;  565.840
1085.147;   12.870;  -13.190;  645.220
1085.692;   13.653;  -12.480;  716.800
1086.236;   12.074;  -13.020;  503.140
1086.780;   13.624;   -9.190;  751.440
1087.325;   12.555;  -12.480;  654.620
1087.869;   12.451;  -12.450;  610.700
1088.413;   13.480;  -12.240;  705.040
1088.957;   11.660;   -9.020;  543.400
1089.501;   13.422;  -10.320;  766.640
1090.045;   12.810;  -12.720;  726.480
1090.589;   10.581;  -13.690;  569.920
1091.133;   12.097;  -10.020;  673.340
1091.676;   11.899;  -12.330;  591.940
1092.220;   10.975;  -14.970;  600.920
1092.764;   11.579;  -12.430;  706.960
1093.307;   12.308;   -9.800;  673.780
1093.851;   10.482;  -14.970;  556.540
1094.395;   11.643;  -15.310;  683.140
1094.938;   10.609;  -10.370;  632.520
1095.482;   10.860;  -11.050;  559.800
1096.025;   11.620;  -11.840;  710.880
1096.568;   11.575;  -12.840;  779.280
1097.112;    9.096;  -14.700;  508.180
1097.655;   11.048;   -8.720;  603.000
1098.198;    9.245;  -13.610;  600.180
1098.741;    9.684;  -13.350;  612.860
1099.285;   10.596;  -11.230;  657.300
1099.828;    8.501;  -11.840;  439.400
1100.371;   10.296;  -10.840;  608.160
1100.914;   10.089;  -14.190;  682.660
1101.457;    9.873;  -11.240;  679.900
1101.999;    8.060;  -11.270;  584.680
1102.542;    9.511;  -11.480;  641.440
1103.085;    8.981;  -11.750;  658.500
1103.628;    9.369;  -11.400;  762.060
1104.170;    9.424;  -10.490;  588.280
1104.713;    9.362;  -10.600;  646.700
1105.256;    8.461;  -14.360;  557.440
1105.798;    7.309;  -13.210;  499.980
1106.341;    9.586;  -10.270;  728.900
1106.883;    7.885;  -12.200;  521.340
1107.425;    8.178;  -13.110;  668.180
1107.968;    7.759;  -12.840;  612.380
1108.510;    8.442;   -6.480;  684.960
1109.052;    7.670;  -13.940;  612.620
1109.594;    6.926;  -13.690;  554.440
1110.136;    8.448;  -11.880;  643.220
1110.679;    7.246;   -9.500;  633.080
1111.221;    8.088;  -14.160;  604.460
1111.763;    6.792;  -13.980;  559.220
1112.304;    6.554;  -13.880;  547.140
1112.846;    7.521;  -12.210;  666.240
1113.388;    9.826;  -11.390;  942.180
1113.930;    7.360;  -14.540;  694.200
1114.472;    6.222;  -12.640;  606.540
1115.013;    5.154;  -11.620;  551.280
1115.555;    6.055;  -13.640;  587.100
1116.097;    6.369;  -15.380;  579.480
1116.638;    6.945;  -12.640;  684.600
1117.180;    6.914;   -9.850;  667.740
1117.721;    6.381;  -13.690;  568.580
1118.262;    6.782;  -12.680;  677.960
1118.804;    6.984;  -12.530;  637.340
1119.345;    5.023;  -11.690;  578.400
1119.886;    6.649;  -13.380;  704.040
1120.427;    5.755;  -14.070;  589.020
1120.969;    5.126;  -13.500;  597.920
1121.510;    4.973;  -11.480;  563.060
1122.051;    6.032;  -12.830;  723.580
1122.592;    4.264;  -14.290;  655.420
1123.133;    3.592;  -12.400;  547.940
1123.673;    5.480;  -10.130;  706.480
1124.214;    5.504;  -12.930;  612.460
1124.755;    5.547;  -14.380;  639.460
1125.296;    5.306;  -14.000;  627.320
1125.836;    5.460;  -10.070;  691.500
1126.377;    4.789;  -12.640;  599.660
1126.918;    4.546;  -12.960;  614.980
1127.458;    4.257;  -13.350;  622.220
1127.999;    4.719;  -10.750;  656.980
1128.539;    4.591;  -12.350;  694.240
1129.079;    3.711;  -14.860;  632.720
1129.620;    3.518;  -13.840;  558.100
1130.160;    3.905;  -12.330;  539.480
1130.700;    4.198;  -14.530;  640.840
1131.240;    4.474;  -12.530;  643.700
1131.781;    2.813;  -14.450;  619.680
1132.321;    3.713;   -9.790;  599.120
1132.861;    3.129;  -14.860;  564.200
1133.401;    3.076;  -14.290;  593.940
1133.941;    3.565;  -11.750;  626.280
1134.481;    2.188;   -9.920;  597.580
1135.020;    2.967;  -12.290;  609.160
1135.560;    3.758;  -11.650;  674.940
1136.100;    2.886;  -16.270;  501.160
1136.640;    2.691;  -10.890;  510.480
1137.179;    2.716;  -14.180;  537.960
1137.719;    2.986;  -16.250;  605.400
1138.258;    1.972;  -14.230;  587.360
1138.798;    2.842;   -9.090;  663.780
1139.337;    1.229;  -15.130;  482.840
1139.877;    2.310;  -13.680;  642.360
1140.416;    4.143;  -11.320;  878.060
1140.955;    2.030;  -10.860;  535.380
1141.494;    2.969;  -12.920;  669.280
1142.034;    1.808;  -13.930;  583.520
1142.573;    2.747;  -11.440;  646.280
1143.112;    1.934;  -12.000;  553.480
1143.651;    1.918;  -13.670;  536.480
1144.190;    2.433;  -12.730;  691.640
1144.729;    1.773;  -14.560;  607.420
1145.267;    2.381;  -11.830;  584.900
1145.806;    2.518;  -12.230;  637.040
1146.345;    1.253;  -14.130;  635.020
1146.884;    1.361;  -11.590;  622.500
1147.422;    1.221;  -12.550;  533.060
1147.961;    2.526;  -11.180;  708.460
1148.500;    2.046;  -11.510;  669.720
1149.038;    1.986;  -11.640;  632.500
1149.577;    1.800;  -10.130;  698.640
1150.115;   -0.439;  -13.970;  452.280
1150.653;    1.798;  -14.520;  607.340
1151.192;    0.949;  -12.810;  552.920
1151.730;    1.412;   -9.100;  652.560
1152.268;    0.531;  -12.220;  589.520
1152.806;    0.369;  -14.140;  571.180
1153.344;   -0.531;  -12.350;  577.640
1153.882;    0.471;   -8.980;  600.060
1154.421;    0.237;  -15.190;  470.620
1154.958;    0.315;  -15.210;  595.240
1155.496;    0.952;  -12.850;  645.280
1156.034;    0.724;   -9.940;  721.880
1156.572;    1.375;  -13.570;  667.060
1157.110;   -0.979;  -14.590;  473.940
1157.647;    0.809;  -13.030;  676.960
1158.185;    0.076;  -12.140;  564.320
1158.723;   -1.880;  -14.390;  509.200
1159.260;    0.293;  -14.090;  701.700
1159.798;    0.557;  -11.920;  658.160
1160.335;   -0.403;  -11.110;  631.820

