
Integration time [ms]:   3.276
Averaging Nr. [scans]: 1000
Smoothing Nr. [pixels]: 0
Data measured with spectrometer [name]: 7414430SP
Wave   ;Sample   ;Dark     ;Reference
[nm]   ;[counts] ;[counts] ;[counts] 

288.544;  151.299;    7.793;  793.890
289.143;  154.866;    7.462;  681.602
289.742;  155.653;    8.602;  828.814
290.341;  141.478;    1.321;  789.841
290.940;  129.625;   -0.709;  730.702
291.538;  130.894;    0.881;  881.108
292.137;  131.740;    0.122;  792.581
292.736;  135.835;   -1.929;  975.101
293.335;  131.907;   -8.229;  735.086
293.934;  132.197;   -5.279;  781.677
294.532;  130.276;   -1.369; 1031.958
295.131;  116.934;   -7.641;  834.394
295.730;  116.059;   -8.420;  809.588
296.328;  115.722;   -5.611;  783.442
296.927;  116.666;   -5.781;  779.652
297.525;  117.802;   -6.361;  781.236
298.124;  107.875;  -11.382;  654.009
298.722;  111.003;   -7.641;  761.933
299.321;  110.229;   -6.811;  708.597
299.919;  107.657;   -6.991;  751.918
300.518;  103.620;  -10.362;  689.338
301.116;  106.086;   -9.581;  691.381
301.715;  105.617;   -4.891;  730.222
302.313;  104.820;   -8.801;  704.943
302.911;   99.779;   -8.522;  733.830
303.509;  106.103;   -6.171;  925.627
304.108;  103.025;   -7.311;  760.383
304.706;  102.786;   -8.321;  801.664
305.304;   96.782;  -10.222;  796.707
305.902;  101.768;   -6.021;  784.484
306.500;   98.300;   -4.971;  728.200
307.098;   96.658;   -7.061;  746.560
307.696;   94.119;   -8.801;  780.432
308.294;   95.012;   -6.411;  731.359
308.892;   96.807;   -2.901;  759.769
309.490;   93.625;   -5.041;  712.161
310.088;   90.420;   -5.002;  788.444
310.686;   95.314;   -2.041;  821.749
311.284;   91.417;   -2.351;  766.040
311.882;   89.338;   -4.422;  731.225
312.480;   85.952;   -4.192;  697.167
313.078;   87.459;   -1.172;  808.331
313.675;   88.381;   -2.601;  691.600
314.273;   83.312;   -1.312;  797.837
314.871;   82.675;   -3.942;  589.829
315.468;   80.497;   -2.802;  652.090
316.066;   83.765;   -0.701;  694.427
316.664;   77.149;   -4.362;  656.351
317.261;   79.990;   -2.872;  910.128
317.859;   75.666;   -2.022;  768.735
318.456;   76.527;   -0.531;  830.096
319.054;   72.709;   -3.912;  787.828
319.651;   70.817;   -4.752;  759.928
320.249;   69.303;   -2.602;  810.188
320.846;   67.891;   -0.821;  714.286
321.443;   65.091;   -4.642;  832.135
322.041;   61.506;   -5.002;  812.315
322.638;   59.410;   -3.982;  701.456
323.235;   60.839;   -3.411;  665.683
323.833;   58.358;   -7.361;  740.354
324.430;   53.105;   -8.611;  615.900
325.027;   54.990;   -4.061;  876.855
325.624;   54.399;   -4.031;  644.532
326.221;   51.688;   -7.481;  689.717
326.818;   50.562;   -5.281;  818.332
327.415;   54.434;   -7.460;  748.828
328.012;   54.170;   -5.510;  690.585
328.609;   52.005;   -7.880;  731.389
329.206;   50.172;   -8.331;  778.621
329.803;   50.234;   -5.121;  737.841
330.400;   53.324;   -4.510;  704.260
330.997;   54.562;   -6.441;  817.147
331.594;   53.030;   -8.831;  788.185
332.191;   58.002;   -7.621;  728.722
332.787;   61.947;   -4.591;  844.463
333.384;   60.216;   -7.412;  763.093
333.981;   59.010;   -8.293;  815.687
334.578;   61.714;   -7.052;  708.378
335.174;   64.438;   -3.102;  731.469
335.771;   63.796;   -5.943;  836.456
336.367;   60.159;   -7.393;  710.631
336.964;   64.959;   -4.063;  793.266
337.561;   61.643;   -3.813;  731.112
338.157;   58.258;   -4.654;  911.916
338.754;   55.380;   -7.934;  796.589
339.350;   53.417;   -4.414;  722.493
339.946;   55.505;   -4.664;  773.135
340.543;   47.002;   -6.375;  846.136
341.139;   41.891;   -9.815;  720.836
341.735;   40.371;   -4.526;  772.593
342.332;   38.858;   -4.895;  691.472
342.928;   38.890;   -4.295;  795.394
343.524;   32.900;   -5.476;  761.684
344.120;   29.550;   -5.856;  738.562
344.716;   32.442;   -2.155;  723.717
345.313;   30.450;   -6.275;  795.342
345.909;   24.778;   -8.815;  627.336
346.505;   27.243;   -5.305;  740.247
347.101;   27.547;   -2.674;  827.864
347.697;   27.533;   -4.344;  785.398
348.293;   21.442;   -9.975;  627.244
348.889;   24.040;   -5.774;  745.914
349.485;   23.365;   -5.004;  688.205
350.081;   23.126;   -4.704;  772.592
350.676;   18.046;   -6.635;  691.606
351.272;   22.926;   -4.504;  809.530
351.868;   22.145;   -3.914;  780.497
352.464;   20.091;   -9.044;  723.932
353.059;   15.230;   -8.314;  646.017
353.655;   19.280;   -7.024;  777.063
354.251;   20.410;   -5.343;  759.845
354.846;   15.211;   -8.604;  740.646
355.442;   12.210;   -6.945;  753.071
356.038;   15.022;   -7.564;  751.708
356.633;   13.888;   -5.814;  728.594
357.229;   12.837;   -7.364;  724.757
357.824;   10.750;   -8.024;  703.600
358.420;    9.775;   -9.384;  679.726
359.015;   10.871;   -5.104;  695.357
359.610;   11.722;   -6.854;  763.920
360.206;    5.464;  -10.185;  603.240
360.801;    9.123;   -7.054;  646.503
361.396;   11.247;   -5.034;  725.975
361.992;    5.725;   -8.284;  668.220
362.587;    2.726;   -8.625;  670.160
363.182;    5.800;   -7.674;  689.631
363.777;    6.540;   -5.164;  738.242
364.372;    5.264;   -8.604;  737.314
364.967;    1.384;   -9.055;  680.744
365.563;    6.613;   -6.114;  815.567
366.158;    4.035;   -5.814;  685.161
366.753;    3.193;   -7.854;  649.263
367.348;    2.329;   -7.804;  746.056
367.942;    1.651;   -7.954;  697.298
368.537;    1.807;   -4.984;  754.245
369.132;    1.377;   -8.564;  703.428
369.727;   -2.870;   -8.855;  638.079
370.322;   -1.091;   -6.245;  580.186
370.917;   -1.457;   -6.425;  710.646
371.511;    0.767;   -6.294;  861.834
372.106;   -3.226;   -7.685;  776.964
372.701;   -5.298;   -7.335;  585.988
373.296;    0.624;   -4.564;  863.135
373.890;   -5.018;  -10.235;  647.840
374.485;   -7.216;   -7.885;  691.199
375.079;   -2.500;   -7.324;  738.685
375.674;   -1.669;   -3.494;  812.970
376.268;   -6.471;   -8.525;  691.759
376.863;  -11.650;  -10.086;  580.327
377.457;   -5.815;   -7.025;  662.490
378.052;   -7.014;   -3.585;  764.884
378.646;   -7.959;   -7.595;  741.167
379.240;   -7.970;   -8.335;  721.176
379.835;   -7.127;   -5.785;  636.978
380.429;   -9.499;   -4.335;  562.557
381.023;   -9.544;   -6.805;  779.205
381.617;  -12.794;   -9.195;  680.106
382.212;   -8.686;   -6.905;  685.303
382.806;   -7.759;   -3.745;  760.690
383.400;  -11.666;   -7.745;  672.281
383.994;  -13.160;   -9.765;  664.870
384.588;   -9.273;   -6.564;  697.701
385.182;   -7.721;   -5.344;  726.624
385.776;   -9.258;   -8.514;  706.875
386.370;  -13.060;   -9.555;  681.968
386.964;  -11.314;   -8.715;  684.155
387.558;   -9.337;   -6.174;  598.360
388.152;  -12.615;   -8.725;  681.959
388.745;  -11.312;   -7.965;  814.707
389.339;   -9.372;   -5.924;  747.642
389.933;   -8.469;   -5.524;  695.370
390.527;   -9.749;   -7.114;  859.029
391.120;  -15.792;  -10.725;  595.318
391.714;  -12.796;   -8.035;  711.633
392.308;   -9.984;   -3.574;  780.253
392.901;  -13.965;   -7.245;  642.460
393.495;  -15.750;   -9.285;  595.414
394.089;  -13.081;   -5.895;  760.452
394.682;  -13.897;   -4.295;  697.188
395.275;  -14.478;   -9.875;  719.927
395.869;  -15.905;   -8.485;  667.314
396.462;  -14.047;   -7.455;  616.609
397.056;   -9.915;   -5.424;  776.621
397.649;  -15.447;   -6.605;  731.575
398.242;  -12.299;   -8.224;  712.645
398.836;  -11.114;   -7.474;  766.408
399.429;  -12.394;   -7.094;  631.041
400.022;  -16.126;   -9.475;  665.902
400.615;  -13.838;   -7.145;  805.609
401.208;  -12.101;   -7.174;  691.451
401.802;  -13.403;   -5.515;  699.329
402.395;  -15.659;   -9.875;  683.502
402.988;  -16.740;   -8.845;  696.627
403.581;  -12.468;   -8.874;  646.878
404.174;  -10.256;   -5.324;  686.568
404.767;  -13.419;   -9.575;  638.583
405.360;  -16.232;  -10.965;  621.445
405.953;  -10.402;   -8.764;  759.034
406.545;  -10.265;   -7.514;  725.342
407.138;  -14.318;  -10.025;  618.350
407.731;  -13.508;  -10.034;  613.303
408.324;   -9.667;   -9.374;  660.554
408.917;  -10.101;   -6.534;  681.864
409.509;  -11.797;   -8.004;  740.396
410.102;  -14.093;   -9.875;  643.948
410.695;   -8.101;   -8.604;  665.758
411.287;   -8.633;   -6.794;  599.821
411.880;  -10.609;   -9.334;  585.421
412.472;  -13.322;  -10.254;  613.092
413.065;  -10.294;   -6.714;  629.408
413.657;   -7.662;   -7.234;  576.678
414.250;   -8.219;  -10.544;  646.681
414.842;   -9.896;   -9.744;  676.353
415.434;   -8.259;   -6.994;  570.463
416.027;   -3.263;   -5.893;  652.196
416.619;   -5.184;   -7.264;  713.400
417.211;   -6.542;  -10.374;  599.352
417.804;   -2.657;   -7.993;  628.499
418.396;   -6.060;   -7.234;  607.643
418.988;   -4.205;   -9.443;  659.238
419.580;   -7.620;  -10.724;  568.276
420.172;   -5.179;  -10.323;  536.196
420.764;   -0.546;   -8.793;  672.482
421.356;   -2.222;  -11.143;  636.898
421.948;   -3.231;   -8.293;  677.661
422.540;    1.733;   -7.893;  680.027
423.132;    1.297;   -7.082;  600.641
423.724;   -2.069;   -8.653;  561.267
424.316;   -0.884;  -10.213;  621.345
424.908;    2.778;   -9.762;  591.517
425.500;    3.901;   -5.572;  647.978
426.092;    3.603;   -8.422;  648.268
426.683;    2.672;   -9.283;  684.836
427.275;    6.283;   -7.852;  641.471
427.867;    7.797;   -5.272;  668.948
428.458;    8.111;   -7.682;  732.344
429.050;    7.022;  -10.612;  680.749
429.642;    8.753;   -9.882;  743.124
430.233;    8.878;   -6.962;  569.356
430.825;   10.921;   -6.842;  724.809
431.416;    7.509;   -9.672;  698.241
432.008;   11.393;   -6.552;  651.723
432.599;   12.644;   -6.891;  656.073
433.190;    9.620;  -10.912;  637.670
433.782;    8.783;  -11.172;  590.395
434.373;   15.973;   -6.061;  884.765
434.964;   15.173;   -8.251;  602.920
435.556;   12.475;   -9.722;  634.537
436.147;   15.175;   -9.082;  758.490
436.738;   16.003;   -8.041;  701.099
437.329;   21.082;   -7.341;  721.723
437.920;   13.744;   -8.162;  666.688
438.511;   13.708;  -11.802;  564.526
439.103;   19.802;  -10.191;  623.998
439.694;   22.158;   -7.601;  681.583
440.285;   22.643;   -8.541;  764.432
440.876;   20.193;   -9.751;  845.738
441.466;   19.980;   -9.401;  575.162
442.057;   25.357;   -7.760;  665.814
442.648;   23.602;   -9.971;  746.255
443.239;   22.790;  -11.001;  620.477
443.830;   27.952;   -7.990;  704.958
444.421;   28.870;   -7.910;  655.474
445.011;   25.936;   -8.131;  693.619
445.602;   25.979;   -7.111;  743.126
446.193;   27.282;  -10.920;  488.117
446.783;   31.879;   -6.500;  640.397
447.374;   26.858;   -8.671;  692.759
447.964;   27.319;  -10.781;  713.770
448.555;   36.546;   -9.650;  822.742
449.145;   33.313;   -8.660;  662.853
449.736;   33.516;   -8.990;  803.179
450.326;   32.952;   -9.500;  713.626
450.917;   38.111;   -8.680;  675.324
451.507;   37.244;   -7.520;  600.661
452.097;   37.703;   -8.590;  746.267
452.688;   39.184;  -11.340;  742.160
453.278;   39.077;  -10.100;  566.840
453.868;   44.516;   -6.019;  793.550
454.458;   41.323;   -9.440;  651.141
455.048;   41.158;  -10.560;  711.783
455.639;   43.296;  -11.799;  567.096
456.229;   46.669;   -6.899;  710.694
456.819;   48.662;   -7.389;  751.158
457.409;   49.184;  -11.119;  773.993
457.999;   51.573;   -9.289;  737.505
458.589;   51.976;   -6.139;  686.606
459.179;   51.038;   -8.729;  717.658
459.769;   49.686;   -9.789;  627.099
460.358;   53.846;  -10.259;  797.262
460.948;   54.535;   -7.299;  689.503
461.538;   56.113;  -10.289;  660.677
462.128;   53.610;  -11.269;  664.934
462.717;   60.789;   -9.368;  710.326
463.307;   63.590;   -7.908;  705.846
463.897;   58.735;   -9.599;  656.942
464.486;   58.443;   -9.769;  837.128
465.076;   62.917;   -8.048;  733.776
465.666;   67.347;   -9.358;  652.900
466.255;   64.727;   -7.919;  785.651
466.845;   63.343;  -11.689;  666.749
467.434;   66.748;   -7.818;  725.873
468.023;   67.218;   -7.678;  658.357
468.613;   64.530;  -10.939;  713.946
469.202;   68.608;  -10.118;  646.507
469.791;   73.402;   -9.108;  737.811
470.381;   75.961;   -6.058;  742.813
470.970;   75.081;  -10.428;  711.099
471.559;   75.133;  -10.268;  733.291
472.148;   78.004;   -8.448;  675.737
472.738;   80.683;   -6.917;  765.466
473.327;   80.639;  -11.978;  637.529
473.916;   79.809;  -11.888;  737.446
474.505;   84.648;   -9.437;  751.703
475.094;   87.791;   -6.747;  806.570
475.683;   86.679;   -9.367;  797.699
476.272;   87.305;  -12.637;  730.632
476.861;   89.997;  -10.027;  706.754
477.449;   97.809;   -8.716;  728.487
478.038;   91.056;   -9.577;  692.513
478.627;   91.383;   -9.718;  714.852
479.216;   98.944;   -8.947;  769.441
479.805;  102.890;   -6.256;  783.375
480.393;  102.025;   -7.937; 1008.945
480.982;  100.696;   -7.717;  874.501
481.571;  106.960;   -9.266;  858.333
482.159;  107.488;   -7.636;  705.386
482.748;  107.618;   -9.667;  821.385
483.336;  111.780;  -10.376;  858.209
483.925;  112.562;   -7.147;  774.373
484.513;  119.454;   -7.996;  758.962
485.102;  115.790;  -10.027;  810.965
485.690;  124.714;  -10.446; 1011.050
486.278;  126.633;   -8.446;  979.329
486.867;  127.040;   -6.356;  809.662
487.455;  129.882;   -9.136;  898.229
488.043;  129.826;  -10.646;  748.361
488.631;  139.201;   -7.456; 1005.079
489.220;  142.404;   -6.636;  908.626
489.808;  143.447;  -11.036;  741.415
490.396;  149.858;  -10.246;  914.645
490.984;  156.388;   -8.556;  830.161
491.572;  167.202;   -5.886;  940.315
492.160;  172.271;   -9.486;  919.081
492.748;  183.582;  -10.976;  884.341
493.336;  206.328;   -8.776; 1019.693
493.924;  232.112;   -5.465;  958.077
494.512;  259.457;   -9.986; 1066.638
495.100;  295.121;  -10.636; 1103.280
495.687;  349.977;  -10.885; 1206.373
496.275;  413.725;   -8.126; 1150.796
496.863;  482.102;  -10.586; 1281.171
497.451;  580.601;  -11.926; 1386.805
498.038;  714.774;  -10.885; 1556.729
498.626;  821.243;   -6.315; 1741.407
499.214;  967.670;   -7.326; 2016.609
499.801; 1167.379;  -11.906; 2220.633
500.389; 1401.270;  -10.466; 2312.494
500.976; 1699.973;   -5.236; 2744.849
501.564; 2125.223;   -8.936; 3148.565
502.151; 2487.595;  -13.176; 3515.999
502.738; 2912.785;  -10.646; 3971.274
503.326; 3299.712;   -9.525; 4403.796
503.913; 3703.875;  -10.856; 5161.749
504.500; 4083.122;  -11.586; 5986.420
505.088; 4444.894;  -10.336; 6381.201
505.675; 4965.932;   -6.355; 6925.547
506.262; 5656.364;   -9.046; 7619.060
506.849; 6389.021;  -10.416; 8733.969
507.436; 6934.677;  -10.305; 9790.121
508.023; 7490.545;   -5.496; 9985.472
508.610; 7697.621;   -7.856;10434.618
509.197; 8326.323;  -10.097;11198.435
509.784; 9665.222;  -10.886;12391.194
510.371;10791.406;   -9.315;13603.713
510.958;11512.766;   -9.936;14426.586
511.545;12199.160;   -9.326;15243.775
512.132;13049.440;  -10.075;15945.876
512.719;13654.744;   -7.796;16340.369
513.305;14777.681;  -10.606;18011.766
513.892;15445.312;  -11.486;19754.971
514.479;16600.443;   -9.126;20967.805
515.066;18011.207;   -6.026;22299.793
515.652;19528.271;   -8.466;22908.660
516.239;20798.898;  -10.886;23798.875
516.825;21718.523;  -11.496;25567.275
517.412;22815.385;   -5.796;28154.959
517.998;23486.779;  -10.506;28344.111
518.585;23359.475;  -10.076;27134.219
519.171;23911.965;   -8.315;27268.576
519.758;25827.693;   -8.596;28964.129
520.344;27715.309;   -8.466;30664.494
520.930;27416.986;  -11.006;32550.605
521.516;28727.902;  -10.495;35422.895
522.103;30682.217;   -5.526;38280.004
522.689;31344.730;   -8.746;37835.117
523.275;30687.783;  -11.376;37288.613
523.861;32022.316;  -11.156;37281.395
524.447;33613.371;   -8.135;37846.949
525.033;33345.129;   -7.896;38321.949
525.619;33586.453;  -12.476;38579.285
526.205;34984.867;   -9.516;40622.875
526.791;37449.465;   -6.926;42258.836
527.377;37104.422;   -8.346;42966.902
527.963;37869.223;   -8.717;42018.949
528.549;36743.707;  -11.016;42476.828
529.135;34836.340;   -8.536;41854.852
529.721;32168.846;   -9.666;41237.711
530.306;29952.320;  -10.066;41259.445
530.892;30468.088;  -11.356;41506.047
531.478;33751.398;   -6.596;43559.613
532.063;38697.922;   -8.836;47695.563
532.649;40257.113;  -10.047;50808.324
533.235;40904.371;   -9.746;51787.500
533.820;41154.047;   -6.566;52145.035
534.406;41738.141;  -10.817;51133.488
534.991;40550.023;   -9.416;49996.805
535.576;37404.355;   -9.036;48882.852
536.162;35027.684;   -6.156;46942.285
536.747;32926.781;  -11.607;45711.746
537.333;35726.207;  -11.787;48510.180
537.918;42314.375;  -12.437;50439.891
538.503;46618.965;   -7.196;50863.711
539.088;46455.551;  -10.556;50906.922
539.673;47754.563;   -8.767;52621.965
540.259;48480.023;  -10.026;52368.094
540.844;45625.289;   -7.416;50879.109
541.429;46930.395;   -9.467;52077.777
542.014;49099.887;   -9.527;52716.695
542.599;48337.379;   -9.946;52363.281
543.184;45182.219;   -7.927;53187.137
543.769;46259.102;   -9.297;54697.605
544.354;46448.121;  -10.127;53913.914
544.938;44893.523;   -9.267;49680.164
545.523;46522.738;   -6.506;47386.277
546.108;49348.980;   -9.787;49151.949
546.693;51299.230;  -11.587;51384.637
547.278;51410.297;  -10.986;51853.254
547.862;48170.215;   -8.206;51173.750
548.447;43556.355;  -10.067;51691.395
549.031;42786.504;   -9.637;52456.703
549.616;47636.758;   -9.926;52714.516
550.201;47361.355;   -6.347;52414.598
550.785;48704.121;   -7.917;52355.059
551.370;48026.809;  -10.867;54589.453
551.954;47640.863;   -9.047;58267.348
552.538;48406.750;   -7.827;59062.176
553.123;46752.395;  -10.287;58115.285
553.707;44528.883;  -12.178;56556.285
554.291;45888.090;   -8.717;56201.668
554.876;48759.574;   -7.457;55335.762
555.460;48897.246;  -10.387;54155.703
556.044;49193.496;   -9.618;53721.484
556.628;47067.832;  -11.567;53731.016
557.212;45921.863;   -8.097;54312.531
557.796;44808.242;  -11.077;53797.773
558.380;44843.895;  -11.108;56145.984
558.964;44841.133;   -9.057;57277.930
559.548;45598.688;   -6.977;56459.641
560.132;43872.094;  -11.457;54434.543
560.716;42607.434;  -11.378;54800.617
561.300;43977.051;   -9.577;57606.945
561.884;45052.184;   -7.127;58972.445
562.467;43086.922;   -7.118;57327.570
563.051;42097.922;  -13.358;54962.434
563.635;43263.965;  -10.178;52594.473
564.219;44126.156;   -7.837;50610.410
564.802;44890.672;  -11.398;49551.180
565.386;44458.113;  -12.788;48370.953
565.969;43783.328;   -9.077;48178.871
566.553;42833.547;   -6.207;49957.305
567.136;43682.340;   -8.568;50369.594
567.720;40296.414;  -11.868;49492.004
568.303;38273.598;   -8.268;50616.352
568.887;38175.422;   -8.698;50727.148
569.470;38733.180;   -6.808;51698.379
570.053;37813.332;  -13.188;52122.078
570.637;35429.324;  -12.037;52536.438
571.220;34990.789;   -8.577;51186.098
571.803;35861.910;   -8.498;51032.762
572.386;38353.199;  -10.498;49609.887
572.969;40965.547;   -9.388;48285.926
573.552;39172.961;   -8.338;47624.285
574.135;37829.648;   -8.518;45498.641
574.718;35141.742;  -13.628;41970.434
575.301;34349.410;  -10.893;41447.137
575.884;33557.078;   -8.158;40923.836
576.467;34748.145;  -10.328;45267.723
577.050;36442.500;  -13.058;48175.543
577.633;37581.246;   -9.458;47729.328
578.216;36621.426;   -8.928;47579.793
578.799;35710.934;   -9.358;47820.996
579.381;34658.723;  -11.388;48115.551
579.964;32670.773;  -11.718;47333.766
580.547;34614.762;   -8.588;46668.969
581.129;35541.449;   -8.859;44466.141
581.712;36402.848;  -10.729;44164.922
582.294;36864.918;  -11.118;46477.855
582.877;36926.684;   -5.218;48244.254
583.459;35001.828;   -8.679;47437.895
584.042;32913.754;  -10.709;46943.219
584.624;32984.656;  -11.669;46792.227
585.206;32756.932;   -8.218;46557.250
585.789;33231.102;  -10.569;45793.773
586.371;35524.184;  -11.859;43836.391
586.953;36115.559;  -10.719;42972.492
587.536;37129.500;   -7.198;42487.211
588.118;37409.008;   -8.720;42086.414
588.700;33580.367;  -10.439;43389.930
589.282;32591.893;   -9.198;43646.039
589.864;33648.258;   -9.199;43438.109
590.446;34897.859;  -11.319;43151.926
591.028;34515.719;  -11.159;42781.867
591.610;33219.176;  -11.779;42839.098
592.192;30765.285;   -7.668;42820.402
592.774;29500.805;  -11.949;40724.277
593.356;28519.789;  -12.129;39874.789
593.937;27648.641;  -10.669;39980.648
594.519;30017.502;   -6.509;42069.633
595.101;32056.709;  -10.849;42976.031
595.683;32040.773;  -11.679;44084.441
596.264;32893.543;   -9.049;43478.797
596.846;32433.744;   -8.849;43803.672
597.427;32152.709;   -9.570;42986.934
598.009;33315.586;  -12.620;42832.219
598.591;33685.754;  -10.039;42580.086
599.172;33358.410;  -10.369;43061.805
599.753;33590.961;   -9.140;41691.469
600.335;34882.875;  -11.430;40692.520
600.916;33141.199;   -9.939;39982.422
601.498;31075.609;   -8.479;40318.617
602.079;29532.553;  -10.920;40670.609
602.660;29353.689;  -11.480;41450.898
603.241;30921.859;  -11.699;41137.738
603.823;29521.025;   -9.579;38868.797
604.404;29026.922;  -10.620;38182.785
604.985;30754.570;  -10.450;38078.047
605.566;30588.652;   -9.129;38056.633
606.147;30648.295;   -7.510;37020.418
606.728;32185.424;  -10.660;37883.359
607.309;30873.662;  -11.740;38748.273
607.890;30648.055;   -9.759;38850.230
608.471;30221.633;   -8.250;37457.918
609.051;29539.631;   -9.240;36066.457
609.632;28258.930;  -12.120;35991.074
610.213;28584.912;   -9.110;37402.641
610.794;29402.576;   -8.030;38383.363
611.374;29383.553;   -8.110;40562.387
611.955;30119.074;  -13.560;38533.727
612.536;31459.859;  -11.400;36951.789
613.116;31220.461;   -8.070;37197.891
613.697;31414.535;  -10.830;38411.125
614.277;29737.424;  -11.641;38673.938
614.858;30550.873;  -13.310;37075.863
615.438;30061.797;   -7.460;35092.906
616.019;27735.424;   -7.601;33666.301
616.599;27864.643;  -12.020;34189.023
617.179;29357.598;  -11.780;36952.047
617.760;30412.883;   -8.570;39582.574
618.340;31284.209;  -11.471;38943.977
618.920;32212.313;  -11.170;37594.156
619.500;32252.541;  -11.071;37866.938
620.080;31489.691;   -7.750;37869.043
620.660;32697.311;  -12.711;36868.617
621.241;34611.355;  -10.211;36352.309
621.821;34965.801;  -10.961;35459.520
622.401;33572.332;   -7.720;35207.414
622.980;32429.432;   -8.981;35980.422
623.560;30979.342;   -9.331;37351.328
624.140;29845.896;   -9.850;34388.582
624.720;25017.828;   -7.451;32368.764
625.300;21535.775;   -9.070;32638.629
625.880;24869.957;  -12.601;34599.035
626.459;29054.295;  -11.751;36831.738
627.039;31985.408;   -9.281;38299.098
627.619;31788.918;   -8.801;38289.574
628.198;30072.291;  -12.071;37220.695
628.778;29120.158;   -9.461;37632.563
629.357;29994.664;   -8.491;38003.012
629.937;30359.287;   -9.721;38402.039
630.516;29825.611;   -9.951;37868.801
631.096;29395.018;  -11.731;35760.410
631.675;31821.654;   -8.572;35225.219
632.254;37053.582;  -11.282;35130.289
632.834;36544.172;  -13.322;35794.570
633.413;34837.449;  -10.301;35788.922
633.992;32127.846;   -8.582;34532.863
634.571;32614.387;   -8.352;33590.113
635.151;35043.613;  -11.912;34943.863
635.730;33538.840;  -10.511;35352.523
636.309;30402.006;   -7.731;35366.605
636.888;28081.770;   -9.952;36165.637
637.467;28677.084;  -11.672;37515.902
638.046;30175.459;   -8.901;39288.695
638.625;33060.148;   -7.912;38279.699
639.204;32990.938;  -10.022;37741.598
639.782;31947.473;  -12.252;38364.551
640.361;28035.879;  -10.041;36740.621
640.940;25370.422;  -11.161;34950.082
641.519;26058.783;   -9.701;34137.398
642.097;29041.164;  -11.271;35654.258
642.676;31904.256;   -8.651;35637.957
643.255;32816.996;   -8.711;36567.074
643.833;31930.867;   -9.581;37809.434
644.412;32025.555;  -13.711;37337.293
644.990;31118.813;  -11.811;37018.531
645.569;31094.975;   -9.411;36518.469
646.147;30487.977;  -10.291;36186.430
646.726;30277.207;  -12.401;36267.688
647.304;31186.207;  -10.411;36647.625
647.882;32678.828;   -9.651;39286.742
648.461;34410.852;   -9.631;39157.703
649.039;32817.477;  -11.881;35412.883
649.617;31832.254;   -9.661;34744.918
650.195;31175.078;   -9.301;35403.098
650.773;29707.898;  -10.511;35053.797
651.352;27588.549;  -11.521;33756.816
651.930;25312.293;  -12.211;31868.773
652.508;23528.572;   -9.171;33121.551
653.086;27425.910;   -9.371;33564.793
653.663;30417.770;  -13.161;34054.668
654.241;29192.973;  -13.031;35693.309
654.819;30714.271;   -9.371;36422.906
655.397;30540.939;  -10.511;38213.484
655.975;30007.475;  -10.371;39507.625
656.553;29686.582;  -10.051;39498.223
657.130;28302.012;  -10.061;40395.480
657.708;27723.652;   -9.561;39242.020
658.286;27859.643;  -11.511;38920.020
658.863;28931.939;  -10.261;40202.898
659.441;32128.111;   -7.531;39677.938
660.018;32066.768;   -9.501;40413.355
660.596;30689.891;  -13.301;39931.414
661.173;32404.391;  -11.211;39604.531
661.750;32982.395;   -9.951;39700.070
662.328;32141.879;   -9.390;39292.809
662.905;31121.729;  -11.330;38235.648
663.482;26510.910;   -9.050;36212.305
664.060;24562.682;   -8.240;35944.945
664.637;27583.244;  -10.050;35170.785
665.214;29060.145;  -11.760;34197.523
665.791;30540.154;  -10.530;34549.520
666.368;29664.807;   -9.690;35118.578
666.945;30222.121;   -9.320;36019.418
667.522;31685.719;  -11.860;36048.438
668.099;31472.490;  -10.770;36243.914
668.676;30136.229;   -6.260;35958.875
669.253;28819.143;   -7.000;37384.730
669.830;29142.967;  -10.190;36779.629
670.407;29167.563;   -9.550;35231.289
670.984;29285.602;   -9.260;35544.270
671.560;29958.045;   -9.280;35466.867
672.137;29083.139;  -11.810;34280.863
672.714;30144.592;  -11.490;34632.863
673.290;31300.531;   -7.740;35135.422
673.867;31298.527;  -10.660;36114.480
674.443;30977.990;  -12.230;36152.859
675.020;28917.201;  -10.450;35327.238
675.596;30063.066;   -9.260;35795.176
676.173;30750.928;  -10.780;35430.355
676.749;30263.141;  -13.690;33549.516
677.326;29982.557;  -11.980;32210.012
677.902;29920.639;   -8.630;32068.871
678.478;29352.631;  -10.730;32583.891
679.054;28621.314;  -10.520;32088.928
679.631;28940.900;  -11.920;30978.848
680.207;30357.160;   -7.490;33160.887
680.783;31911.053;   -9.860;35570.363
681.359;31100.443;  -13.380;36125.184
681.935;30879.012;  -12.480;35240.922
682.511;30573.137;   -7.900;34429.961
683.087;30816.400;   -7.710;34463.680
683.663;30191.223;  -11.480;34648.898
684.239;28674.654;  -14.090;34546.457
684.815;27894.898;   -7.560;35586.375
685.390;27931.592;   -9.910;35821.895
685.966;28496.809;  -11.159;35085.871
686.542;31216.400;  -11.169;34198.230
687.118;33533.965;   -5.959;32847.707
687.693;33816.246;  -10.329;32794.027
688.269;33595.773;  -12.059;33072.367
688.844;31827.607;  -10.909;33141.664
689.420;29816.824;   -8.019;33965.742
689.995;27981.678;   -8.399;34655.523
690.571;26652.096;  -10.949;33576.742
691.146;26673.232;   -9.619;32657.219
691.722;26369.053;   -8.999;32526.979
692.297;26246.418;  -11.589;33014.617
692.872;27683.756;  -11.739;34012.254
693.448;27379.756;  -11.059;34237.434
694.023;26381.422;  -10.139;34142.672
694.598;28439.965;   -9.029;34132.031
695.173;29173.527;  -13.319;34205.250
695.748;28128.408;  -10.169;32882.488
696.323;27896.188;   -8.339;32864.906
696.898;28090.432;   -8.169;33170.004
697.473;28192.020;  -12.309;32432.984
698.048;27489.568;  -10.989;31649.303
698.623;27280.586;   -9.329;30778.141
699.198;28893.381;   -9.849;31140.119
699.773;30172.840;  -12.329;31764.299
700.348;28888.883;  -10.389;31780.816
700.922;28788.105;   -9.269;32046.375
701.497;29698.520;   -9.329;32603.574
702.072;29837.088;  -10.789;34799.871
702.646;28514.373;  -10.839;35793.172
703.221;26564.631;   -9.099;35201.590
703.795;28482.164;  -10.939;34764.527
704.370;28880.375;  -12.859;34307.367
704.944;29076.904;  -11.559;33509.887
705.519;29778.875;   -7.939;31388.584
706.093;31072.889;  -10.499;31340.104
706.668;31418.104;  -11.289;32630.281
707.242;30382.805;  -11.509;32728.779
707.816;29171.186;   -9.639;32947.238
708.390;27611.316;  -11.429;33277.855
708.965;28114.543;  -11.869;33834.336
709.539;28342.623;  -11.689;33709.273
710.113;28434.748;  -10.478;33044.313
710.687;27694.680;  -10.228;31953.992
711.261;26058.244;  -13.698;30505.949
711.835;26066.998;  -13.378;30262.369
712.409;26670.924;   -9.698;31254.447
712.983;28657.029;  -11.898;32754.986
713.557;29907.025;  -15.138;34018.824
714.131;29782.617;  -14.098;34579.625
714.704;28739.783;   -9.958;33890.262
715.278;26152.709;  -10.028;33531.102
715.852;25061.654;  -11.148;33601.660
716.425;26256.846;   -9.068;33515.117
716.999;27301.275;  -10.038;33185.555
717.573;28137.855;   -9.798;33905.996
718.146;29068.777;  -12.378;35199.293
718.720;29154.777;  -11.918;35060.551
719.293;28978.010;   -8.088;34973.230
719.867;31805.289;  -10.888;36394.449
720.440;31436.816;  -11.938;36663.008
721.013;29522.229;  -12.818;35102.426
721.587;28047.484;  -10.298;33985.266
722.160;26956.377;  -10.048;33524.965
722.733;26027.814;  -12.108;32987.043
723.306;26439.670;  -10.818;33066.301
723.880;28482.061;   -8.908;33399.500
724.453;30449.436;   -9.878;33468.297
725.026;29623.881;  -11.188;33816.637
725.599;26938.240;  -11.678;32797.996
726.172;27079.939;   -9.618;33187.434
726.745;28232.947;   -8.258;35136.613
727.318;29595.982;  -12.978;35751.730
727.891;30243.977;  -12.148;35890.430
728.463;29682.713;   -8.968;34822.090
729.036;28239.537;  -10.188;32895.086
729.609;28643.459;  -11.788;31823.225
730.182;25689.758;  -11.788;31445.283
730.754;23285.154;  -10.268;32373.223
731.327;23727.541;   -9.998;33676.820
731.900;24344.576;  -12.228;33417.000
732.472;25318.879;  -13.848;31978.498
733.045;26862.502;   -8.698;30368.777
733.617;26822.469;  -10.607;30574.215
734.190;26988.697;  -11.507;31280.975
734.762;24548.357;  -13.647;31674.412
735.334;22657.543;   -9.767;31247.291
735.907;23097.105;   -9.897;29876.211
736.479;23254.740;  -11.637;29808.488
737.051;22933.650;   -9.567;30233.547
737.623;23532.855;   -8.187;31469.086
738.195;24057.227;  -11.187;31784.225
738.768;26270.775;  -12.337;32120.523
739.340;27039.533;  -12.227;32094.342
739.912;26021.754;  -11.057;31312.680
740.484;24540.652;  -10.207;31946.238
741.056;23096.916;  -10.047;32984.059
741.628;24427.877;  -13.627;33897.715
742.199;26621.176;   -7.177;33213.016
742.771;25279.896;  -10.797;31369.113
743.343;23146.932;  -11.997;31865.473
743.915;22126.508;  -12.867;32388.631
744.487;22026.346;   -7.617;31079.568
745.058;21912.418;   -9.557;30570.107
745.630;22456.820;   -9.877;29970.127
746.201;23730.291;  -14.177;29186.766
746.773;24548.443;   -9.237;28805.723
747.344;24384.166;   -9.847;29591.223
747.916;22653.500;  -11.657;31412.201
748.487;22687.568;  -10.587;32194.898
749.059;24094.189;   -8.707;32533.719
749.630;24962.604;  -10.537;32158.518
750.201;24194.555;  -11.687;30855.395
750.773;22420.766;  -11.647;28622.555
751.344;21983.451;   -7.147;28405.732
751.915;22874.383;   -9.757;28461.551
752.486;22904.076;  -12.427;27842.850
753.057;20858.002;  -12.227;27845.008
753.628;19699.574;  -10.417;27728.107
754.199;20695.314;  -11.767;27381.086
754.770;21726.949;  -11.187;25882.203
755.341;21844.086;  -10.507;25886.184
755.912;21963.854;   -9.387;26050.861
756.483;21566.924;  -10.647;26798.779
757.054;19761.502;  -11.837;27048.238
757.625;18285.650;  -12.716;26294.838
758.195;18075.141;   -9.666;26142.076
758.766;17813.420;   -8.656;26392.234
759.337;18462.016;  -12.856;26334.594
759.907;19970.996;  -13.366;27579.652
760.478;20837.635;   -8.576;28352.770
761.048;20252.154;  -10.526;27325.088
761.619;19290.582;  -11.116;26460.428
762.189;19484.455;  -12.136;26029.826
762.760;20647.070;   -9.456;26430.145
763.330;21697.576;   -7.136;26670.902
763.900;21239.002;  -11.786;26603.021
764.471;18704.662;  -11.546;25542.740
765.041;17173.590;   -8.096;24358.459
765.611;16985.314;   -8.876;23991.297
766.181;17377.270;  -12.196;24470.236
766.751;18617.203;  -11.636;24845.975
767.321;18375.531;  -10.156;24533.633
767.891;16190.378;  -11.766;24916.492
768.461;15525.485;  -14.936;24776.771
769.031;16039.071;  -12.356;24757.988
769.601;17727.320;   -7.526;24181.088
770.171;17900.516;  -10.766;23670.387
770.741;17146.549;  -13.176;22960.045
771.311;17290.205;  -10.616;22917.523
771.880;17840.416;   -9.576;23562.941
772.450;17763.123;  -10.336;24216.500
773.020;17754.471;  -13.516;24140.398
773.589;16865.234;  -13.466;24414.857
774.159;16148.049;   -8.686;23858.717
774.729;15785.731;   -9.476;22942.135
775.298;15398.688;  -13.666;22324.033
775.867;14941.688;  -11.716;21140.313
776.437;15061.433;   -9.906;20838.092
777.006;14853.199;  -12.166;20599.510
777.576;14522.866;  -12.356;20508.809
778.145;14469.780;  -11.646;20732.947
778.714;14490.239;   -8.226;21062.465
779.283;13987.730;   -9.556;20949.664
779.853;13472.640;  -14.116;20508.623
780.422;13861.540;  -11.506;20649.082
780.991;13431.899;   -9.556;21527.520
781.560;12156.485;   -9.095;22632.658
782.129;11941.631;  -12.135;23048.277
782.698;11956.403;  -10.865;23438.555
783.267;11560.390;   -9.335;23267.734
783.836;11507.039;  -11.045;22415.133
784.404;12531.529;  -13.865;20443.152
784.973;13207.333;  -13.095;19699.150
785.542;13257.808;  -11.575;19763.828
786.111;13087.060;   -9.705;20341.408
786.679;12604.525;  -12.105;20207.967
787.248;12346.073;  -12.455;19516.465
787.817;12140.241;  -11.535;18900.363
788.385;11754.218;   -9.765;17879.121
788.954;11168.747;  -14.005;17658.301
789.522;10557.524;  -11.955;17788.879
790.090;10981.689;  -10.135;18118.277
790.659;11557.525;  -10.975;18338.736
791.227;11154.980;  -13.375;18508.615
791.795;11556.010;  -12.375;17898.254
792.364;11850.251;  -10.725;17295.133
792.932;12125.181;   -9.715;16822.051
793.500;12412.757;  -12.675;17040.148
794.068;12704.659;  -13.495;17179.787
794.636;12882.476;  -10.885;16664.246
795.204;12196.850;  -11.045;16524.545
795.772;12171.246;  -13.175;17274.564
796.340;11710.479;  -12.445;17891.002
796.908;11496.063;   -9.735;17648.561
797.476;11368.021;   -9.815;17064.080
798.044;10938.877;  -13.985;16672.777
798.612;10183.554;  -13.115;17023.996
799.180; 9761.221;  -10.185;16561.615
799.747; 9599.294;   -9.055;15962.773
800.315; 9325.792;  -12.385;15296.992
800.883; 9102.777;  -15.035;14801.771
801.450; 9251.425;  -10.365;14534.430
802.018; 9345.746;   -9.855;14173.248
802.585; 9347.122;  -11.905;14029.547
803.153; 9364.556;  -11.585;13836.846
803.720; 9225.361;   -9.095;13567.324
804.287; 8712.867;   -9.135;13360.622
804.855; 8213.019;  -11.604;13681.981
805.422; 8106.395;  -11.794;13536.560
805.989; 8201.797;  -10.734;13355.958
806.556; 8474.928;  -10.444;13747.896
807.124; 8779.280;  -12.764;13987.376
807.691; 8724.408;  -12.964;14038.674
808.258; 8489.214;  -11.134;14120.152
808.825; 8077.276;   -9.854;13860.111
809.392; 8159.992;  -10.504;13268.790
809.959; 7749.664;  -13.054;12680.389
810.526; 7290.203;   -8.294;12427.308
811.093; 7290.717;   -8.394;12030.105
811.659; 7877.950;  -12.304;11653.664
812.226; 8395.897;  -13.944;11637.183
812.793; 8087.741;  -10.484;11611.521
813.360; 7434.442;  -10.144;11885.181
813.926; 7121.408;  -11.684;12770.539
814.493; 6944.909;  -13.644;12677.638
815.060; 6583.670;   -9.724;11974.336
815.626; 6533.111;   -9.854;11594.715
816.193; 6905.481;  -13.254;11579.474
816.759; 6955.235;  -13.204;11666.972
817.325; 7010.207;   -9.434;11325.530
817.892; 7374.018;  -10.134;11105.369
818.458; 7809.815;  -13.474;10843.928
819.024; 7433.518;  -11.854;10714.406
819.591; 7127.670;  -10.244;10469.165
820.157; 6951.195;  -10.704;10235.523
820.723; 6465.945;  -12.324;10847.563
821.289; 6167.921;   -9.444;11040.980
821.855; 6084.791;   -8.374;10357.100
822.421; 6004.522;  -10.234; 9978.918
822.987; 5934.236;  -13.294; 9754.177
823.553; 5553.683;  -10.884;10065.755
824.119; 5361.122;   -8.884;10036.294
824.685; 5503.364;   -6.784;10029.192
825.251; 5630.657;  -12.004;10199.230
825.816; 5590.798;  -11.474; 9820.189
826.382; 5327.419;   -9.174; 9297.248
826.948; 5492.322;   -9.214; 9381.347
827.513; 5894.179;  -10.774; 9450.726
828.079; 5736.838;  -11.924; 9472.444
828.645; 5146.195;  -10.543; 9292.643
829.210; 4982.750;  -10.533; 9065.341
829.776; 4943.059;  -10.753; 9132.620
830.341; 4825.027;  -10.173; 9092.878
830.906; 4986.005;  -10.743; 9078.557
831.472; 5318.564;  -11.113; 8534.535
832.037; 5122.551;  -10.603; 8677.874
832.602; 4594.072;  -13.323; 8628.692
833.167; 4329.862;  -10.823; 8879.031
833.733; 4265.467;  -10.113; 9189.790
834.298; 4391.523;  -13.583; 9052.608
834.863; 4506.104;  -12.703; 8895.087
835.428; 4534.332;  -10.523; 8824.266
835.993; 4410.220;   -6.963; 8845.385
836.558; 4251.783;  -10.763; 8888.563
837.123; 4334.558;   -9.903; 8966.582
837.688; 4588.545;   -9.913; 8617.860
838.253; 4830.278;  -10.283; 8590.699
838.817; 5010.270;  -12.963; 8443.797
839.382; 4940.287;  -14.243; 8799.356
839.947; 4628.961;  -10.733; 8810.595
840.511; 4318.541;   -9.383; 8796.394
841.076; 3934.118;  -12.563; 8347.231
841.641; 3981.199;  -12.953; 8224.330
842.205; 4075.524;   -7.043; 8223.349
842.770; 4117.772;   -8.163; 8622.107
843.334; 4286.714;  -12.503; 8410.386
843.898; 4260.281;  -11.693; 8337.465
844.463; 4253.757;  -10.203; 8506.283
845.027; 4040.264;   -9.533; 8280.962
845.591; 3855.213;  -13.443; 8231.141
846.156; 3849.772;  -13.143; 7969.179
846.720; 3764.925;   -9.433; 7768.278
847.284; 3659.462;  -11.033; 7630.957
847.848; 3519.544;  -10.403; 7472.395
848.412; 3417.562;  -11.553; 7437.394
848.976; 3452.160;   -8.393; 7674.592
849.540; 3373.008;   -8.713; 7836.011
850.104; 3427.113;  -12.463; 7913.669
850.668; 3784.831;  -12.973; 7694.508
851.232; 3938.357;  -10.793; 7756.887
851.796; 3797.795;  -10.662; 7926.545
852.359; 3479.430;  -13.082; 7827.844
852.923; 3306.089;  -12.192; 7641.163
853.487; 3177.505;  -11.912; 7342.501
854.050; 3159.122;  -10.892; 7042.820
854.614; 3288.180;  -13.992; 7151.338
855.177; 3392.529;  -11.732; 7105.077
855.741; 3432.392;   -8.962; 6989.675
856.304; 3341.251;   -9.442; 6596.634
856.868; 3320.693;  -14.192; 6356.272
857.431; 3445.818;  -12.702; 6468.571
857.995; 3580.679;   -9.942; 6373.210
858.558; 3611.818;   -9.112; 6324.448
859.121; 3339.384;  -12.932; 6408.327
859.684; 3161.397;  -13.442; 6347.886
860.247; 3257.462;  -10.632; 6321.264
860.810; 3283.262;  -11.272; 6301.903
861.374; 3036.833;   -9.832; 6607.881
861.937; 2768.383;  -11.762; 6408.200
862.500; 2763.370;   -9.722; 6572.639
863.062; 2922.203;  -10.512; 6387.297
863.625; 3067.521;  -11.232; 6190.836
864.188; 3230.350;  -14.112; 5807.254
864.751; 3324.064;  -11.302; 5682.413
865.314; 3245.271;  -10.112; 5547.492
865.876; 3016.648;  -12.182; 5500.150
866.439; 2985.618;  -10.722; 5415.909
867.002; 2949.137;   -9.252; 5501.567
867.564; 2750.135;   -9.572; 5413.946
868.127; 2524.181;  -13.142; 5160.325
868.689; 2397.860;  -12.902; 5133.183
869.252; 2278.801;   -9.732; 5252.382
869.814; 2176.714;   -9.432; 5297.141
870.377; 2186.298;  -11.552; 5390.919
870.939; 2262.400;   -9.052; 5599.898
871.501; 2339.289;  -10.982; 5248.336
872.063; 2354.647;  -12.292; 4854.235
872.626; 2290.212;  -14.912; 4817.074
873.188; 2288.657;  -13.112; 4987.732
873.750; 2266.700;  -13.442; 4868.651
874.312; 2185.747;   -9.402; 4779.330
874.874; 2094.356;  -11.062; 4866.348
875.436; 2010.899;  -13.931; 4718.887
875.998; 2004.080;   -9.561; 4660.005
876.560; 2034.008;  -11.321; 4462.964
877.122; 1981.067;  -12.221; 4145.042
877.683; 1885.825;  -12.191; 4056.481
878.245; 1814.356;  -12.101; 3950.740
878.807; 1857.145;   -8.971; 4058.958
879.369; 1890.620;  -12.071; 3954.677
879.930; 1804.943;  -14.621; 3941.495
880.492; 1742.195;  -10.311; 4067.014
881.053; 1703.469;  -10.901; 3859.633
881.615; 1588.832;  -14.411; 3776.071
882.176; 1489.178;  -13.761; 3734.750
882.738; 1450.324;   -9.181; 3678.489
883.299; 1466.658;  -11.791; 3405.407
883.860; 1534.519;  -13.121; 3351.106
884.422; 1595.917;  -11.211; 3394.044
884.983; 1540.587;  -10.091; 3166.443
885.544; 1294.869;   -8.461; 3189.802
886.105;  961.857;  -12.361; 3160.360
886.666;  710.856;  -14.141; 3093.059
887.227;  600.593;  -11.361; 2941.957
887.788;  580.640;  -11.401; 2974.836
888.349;  585.441;  -13.791; 2721.214
888.910;  622.035;  -13.191; 2696.493
889.471;  662.002;   -9.881; 2560.172
890.032;  674.725;   -9.881; 2558.190
890.593;  676.154;  -10.371; 2567.669
891.153;  673.181;  -13.301; 2460.307
891.714;  650.776;  -11.431; 2372.046
892.275;  631.426;  -11.291; 2309.505
892.835;  606.476;  -11.471; 2382.543
893.396;  566.616;  -11.541; 2295.502
893.956;  520.963;  -11.181; 2162.420
894.517;  486.676;  -11.741; 2125.439
895.077;  482.203;  -11.671; 2086.978
895.638;  486.223;  -11.311; 2126.316
896.198;  462.359;   -9.831; 1838.275
896.758;  425.214;   -8.421; 1892.813
897.319;  397.861;  -12.351; 1792.232
897.879;  384.611;  -13.511; 1762.751
898.439;  361.700;  -12.001; 1661.149
898.999;  338.612;  -10.180; 1781.468
899.559;  330.360;  -12.030; 1703.347
900.119;  325.675;  -15.710; 1537.525
900.679;  323.203;   -8.900; 1638.384
901.239;  310.067;   -8.340; 1527.902
901.799;  299.405;  -13.910; 1456.441
902.359;  294.419;  -13.460; 1357.140
902.919;  287.887;  -11.490; 1331.118
903.479;  275.651;  -12.110; 1317.257
904.038;  256.595;  -11.720; 1262.595
904.598;  242.277;  -13.610; 1152.034
905.158;  240.434;  -11.040; 1240.893
905.717;  234.197;  -10.900; 1233.691
906.277;  223.683;  -15.080; 1217.330
906.836;  212.258;  -13.380; 1222.408
907.396;  203.423;  -10.780; 1193.047
907.955;  193.903;   -8.500; 1182.526
908.515;  186.674;  -12.760; 1099.364
909.074;  181.060;  -11.900; 1092.863
909.633;  176.824;   -8.950; 1069.121
910.192;  173.704;   -8.770; 1196.460
910.752;  170.142;  -12.390; 1029.960
911.311;  165.847;  -13.680; 1009.780
911.870;  163.929;  -12.370;  971.460
912.429;  166.017;  -10.900; 1094.080
912.988;  165.383;  -11.690; 1081.060
913.547;  160.241;  -13.240;  940.380
914.106;  154.906;  -11.990;  999.420
914.665;  153.106;   -9.990;  984.020
915.224;  151.788;  -12.880; 1035.760
915.782;  152.024;  -12.350;  922.560
916.341;  151.370;   -9.110; 1049.840
916.900;  147.296;   -9.270;  925.260
917.458;  145.267;  -13.240;  884.220
918.017;  144.492;  -13.550;  942.600
918.576;  145.564;  -12.320;  904.440
919.134;  143.672;  -11.490;  837.980
919.693;  140.716;  -13.670;  893.060
920.251;  139.408;  -15.470;  876.500
920.809;  139.260;  -11.290;  839.580
921.368;  139.547;  -10.210;  885.360
921.926;  137.975;  -12.140;  842.940
922.484;  135.760;  -13.080;  903.360
923.042;  136.008;  -11.720;  880.340
923.601;  138.800;   -7.480;  998.680
924.159;  137.034;  -11.570;  935.560
924.717;  132.742;  -13.840;  841.080
925.275;  133.547;  -10.640;  903.240
925.833;  133.737;  -11.540;  779.320
926.391;  133.856;  -12.960;  938.380
926.949;  132.144;  -14.130;  857.680
927.506;  133.246;  -11.750;  903.500
928.064;  132.569;  -10.250;  877.580
928.622;  132.815;  -13.030;  880.100
929.180;  131.905;  -13.400;  814.180
929.737;  132.694;  -10.700;  808.540
930.295;  136.109;  -10.070;  928.480
930.853;  138.167;  -11.960;  849.100
931.410;  138.020;  -13.120;  821.120
931.968;  137.545;  -10.770;  940.660
932.525;  137.553;  -10.680;  909.380
933.082;  138.287;  -13.130;  811.440
933.640;  138.822;  -13.210;  925.900
934.197;  137.524;  -11.060;  886.360
934.754;  139.195;   -9.580;  897.780
935.312;  141.280;  -14.000;  863.340
935.869;  145.206;  -10.710; 1012.980
936.426;  145.827;   -9.860;  872.800
936.983;  147.637;   -9.710;  889.020
937.540;  145.808;  -13.990;  838.280
938.097;  145.034;  -14.040;  940.120
938.654;  145.023;  -10.310;  898.860
939.211;  148.232;  -10.560;  952.480
939.768;  151.274;  -13.900;  915.420
940.324;  154.640;  -14.760;  904.200
940.881;  156.030;  -10.370;  878.500
941.438;  157.998;   -8.260; 1021.200
941.995;  152.828;  -12.540;  992.560
942.551;  149.847;  -14.670;  875.620
943.108;  150.667;  -10.450;  937.920
943.664;  152.535;  -10.750;  869.340
944.221;  155.631;  -11.550; 1088.140
944.777;  152.971;  -14.770;  869.680
945.334;  153.390;  -12.820;  884.840
945.890;  155.262;  -10.130;  946.480
946.446;  154.712;  -13.470;  947.020
947.003;  157.417;  -12.120;  964.940
947.559;  159.467;   -9.980; 1063.040
948.115;  160.137;   -9.080; 1026.540
948.671;  157.007;  -10.830;  967.300
949.227;  154.602;  -12.440;  859.560
949.783;  152.393;  -12.910;  858.900
950.339;  155.354;  -10.270;  991.000
950.895;  154.841;  -13.630; 1023.840
951.451;  153.573;  -15.100;  925.280
952.007;  153.111;  -11.330;  998.540
952.563;  153.570;  -10.580;  937.780
953.118;  151.515;  -13.440;  904.940
953.674;  151.019;  -12.710;  935.780
954.230;  150.725;  -10.350;  949.640
954.785;  148.938;   -9.190;  936.640
955.341;  146.676;  -11.200;  998.160
955.897;  145.012;  -16.560;  834.660
956.452;  146.701;  -12.570;  953.840
957.008;  147.561;   -7.970; 1083.640
957.563;  144.806;  -11.940; 1009.540
958.118;  139.214;  -13.450;  877.700
958.674;  139.520;  -12.030;  946.780
959.229;  141.896;   -9.410; 1013.980
959.784;  138.914;  -12.000;  832.400
960.339;  138.166;  -14.780; 1001.280
960.894;  134.917;   -9.860;  963.760
961.449;  130.748;   -9.970;  859.960
962.004;  130.825;  -10.900; 1212.840
962.559;  124.620;  -13.150;  860.140
963.114;  122.610;  -13.740;  742.480
963.669;  122.797;   -9.820;  915.500
964.224;  120.690;  -13.890;  874.340
964.779;  119.486;  -12.600;  828.420
965.334;  120.823;  -10.950; 1017.860
965.888;  119.935;  -11.170;  875.360
966.443;  122.864;  -12.540;  972.380
966.998;  122.214;  -15.780;  819.460
967.552;  121.372;   -9.760;  908.380
968.107;  117.514;   -9.060;  868.300
968.661;  118.628;  -11.950;  922.440
969.216;  118.612;  -12.800;  856.280
969.770;  119.473;  -11.210;  917.200
970.324;  118.808;  -11.610;  923.140
970.879;  114.948;  -11.370;  947.180
971.433;  111.981;  -12.540;  952.720
971.987;  106.539;  -11.320;  895.340
972.541;  103.577;  -10.720;  917.100
973.095;  103.312;   -9.680; 1009.460
973.649;  101.147;  -11.440;  809.480
974.203;  100.650;  -11.210;  829.040
974.757;  101.240;  -10.240;  855.220
975.311;  101.137;  -13.720;  872.600
975.865;   99.747;  -13.770;  881.820
976.419;   99.325;  -11.690;  857.400
976.973;   99.119;   -9.510;  849.620
977.526;  100.127;  -12.620;  949.920
978.080;   98.696;  -12.010;  796.780
978.634;  100.509;  -10.170;  921.320
979.187;   98.190;   -9.020;  905.400
979.741;   95.368;   -9.820; 1018.380
980.294;   90.659;  -14.870;  789.160
980.848;   88.831;  -12.380;  717.220
981.401;   91.263;  -10.350;  816.540
981.955;   92.738;  -13.720;  844.300
982.508;   91.675;  -11.490;  746.340
983.061;   93.039;  -10.000;  915.260
983.615;   88.681;  -11.480;  798.800
984.168;   85.916;  -13.220;  770.080
984.721;   85.106;  -13.960;  880.760
985.274;   84.750;  -10.870;  867.500
985.827;   82.921;   -9.790;  834.220
986.380;   80.940;  -13.120;  721.340
986.933;   80.277;  -12.450;  864.800
987.486;   78.319;  -10.210;  861.920
988.039;   76.886;   -8.430;  863.100
988.591;   75.178;  -10.520;  893.260
989.144;   73.089;  -14.860;  737.260
989.697;   71.873;  -13.080;  758.740
990.250;   72.714;  -10.150;  858.100
990.802;   71.707;  -13.430;  755.860
991.355;   72.674;  -12.750;  974.880
991.907;   70.502;  -12.040;  864.320
992.460;   68.329;  -11.330;  753.760
993.012;   67.296;  -13.610;  749.540
993.565;   65.740;  -13.460;  711.360
994.117;   67.132;   -9.360;  950.780
994.669;   64.613;  -11.300;  701.320
995.221;   63.043;  -13.540;  791.920
995.774;   60.100;  -13.430;  787.580
996.326;   58.976;  -12.520;  740.220
996.878;   59.160;  -10.950;  838.420
997.430;   56.528;  -14.300;  699.860
997.982;   55.928;  -13.760;  750.140
998.534;   55.937;  -11.530;  739.060
999.086;   54.342;  -10.310;  738.220
999.638;   53.291;  -12.530;  661.380
1000.190;   51.839;  -11.840;  699.320
1000.741;   52.146;  -10.260;  742.700
1001.293;   52.325;   -8.860;  686.020
1001.845;   50.124;  -13.700;  676.640
1002.396;   50.669;  -12.100;  743.400
1002.948;   49.263;  -12.760;  737.400
1003.500;   48.884;  -10.380;  723.780
1004.051;   48.568;  -11.900;  907.580
1004.603;   47.199;  -12.250;  791.820
1005.154;   43.439;  -13.210;  608.980
1005.705;   43.370;  -10.950;  723.960
1006.257;   41.562;  -13.880;  707.220
1006.808;   40.658;  -12.840;  685.460
1007.359;   41.610;  -10.570;  763.240
1007.910;   40.523;   -9.620;  646.640
1008.461;   40.230;  -13.630;  732.940
1009.013;   39.210;  -17.200;  588.340
1009.564;   40.341;  -10.200;  793.520
1010.115;   38.421;  -12.570;  597.040
1010.665;   37.424;  -15.150;  602.160
1011.216;   37.779;  -14.480;  667.920
1011.767;   37.052;  -11.340;  697.920
1012.318;   37.089;   -9.780;  736.980
1012.869;   35.505;  -12.380;  679.000
1013.419;   34.699;  -15.560;  603.120
1013.970;   35.988;  -11.010;  666.640
1014.521;   35.200;  -11.610;  620.620
1015.071;   35.067;  -13.450;  670.380
1015.622;   35.221;  -13.870;  635.460
1016.172;   34.500;  -11.610;  596.820
1016.723;   34.443;  -12.120;  614.380
1017.273;   33.486;  -13.620;  604.160
1017.823;   33.875;  -14.140;  650.340
1018.374;   33.046;  -12.800;  611.760
1018.924;   33.800;  -12.340;  716.880
1019.474;   33.077;  -11.410;  718.880
1020.024;   32.020;  -14.770;  657.580
1020.574;   32.891;   -9.780;  726.160
1021.124;   33.861;   -8.560;  673.580
1021.674;   31.771;  -15.190;  559.120
1022.224;   32.180;  -13.530;  708.940
1022.774;   32.619;  -13.280;  668.820
1023.324;   32.537;  -10.690;  753.520
1023.874;   32.784;  -10.240;  875.760
1024.423;   30.642;  -12.540;  613.700
1024.973;   30.429;  -10.010;  610.760
1025.523;   30.244;  -10.550;  620.960
1026.072;   29.740;  -13.560;  606.420
1026.622;   29.248;  -15.120;  675.740
1027.172;   30.855;  -11.260;  715.660
1027.721;   29.614;  -11.410;  601.220
1028.270;   29.875;  -13.530;  663.400
1028.820;   29.355;  -13.680;  638.080
1029.369;   28.882;  -13.520;  612.700
1029.918;   29.654;  -10.980;  649.840
1030.468;   28.452;  -13.530;  564.780
1031.017;   28.611;  -13.170;  634.800
1031.566;   27.665;  -12.200;  608.900
1032.115;   28.769;   -9.960;  694.500
1032.664;   27.018;  -13.210;  596.480
1033.213;   27.819;  -12.500;  735.420
1033.762;   28.130;  -11.910;  635.620
1034.311;   27.344;   -9.640;  677.220
1034.860;   27.545;  -13.310;  691.000
1035.408;   27.287;  -11.830;  722.720
1035.957;   27.853;  -12.000;  719.540
1036.506;   26.008;  -11.690;  530.800
1037.055;   28.133;  -10.990;  844.320
1037.603;   26.781;  -15.120;  664.000
1038.152;   24.901;  -12.450;  534.760
1038.700;   25.450;  -10.560;  585.740
1039.249;   25.284;  -11.080;  681.220
1039.797;   25.201;  -12.540;  633.360
1040.345;   25.374;  -11.920;  705.420
1040.894;   26.067;  -11.410;  625.300
1041.442;   25.167;  -14.320;  632.200
1041.990;   23.918;  -16.240;  559.160
1042.538;   23.632;  -11.680;  536.180
1043.087;   24.514;  -10.760;  570.860
1043.635;   25.186;  -11.850;  670.500
1044.183;   23.992;  -15.480;  586.400
1044.731;   24.282;  -11.770;  576.000
1045.279;   23.405;  -13.090;  674.920
1045.827;   24.932;  -12.440;  892.400
1046.374;   22.919;  -13.840;  515.420
1046.922;   22.473;  -13.220;  590.580
1047.470;   24.698;  -10.230;  691.300
1048.018;   23.560;  -14.590;  647.960
1048.565;   23.338;  -12.050;  708.600
1049.113;   22.467;  -11.650;  557.000
1049.660;   22.759;  -10.510;  629.660
1050.208;   23.072;  -13.310;  675.640
1050.755;   22.020;  -15.900;  606.580
1051.303;   22.598;  -11.430;  686.820
1051.850;   21.831;   -8.480;  635.120
1052.397;   19.623;  -15.010;  473.960
1052.945;   20.794;  -13.960;  617.760
1053.492;   22.645;  -13.150;  741.840
1054.039;   22.609;   -9.630;  720.180
1054.586;   20.208;  -13.680;  557.240
1055.133;   21.036;  -14.570;  693.140
1055.680;   22.095;  -13.820;  646.620
1056.227;   21.115;  -11.730;  542.780
1056.774;   21.859;  -12.480;  794.980
1057.321;   19.594;  -13.930;  523.260
1057.868;   20.377;  -11.690;  651.320
1058.415;   20.148;   -9.520;  651.980
1058.961;   20.261;  -13.160;  678.940
1059.508;   19.395;  -12.920;  643.820
1060.055;   19.532;  -11.920;  581.780
1060.601;   20.964;  -11.500;  624.300
1061.148;   19.708;  -14.330;  616.820
1061.694;   18.540;  -16.870;  592.580
1062.241;   19.349;  -10.330;  596.320
1062.787;   19.426;  -10.620;  663.140
1063.334;   20.800;  -10.110;  808.560
1063.880;   18.026;  -13.400;  668.360
1064.426;   19.148;  -10.680;  706.820
1064.972;   18.257;   -9.920;  601.340
1065.518;   17.033;  -10.980;  566.640
1066.065;   18.207;  -14.890;  624.460
1066.611;   17.715;  -12.870;  598.800
1067.157;   18.854;  -12.950;  641.860
1067.703;   17.753;  -13.540;  668.480
1068.249;   17.892;  -13.540;  605.220
1068.794;   17.884;  -12.600;  626.880
1069.340;   16.874;  -10.620;  578.960
1069.886;   17.371;  -12.830;  590.700
1070.432;   16.440;  -14.870;  541.720
1070.977;   16.260;  -11.980;  601.080
1071.523;   16.707;   -8.200;  573.060
1072.068;   16.767;  -12.330;  582.000
1072.614;   16.076;  -16.370;  527.760
1073.160;   17.280;  -11.100;  687.040
1073.705;   16.039;  -10.480;  572.520
1074.250;   15.774;  -14.520;  559.900
1074.796;   16.617;  -11.460;  655.160
1075.341;   16.095;  -11.950;  664.100
1075.886;   16.290;  -11.460;  594.240
1076.431;   15.159;  -13.770;  649.880
1076.976;   15.446;  -12.680;  639.220
1077.521;   13.986;  -13.170;  583.080
1078.067;   13.964;  -10.860;  579.400
1078.612;   15.325;  -13.920;  661.620
1079.156;   14.780;  -13.880;  601.540
1079.701;   15.225;  -13.120;  693.260
1080.246;   15.718;   -9.940;  696.300
1080.791;   14.393;  -14.740;  625.020
1081.336;   15.232;  -13.750;  659.320
1081.880;   14.164;  -13.400;  649.680
1082.425;   14.603;  -12.220;  573.480
1082.970;   15.981;  -11.610;  717.040
1083.514;   14.081;  -13.580;  597.000
1084.059;   13.202;  -12.810;  586.720
1084.603;   13.405;  -12.320;  565.840
1085.147;   13.782;  -13.190;  645.220
1085.692;   13.929;  -12.480;  716.800
1086.236;   12.815;  -13.020;  503.140
1086.780;   14.956;   -9.190;  751.440
1087.325;   13.629;  -12.480;  654.620
1087.869;   13.099;  -12.450;  610.700
1088.413;   13.655;  -12.240;  705.040
1088.957;   11.924;   -9.020;  543.400
1089.501;   14.041;  -10.320;  766.640
1090.045;   12.476;  -12.720;  726.480
1090.589;   11.438;  -13.690;  569.920
1091.133;   12.829;  -10.020;  673.340
1091.676;   12.784;  -12.330;  591.940
1092.220;   11.964;  -14.970;  600.920
1092.764;   12.794;  -12.430;  706.960
1093.307;   12.948;   -9.800;  673.780
1093.851;   11.135;  -14.970;  556.540
1094.395;   12.405;  -15.310;  683.140
1094.938;   11.712;  -10.370;  632.520
1095.482;   11.578;  -11.050;  559.800
1096.025;   12.062;  -11.840;  710.880
1096.568;   12.653;  -12.840;  779.280
1097.112;    9.858;  -14.700;  508.180
1097.655;   11.434;   -8.720;  603.000
1098.198;    9.809;  -13.610;  600.180
1098.741;    9.975;  -13.350;  612.860
1099.285;   10.973;  -11.230;  657.300
1099.828;    9.529;  -11.840;  439.400
1100.371;   10.864;  -10.840;  608.160
1100.914;   10.526;  -14.190;  682.660
1101.457;   10.431;  -11.240;  679.900
1101.999;    9.350;  -11.270;  584.680
1102.542;   10.907;  -11.480;  641.440
1103.085;    9.231;  -11.750;  658.500
1103.628;   11.021;  -11.400;  762.060
1104.170;    9.451;  -10.490;  588.280
1104.713;    9.638;  -10.600;  646.700
1105.256;    9.025;  -14.360;  557.440
1105.798;    8.616;  -13.210;  499.980
1106.341;   10.616;  -10.270;  728.900
1106.883;    8.445;  -12.200;  521.340
1107.425;    8.680;  -13.110;  668.180
1107.968;    8.764;  -12.840;  612.380
1108.510;    9.642;   -6.480;  684.960
1109.052;    7.869;  -13.940;  612.620
1109.594;    8.197;  -13.690;  554.440
1110.136;    9.097;  -11.880;  643.220
1110.679;    8.238;   -9.500;  633.080
1111.221;    8.696;  -14.160;  604.460
1111.763;    7.835;  -13.980;  559.220
1112.304;    6.874;  -13.880;  547.140
1112.846;    8.848;  -12.210;  666.240
1113.388;   11.243;  -11.390;  942.180
1113.930;    7.663;  -14.540;  694.200
1114.472;    7.688;  -12.640;  606.540
1115.013;    6.191;  -11.620;  551.280
1115.555;    6.872;  -13.640;  587.100
1116.097;    6.747;  -15.380;  579.480
1116.638;    7.614;  -12.640;  684.600
1117.180;    7.849;   -9.850;  667.740
1117.721;    7.060;  -13.690;  568.580
1118.262;    7.865;  -12.680;  677.960
1118.804;    7.261;  -12.530;  637.340
1119.345;    7.153;  -11.690;  578.400
1119.886;    7.627;  -13.380;  704.040
1120.427;    5.916;  -14.070;  589.020
1120.969;    5.956;  -13.500;  597.920
1121.510;    5.558;  -11.480;  563.060
1122.051;    6.494;  -12.830;  723.580
1122.592;    5.810;  -14.290;  655.420
1123.133;    5.230;  -12.400;  547.940
1123.673;    6.765;  -10.130;  706.480
1124.214;    5.827;  -12.930;  612.460
1124.755;    6.271;  -14.380;  639.460
1125.296;    6.263;  -14.000;  627.320
1125.836;    6.922;  -10.070;  691.500
1126.377;    5.085;  -12.640;  599.660
1126.918;    5.925;  -12.960;  614.980
1127.458;    4.828;  -13.350;  622.220
1127.999;    6.152;  -10.750;  656.980
1128.539;    5.450;  -12.350;  694.240
1129.079;    4.064;  -14.860;  632.720
1129.620;    3.878;  -13.840;  558.100
1130.160;    4.734;  -12.330;  539.480
1130.700;    5.457;  -14.530;  640.840
1131.240;    5.326;  -12.530;  643.700
1131.781;    4.023;  -14.450;  619.680
1132.321;    5.242;   -9.790;  599.120
1132.861;    3.146;  -14.860;  564.200
1133.401;    3.338;  -14.290;  593.940
1133.941;    3.731;  -11.750;  626.280
1134.481;    4.047;   -9.920;  597.580
1135.020;    3.939;  -12.290;  609.160
1135.560;    4.350;  -11.650;  674.940
1136.100;    3.822;  -16.270;  501.160
1136.640;    3.630;  -10.890;  510.480
1137.179;    3.795;  -14.180;  537.960
1137.719;    3.372;  -16.250;  605.400
1138.258;    3.207;  -14.230;  587.360
1138.798;    4.017;   -9.090;  663.780
1139.337;    2.551;  -15.130;  482.840
1139.877;    3.076;  -13.680;  642.360
1140.416;    5.154;  -11.320;  878.060
1140.955;    2.927;  -10.860;  535.380
1141.494;    2.939;  -12.920;  669.280
1142.034;    2.153;  -13.930;  583.520
1142.573;    3.132;  -11.440;  646.280
1143.112;    2.345;  -12.000;  553.480
1143.651;    2.676;  -13.670;  536.480
1144.190;    3.156;  -12.730;  691.640
1144.729;    2.747;  -14.560;  607.420
1145.267;    2.570;  -11.830;  584.900
1145.806;    3.586;  -12.230;  637.040
1146.345;    1.434;  -14.130;  635.020
1146.884;    2.198;  -11.590;  622.500
1147.422;    2.304;  -12.550;  533.060
1147.961;    3.476;  -11.180;  708.460
1148.500;    2.390;  -11.510;  669.720
1149.038;    3.046;  -11.640;  632.500
1149.577;    2.921;  -10.130;  698.640
1150.115;    0.682;  -13.970;  452.280
1150.653;    1.291;  -14.520;  607.340
1151.192;    1.820;  -12.810;  552.920
1151.730;    2.076;   -9.100;  652.560
1152.268;    0.598;  -12.220;  589.520
1152.806;    1.177;  -14.140;  571.180
1153.344;   -0.194;  -12.350;  577.640
1153.882;    0.898;   -8.980;  600.060
1154.421;    0.312;  -15.190;  470.620
1154.958;    1.059;  -15.210;  595.240
1155.496;    2.126;  -12.850;  645.280
1156.034;    1.633;   -9.940;  721.880
1156.572;    2.497;  -13.570;  667.060
1157.110;   -0.159;  -14.590;  473.940
1157.647;    1.355;  -13.030;  676.960
1158.185;    0.822;  -12.140;  564.320
1158.723;   -0.027;  -14.390;  509.200
1159.260;    0.371;  -14.090;  701.700
1159.798;    0.535;  -11.920;  658.160
1160.335;    0.549;  -11.110;  631.820

