
Integration time [ms]:   3.276
Averaging Nr. [scans]: 1000
Smoothing Nr. [pixels]: 0
Data measured with spectrometer [name]: 7414430SP
Wave   ;Sample   ;Dark     ;Reference
[nm]   ;[counts] ;[counts] ;[counts] 

288.544;  150.923;    7.793;  793.890
289.143;  155.040;    7.462;  681.602
289.742;  154.955;    8.602;  828.814
290.341;  140.636;    1.321;  789.841
290.940;  129.679;   -0.709;  730.702
291.538;  130.039;    0.881;  881.108
292.137;  130.763;    0.122;  792.581
292.736;  135.346;   -1.929;  975.101
293.335;  131.679;   -8.229;  735.086
293.934;  131.227;   -5.279;  781.677
294.532;  130.269;   -1.369; 1031.958
295.131;  115.948;   -7.641;  834.394
295.730;  116.571;   -8.420;  809.588
296.328;  114.899;   -5.611;  783.442
296.927;  116.168;   -5.781;  779.652
297.525;  116.588;   -6.361;  781.236
298.124;  106.901;  -11.382;  654.009
298.722;  110.726;   -7.641;  761.933
299.321;  109.283;   -6.811;  708.597
299.919;  106.760;   -6.991;  751.918
300.518;  103.987;  -10.362;  689.338
301.116;  106.026;   -9.581;  691.381
301.715;  106.397;   -4.891;  730.222
302.313;  105.087;   -8.801;  704.943
302.911;   99.508;   -8.522;  733.830
303.509;  105.017;   -6.171;  925.627
304.108;  102.884;   -7.311;  760.383
304.706;  101.534;   -8.321;  801.664
305.304;   96.522;  -10.222;  796.707
305.902;  101.709;   -6.021;  784.484
306.500;   97.743;   -4.971;  728.200
307.098;   96.330;   -7.061;  746.560
307.696;   93.398;   -8.801;  780.432
308.294;   93.951;   -6.411;  731.359
308.892;   96.708;   -2.901;  759.769
309.490;   93.025;   -5.041;  712.161
310.088;   91.573;   -5.002;  788.444
310.686;   94.888;   -2.041;  821.749
311.284;   91.204;   -2.351;  766.040
311.882;   88.682;   -4.422;  731.225
312.480;   85.421;   -4.192;  697.167
313.078;   87.657;   -1.172;  808.331
313.675;   88.350;   -2.601;  691.600
314.273;   83.813;   -1.312;  797.837
314.871;   82.269;   -3.942;  589.829
315.468;   80.882;   -2.802;  652.090
316.066;   83.043;   -0.701;  694.427
316.664;   76.238;   -4.362;  656.351
317.261;   79.883;   -2.872;  910.128
317.859;   75.597;   -2.022;  768.735
318.456;   76.743;   -0.531;  830.096
319.054;   72.494;   -3.912;  787.828
319.651;   70.919;   -4.752;  759.928
320.249;   69.902;   -2.602;  810.188
320.846;   68.234;   -0.821;  714.286
321.443;   65.157;   -4.642;  832.135
322.041;   63.073;   -5.002;  812.315
322.638;   59.775;   -3.982;  701.456
323.235;   61.893;   -3.411;  665.683
323.833;   59.132;   -7.361;  740.354
324.430;   53.784;   -8.611;  615.900
325.027;   55.026;   -4.061;  876.855
325.624;   55.001;   -4.031;  644.532
326.221;   52.078;   -7.481;  689.717
326.818;   51.666;   -5.281;  818.332
327.415;   54.010;   -7.460;  748.828
328.012;   54.977;   -5.510;  690.585
328.609;   53.566;   -7.880;  731.389
329.206;   51.115;   -8.331;  778.621
329.803;   50.818;   -5.121;  737.841
330.400;   53.812;   -4.510;  704.260
330.997;   55.425;   -6.441;  817.147
331.594;   53.575;   -8.831;  788.185
332.191;   59.660;   -7.621;  728.722
332.787;   61.643;   -4.591;  844.463
333.384;   61.028;   -7.412;  763.093
333.981;   59.545;   -8.293;  815.687
334.578;   61.848;   -7.052;  708.378
335.174;   65.115;   -3.102;  731.469
335.771;   64.299;   -5.943;  836.456
336.367;   61.386;   -7.393;  710.631
336.964;   64.792;   -4.063;  793.266
337.561;   63.121;   -3.813;  731.112
338.157;   58.987;   -4.654;  911.916
338.754;   55.523;   -7.934;  796.589
339.350;   53.995;   -4.414;  722.493
339.946;   56.600;   -4.664;  773.135
340.543;   47.877;   -6.375;  846.136
341.139;   42.600;   -9.815;  720.836
341.735;   39.773;   -4.526;  772.593
342.332;   39.127;   -4.895;  691.472
342.928;   39.863;   -4.295;  795.394
343.524;   33.859;   -5.476;  761.684
344.120;   30.111;   -5.856;  738.562
344.716;   33.522;   -2.155;  723.717
345.313;   31.206;   -6.275;  795.342
345.909;   26.170;   -8.815;  627.336
346.505;   27.997;   -5.305;  740.247
347.101;   28.836;   -2.674;  827.864
347.697;   29.314;   -4.344;  785.398
348.293;   23.371;   -9.975;  627.244
348.889;   23.829;   -5.774;  745.914
349.485;   23.922;   -5.004;  688.205
350.081;   23.872;   -4.704;  772.592
350.676;   19.160;   -6.635;  691.606
351.272;   24.160;   -4.504;  809.530
351.868;   23.671;   -3.914;  780.497
352.464;   20.139;   -9.044;  723.932
353.059;   16.706;   -8.314;  646.017
353.655;   20.095;   -7.024;  777.063
354.251;   21.613;   -5.343;  759.845
354.846;   16.069;   -8.604;  740.646
355.442;   14.442;   -6.945;  753.071
356.038;   15.598;   -7.564;  751.708
356.633;   15.483;   -5.814;  728.594
357.229;   13.504;   -7.364;  724.757
357.824;   11.041;   -8.024;  703.600
358.420;   10.911;   -9.384;  679.726
359.015;   11.460;   -5.104;  695.357
359.610;   13.279;   -6.854;  763.920
360.206;    6.443;  -10.185;  603.240
360.801;    9.577;   -7.054;  646.503
361.396;   12.724;   -5.034;  725.975
361.992;    7.493;   -8.284;  668.220
362.587;    4.442;   -8.625;  670.160
363.182;    6.016;   -7.674;  689.631
363.777;    7.751;   -5.164;  738.242
364.372;    7.681;   -8.604;  737.314
364.967;    2.819;   -9.055;  680.744
365.563;    7.944;   -6.114;  815.567
366.158;    4.802;   -5.814;  685.161
366.753;    4.906;   -7.854;  649.263
367.348;    3.127;   -7.804;  746.056
367.942;    3.313;   -7.954;  697.298
368.537;    2.525;   -4.984;  754.245
369.132;    2.244;   -8.564;  703.428
369.727;   -0.572;   -8.855;  638.079
370.322;   -0.011;   -6.245;  580.186
370.917;   -0.736;   -6.425;  710.646
371.511;    2.826;   -6.294;  861.834
372.106;   -0.650;   -7.685;  776.964
372.701;   -4.103;   -7.335;  585.988
373.296;    2.397;   -4.564;  863.135
373.890;   -3.096;  -10.235;  647.840
374.485;   -4.726;   -7.885;  691.199
375.079;   -1.263;   -7.324;  738.685
375.674;    0.480;   -3.494;  812.970
376.268;   -4.626;   -8.525;  691.759
376.863;  -10.052;  -10.086;  580.327
377.457;   -3.968;   -7.025;  662.490
378.052;   -4.983;   -3.585;  764.884
378.646;   -6.742;   -7.595;  741.167
379.240;   -7.292;   -8.335;  721.176
379.835;   -5.957;   -5.785;  636.978
380.429;   -7.402;   -4.335;  562.557
381.023;   -7.466;   -6.805;  779.205
381.617;  -10.102;   -9.195;  680.106
382.212;   -6.431;   -6.905;  685.303
382.806;   -5.083;   -3.745;  760.690
383.400;   -9.809;   -7.745;  672.281
383.994;  -10.530;   -9.765;  664.870
384.588;   -7.192;   -6.564;  697.701
385.182;   -5.450;   -5.344;  726.624
385.776;   -6.906;   -8.514;  706.875
386.370;   -9.961;   -9.555;  681.968
386.964;   -9.626;   -8.715;  684.155
387.558;   -7.508;   -6.174;  598.360
388.152;  -10.713;   -8.725;  681.959
388.745;   -8.749;   -7.965;  814.707
389.339;   -7.158;   -5.924;  747.642
389.933;   -5.791;   -5.524;  695.370
390.527;   -7.523;   -7.114;  859.029
391.120;  -13.114;  -10.725;  595.318
391.714;  -10.764;   -8.035;  711.633
392.308;   -7.176;   -3.574;  780.253
392.901;  -10.946;   -7.245;  642.460
393.495;  -13.131;   -9.285;  595.414
394.089;  -11.230;   -5.895;  760.452
394.682;  -11.652;   -4.295;  697.188
395.275;  -11.584;   -9.875;  719.927
395.869;  -13.032;   -8.485;  667.314
396.462;  -11.939;   -7.455;  616.609
397.056;   -7.877;   -5.424;  776.621
397.649;  -12.706;   -6.605;  731.575
398.242;   -9.334;   -8.224;  712.645
398.836;   -8.882;   -7.474;  766.408
399.429;   -8.983;   -7.094;  631.041
400.022;  -13.233;   -9.475;  665.902
400.615;  -11.019;   -7.145;  805.609
401.208;   -9.589;   -7.174;  691.451
401.802;  -11.556;   -5.515;  699.329
402.395;  -11.443;   -9.875;  683.502
402.988;  -12.788;   -8.845;  696.627
403.581;  -10.480;   -8.874;  646.878
404.174;   -8.055;   -5.324;  686.568
404.767;  -11.246;   -9.575;  638.583
405.360;  -12.929;  -10.965;  621.445
405.953;   -8.068;   -8.764;  759.034
406.545;   -7.160;   -7.514;  725.342
407.138;  -11.508;  -10.025;  618.350
407.731;  -10.524;  -10.034;  613.303
408.324;   -7.007;   -9.374;  660.554
408.917;   -7.239;   -6.534;  681.864
409.509;   -9.343;   -8.004;  740.396
410.102;  -10.349;   -9.875;  643.948
410.695;   -5.580;   -8.604;  665.758
411.287;   -6.228;   -6.794;  599.821
411.880;   -7.276;   -9.334;  585.421
412.472;  -10.524;  -10.254;  613.092
413.065;   -7.262;   -6.714;  629.408
413.657;   -5.761;   -7.234;  576.678
414.250;   -5.035;  -10.544;  646.681
414.842;   -6.959;   -9.744;  676.353
415.434;   -5.080;   -6.994;  570.463
416.027;    0.547;   -5.893;  652.196
416.619;   -2.472;   -7.264;  713.400
417.211;   -3.358;  -10.374;  599.352
417.804;   -0.702;   -7.993;  628.499
418.396;   -3.220;   -7.234;  607.643
418.988;   -1.680;   -9.443;  659.238
419.580;   -4.800;  -10.724;  568.276
420.172;   -1.945;  -10.323;  536.196
420.764;    2.118;   -8.793;  672.482
421.356;    0.697;  -11.143;  636.898
421.948;    0.396;   -8.293;  677.661
422.540;    4.426;   -7.893;  680.027
423.132;    4.046;   -7.082;  600.641
423.724;    0.285;   -8.653;  561.267
424.316;    3.446;  -10.213;  621.345
424.908;    6.547;   -9.762;  591.517
425.500;    7.197;   -5.572;  647.978
426.092;    8.308;   -8.422;  648.268
426.683;    6.405;   -9.283;  684.836
427.275;    9.777;   -7.852;  641.471
427.867;   11.731;   -5.272;  668.948
428.458;   10.956;   -7.682;  732.344
429.050;    9.481;  -10.612;  680.749
429.642;   11.906;   -9.882;  743.124
430.233;   12.603;   -6.962;  569.356
430.825;   14.743;   -6.842;  724.809
431.416;   11.577;   -9.672;  698.241
432.008;   15.144;   -6.552;  651.723
432.599;   15.689;   -6.891;  656.073
433.190;   12.856;  -10.912;  637.670
433.782;   11.687;  -11.172;  590.395
434.373;   19.230;   -6.061;  884.765
434.964;   18.712;   -8.251;  602.920
435.556;   16.317;   -9.722;  634.537
436.147;   18.972;   -9.082;  758.490
436.738;   18.871;   -8.041;  701.099
437.329;   24.290;   -7.341;  721.723
437.920;   17.381;   -8.162;  666.688
438.511;   17.621;  -11.802;  564.526
439.103;   23.800;  -10.191;  623.998
439.694;   25.426;   -7.601;  681.583
440.285;   26.865;   -8.541;  764.432
440.876;   24.422;   -9.751;  845.738
441.466;   24.848;   -9.401;  575.162
442.057;   29.627;   -7.760;  665.814
442.648;   28.230;   -9.971;  746.255
443.239;   26.830;  -11.001;  620.477
443.830;   30.740;   -7.990;  704.958
444.421;   33.590;   -7.910;  655.474
445.011;   30.265;   -8.131;  693.619
445.602;   29.312;   -7.111;  743.126
446.193;   31.368;  -10.920;  488.117
446.783;   36.559;   -6.500;  640.397
447.374;   31.405;   -8.671;  692.759
447.964;   31.739;  -10.781;  713.770
448.555;   39.503;   -9.650;  822.742
449.145;   37.228;   -8.660;  662.853
449.736;   37.918;   -8.990;  803.179
450.326;   37.363;   -9.500;  713.626
450.917;   42.626;   -8.680;  675.324
451.507;   42.311;   -7.520;  600.661
452.097;   43.000;   -8.590;  746.267
452.688;   43.354;  -11.340;  742.160
453.278;   43.988;  -10.100;  566.840
453.868;   47.948;   -6.019;  793.550
454.458;   46.227;   -9.440;  651.141
455.048;   46.691;  -10.560;  711.783
455.639;   48.050;  -11.799;  567.096
456.229;   51.058;   -6.899;  710.694
456.819;   53.280;   -7.389;  751.158
457.409;   53.500;  -11.119;  773.993
457.999;   56.522;   -9.289;  737.505
458.589;   56.401;   -6.139;  686.606
459.179;   56.115;   -8.729;  717.658
459.769;   54.487;   -9.789;  627.099
460.358;   59.469;  -10.259;  797.262
460.948;   58.693;   -7.299;  689.503
461.538;   61.461;  -10.289;  660.677
462.128;   58.743;  -11.269;  664.934
462.717;   65.089;   -9.368;  710.326
463.307;   68.103;   -7.908;  705.846
463.897;   64.583;   -9.599;  656.942
464.486;   64.110;   -9.769;  837.128
465.076;   68.794;   -8.048;  733.776
465.666;   72.061;   -9.358;  652.900
466.255;   69.877;   -7.919;  785.651
466.845;   69.646;  -11.689;  666.749
467.434;   72.204;   -7.818;  725.873
468.023;   73.892;   -7.678;  658.357
468.613;   71.253;  -10.939;  713.946
469.202;   75.011;  -10.118;  646.507
469.791;   78.879;   -9.108;  737.811
470.381;   81.466;   -6.058;  742.813
470.970;   80.280;  -10.428;  711.099
471.559;   81.467;  -10.268;  733.291
472.148;   84.168;   -8.448;  675.737
472.738;   86.436;   -6.917;  765.466
473.327;   86.211;  -11.978;  637.529
473.916;   86.177;  -11.888;  737.446
474.505;   89.981;   -9.437;  751.703
475.094;   93.864;   -6.747;  806.570
475.683;   92.288;   -9.367;  797.699
476.272;   94.433;  -12.637;  730.632
476.861;   96.457;  -10.027;  706.754
477.449;  103.883;   -8.716;  728.487
478.038;   97.246;   -9.577;  692.513
478.627;   98.608;   -9.718;  714.852
479.216;  104.893;   -8.947;  769.441
479.805;  109.141;   -6.256;  783.375
480.393;  108.363;   -7.937; 1008.945
480.982;  107.562;   -7.717;  874.501
481.571;  114.128;   -9.266;  858.333
482.159;  113.976;   -7.636;  705.386
482.748;  114.472;   -9.667;  821.385
483.336;  119.162;  -10.376;  858.209
483.925;  120.298;   -7.147;  774.373
484.513;  126.633;   -7.996;  758.962
485.102;  123.691;  -10.027;  810.965
485.690;  132.722;  -10.446; 1011.050
486.278;  134.179;   -8.446;  979.329
486.867;  135.274;   -6.356;  809.662
487.455;  137.959;   -9.136;  898.229
488.043;  138.140;  -10.646;  748.361
488.631;  148.251;   -7.456; 1005.079
489.220;  152.106;   -6.636;  908.626
489.808;  151.747;  -11.036;  741.415
490.396;  159.918;  -10.246;  914.645
490.984;  166.697;   -8.556;  830.161
491.572;  177.020;   -5.886;  940.315
492.160;  183.513;   -9.486;  919.081
492.748;  195.696;  -10.976;  884.341
493.336;  219.173;   -8.776; 1019.693
493.924;  247.461;   -5.465;  958.077
494.512;  277.366;   -9.986; 1066.638
495.100;  317.151;  -10.636; 1103.280
495.687;  374.844;  -10.885; 1206.373
496.275;  443.240;   -8.126; 1150.796
496.863;  515.607;  -10.586; 1281.171
497.451;  620.861;  -11.926; 1386.805
498.038;  764.899;  -10.885; 1556.729
498.626;  878.852;   -6.315; 1741.407
499.214; 1038.048;   -7.326; 2016.609
499.801; 1249.815;  -11.906; 2220.633
500.389; 1500.482;  -10.466; 2312.494
500.976; 1826.663;   -5.236; 2744.849
501.564; 2290.781;   -8.936; 3148.565
502.151; 2678.796;  -13.176; 3515.999
502.738; 3132.091;  -10.646; 3971.274
503.326; 3549.133;   -9.525; 4403.796
503.913; 3984.329;  -10.856; 5161.749
504.500; 4397.093;  -11.586; 5986.420
505.088; 4779.463;  -10.336; 6381.201
505.675; 5348.389;   -6.355; 6925.547
506.262; 6083.271;   -9.046; 7619.060
506.849; 6875.676;  -10.416; 8733.969
507.436; 7458.814;  -10.305; 9790.121
508.023; 8044.095;   -5.496; 9985.472
508.610; 8269.579;   -7.856;10434.618
509.197; 8953.137;  -10.097;11198.435
509.784;10384.160;  -10.886;12391.194
510.371;11608.313;   -9.315;13603.713
510.958;12384.969;   -9.936;14426.586
511.545;13142.300;   -9.326;15243.775
512.132;14031.060;  -10.075;15945.876
512.719;14661.229;   -7.796;16340.369
513.305;15912.505;  -10.606;18011.766
513.892;16612.947;  -11.486;19754.971
514.479;17847.824;   -9.126;20967.805
515.066;19386.809;   -6.026;22299.793
515.652;21001.008;   -8.466;22908.660
516.239;22394.764;  -10.886;23798.875
516.825;23424.943;  -11.496;25567.275
517.412;24623.551;   -5.796;28154.959
517.998;25340.504;  -10.506;28344.111
518.585;25213.309;  -10.076;27134.219
519.171;25831.115;   -8.315;27268.576
519.758;27880.221;   -8.596;28964.129
520.344;29943.311;   -8.466;30664.494
520.930;29647.799;  -11.006;32550.605
521.516;31039.363;  -10.495;35422.895
522.103;33166.648;   -5.526;38280.004
522.689;33903.242;   -8.746;37835.117
523.275;33242.531;  -11.376;37288.613
523.861;34753.258;  -11.156;37281.395
524.447;36574.047;   -8.135;37846.949
525.033;36350.359;   -7.896;38321.949
525.619;36576.625;  -12.476;38579.285
526.205;38118.305;   -9.516;40622.875
526.791;40995.461;   -6.926;42258.836
527.377;40906.785;   -8.346;42966.902
527.963;42071.992;   -8.717;42018.949
528.549;41121.934;  -11.016;42476.828
529.135;39884.422;   -8.536;41854.852
529.721;38902.473;   -9.666;41237.711
530.306;38375.836;  -10.066;41259.445
530.892;38099.730;  -11.356;41506.047
531.478;38955.270;   -6.596;43559.613
532.063;42381.180;   -8.836;47695.563
532.649;43462.207;  -10.047;50808.324
533.235;44266.609;   -9.746;51787.500
533.820;44933.609;   -6.566;52145.035
534.406;46248.789;  -10.817;51133.488
534.991;46041.316;   -9.416;49996.805
535.576;44367.848;   -9.036;48882.852
536.162;45130.684;   -6.156;46942.285
536.747;46358.379;  -11.607;45711.746
537.333;49557.059;  -11.787;48510.180
537.918;52340.602;  -12.437;50439.891
538.503;51517.770;   -7.196;50863.711
539.088;48218.254;  -10.556;50906.922
539.673;48397.988;   -8.767;52621.965
540.259;48854.719;  -10.026;52368.094
540.844;46115.246;   -7.416;50879.109
541.429;47642.633;   -9.467;52077.777
542.014;49870.988;   -9.527;52716.695
542.599;49167.309;   -9.946;52363.281
543.184;46118.406;   -7.927;53187.137
543.769;47331.949;   -9.297;54697.605
544.354;47582.203;  -10.127;53913.914
544.938;46007.727;   -9.267;49680.164
545.523;47769.859;   -6.506;47386.277
546.108;50693.805;   -9.787;49151.949
546.693;52691.578;  -11.587;51384.637
547.278;52786.855;  -10.986;51853.254
547.862;49517.820;   -8.206;51173.750
548.447;44772.332;  -10.067;51691.395
549.031;43825.188;   -9.637;52456.703
549.616;48912.012;   -9.926;52714.516
550.201;48807.563;   -6.347;52414.598
550.785;50123.316;   -7.917;52355.059
551.370;49345.281;  -10.867;54589.453
551.954;48865.527;   -9.047;58267.348
552.538;49741.883;   -7.827;59062.176
553.123;48028.180;  -10.287;58115.285
553.707;45660.789;  -12.178;56556.285
554.291;46979.168;   -8.717;56201.668
554.876;49926.207;   -7.457;55335.762
555.460;50136.020;  -10.387;54155.703
556.044;50504.395;   -9.618;53721.484
556.628;48374.160;  -11.567;53731.016
557.212;47257.215;   -8.097;54312.531
557.796;46195.191;  -11.077;53797.773
558.380;46235.371;  -11.108;56145.984
558.964;46216.656;   -9.057;57277.930
559.548;46938.965;   -6.977;56459.641
560.132;45047.000;  -11.457;54434.543
560.716;43742.547;  -11.378;54800.617
561.300;45099.688;   -9.577;57606.945
561.884;46247.141;   -7.127;58972.445
562.467;44328.324;   -7.118;57327.570
563.051;43376.699;  -13.358;54962.434
563.635;44598.621;  -10.178;52594.473
564.219;45432.566;   -7.837;50610.410
564.802;46176.117;  -11.398;49551.180
565.386;45786.047;  -12.788;48370.953
565.969;45154.660;   -9.077;48178.871
566.553;44097.980;   -6.207;49957.305
567.136;44869.035;   -8.568;50369.594
567.720;41406.637;  -11.868;49492.004
568.303;39206.156;   -8.268;50616.352
568.887;39059.730;   -8.698;50727.148
569.470;39691.496;   -6.808;51698.379
570.053;38831.531;  -13.188;52122.078
570.637;36418.340;  -12.037;52536.438
571.220;36025.480;   -8.577;51186.098
571.803;36889.887;   -8.498;51032.762
572.386;39457.203;  -10.498;49609.887
572.969;42191.250;   -9.388;48285.926
573.552;40237.578;   -8.338;47624.285
574.135;38717.082;   -8.518;45498.641
574.718;35950.930;  -13.628;41970.434
575.301;35184.066;  -10.893;41447.137
575.884;34417.207;   -8.158;40923.836
576.467;35595.730;  -10.328;45267.723
577.050;37252.820;  -13.058;48175.543
577.633;38453.188;   -9.458;47729.328
578.216;37499.922;   -8.928;47579.793
578.799;36597.469;   -9.358;47820.996
579.381;35574.980;  -11.388;48115.551
579.964;33570.020;  -11.718;47333.766
580.547;35522.453;   -8.588;46668.969
581.129;36285.035;   -8.859;44466.141
581.712;37006.859;  -10.729;44164.922
582.294;37516.336;  -11.118;46477.855
582.877;37735.957;   -5.218;48244.254
583.459;35755.711;   -8.679;47437.895
584.042;33603.836;  -10.709;46943.219
584.624;33715.641;  -11.669;46792.227
585.206;33486.473;   -8.218;46557.250
585.789;33915.582;  -10.569;45793.773
586.371;36283.625;  -11.859;43836.391
586.953;36861.742;  -10.719;42972.492
587.536;37896.629;   -7.198;42487.211
588.118;38256.727;   -8.720;42086.414
588.700;34406.031;  -10.439;43389.930
589.282;33386.348;   -9.198;43646.039
589.864;34272.762;   -9.199;43438.109
590.446;35488.984;  -11.319;43151.926
591.028;35167.047;  -11.159;42781.867
591.610;33910.813;  -11.779;42839.098
592.192;31437.750;   -7.668;42820.402
592.774;30147.162;  -11.949;40724.277
593.356;29132.990;  -12.129;39874.789
593.937;28186.959;  -10.669;39980.648
594.519;30566.201;   -6.509;42069.633
595.101;32690.387;  -10.849;42976.031
595.683;32656.221;  -11.679;44084.441
596.264;33511.297;   -9.049;43478.797
596.846;33099.117;   -8.849;43803.672
597.427;32776.488;   -9.570;42986.934
598.009;33961.453;  -12.620;42832.219
598.591;34385.957;  -10.039;42580.086
599.172;34045.836;  -10.369;43061.805
599.753;34268.926;   -9.140;41691.469
600.335;35521.176;  -11.430;40692.520
600.916;33692.355;   -9.939;39982.422
601.498;31594.920;   -8.479;40318.617
602.079;30025.574;  -10.920;40670.609
602.660;29803.939;  -11.480;41450.898
603.241;31458.232;  -11.699;41137.738
603.823;30047.676;   -9.579;38868.797
604.404;29507.648;  -10.620;38182.785
604.985;31245.762;  -10.450;38078.047
605.566;31070.213;   -9.129;38056.633
606.147;31126.498;   -7.510;37020.418
606.728;32820.094;  -10.660;37883.359
607.309;31572.162;  -11.740;38748.273
607.890;31291.529;   -9.759;38850.230
608.471;30759.623;   -8.250;37457.918
609.051;30012.719;   -9.240;36066.457
609.632;28688.773;  -12.120;35991.074
610.213;29013.273;   -9.110;37402.641
610.794;29883.297;   -8.030;38383.363
611.374;29782.934;   -8.110;40562.387
611.955;30448.012;  -13.560;38533.727
612.536;31825.125;  -11.400;36951.789
613.116;31639.770;   -8.070;37197.891
613.697;31902.219;  -10.830;38411.125
614.277;30181.723;  -11.641;38673.938
614.858;30955.180;  -13.310;37075.863
615.438;30403.457;   -7.460;35092.906
616.019;28053.561;   -7.601;33666.301
616.599;28248.383;  -12.020;34189.023
617.179;29803.063;  -11.780;36952.047
617.760;30862.814;   -8.570;39582.574
618.340;31786.959;  -11.471;38943.977
618.920;32736.168;  -11.170;37594.156
619.500;32718.801;  -11.071;37866.938
620.080;31969.455;   -7.750;37869.043
620.660;33184.000;  -12.711;36868.617
621.241;35077.836;  -10.211;36352.309
621.821;35393.504;  -10.961;35459.520
622.401;33993.832;   -7.720;35207.414
622.980;32881.203;   -8.981;35980.422
623.560;31462.744;   -9.331;37351.328
624.140;30259.941;   -9.850;34388.582
624.720;25338.244;   -7.451;32368.764
625.300;21767.475;   -9.070;32638.629
625.880;25156.313;  -12.601;34599.035
626.459;29430.508;  -11.751;36831.738
627.039;32380.326;   -9.281;38299.098
627.619;32210.252;   -8.801;38289.574
628.198;30513.936;  -12.071;37220.695
628.778;29543.477;   -9.461;37632.563
629.357;30410.512;   -8.491;38003.012
629.937;30662.971;   -9.721;38402.039
630.516;29987.121;   -9.951;37868.801
631.096;29503.428;  -11.731;35760.410
631.675;32010.627;   -8.572;35225.219
632.254;37353.613;  -11.282;35130.289
632.834;36892.672;  -13.322;35794.570
633.413;35173.738;  -10.301;35788.922
633.992;32451.740;   -8.582;34532.863
634.571;32928.422;   -8.352;33590.113
635.151;35467.211;  -11.912;34943.863
635.730;33913.758;  -10.511;35352.523
636.309;30672.131;   -7.731;35366.605
636.888;28296.828;   -9.952;36165.637
637.467;28892.115;  -11.672;37515.902
638.046;30416.389;   -8.901;39288.695
638.625;33359.543;   -7.912;38279.699
639.204;33335.629;  -10.022;37741.598
639.782;32279.906;  -12.252;38364.551
640.361;28225.615;  -10.041;36740.621
640.940;25422.012;  -11.161;34950.082
641.519;26041.930;   -9.701;34137.398
642.097;29079.861;  -11.271;35654.258
642.676;32167.438;   -8.651;35637.957
643.255;33138.496;   -8.711;36567.074
643.833;32206.027;   -9.581;37809.434
644.412;32244.381;  -13.711;37337.293
644.990;31334.111;  -11.811;37018.531
645.569;31346.283;   -9.411;36518.469
646.147;30745.859;  -10.291;36186.430
646.726;30507.801;  -12.401;36267.688
647.304;31448.059;  -10.411;36647.625
647.882;32932.891;   -9.651;39286.742
648.461;34706.633;   -9.631;39157.703
649.039;33116.277;  -11.881;35412.883
649.617;32139.576;   -9.661;34744.918
650.195;31451.242;   -9.301;35403.098
650.773;29989.670;  -10.511;35053.797
651.352;27819.822;  -11.521;33756.816
651.930;25438.930;  -12.211;31868.773
652.508;23572.242;   -9.171;33121.551
653.086;27431.836;   -9.371;33564.793
653.663;30506.242;  -13.161;34054.668
654.241;29304.611;  -13.031;35693.309
654.819;30866.389;   -9.371;36422.906
655.397;30721.672;  -10.511;38213.484
655.975;30143.020;  -10.371;39507.625
656.553;29769.137;  -10.051;39498.223
657.130;28434.406;  -10.061;40395.480
657.708;27843.988;   -9.561;39242.020
658.286;27972.643;  -11.511;38920.020
658.863;28995.441;  -10.261;40202.898
659.441;32153.436;   -7.531;39677.938
660.018;32104.131;   -9.501;40413.355
660.596;30728.355;  -13.301;39931.414
661.173;32526.668;  -11.211;39604.531
661.750;33163.762;   -9.951;39700.070
662.328;32199.674;   -9.390;39292.809
662.905;31089.322;  -11.330;38235.648
663.482;26533.961;   -9.050;36212.305
664.060;24516.701;   -8.240;35944.945
664.637;27485.729;  -10.050;35170.785
665.214;28934.250;  -11.760;34197.523
665.791;30381.953;  -10.530;34549.520
666.368;29607.609;   -9.690;35118.578
666.945;30198.838;   -9.320;36019.418
667.522;31654.529;  -11.860;36048.438
668.099;31388.303;  -10.770;36243.914
668.676;30033.027;   -6.260;35958.875
669.253;28802.834;   -7.000;37384.730
669.830;29106.504;  -10.190;36779.629
670.407;29048.723;   -9.550;35231.289
670.984;29130.412;   -9.260;35544.270
671.560;29883.912;   -9.280;35466.867
672.137;29018.500;  -11.810;34280.863
672.714;30045.084;  -11.490;34632.863
673.290;31280.109;   -7.740;35135.422
673.867;31188.059;  -10.660;36114.480
674.443;30906.711;  -12.230;36152.859
675.020;28897.285;  -10.450;35327.238
675.596;30004.760;   -9.260;35795.176
676.173;30704.287;  -10.780;35430.355
676.749;30206.309;  -13.690;33549.516
677.326;29873.916;  -11.980;32210.012
677.902;29803.535;   -8.630;32068.871
678.478;29207.404;  -10.730;32583.891
679.054;28427.031;  -10.520;32088.928
679.631;28780.615;  -11.920;30978.848
680.207;30170.303;   -7.490;33160.887
680.783;31742.465;   -9.860;35570.363
681.359;30940.611;  -13.380;36125.184
681.935;30704.598;  -12.480;35240.922
682.511;30363.635;   -7.900;34429.961
683.087;30535.580;   -7.710;34463.680
683.663;29881.773;  -11.480;34648.898
684.239;28450.660;  -14.090;34546.457
684.815;27764.076;   -7.560;35586.375
685.390;27820.939;   -9.910;35821.895
685.966;28340.146;  -11.159;35085.871
686.542;31003.082;  -11.169;34198.230
687.118;33276.832;   -5.959;32847.707
687.693;33533.551;  -10.329;32794.027
688.269;33323.094;  -12.059;33072.367
688.844;31643.088;  -10.909;33141.664
689.420;29730.371;   -8.019;33965.742
689.995;27901.445;   -8.399;34655.523
690.571;26551.264;  -10.949;33576.742
691.146;26525.410;   -9.619;32657.219
691.722;26200.279;   -8.999;32526.979
692.297;26041.273;  -11.589;33014.617
692.872;27470.373;  -11.739;34012.254
693.448;27155.721;  -11.059;34237.434
694.023;26100.500;  -10.139;34142.672
694.598;28126.615;   -9.029;34132.031
695.173;28906.104;  -13.319;34205.250
695.748;27959.623;  -10.169;32882.488
696.323;27789.262;   -8.339;32864.906
696.898;27954.881;   -8.169;33170.004
697.473;27984.121;  -12.309;32432.984
698.048;27194.057;  -10.989;31649.303
698.623;26925.686;   -9.329;30778.141
699.198;28474.520;   -9.849;31140.119
699.773;29802.805;  -12.329;31764.299
700.348;28584.525;  -10.389;31780.816
700.922;28511.596;   -9.269;32046.375
701.497;29402.193;   -9.329;32603.574
702.072;29503.127;  -10.789;34799.871
702.646;28228.674;  -10.839;35793.172
703.221;26319.268;   -9.099;35201.590
703.795;28217.971;  -10.939;34764.527
704.370;28614.311;  -12.859;34307.367
704.944;28777.189;  -11.559;33509.887
705.519;29420.924;   -7.939;31388.584
706.093;30701.563;  -10.499;31340.104
706.668;31109.195;  -11.289;32630.281
707.242;30039.801;  -11.509;32728.779
707.816;28804.131;   -9.639;32947.238
708.390;27243.793;  -11.429;33277.855
708.965;27687.920;  -11.869;33834.336
709.539;27847.682;  -11.689;33709.273
710.113;27929.627;  -10.478;33044.313
710.687;27257.768;  -10.228;31953.992
711.261;25680.064;  -13.698;30505.949
711.835;25715.662;  -13.378;30262.369
712.409;26314.658;   -9.698;31254.447
712.983;28244.379;  -11.898;32754.986
713.557;29487.514;  -15.138;34018.824
714.131;29316.592;  -14.098;34579.625
714.704;28216.934;   -9.958;33890.262
715.278;25703.328;  -10.028;33531.102
715.852;24629.311;  -11.148;33601.660
716.425;25807.125;   -9.068;33515.117
716.999;26849.285;  -10.038;33185.555
717.573;27606.963;   -9.798;33905.996
718.146;28527.764;  -12.378;35199.293
718.720;28620.523;  -11.918;35060.551
719.293;28444.717;   -8.088;34973.230
719.867;31331.805;  -10.888;36394.449
720.440;31104.352;  -11.938;36663.008
721.013;29205.080;  -12.818;35102.426
721.587;27616.920;  -10.298;33985.266
722.160;26476.369;  -10.048;33524.965
722.733;25554.014;  -12.108;32987.043
723.306;26001.941;  -10.818;33066.301
723.880;28030.438;   -8.908;33399.500
724.453;29977.840;   -9.878;33468.297
725.026;29136.193;  -11.188;33816.637
725.599;26487.988;  -11.678;32797.996
726.172;26649.279;   -9.618;33187.434
726.745;27744.732;   -8.258;35136.613
727.318;28984.510;  -12.978;35751.730
727.891;29575.068;  -12.148;35890.430
728.463;29118.979;   -8.968;34822.090
729.036;27825.516;  -10.188;32895.086
729.609;28326.551;  -11.788;31823.225
730.182;25520.068;  -11.788;31445.283
730.754;23144.189;  -10.268;32373.223
731.327;23520.043;   -9.998;33676.820
731.900;24012.840;  -12.228;33417.000
732.472;24888.029;  -13.848;31978.498
733.045;26410.539;   -8.698;30368.777
733.617;26369.000;  -10.607;30574.215
734.190;26534.715;  -11.507;31280.975
734.762;24131.340;  -13.647;31674.412
735.334;22238.379;   -9.767;31247.291
735.907;22604.635;   -9.897;29876.211
736.479;22759.314;  -11.637;29808.488
737.051;22464.277;   -9.567;30233.547
737.623;23029.361;   -8.187;31469.086
738.195;23507.623;  -11.187;31784.225
738.768;25736.928;  -12.337;32120.523
739.340;26506.043;  -12.227;32094.342
739.912;25478.076;  -11.057;31312.680
740.484;24036.328;  -10.207;31946.238
741.056;22613.555;  -10.047;32984.059
741.628;23896.461;  -13.627;33897.715
742.199;26026.799;   -7.177;33213.016
742.771;24721.824;  -10.797;31369.113
743.343;22674.219;  -11.997;31865.473
743.915;21719.797;  -12.867;32388.631
744.487;21712.068;   -7.617;31079.568
745.058;21697.055;   -9.557;30570.107
745.630;22280.771;   -9.877;29970.127
746.201;23531.551;  -14.177;29186.766
746.773;24322.785;   -9.237;28805.723
747.344;24104.256;   -9.847;29591.223
747.916;22290.609;  -11.657;31412.201
748.487;22248.631;  -10.587;32194.898
749.059;23593.311;   -8.707;32533.719
749.630;24422.883;  -10.537;32158.518
750.201;23660.160;  -11.687;30855.395
750.773;21900.193;  -11.647;28622.555
751.344;21561.158;   -7.147;28405.732
751.915;22479.725;   -9.757;28461.551
752.486;22530.217;  -12.427;27842.850
753.057;20491.814;  -12.227;27845.008
753.628;19294.645;  -10.417;27728.107
754.199;20210.297;  -11.767;27381.086
754.770;21233.443;  -11.187;25882.203
755.341;21414.717;  -10.507;25886.184
755.912;21516.156;   -9.387;26050.861
756.483;21104.039;  -10.647;26798.779
757.054;19365.430;  -11.837;27048.238
757.625;17907.813;  -12.716;26294.838
758.195;17696.707;   -9.666;26142.076
758.766;17446.010;   -8.656;26392.234
759.337;18060.666;  -12.856;26334.594
759.907;19515.809;  -13.366;27579.652
760.478;20372.293;   -8.576;28352.770
761.048;19846.521;  -10.526;27325.088
761.619;18883.645;  -11.116;26460.428
762.189;19043.609;  -12.136;26029.826
762.760;20142.342;   -9.456;26430.145
763.330;21178.543;   -7.136;26670.902
763.900;20721.291;  -11.786;26603.021
764.471;18249.051;  -11.546;25542.740
765.041;16776.627;   -8.096;24358.459
765.611;16612.146;   -8.876;23991.297
766.181;16991.906;  -12.196;24470.236
766.751;18192.283;  -11.636;24845.975
767.321;17961.230;  -10.156;24533.633
767.891;15844.311;  -11.766;24916.492
768.461;15203.073;  -14.936;24776.771
769.031;15741.948;  -12.356;24757.988
769.601;17414.230;   -7.526;24181.088
770.171;17537.773;  -10.766;23670.387
770.741;16734.326;  -13.176;22960.045
771.311;16841.389;  -10.616;22917.523
771.880;17338.689;   -9.576;23562.941
772.450;17232.152;  -10.336;24216.500
773.020;17261.943;  -13.516;24140.398
773.589;16467.551;  -13.466;24414.857
774.159;15811.005;   -8.686;23858.717
774.729;15438.938;   -9.476;22942.135
775.298;15026.092;  -13.666;22324.033
775.867;14563.770;  -11.716;21140.313
776.437;14714.087;   -9.906;20838.092
777.006;14517.000;  -12.166;20599.510
777.576;14208.063;  -12.356;20508.809
778.145;14165.288;  -11.646;20732.947
778.714;14178.180;   -8.226;21062.465
779.283;13681.135;   -9.556;20949.664
779.853;13164.373;  -14.116;20508.623
780.422;13531.245;  -11.506;20649.082
780.991;13140.024;   -9.556;21527.520
781.560;11891.663;   -9.095;22632.658
782.129;11676.957;  -12.135;23048.277
782.698;11670.776;  -10.865;23438.555
783.267;11261.524;   -9.335;23267.734
783.836;11195.822;  -11.045;22415.133
784.404;12199.430;  -13.865;20443.152
784.973;12866.061;  -13.095;19699.150
785.542;12916.554;  -11.575;19763.828
786.111;12727.507;   -9.705;20341.408
786.679;12235.306;  -12.105;20207.967
787.248;12005.936;  -12.455;19516.465
787.817;11829.854;  -11.535;18900.363
788.385;11457.229;   -9.765;17879.121
788.954;10881.697;  -14.005;17658.301
789.522;10272.368;  -11.955;17788.879
790.090;10679.314;  -10.135;18118.277
790.659;11245.045;  -10.975;18338.736
791.227;10837.835;  -13.375;18508.615
791.795;11205.696;  -12.375;17898.254
792.364;11503.030;  -10.725;17295.133
792.932;11805.662;   -9.715;16822.051
793.500;12089.933;  -12.675;17040.148
794.068;12374.079;  -13.495;17179.787
794.636;12544.395;  -10.885;16664.246
795.204;11887.041;  -11.045;16524.545
795.772;11872.850;  -13.175;17274.564
796.340;11420.378;  -12.445;17891.002
796.908;11203.320;   -9.735;17648.561
797.476;11074.758;   -9.815;17064.080
798.044;10631.276;  -13.985;16672.777
798.612; 9906.434;  -13.115;17023.996
799.180; 9501.767;  -10.185;16561.615
799.747; 9332.446;   -9.055;15962.773
800.315; 9073.084;  -12.385;15296.992
800.883; 8871.873;  -15.035;14801.771
801.450; 9025.808;  -10.365;14534.430
802.018; 9127.139;   -9.855;14173.248
802.585; 9125.509;  -11.905;14029.547
803.153; 9125.752;  -11.585;13836.846
803.720; 8964.544;   -9.095;13567.324
804.287; 8447.030;   -9.135;13360.622
804.855; 7964.343;  -11.604;13681.981
805.422; 7864.995;  -11.794;13536.560
805.989; 7945.340;  -10.734;13355.958
806.556; 8197.688;  -10.444;13747.896
807.124; 8485.710;  -12.764;13987.376
807.691; 8439.793;  -12.964;14038.674
808.258; 8219.438;  -11.134;14120.152
808.825; 7806.226;   -9.854;13860.111
809.392; 7894.224;  -10.504;13268.790
809.959; 7498.375;  -13.054;12680.389
810.526; 7043.260;   -8.294;12427.308
811.093; 7018.931;   -8.394;12030.105
811.659; 7583.071;  -12.304;11653.664
812.226; 8100.216;  -13.944;11637.183
812.793; 7836.794;  -10.484;11611.521
813.360; 7209.203;  -10.144;11885.181
813.926; 6903.187;  -11.684;12770.539
814.493; 6732.710;  -13.644;12677.638
815.060; 6373.266;   -9.724;11974.336
815.626; 6313.290;   -9.854;11594.715
816.193; 6671.646;  -13.254;11579.474
816.759; 6722.583;  -13.204;11666.972
817.325; 6764.272;   -9.434;11325.530
817.892; 7096.916;  -10.134;11105.369
818.458; 7518.245;  -13.474;10843.928
819.024; 7150.032;  -11.854;10714.406
819.591; 6850.634;  -10.244;10469.165
820.157; 6682.283;  -10.704;10235.523
820.723; 6225.129;  -12.324;10847.563
821.289; 5940.096;   -9.444;11040.980
821.855; 5870.066;   -8.374;10357.100
822.421; 5796.028;  -10.234; 9978.918
822.987; 5725.028;  -13.294; 9754.177
823.553; 5360.326;  -10.884;10065.755
824.119; 5175.598;   -8.884;10036.294
824.685; 5312.527;   -6.784;10029.192
825.251; 5431.476;  -12.004;10199.230
825.816; 5386.985;  -11.474; 9820.189
826.382; 5125.161;   -9.174; 9297.248
826.948; 5273.679;   -9.214; 9381.347
827.513; 5667.265;  -10.774; 9450.726
828.079; 5528.720;  -11.924; 9472.444
828.645; 4955.752;  -10.543; 9292.643
829.210; 4795.024;  -10.533; 9065.341
829.776; 4767.745;  -10.753; 9132.620
830.341; 4662.225;  -10.173; 9092.878
830.906; 4813.889;  -10.743; 9078.557
831.472; 5135.015;  -11.113; 8534.535
832.037; 4942.404;  -10.603; 8677.874
832.602; 4440.422;  -13.323; 8628.692
833.167; 4186.098;  -10.823; 8879.031
833.733; 4120.040;  -10.113; 9189.790
834.298; 4236.900;  -13.583; 9052.608
834.863; 4354.765;  -12.703; 8895.087
835.428; 4380.467;  -10.523; 8824.266
835.993; 4255.378;   -6.963; 8845.385
836.558; 4092.335;  -10.763; 8888.563
837.123; 4172.544;   -9.903; 8966.582
837.688; 4411.445;   -9.913; 8617.860
838.253; 4645.026;  -10.283; 8590.699
838.817; 4820.977;  -12.963; 8443.797
839.382; 4760.536;  -14.243; 8799.356
839.947; 4459.176;  -10.733; 8810.595
840.511; 4154.192;   -9.383; 8796.394
841.076; 3781.181;  -12.563; 8347.231
841.641; 3820.502;  -12.953; 8224.330
842.205; 3911.357;   -7.043; 8223.349
842.770; 3952.760;   -8.163; 8622.107
843.334; 4106.459;  -12.503; 8410.386
843.898; 4086.937;  -11.693; 8337.465
844.463; 4077.936;  -10.203; 8506.283
845.027; 3883.391;   -9.533; 8280.962
845.591; 3709.540;  -13.443; 8231.141
846.156; 3708.253;  -13.143; 7969.179
846.720; 3615.538;   -9.433; 7768.278
847.284; 3507.931;  -11.033; 7630.957
847.848; 3375.222;  -10.403; 7472.395
848.412; 3270.646;  -11.553; 7437.394
848.976; 3304.197;   -8.393; 7674.592
849.540; 3234.875;   -8.713; 7836.011
850.104; 3286.638;  -12.463; 7913.669
850.668; 3629.371;  -12.973; 7694.508
851.232; 3778.328;  -10.793; 7756.887
851.796; 3641.901;  -10.662; 7926.545
852.359; 3336.278;  -13.082; 7827.844
852.923; 3168.486;  -12.192; 7641.163
853.487; 3030.821;  -11.912; 7342.501
854.050; 3010.417;  -10.892; 7042.820
854.614; 3138.050;  -13.992; 7151.338
855.177; 3244.550;  -11.732; 7105.077
855.741; 3287.021;   -8.962; 6989.675
856.304; 3198.369;   -9.442; 6596.634
856.868; 3174.702;  -14.192; 6356.272
857.431; 3288.073;  -12.702; 6468.571
857.995; 3419.025;   -9.942; 6373.210
858.558; 3452.122;   -9.112; 6324.448
859.121; 3189.719;  -12.932; 6408.327
859.684; 3014.215;  -13.442; 6347.886
860.247; 3098.018;  -10.632; 6321.264
860.810; 3121.690;  -11.272; 6301.903
861.374; 2884.646;   -9.832; 6607.881
861.937; 2627.513;  -11.762; 6408.200
862.500; 2621.977;   -9.722; 6572.639
863.062; 2775.272;  -10.512; 6387.297
863.625; 2902.536;  -11.232; 6190.836
864.188; 3048.691;  -14.112; 5807.254
864.751; 3135.776;  -11.302; 5682.413
865.314; 3058.294;  -10.112; 5547.492
865.876; 2849.413;  -12.182; 5500.150
866.439; 2824.258;  -10.722; 5415.909
867.002; 2791.545;   -9.252; 5501.567
867.564; 2603.546;   -9.572; 5413.946
868.127; 2387.999;  -13.142; 5160.325
868.689; 2263.354;  -12.902; 5133.183
869.252; 2154.341;   -9.732; 5252.382
869.814; 2055.903;   -9.432; 5297.141
870.377; 2066.692;  -11.552; 5390.919
870.939; 2139.329;   -9.052; 5599.898
871.501; 2213.724;  -10.982; 5248.336
872.063; 2224.963;  -12.292; 4854.235
872.626; 2162.264;  -14.912; 4817.074
873.188; 2156.484;  -13.112; 4987.732
873.750; 2133.967;  -13.442; 4868.651
874.312; 2054.403;   -9.402; 4779.330
874.874; 1975.976;  -11.062; 4866.348
875.436; 1891.814;  -13.931; 4718.887
875.998; 1883.999;   -9.561; 4660.005
876.560; 1908.295;  -11.321; 4462.964
877.122; 1851.289;  -12.221; 4145.042
877.683; 1756.278;  -12.191; 4056.481
878.245; 1684.181;  -12.101; 3950.740
878.807; 1717.680;   -8.971; 4058.958
879.369; 1738.834;  -12.071; 3954.677
879.930; 1651.169;  -14.621; 3941.495
880.492; 1588.846;  -10.311; 4067.014
881.053; 1555.639;  -10.901; 3859.633
881.615; 1454.096;  -14.411; 3776.071
882.176; 1361.769;  -13.761; 3734.750
882.738; 1317.216;   -9.181; 3678.489
883.299; 1292.601;  -11.791; 3405.407
883.860; 1280.797;  -13.121; 3351.106
884.422; 1264.515;  -11.211; 3394.044
884.983; 1222.121;  -10.091; 3166.443
885.544; 1154.359;   -8.461; 3189.802
886.105; 1082.064;  -12.361; 3160.360
886.666; 1022.646;  -14.141; 3093.059
887.227;  967.544;  -11.361; 2941.957
887.788;  904.882;  -11.401; 2974.836
888.349;  838.282;  -13.791; 2721.214
888.910;  831.594;  -13.191; 2696.493
889.471;  836.136;   -9.881; 2560.172
890.032;  814.709;   -9.881; 2558.190
890.593;  787.589;  -10.371; 2567.669
891.153;  763.606;  -13.301; 2460.307
891.714;  720.419;  -11.431; 2372.046
892.275;  685.876;  -11.291; 2309.505
892.835;  652.005;  -11.471; 2382.543
893.396;  601.495;  -11.541; 2295.502
893.956;  545.584;  -11.181; 2162.420
894.517;  505.717;  -11.741; 2125.439
895.077;  499.810;  -11.671; 2086.978
895.638;  501.863;  -11.311; 2126.316
896.198;  475.518;   -9.831; 1838.275
896.758;  434.339;   -8.421; 1892.813
897.319;  403.622;  -12.351; 1792.232
897.879;  389.214;  -13.511; 1762.751
898.439;  364.807;  -12.001; 1661.149
898.999;  341.103;  -10.180; 1781.468
899.559;  329.645;  -12.030; 1703.347
900.119;  325.855;  -15.710; 1537.525
900.679;  322.584;   -8.900; 1638.384
901.239;  309.047;   -8.340; 1527.902
901.799;  298.406;  -13.910; 1456.441
902.359;  291.698;  -13.460; 1357.140
902.919;  285.437;  -11.490; 1331.118
903.479;  272.773;  -12.110; 1317.257
904.038;  253.853;  -11.720; 1262.595
904.598;  239.099;  -13.610; 1152.034
905.158;  235.116;  -11.040; 1240.893
905.717;  229.625;  -10.900; 1233.691
906.277;  218.012;  -15.080; 1217.330
906.836;  209.468;  -13.380; 1222.408
907.396;  200.264;  -10.780; 1193.047
907.955;  194.679;   -8.500; 1182.526
908.515;  188.408;  -12.760; 1099.364
909.074;  182.385;  -11.900; 1092.863
909.633;  177.964;   -8.950; 1069.121
910.192;  173.534;   -8.770; 1196.460
910.752;  168.366;  -12.390; 1029.960
911.311;  163.239;  -13.680; 1009.780
911.870;  161.816;  -12.370;  971.460
912.429;  162.723;  -10.900; 1094.080
912.988;  161.370;  -11.690; 1081.060
913.547;  157.174;  -13.240;  940.380
914.106;  152.257;  -11.990;  999.420
914.665;  149.006;   -9.990;  984.020
915.224;  148.412;  -12.880; 1035.760
915.782;  148.519;  -12.350;  922.560
916.341;  148.039;   -9.110; 1049.840
916.900;  144.356;   -9.270;  925.260
917.458;  141.513;  -13.240;  884.220
918.017;  141.412;  -13.550;  942.600
918.576;  141.301;  -12.320;  904.440
919.134;  139.743;  -11.490;  837.980
919.693;  138.496;  -13.670;  893.060
920.251;  135.948;  -15.470;  876.500
920.809;  134.966;  -11.290;  839.580
921.368;  135.115;  -10.210;  885.360
921.926;  133.855;  -12.140;  842.940
922.484;  132.668;  -13.080;  903.360
923.042;  132.836;  -11.720;  880.340
923.601;  135.163;   -7.480;  998.680
924.159;  133.743;  -11.570;  935.560
924.717;  129.804;  -13.840;  841.080
925.275;  129.482;  -10.640;  903.240
925.833;  129.605;  -11.540;  779.320
926.391;  130.795;  -12.960;  938.380
926.949;  128.611;  -14.130;  857.680
927.506;  130.023;  -11.750;  903.500
928.064;  129.655;  -10.250;  877.580
928.622;  129.430;  -13.030;  880.100
929.180;  128.321;  -13.400;  814.180
929.737;  129.343;  -10.700;  808.540
930.295;  132.838;  -10.070;  928.480
930.853;  134.910;  -11.960;  849.100
931.410;  134.843;  -13.120;  821.120
931.968;  134.597;  -10.770;  940.660
932.525;  134.062;  -10.680;  909.380
933.082;  134.438;  -13.130;  811.440
933.640;  135.246;  -13.210;  925.900
934.197;  133.940;  -11.060;  886.360
934.754;  134.929;   -9.580;  897.780
935.312;  137.658;  -14.000;  863.340
935.869;  140.843;  -10.710; 1012.980
936.426;  141.546;   -9.860;  872.800
936.983;  142.185;   -9.710;  889.020
937.540;  141.856;  -13.990;  838.280
938.097;  141.113;  -14.040;  940.120
938.654;  141.580;  -10.310;  898.860
939.211;  144.378;  -10.560;  952.480
939.768;  146.831;  -13.900;  915.420
940.324;  150.587;  -14.760;  904.200
940.881;  152.200;  -10.370;  878.500
941.438;  153.929;   -8.260; 1021.200
941.995;  149.837;  -12.540;  992.560
942.551;  146.421;  -14.670;  875.620
943.108;  146.636;  -10.450;  937.920
943.664;  148.937;  -10.750;  869.340
944.221;  151.788;  -11.550; 1088.140
944.777;  149.125;  -14.770;  869.680
945.334;  149.858;  -12.820;  884.840
945.890;  151.190;  -10.130;  946.480
946.446;  151.383;  -13.470;  947.020
947.003;  152.750;  -12.120;  964.940
947.559;  155.909;   -9.980; 1063.040
948.115;  154.988;   -9.080; 1026.540
948.671;  153.148;  -10.830;  967.300
949.227;  150.664;  -12.440;  859.560
949.783;  148.094;  -12.910;  858.900
950.339;  150.032;  -10.270;  991.000
950.895;  150.856;  -13.630; 1023.840
951.451;  149.753;  -15.100;  925.280
952.007;  149.365;  -11.330;  998.540
952.563;  149.072;  -10.580;  937.780
953.118;  147.375;  -13.440;  904.940
953.674;  146.743;  -12.710;  935.780
954.230;  146.267;  -10.350;  949.640
954.785;  144.642;   -9.190;  936.640
955.341;  143.322;  -11.200;  998.160
955.897;  141.133;  -16.560;  834.660
956.452;  143.048;  -12.570;  953.840
957.008;  142.532;   -7.970; 1083.640
957.563;  139.828;  -11.940; 1009.540
958.118;  135.421;  -13.450;  877.700
958.674;  134.989;  -12.030;  946.780
959.229;  137.319;   -9.410; 1013.980
959.784;  135.196;  -12.000;  832.400
960.339;  133.678;  -14.780; 1001.280
960.894;  130.857;   -9.860;  963.760
961.449;  127.174;   -9.970;  859.960
962.004;  127.195;  -10.900; 1212.840
962.559;  121.773;  -13.150;  860.140
963.114;  118.903;  -13.740;  742.480
963.669;  118.586;   -9.820;  915.500
964.224;  118.042;  -13.890;  874.340
964.779;  116.763;  -12.600;  828.420
965.334;  116.595;  -10.950; 1017.860
965.888;  115.999;  -11.170;  875.360
966.443;  118.754;  -12.540;  972.380
966.998;  117.516;  -15.780;  819.460
967.552;  117.834;   -9.760;  908.380
968.107;  114.697;   -9.060;  868.300
968.661;  115.541;  -11.950;  922.440
969.216;  115.599;  -12.800;  856.280
969.770;  115.354;  -11.210;  917.200
970.324;  114.402;  -11.610;  923.140
970.879;  111.764;  -11.370;  947.180
971.433;  108.610;  -12.540;  952.720
971.987;  103.070;  -11.320;  895.340
972.541;  100.168;  -10.720;  917.100
973.095;  100.279;   -9.680; 1009.460
973.649;   97.815;  -11.440;  809.480
974.203;   97.420;  -11.210;  829.040
974.757;   97.719;  -10.240;  855.220
975.311;   97.670;  -13.720;  872.600
975.865;   97.112;  -13.770;  881.820
976.419;   95.316;  -11.690;  857.400
976.973;   95.705;   -9.510;  849.620
977.526;   96.924;  -12.620;  949.920
978.080;   95.976;  -12.010;  796.780
978.634;   97.406;  -10.170;  921.320
979.187;   95.518;   -9.020;  905.400
979.741;   93.738;   -9.820; 1018.380
980.294;   88.124;  -14.870;  789.160
980.848;   86.090;  -12.380;  717.220
981.401;   88.330;  -10.350;  816.540
981.955;   90.052;  -13.720;  844.300
982.508;   89.192;  -11.490;  746.340
983.061;   89.614;  -10.000;  915.260
983.615;   86.323;  -11.480;  798.800
984.168;   82.817;  -13.220;  770.080
984.721;   82.195;  -13.960;  880.760
985.274;   81.770;  -10.870;  867.500
985.827;   80.594;   -9.790;  834.220
986.380;   78.481;  -13.120;  721.340
986.933;   77.561;  -12.450;  864.800
987.486;   76.270;  -10.210;  861.920
988.039;   75.063;   -8.430;  863.100
988.591;   72.624;  -10.520;  893.260
989.144;   70.360;  -14.860;  737.260
989.697;   69.539;  -13.080;  758.740
990.250;   70.301;  -10.150;  858.100
990.802;   69.292;  -13.430;  755.860
991.355;   69.745;  -12.750;  974.880
991.907;   67.623;  -12.040;  864.320
992.460;   65.501;  -11.330;  753.760
993.012;   64.749;  -13.610;  749.540
993.565;   63.225;  -13.460;  711.360
994.117;   64.935;   -9.360;  950.780
994.669;   62.313;  -11.300;  701.320
995.221;   60.683;  -13.540;  791.920
995.774;   59.010;  -13.430;  787.580
996.326;   57.344;  -12.520;  740.220
996.878;   57.132;  -10.950;  838.420
997.430;   55.108;  -14.300;  699.860
997.982;   53.586;  -13.760;  750.140
998.534;   53.159;  -11.530;  739.060
999.086;   52.456;  -10.310;  738.220
999.638;   52.511;  -12.530;  661.380
1000.190;   50.365;  -11.840;  699.320
1000.741;   49.850;  -10.260;  742.700
1001.293;   50.091;   -8.860;  686.020
1001.845;   48.613;  -13.700;  676.640
1002.396;   48.992;  -12.100;  743.400
1002.948;   48.171;  -12.760;  737.400
1003.500;   46.585;  -10.380;  723.780
1004.051;   47.719;  -11.900;  907.580
1004.603;   45.612;  -12.250;  791.820
1005.154;   42.263;  -13.210;  608.980
1005.705;   41.227;  -10.950;  723.960
1006.257;   40.495;  -13.880;  707.220
1006.808;   39.407;  -12.840;  685.460
1007.359;   39.397;  -10.570;  763.240
1007.910;   38.314;   -9.620;  646.640
1008.461;   38.504;  -13.630;  732.940
1009.013;   37.592;  -17.200;  588.340
1009.564;   38.539;  -10.200;  793.520
1010.115;   35.653;  -12.570;  597.040
1010.665;   35.874;  -15.150;  602.160
1011.216;   36.245;  -14.480;  667.920
1011.767;   35.344;  -11.340;  697.920
1012.318;   35.193;   -9.780;  736.980
1012.869;   34.477;  -12.380;  679.000
1013.419;   34.073;  -15.560;  603.120
1013.970;   34.583;  -11.010;  666.640
1014.521;   34.279;  -11.610;  620.620
1015.071;   34.011;  -13.450;  670.380
1015.622;   33.057;  -13.870;  635.460
1016.172;   33.574;  -11.610;  596.820
1016.723;   33.142;  -12.120;  614.380
1017.273;   32.473;  -13.620;  604.160
1017.823;   32.973;  -14.140;  650.340
1018.374;   31.942;  -12.800;  611.760
1018.924;   32.183;  -12.340;  716.880
1019.474;   32.219;  -11.410;  718.880
1020.024;   30.930;  -14.770;  657.580
1020.574;   31.226;   -9.780;  726.160
1021.124;   31.048;   -8.560;  673.580
1021.674;   30.034;  -15.190;  559.120
1022.224;   31.512;  -13.530;  708.940
1022.774;   30.883;  -13.280;  668.820
1023.324;   31.615;  -10.690;  753.520
1023.874;   32.502;  -10.240;  875.760
1024.423;   29.418;  -12.540;  613.700
1024.973;   28.917;  -10.010;  610.760
1025.523;   28.834;  -10.550;  620.960
1026.072;   28.901;  -13.560;  606.420
1026.622;   27.915;  -15.120;  675.740
1027.172;   30.137;  -11.260;  715.660
1027.721;   28.393;  -11.410;  601.220
1028.270;   28.900;  -13.530;  663.400
1028.820;   28.512;  -13.680;  638.080
1029.369;   28.031;  -13.520;  612.700
1029.918;   27.880;  -10.980;  649.840
1030.468;   27.395;  -13.530;  564.780
1031.017;   27.821;  -13.170;  634.800
1031.566;   26.415;  -12.200;  608.900
1032.115;   27.691;   -9.960;  694.500
1032.664;   26.402;  -13.210;  596.480
1033.213;   27.350;  -12.500;  735.420
1033.762;   25.953;  -11.910;  635.620
1034.311;   25.743;   -9.640;  677.220
1034.860;   26.584;  -13.310;  691.000
1035.408;   26.302;  -11.830;  722.720
1035.957;   26.457;  -12.000;  719.540
1036.506;   24.622;  -11.690;  530.800
1037.055;   27.355;  -10.990;  844.320
1037.603;   25.203;  -15.120;  664.000
1038.152;   23.992;  -12.450;  534.760
1038.700;   25.207;  -10.560;  585.740
1039.249;   24.050;  -11.080;  681.220
1039.797;   24.221;  -12.540;  633.360
1040.345;   24.528;  -11.920;  705.420
1040.894;   24.192;  -11.410;  625.300
1041.442;   24.025;  -14.320;  632.200
1041.990;   22.899;  -16.240;  559.160
1042.538;   22.192;  -11.680;  536.180
1043.087;   22.779;  -10.760;  570.860
1043.635;   24.174;  -11.850;  670.500
1044.183;   22.755;  -15.480;  586.400
1044.731;   21.882;  -11.770;  576.000
1045.279;   22.452;  -13.090;  674.920
1045.827;   24.527;  -12.440;  892.400
1046.374;   21.202;  -13.840;  515.420
1046.922;   21.033;  -13.220;  590.580
1047.470;   22.774;  -10.230;  691.300
1048.018;   23.095;  -14.590;  647.960
1048.565;   22.477;  -12.050;  708.600
1049.113;   20.920;  -11.650;  557.000
1049.660;   20.911;  -10.510;  629.660
1050.208;   21.543;  -13.310;  675.640
1050.755;   20.913;  -15.900;  606.580
1051.303;   21.576;  -11.430;  686.820
1051.850;   20.600;   -8.480;  635.120
1052.397;   18.766;  -15.010;  473.960
1052.945;   20.621;  -13.960;  617.760
1053.492;   20.843;  -13.150;  741.840
1054.039;   21.486;   -9.630;  720.180
1054.586;   19.397;  -13.680;  557.240
1055.133;   20.183;  -14.570;  693.140
1055.680;   20.486;  -13.820;  646.620
1056.227;   18.950;  -11.730;  542.780
1056.774;   20.894;  -12.480;  794.980
1057.321;   18.909;  -13.930;  523.260
1057.868;   18.927;  -11.690;  651.320
1058.415;   18.873;   -9.520;  651.980
1058.961;   19.306;  -13.160;  678.940
1059.508;   19.038;  -12.920;  643.820
1060.055;   18.472;  -11.920;  581.780
1060.601;   19.015;  -11.500;  624.300
1061.148;   18.601;  -14.330;  616.820
1061.694;   17.373;  -16.870;  592.580
1062.241;   17.447;  -10.330;  596.320
1062.787;   17.562;  -10.620;  663.140
1063.334;   20.146;  -10.110;  808.560
1063.880;   17.432;  -13.400;  668.360
1064.426;   17.392;  -10.680;  706.820
1064.972;   17.066;   -9.920;  601.340
1065.518;   16.404;  -10.980;  566.640
1066.065;   17.525;  -14.890;  624.460
1066.611;   16.273;  -12.870;  598.800
1067.157;   17.257;  -12.950;  641.860
1067.703;   17.509;  -13.540;  668.480
1068.249;   16.160;  -13.540;  605.220
1068.794;   16.104;  -12.600;  626.880
1069.340;   15.462;  -10.620;  578.960
1069.886;   16.482;  -12.830;  590.700
1070.432;   15.490;  -14.870;  541.720
1070.977;   15.602;  -11.980;  601.080
1071.523;   15.254;   -8.200;  573.060
1072.068;   15.858;  -12.330;  582.000
1072.614;   15.758;  -16.370;  527.760
1073.160;   15.852;  -11.100;  687.040
1073.705;   14.282;  -10.480;  572.520
1074.250;   15.467;  -14.520;  559.900
1074.796;   15.896;  -11.460;  655.160
1075.341;   15.108;  -11.950;  664.100
1075.886;   15.078;  -11.460;  594.240
1076.431;   15.281;  -13.770;  649.880
1076.976;   14.435;  -12.680;  639.220
1077.521;   13.613;  -13.170;  583.080
1078.067;   13.306;  -10.860;  579.400
1078.612;   14.224;  -13.920;  661.620
1079.156;   14.406;  -13.880;  601.540
1079.701;   14.411;  -13.120;  693.260
1080.246;   15.272;   -9.940;  696.300
1080.791;   13.734;  -14.740;  625.020
1081.336;   14.328;  -13.750;  659.320
1081.880;   13.767;  -13.400;  649.680
1082.425;   13.255;  -12.220;  573.480
1082.970;   14.505;  -11.610;  717.040
1083.514;   12.631;  -13.580;  597.000
1084.059;   12.611;  -12.810;  586.720
1084.603;   12.509;  -12.320;  565.840
1085.147;   13.015;  -13.190;  645.220
1085.692;   12.737;  -12.480;  716.800
1086.236;   11.656;  -13.020;  503.140
1086.780;   14.297;   -9.190;  751.440
1087.325;   12.891;  -12.480;  654.620
1087.869;   12.454;  -12.450;  610.700
1088.413;   12.870;  -12.240;  705.040
1088.957;   11.096;   -9.020;  543.400
1089.501;   13.492;  -10.320;  766.640
1090.045;   11.682;  -12.720;  726.480
1090.589;   10.100;  -13.690;  569.920
1091.133;   11.816;  -10.020;  673.340
1091.676;   11.836;  -12.330;  591.940
1092.220;   11.731;  -14.970;  600.920
1092.764;   11.567;  -12.430;  706.960
1093.307;   11.664;   -9.800;  673.780
1093.851;   10.954;  -14.970;  556.540
1094.395;   11.258;  -15.310;  683.140
1094.938;   10.246;  -10.370;  632.520
1095.482;   10.527;  -11.050;  559.800
1096.025;   10.705;  -11.840;  710.880
1096.568;   11.603;  -12.840;  779.280
1097.112;    8.157;  -14.700;  508.180
1097.655;   10.909;   -8.720;  603.000
1098.198;    9.718;  -13.610;  600.180
1098.741;    9.189;  -13.350;  612.860
1099.285;   10.209;  -11.230;  657.300
1099.828;    8.251;  -11.840;  439.400
1100.371;    9.226;  -10.840;  608.160
1100.914;    9.500;  -14.190;  682.660
1101.457;    9.333;  -11.240;  679.900
1101.999;    8.449;  -11.270;  584.680
1102.542;    8.961;  -11.480;  641.440
1103.085;    9.479;  -11.750;  658.500
1103.628;    9.307;  -11.400;  762.060
1104.170;    8.882;  -10.490;  588.280
1104.713;    9.314;  -10.600;  646.700
1105.256;    8.149;  -14.360;  557.440
1105.798;    7.146;  -13.210;  499.980
1106.341;   10.132;  -10.270;  728.900
1106.883;    8.907;  -12.200;  521.340
1107.425;    8.582;  -13.110;  668.180
1107.968;    7.928;  -12.840;  612.380
1108.510;    8.782;   -6.480;  684.960
1109.052;    7.417;  -13.940;  612.620
1109.594;    7.497;  -13.690;  554.440
1110.136;    7.948;  -11.880;  643.220
1110.679;    7.489;   -9.500;  633.080
1111.221;    7.669;  -14.160;  604.460
1111.763;    6.876;  -13.980;  559.220
1112.304;    6.264;  -13.880;  547.140
1112.846;    7.480;  -12.210;  666.240
1113.388;   10.265;  -11.390;  942.180
1113.930;    6.874;  -14.540;  694.200
1114.472;    6.636;  -12.640;  606.540
1115.013;    5.645;  -11.620;  551.280
1115.555;    5.557;  -13.640;  587.100
1116.097;    4.882;  -15.380;  579.480
1116.638;    6.278;  -12.640;  684.600
1117.180;    7.157;   -9.850;  667.740
1117.721;    5.777;  -13.690;  568.580
1118.262;    6.883;  -12.680;  677.960
1118.804;    6.541;  -12.530;  637.340
1119.345;    5.781;  -11.690;  578.400
1119.886;    6.759;  -13.380;  704.040
1120.427;    5.838;  -14.070;  589.020
1120.969;    4.864;  -13.500;  597.920
1121.510;    4.678;  -11.480;  563.060
1122.051;    5.823;  -12.830;  723.580
1122.592;    4.807;  -14.290;  655.420
1123.133;    4.041;  -12.400;  547.940
1123.673;    6.363;  -10.130;  706.480
1124.214;    5.122;  -12.930;  612.460
1124.755;    5.878;  -14.380;  639.460
1125.296;    4.718;  -14.000;  627.320
1125.836;    5.827;  -10.070;  691.500
1126.377;    4.239;  -12.640;  599.660
1126.918;    5.701;  -12.960;  614.980
1127.458;    3.592;  -13.350;  622.220
1127.999;    5.033;  -10.750;  656.980
1128.539;    5.010;  -12.350;  694.240
1129.079;    4.579;  -14.860;  632.720
1129.620;    3.472;  -13.840;  558.100
1130.160;    3.278;  -12.330;  539.480
1130.700;    4.617;  -14.530;  640.840
1131.240;    4.685;  -12.530;  643.700
1131.781;    3.889;  -14.450;  619.680
1132.321;    3.492;   -9.790;  599.120
1132.861;    3.148;  -14.860;  564.200
1133.401;    2.494;  -14.290;  593.940
1133.941;    3.822;  -11.750;  626.280
1134.481;    2.858;   -9.920;  597.580
1135.020;    2.674;  -12.290;  609.160
1135.560;    3.321;  -11.650;  674.940
1136.100;    2.634;  -16.270;  501.160
1136.640;    2.718;  -10.890;  510.480
1137.179;    2.842;  -14.180;  537.960
1137.719;    2.118;  -16.250;  605.400
1138.258;    2.412;  -14.230;  587.360
1138.798;    3.190;   -9.090;  663.780
1139.337;    1.196;  -15.130;  482.840
1139.877;    3.313;  -13.680;  642.360
1140.416;    4.712;  -11.320;  878.060
1140.955;    2.122;  -10.860;  535.380
1141.494;    2.906;  -12.920;  669.280
1142.034;    1.859;  -13.930;  583.520
1142.573;    2.949;  -11.440;  646.280
1143.112;    1.730;  -12.000;  553.480
1143.651;    1.912;  -13.670;  536.480
1144.190;    2.560;  -12.730;  691.640
1144.729;    1.416;  -14.560;  607.420
1145.267;    2.250;  -11.830;  584.900
1145.806;    2.351;  -12.230;  637.040
1146.345;    1.611;  -14.130;  635.020
1146.884;    1.385;  -11.590;  622.500
1147.422;    0.852;  -12.550;  533.060
1147.961;    2.679;  -11.180;  708.460
1148.500;    2.019;  -11.510;  669.720
1149.038;    2.094;  -11.640;  632.500
1149.577;    1.743;  -10.130;  698.640
1150.115;   -0.077;  -13.970;  452.280
1150.653;    1.885;  -14.520;  607.340
1151.192;    0.937;  -12.810;  552.920
1151.730;    1.346;   -9.100;  652.560
1152.268;    0.577;  -12.220;  589.520
1152.806;    0.449;  -14.140;  571.180
1153.344;   -0.192;  -12.350;  577.640
1153.882;    0.632;   -8.980;  600.060
1154.421;   -1.010;  -15.190;  470.620
1154.958;   -0.129;  -15.210;  595.240
1155.496;    0.648;  -12.850;  645.280
1156.034;    0.828;   -9.940;  721.880
1156.572;    1.491;  -13.570;  667.060
1157.110;   -0.613;  -14.590;  473.940
1157.647;    0.418;  -13.030;  676.960
1158.185;   -0.228;  -12.140;  564.320
1158.723;   -0.928;  -14.390;  509.200
1159.260;    0.170;  -14.090;  701.700
1159.798;    0.127;  -11.920;  658.160
1160.335;   -0.449;  -11.110;  631.820

