
Integration time [ms]:   4.984
Averaging Nr. [scans]: 1000
Smoothing Nr. [pixels]: 0
Data measured with spectrometer [name]: 7414430SP
Wave   ;Sample   ;Dark     ;Reference
[nm]   ;[counts] ;[counts] ;[counts] 

288.544;   16.698;    4.010;  793.890
289.143;   12.427;    6.120;  681.602
289.742;   19.572;   15.950;  828.814
290.341;    3.082;    4.280;  789.841
290.940;   -4.966;   -3.740;  730.702
291.538;    5.236;    4.150;  881.108
292.137;   -2.380;   -2.240;  792.581
292.736;   -1.284;    1.080;  975.101
293.335;  -13.975;   -7.560;  735.086
293.934;  -10.511;   -2.280;  781.677
294.532;   -8.909;   -0.680; 1031.958
295.131;  -22.769;   -3.490;  834.394
295.730;  -22.713;   -7.110;  809.588
296.328;  -26.614;   -5.590;  783.442
296.927;  -30.616;   -5.220;  779.652
297.525;  -25.898;   -3.830;  781.236
298.124;  -40.733;  -10.920;  654.009
298.722;  -27.416;   -5.650;  761.933
299.321;  -34.674;   -6.180;  708.597
299.919;  -32.157;   -1.380;  751.918
300.518;  -43.898;  -11.870;  689.338
301.116;  -33.581;   -8.030;  691.381
301.715;  -30.328;   -3.350;  730.222
302.313;  -31.158;   -7.500;  704.943
302.911;  -42.730;   -8.620;  733.830
303.509;  -29.485;   -4.960;  925.627
304.108;  -29.142;   -2.750;  760.383
304.706;  -28.288;   -5.910;  801.664
305.304;  -42.420;   -9.850;  796.707
305.902;  -23.869;   -2.990;  784.484
306.500;  -36.518;   -7.260;  728.200
307.098;  -32.105;   -1.110;  746.560
307.696;  -34.534;   -6.050;  780.432
308.294;  -32.655;   -5.160;  731.359
308.892;  -29.421;   -6.140;  759.769
309.490;  -29.197;   -0.840;  712.161
310.088;  -38.197;   -7.580;  788.444
310.686;  -22.617;   -0.130;  821.749
311.284;  -28.873;    2.760;  766.040
311.882;  -33.763;   -2.520;  731.225
312.480;  -36.964;   -2.420;  697.167
313.078;  -30.268;    0.490;  808.331
313.675;  -27.002;   -1.910;  691.600
314.273;  -34.079;    0.960;  797.837
314.871;  -36.907;   -6.940;  589.829
315.468;  -35.501;   -3.320;  652.090
316.066;  -22.914;    2.660;  694.427
316.664;  -37.812;   -2.620;  656.351
317.261;  -28.378;   -0.760;  910.128
317.859;  -35.814;   -3.220;  768.735
318.456;  -29.179;   -1.140;  830.096
319.054;  -29.511;    2.010;  787.828
319.651;  -34.125;   -2.140;  759.928
320.249;  -32.269;   -0.310;  810.188
320.846;  -30.476;    0.750;  714.286
321.443;  -33.181;   -1.870;  832.135
322.041;  -39.695;   -7.520;  812.315
322.638;  -35.556;   -2.280;  701.456
323.235;  -28.756;   -1.830;  665.683
323.833;  -37.418;   -7.500;  740.354
324.430;  -34.895;   -4.270;  615.900
325.027;  -32.200;   -4.390;  876.855
325.624;  -26.209;   -1.800;  644.532
326.221;  -30.783;   -6.460;  689.717
326.818;  -35.232;   -8.680;  818.332
327.415;  -21.397;   -2.250;  748.828
328.012;  -26.221;   -5.100;  690.585
328.609;  -27.174;   -5.700;  731.389
329.206;  -31.190;   -9.990;  778.621
329.803;  -28.385;   -4.470;  737.841
330.400;  -28.362;   -5.910;  704.260
330.997;  -25.422;   -2.770;  817.147
331.594;  -36.441;   -7.750;  788.185
332.191;  -32.198;   -9.040;  728.722
332.787;  -30.222;   -3.430;  844.463
333.384;  -36.181;   -0.740;  763.093
333.981;  -50.000;   -8.150;  815.687
334.578;  -46.652;   -6.800;  708.378
335.174;  -40.745;    0.200;  731.469
335.771;  -50.436;   -4.720;  836.456
336.367;  -55.178;   -4.910;  710.631
336.964;  -50.594;   -5.110;  793.266
337.561;  -51.521;   -1.080;  731.112
338.157;  -61.294;   -3.570;  911.916
338.754;  -65.475;   -7.730;  796.589
339.350;  -65.157;   -5.340;  722.493
339.946;  -57.151;   -0.140;  773.135
340.543;  -70.431;   -5.280;  846.136
341.139;  -75.409;   -6.850;  720.836
341.735;  -78.485;   -5.190;  772.593
342.332;  -75.173;   -2.870;  691.472
342.928;  -74.095;   -5.300;  795.394
343.524;  -78.095;   -3.720;  761.684
344.120;  -80.897;   -3.190;  738.562
344.716;  -71.256;   -0.410;  723.717
345.313;  -72.051;   -4.380;  795.342
345.909;  -78.799;  -10.670;  627.336
346.505;  -70.268;   -4.300;  740.247
347.101;  -67.952;   -2.240;  827.864
347.697;  -67.106;   -4.320;  785.398
348.293;  -70.584;   -6.470;  627.244
348.889;  -72.679;   -9.500;  745.914
349.485;  -63.150;    1.180;  688.205
350.081;  -65.835;   -3.560;  772.592
350.676;  -74.397;   -9.270;  691.606
351.272;  -63.769;   -6.230;  809.530
351.868;  -59.828;   -0.610;  780.497
352.464;  -63.835;   -4.750;  723.932
353.059;  -70.948;   -8.880;  646.017
353.655;  -66.849;   -7.240;  777.063
354.251;  -56.971;   -0.500;  759.845
354.846;  -67.673;   -7.140;  740.646
355.442;  -74.647;   -7.940;  753.071
356.038;  -65.578;   -4.240;  751.708
356.633;  -67.956;   -4.860;  728.594
357.229;  -66.924;   -3.410;  724.757
357.824;  -71.151;   -7.260;  703.600
358.420;  -69.496;   -4.290;  679.726
359.015;  -68.479;   -4.690;  695.357
359.610;  -69.019;   -9.060;  763.920
360.206;  -73.522;   -8.330;  603.240
360.801;  -69.975;  -10.080;  646.503
361.396;  -64.958;   -5.460;  725.975
361.992;  -72.150;   -7.870;  668.220
362.587;  -76.577;   -8.290;  670.160
363.182;  -69.246;   -6.180;  689.631
363.777;  -70.351;   -4.460;  738.242
364.372;  -69.950;   -5.160;  737.314
364.967;  -75.437;   -8.600;  680.744
365.563;  -64.576;   -4.150;  815.567
366.158;  -68.991;   -4.240;  685.161
366.753;  -67.497;   -7.420;  649.263
367.348;  -72.821;   -9.740;  746.056
367.942;  -69.918;   -7.990;  697.298
368.537;  -69.667;   -4.590;  754.245
369.132;  -70.724;   -6.810;  703.428
369.727;  -76.546;   -9.290;  638.079
370.322;  -74.960;   -7.060;  580.186
370.917;  -73.185;   -3.010;  710.646
371.511;  -65.863;   -0.960;  861.834
372.106;  -74.856;   -8.730;  776.964
372.701;  -77.932;   -6.610;  585.988
373.296;  -67.516;   -2.890;  863.135
373.890;  -75.964;   -6.400;  647.840
374.485;  -77.487;   -6.650;  691.199
375.079;  -70.518;   -3.070;  738.685
375.674;  -71.668;   -6.240;  812.970
376.268;  -72.197;   -3.430;  691.759
376.863;  -87.779;  -12.220;  580.327
377.457;  -71.398;   -5.240;  662.490
378.052;  -74.146;   -2.690;  764.884
378.646;  -76.462;   -6.120;  741.167
379.240;  -78.002;   -6.930;  721.176
379.835;  -72.342;   -5.490;  636.978
380.429;  -77.557;   -5.540;  562.557
381.023;  -75.735;   -3.860;  779.205
381.617;  -79.911;   -7.820;  680.106
382.212;  -73.949;   -8.560;  685.303
382.806;  -69.594;   -2.190;  760.690
383.400;  -77.389;   -6.360;  672.281
383.994;  -78.890;   -8.170;  664.870
384.588;  -71.489;   -4.880;  697.701
385.182;  -66.805;   -6.080;  726.624
385.776;  -69.715;   -5.170;  706.875
386.370;  -77.131;   -9.740;  681.968
386.964;  -73.790;   -9.480;  684.155
387.558;  -68.825;   -6.290;  598.360
388.152;  -72.254;   -5.070;  681.959
388.745;  -72.066;   -6.790;  814.707
389.339;  -68.169;   -6.390;  747.642
389.933;  -65.804;   -5.220;  695.370
390.527;  -68.856;   -2.850;  859.029
391.120;  -79.170;   -7.590;  595.318
391.714;  -71.549;   -5.270;  711.633
392.308;  -66.815;   -2.860;  780.253
392.901;  -73.527;   -7.210;  642.460
393.495;  -77.258;   -9.770;  595.414
394.089;  -73.050;   -6.960;  760.452
394.682;  -72.841;   -4.520;  697.188
395.275;  -71.846;   -5.390;  719.927
395.869;  -76.847;   -8.060;  667.314
396.462;  -73.520;   -7.150;  616.609
397.056;  -63.811;    0.640;  776.621
397.649;  -75.305;   -6.180;  731.575
398.242;  -68.800;   -7.550;  712.645
398.836;  -67.263;   -6.590;  766.408
399.429;  -68.888;   -5.530;  631.041
400.022;  -73.593;   -5.450;  665.902
400.615;  -70.161;   -8.790;  805.609
401.208;  -66.990;   -7.880;  691.451
401.802;  -69.479;   -2.360;  699.329
402.395;  -73.842;   -7.830;  683.502
402.988;  -72.902;   -7.960;  696.627
403.581;  -67.859;   -6.750;  646.878
404.174;  -62.428;   -4.750;  686.568
404.767;  -70.888;   -9.360;  638.583
405.360;  -74.075;  -10.240;  621.445
405.953;  -63.157;   -4.870;  759.034
406.545;  -62.696;   -5.330;  725.342
407.138;  -68.755;   -7.770;  618.350
407.731;  -70.798;  -12.440;  613.303
408.324;  -57.399;   -5.910;  660.554
408.917;  -61.948;   -4.470;  681.864
409.509;  -65.197;   -5.580;  740.396
410.102;  -73.158;  -10.740;  643.948
410.695;  -56.402;   -5.650;  665.758
411.287;  -60.120;   -7.390;  599.821
411.880;  -58.921;   -6.580;  585.421
412.472;  -65.720;  -11.300;  613.092
413.065;  -64.119;   -7.910;  629.408
413.657;  -58.321;   -8.730;  576.678
414.250;  -55.865;   -6.740;  646.681
414.842;  -58.386;   -9.260;  676.353
415.434;  -58.550;  -10.170;  570.463
416.027;  -47.808;   -6.070;  652.196
416.619;  -50.559;   -3.120;  713.400
417.211;  -55.338;   -9.310;  599.352
417.804;  -45.816;   -6.990;  628.499
418.396;  -54.351;   -5.620;  607.643
418.988;  -50.090;   -7.190;  659.238
419.580;  -56.615;   -9.820;  568.276
420.172;  -54.410;  -11.260;  536.196
420.764;  -42.887;   -2.760;  672.482
421.356;  -47.786;  -10.050;  636.898
421.948;  -49.457;   -7.650;  677.661
422.540;  -38.527;   -5.110;  680.027
423.132;  -41.529;   -7.600;  600.641
423.724;  -46.150;   -6.890;  561.267
424.316;  -45.925;  -11.420;  621.345
424.908;  -37.722;   -7.410;  591.517
425.500;  -34.864;   -5.860;  647.978
426.092;  -34.073;   -7.870;  648.268
426.683;  -39.336;   -7.640;  684.836
427.275;  -32.252;   -9.650;  641.471
427.867;  -30.564;   -7.040;  668.948
428.458;  -26.979;   -5.230;  732.344
429.050;  -34.580;  -10.660;  680.749
429.642;  -28.721;   -6.110;  743.124
430.233;  -27.158;   -5.910;  569.356
430.825;  -28.481;   -9.550;  724.809
431.416;  -30.716;   -7.950;  698.241
432.008;  -25.146;   -7.710;  651.723
432.599;  -20.965;   -3.800;  656.073
433.190;  -30.762;  -10.670;  637.670
433.782;  -30.434;  -11.700;  590.395
434.373;  -16.438;   -6.020;  884.765
434.964;  -18.908;   -5.640;  602.920
435.556;  -22.186;   -5.880;  634.537
436.147;  -20.534;   -9.560;  758.490
436.738;  -19.775;   -7.230;  701.099
437.329;   -8.898;   -4.280;  721.723
437.920;  -25.679;   -9.360;  666.688
438.511;  -22.961;  -10.840;  564.526
439.103;  -11.450;   -8.700;  623.998
439.694;  -10.299;   -8.200;  681.583
440.285;   -7.024;   -4.500;  764.432
440.876;  -13.342;   -9.520;  845.738
441.466;  -11.119;   -9.420;  575.162
442.057;   -4.033;   -7.920;  665.814
442.648;   -5.885;   -6.180;  746.255
443.239;  -11.679;  -11.070;  620.477
443.830;   -1.932;  -10.140;  704.958
444.421;    3.575;   -6.270;  655.474
445.011;   -6.174;   -6.890;  693.619
445.602;   -6.373;   -8.540;  743.126
446.193;   -4.219;  -12.110;  488.117
446.783;    8.659;   -5.180;  640.397
447.374;   -3.982;   -7.030;  692.759
447.964;   -2.813;  -10.080;  713.770
448.555;   12.494;   -5.950;  822.742
449.145;    5.171;   -7.610;  662.853
449.736;    4.889;   -7.160;  803.179
450.326;    5.527;   -7.950;  713.626
450.917;   13.879;   -8.850;  675.324
451.507;   14.616;   -3.560;  600.661
452.097;   10.601;   -8.390;  746.267
452.688;   14.083;  -10.410;  742.160
453.278;   15.302;   -7.790;  566.840
453.868;   20.557;   -4.410;  793.550
454.458;   15.426;   -9.990;  651.141
455.048;   17.936;   -6.750;  711.783
455.639;   20.154;  -11.850;  567.096
456.229;   24.395;   -5.880;  710.694
456.819;   29.418;   -5.390;  751.158
457.409;   24.763;  -10.180;  773.993
457.999;   35.108;   -4.410;  737.505
458.589;   31.264;   -4.670;  686.606
459.179;   30.555;   -7.090;  717.658
459.769;   26.289;  -10.840;  627.099
460.358;   35.103;   -9.100;  797.262
460.948;   36.602;   -6.800;  689.503
461.538;   37.778;   -5.940;  660.677
462.128;   30.029;  -13.130;  664.934
462.717;   48.502;   -7.390;  710.326
463.307;   50.080;   -6.350;  705.846
463.897;   40.135;   -9.430;  656.942
464.486;   39.270;   -8.210;  837.128
465.076;   48.113;   -7.270;  733.776
465.666;   54.110;   -7.030;  652.900
466.255;   48.588;   -5.520;  785.651
466.845;   46.155;  -12.810;  666.749
467.434;   51.926;   -7.430;  725.873
468.023;   51.860;   -9.310;  658.357
468.613;   48.636;   -7.570;  713.946
469.202;   53.831;  -11.320;  646.507
469.791;   60.500;   -9.670;  737.811
470.381;   64.847;   -4.880;  742.813
470.970;   63.394;   -9.140;  711.099
471.559;   62.560;  -10.530;  733.291
472.148;   66.397;  -12.040;  675.737
472.738;   72.962;   -4.020;  765.466
473.327;   69.009;  -10.160;  637.529
473.916;   66.009;  -11.300;  737.446
474.505;   74.884;   -8.590;  751.703
475.094;   78.032;   -5.840;  806.570
475.683;   79.865;   -5.440;  797.699
476.272;   73.843;  -13.520;  730.632
476.861;   84.042;   -7.910;  706.754
477.449;   94.986;   -5.850;  728.487
478.038;   80.261;   -8.510;  692.513
478.627;   80.584;  -12.030;  714.852
479.216;   98.197;   -4.580;  769.441
479.805;   98.963;   -4.350;  783.375
480.393;   94.322;   -6.510; 1008.945
480.982;   95.144;   -5.200;  874.501
481.571;  102.321;  -10.370;  858.333
482.159;  108.831;   -7.320;  705.386
482.748;  104.048;   -9.610;  821.385
483.336;  109.896;   -8.720;  858.209
483.925;  111.793;   -5.990;  774.373
484.513;  120.075;   -9.750;  758.962
485.102;  118.332;   -6.250;  810.965
485.690;  130.252;   -7.990; 1011.050
486.278;  136.643;   -6.980;  979.329
486.867;  141.055;   -5.910;  809.662
487.455;  143.337;   -8.960;  898.229
488.043;  150.302;  -12.330;  748.361
488.631;  177.880;   -4.470; 1005.079
489.220;  196.386;   -5.420;  908.626
489.808;  215.058;  -11.060;  741.415
490.396;  257.230;   -8.740;  914.645
490.984;  302.769;   -9.520;  830.161
491.572;  361.227;   -5.450;  940.315
492.160;  410.635;   -5.500;  919.081
492.748;  466.204;  -10.710;  884.341
493.336;  582.361;   -8.210; 1019.693
493.924;  738.017;   -5.230;  958.077
494.512;  896.795;   -7.650; 1066.638
495.100; 1066.066;  -10.540; 1103.280
495.687; 1298.102;   -7.620; 1206.373
496.275; 1577.754;   -9.620; 1150.796
496.863; 1912.574;  -12.580; 1281.171
497.451; 2233.075;   -9.470; 1386.805
498.038; 2443.511;  -12.280; 1556.729
498.626; 2875.381;   -5.930; 1741.407
499.214; 3555.159;   -5.900; 2016.609
499.801; 4039.265;   -8.330; 2220.633
500.389; 4395.188;  -12.100; 2312.494
500.976; 4899.238;   -5.080; 2744.849
501.564; 5595.096;   -8.170; 3148.565
502.151; 6320.948;  -14.210; 3515.999
502.738; 6948.122;  -11.720; 3971.274
503.326; 7487.641;   -8.300; 4403.796
503.913; 8101.228;   -6.970; 5161.749
504.500; 8855.832;   -9.580; 5986.420
505.088; 9598.146;  -11.970; 6381.201
505.675;10223.797;   -5.420; 6925.547
506.262;10869.415;   -7.630; 7619.060
506.849;11771.102;  -10.060; 8733.969
507.436;12596.258;   -9.410; 9790.121
508.023;12397.041;   -5.740; 9985.472
508.610;12870.603;   -2.880;10434.618
509.197;14792.674;   -9.840;11198.435
509.784;15831.040;   -9.190;12391.194
510.371;16295.577;   -6.740;13603.713
510.958;16694.939;   -9.610;14426.586
511.545;16776.646;  -12.100;15243.775
512.132;16641.209;   -8.660;15945.876
512.719;18245.053;   -8.180;16340.369
513.305;20147.635;   -6.060;18011.766
513.892;21272.613;   -9.210;19754.971
514.479;22520.336;   -9.950;20967.805
515.066;23954.852;   -4.120;22299.793
515.652;25332.914;  -10.770;22908.660
516.239;26433.086;   -8.140;23798.875
516.825;27103.209;   -9.690;25567.275
517.412;27616.725;   -7.030;28154.959
517.998;27332.721;   -4.240;28344.111
518.585;25853.002;  -10.760;27134.219
519.171;26412.609;  -11.780;27268.576
519.758;28241.893;   -4.540;28964.129
520.344;28528.006;   -8.060;30664.494
520.930;29328.785;  -10.620;32550.605
521.516;30348.322;  -10.230;35422.895
522.103;31221.461;   -5.060;38280.004
522.689;32361.109;   -9.900;37835.117
523.275;33519.543;   -7.570;37288.613
523.861;34087.641;   -8.580;37281.395
524.447;34157.078;   -5.380;37846.949
525.033;33936.676;   -6.970;38321.949
525.619;33503.465;  -11.160;38579.285
526.205;33303.289;   -8.250;40622.875
526.791;33312.109;   -5.420;42258.836
527.377;32781.527;   -7.680;42966.902
527.963;31743.477;   -9.910;42018.949
528.549;30724.871;   -9.130;42476.828
529.135;29859.732;   -6.180;41854.852
529.721;29078.000;   -9.180;41237.711
530.306;30894.400;   -7.130;41259.445
530.892;32831.352;   -9.550;41506.047
531.478;33083.438;   -8.660;43559.613
532.063;33612.977;  -10.060;47695.563
532.649;34073.504;   -8.190;50808.324
533.235;34310.613;   -9.570;51787.500
533.820;34454.219;   -4.950;52145.035
534.406;34670.164;   -7.660;51133.488
534.991;33977.414;  -13.130;49996.805
535.576;31961.350;  -10.670;48882.852
536.162;31755.045;   -3.650;46942.285
536.747;33338.570;   -7.370;45711.746
537.333;33840.637;  -13.970;48510.180
537.918;34045.098;   -8.270;50439.891
538.503;34974.355;   -8.890;50863.711
539.088;36553.477;   -6.680;50906.922
539.673;38398.738;  -12.040;52621.965
540.259;40187.832;  -10.650;52368.094
540.844;41684.066;   -5.550;50879.109
541.429;42600.555;   -9.300;52077.777
542.014;42664.344;  -11.850;52716.695
542.599;42315.273;   -8.580;52363.281
543.184;41536.160;   -8.350;53187.137
543.769;40925.781;   -9.280;54697.605
544.354;39268.441;  -12.690;53913.914
544.938;36911.742;  -10.280;49680.164
545.523;38562.430;   -6.450;47386.277
546.108;40468.723;   -9.920;49151.949
546.693;39919.363;  -12.160;51384.637
547.278;38823.844;   -7.060;51853.254
547.862;36910.441;   -6.790;51173.750
548.447;37088.395;   -7.010;51691.395
549.031;39803.898;  -11.840;52456.703
549.616;41214.738;   -9.310;52714.516
550.201;41156.547;   -9.290;52414.598
550.785;41105.668;   -9.910;52355.059
551.370;41435.945;  -12.090;54589.453
551.954;41476.492;  -10.260;58267.348
552.538;41812.227;   -6.280;59062.176
553.123;42055.555;   -7.550;58115.285
553.707;42196.453;  -12.880;56556.285
554.291;42388.508;   -9.310;56201.668
554.876;42537.461;   -4.810;55335.762
555.460;42461.398;   -8.360;54155.703
556.044;42284.051;  -13.640;53721.484
556.628;42109.832;  -10.620;53731.016
557.212;41621.285;   -5.460;54312.531
557.796;40713.941;   -7.800;53797.773
558.380;39839.727;  -10.960;56145.984
558.964;39445.652;   -9.860;57277.930
559.548;39669.047;   -6.030;56459.641
560.132;40294.027;   -9.020;54434.543
560.716;41648.098;  -11.600;54800.617
561.300;43394.539;  -10.360;57606.945
561.884;45260.598;   -5.950;58972.445
562.467;47256.113;   -6.470;57327.570
563.051;48721.383;  -10.970;54962.434
563.635;49037.684;  -10.720;52594.473
564.219;48614.770;   -6.270;50610.410
564.802;47369.613;   -6.220;49551.180
565.386;45834.301;  -11.200;48370.953
565.969;43944.039;   -9.190;48178.871
566.553;42553.770;   -4.430;49957.305
567.136;42137.340;   -5.920;50369.594
567.720;42658.871;   -8.750;49492.004
568.303;43979.727;   -8.790;50616.352
568.887;45784.223;   -7.980;50727.148
569.470;47094.273;   -7.440;51698.379
570.053;47247.777;  -10.090;52122.078
570.637;45363.402;  -11.590;52536.438
571.220;45791.754;   -7.430;51186.098
571.803;47134.410;   -6.130;51032.762
572.386;47025.051;  -13.580;49609.887
572.969;46410.258;   -8.790;48285.926
573.552;46075.457;   -6.590;47624.285
574.135;44370.797;  -10.320;45498.641
574.718;37998.035;  -11.540;41970.434
575.301;39582.531;   -9.370;41447.137
575.884;41167.027;   -7.200;40923.836
576.467;44122.215;   -7.800;45267.723
577.050;44611.672;  -12.670;48175.543
577.633;44876.391;   -8.160;47729.328
578.216;45257.570;   -6.530;47579.793
578.799;45498.258;   -9.050;47820.996
579.381;45478.008;   -7.100;48115.551
579.964;45612.727;  -12.510;47333.766
580.547;46130.191;   -3.590;46668.969
581.129;47303.773;   -7.550;44466.141
581.712;48137.035;  -12.430;44164.922
582.294;49251.086;   -8.780;46477.855
582.877;50309.777;   -3.670;48244.254
583.459;51390.289;   -9.680;47437.895
584.042;52158.051;  -10.080;46943.219
584.624;51581.848;  -10.170;46792.227
585.206;50931.855;   -9.780;46557.250
585.789;50071.059;   -7.190;45793.773
586.371;48500.215;  -12.370;43836.391
586.953;46131.684;   -8.490;42972.492
587.536;46275.289;   -7.300;42487.211
588.118;46954.738;  -10.560;42086.414
588.700;46861.496;   -6.030;43389.930
589.282;45998.945;   -9.590;43646.039
589.864;44963.652;   -7.900;43438.109
590.446;43884.430;   -9.550;43151.926
591.028;42276.930;  -13.100;42781.867
591.610;40550.527;   -9.310;42839.098
592.192;39113.152;   -6.870;42820.402
592.774;37187.535;  -11.610;40724.277
593.356;36522.426;  -10.690;39874.789
593.937;39908.270;  -13.200;39980.648
594.519;42918.152;   -3.370;42069.633
595.101;44767.762;  -10.940;42976.031
595.683;45948.020;  -11.690;44084.441
596.264;46522.734;  -10.400;43478.797
596.846;47101.789;   -9.270;43803.672
597.427;47148.262;   -8.210;42986.934
598.009;46578.918;  -11.570;42832.219
598.591;45399.223;  -11.780;42580.086
599.172;44304.379;   -6.310;43061.805
599.753;43655.402;   -8.060;41691.469
600.335;43584.441;  -10.500;40692.520
600.916;44214.922;   -8.600;39982.422
601.498;45412.941;   -3.410;40318.617
602.079;47153.516;   -8.100;40670.609
602.660;48982.055;  -11.690;41450.898
603.241;50648.668;  -10.530;41137.738
603.823;51773.566;   -7.780;38868.797
604.404;52383.711;  -12.500;38182.785
604.985;52376.574;  -11.270;38078.047
605.566;51523.688;   -7.940;38056.633
606.147;49948.828;   -7.310;37020.418
606.728;48137.352;  -10.640;37883.359
607.309;46263.852;  -12.670;38748.273
607.890;44626.160;  -10.720;38850.230
608.471;43255.277;   -7.920;37457.918
609.051;42280.691;  -10.240;36066.457
609.632;41563.555;  -14.560;35991.074
610.213;40962.555;   -7.290;37402.641
610.794;40575.688;   -8.400;38383.363
611.374;40003.793;   -6.040;40562.387
611.955;40025.445;  -12.450;38533.727
612.536;39893.438;  -10.380;36951.789
613.116;39886.969;   -8.430;37197.891
613.697;40187.715;   -8.300;38411.125
614.277;40389.902;  -13.760;38673.938
614.858;40018.691;   -8.670;37075.863
615.438;37186.098;   -3.880;35092.906
616.019;39346.855;   -7.830;33666.301
616.599;43206.609;  -12.790;34189.023
617.179;44484.289;  -10.380;36952.047
617.760;45017.039;   -5.610;39582.574
618.340;45516.781;   -7.010;38943.977
618.920;46281.711;   -8.740;37594.156
619.500;47007.313;  -11.640;37866.938
620.080;47509.867;   -9.620;37869.043
620.660;47719.238;   -9.160;36868.617
621.241;47549.953;  -11.830;36352.309
621.821;46908.582;   -9.900;35459.520
622.401;46368.539;   -6.830;35207.414
622.980;45341.504;  -11.160;35980.422
623.560;44010.320;   -9.050;37351.328
624.140;39228.891;  -10.450;34388.582
624.720;32363.350;   -9.070;32368.764
625.300;33951.668;  -12.250;32638.629
625.880;40014.793;  -14.300;34599.035
626.459;42270.621;   -9.800;36831.738
627.039;43120.465;   -6.650;38299.098
627.619;43766.965;   -6.650;38289.574
628.198;45041.070;   -8.250;37220.695
628.778;46576.082;   -9.100;37632.563
629.357;47877.324;   -9.210;38003.012
629.937;48858.207;   -8.410;38402.039
630.516;48816.762;  -10.050;37868.801
631.096;48691.012;  -12.670;35760.410
631.675;47397.555;   -6.590;35225.219
632.254;46324.141;   -9.840;35130.289
632.834;44682.047;  -12.700;35794.570
633.413;43854.949;   -9.650;35788.922
633.992;43899.730;   -5.880;34532.863
634.571;44583.984;   -8.430;33590.113
635.151;45719.395;  -13.740;34943.863
635.730;47600.234;  -11.940;35352.523
636.309;49762.379;   -8.220;35366.605
636.888;52453.074;   -7.810;36165.637
637.467;54821.605;  -12.740;37515.902
638.046;56106.621;  -10.750;39288.695
638.625;56872.930;   -6.000;38279.699
639.204;57049.840;   -6.740;37741.598
639.782;56234.258;  -14.990;38364.551
640.361;53747.672;   -9.480;36740.621
640.940;53181.727;   -8.440;34950.082
641.519;57298.176;   -6.380;34137.398
642.097;58632.207;  -12.970;35654.258
642.676;57508.566;  -11.110;35637.957
643.255;56933.945;   -8.380;36567.074
643.833;56511.230;   -7.390;37809.434
644.412;55328.688;  -11.690;37337.293
644.990;54940.270;  -10.860;37018.531
645.569;54206.199;   -8.200;36518.469
646.147;53414.328;   -8.830;36186.430
646.726;53052.086;  -14.270;36267.688
647.304;52758.031;   -8.340;36647.625
647.882;53323.480;  -10.340;39286.742
648.461;53514.594;  -10.630;39157.703
649.039;53747.629;  -12.900;35412.883
649.617;53917.688;  -10.000;34744.918
650.195;53939.934;   -6.690;35403.098
650.773;54059.398;  -10.960;35053.797
651.352;53412.941;  -14.040;33756.816
651.930;49546.340;  -12.470;31868.773
652.508;45650.285;   -9.410;33121.551
653.086;50451.691;   -6.630;33564.793
653.663;52543.773;  -13.850;34054.668
654.241;51831.898;  -12.520;35693.309
654.819;51071.848;  -10.200;36422.906
655.397;49702.766;  -10.340;38213.484
655.975;47788.203;  -14.690;39507.625
656.553;46470.441;   -8.350;39498.223
657.130;44809.512;   -7.710;40395.480
657.708;42660.641;   -7.770;39242.020
658.286;42316.852;  -10.880;38920.020
658.863;43320.082;  -10.430;40202.898
659.441;43471.906;   -6.740;39677.938
660.018;42689.836;   -9.490;40413.355
660.596;42105.430;  -13.260;39931.414
661.173;42372.402;  -13.110;39604.531
661.750;42616.590;   -7.930;39700.070
662.328;43383.098;  -10.050;39292.809
662.905;43484.770;  -11.310;38235.648
663.482;40407.422;  -10.770;36212.305
664.060;42560.598;  -10.370;35944.945
664.637;50403.938;   -7.870;35170.785
665.214;54238.555;  -13.260;34197.523
665.791;55908.164;   -8.180;34549.520
666.368;56262.250;  -10.330;35118.578
666.945;56483.234;  -10.440;36019.418
667.522;56478.867;  -12.500;36048.438
668.099;55823.777;  -11.320;36243.914
668.676;54733.313;   -9.560;35958.875
669.253;53217.508;   -3.900;37384.730
669.830;51406.402;  -12.800;36779.629
670.407;50755.156;   -9.930;35231.289
670.984;49528.000;   -7.960;35544.270
671.560;48901.809;   -7.530;35466.867
672.137;48253.203;  -13.420;34280.863
672.714;47892.586;  -11.380;34632.863
673.290;49473.270;   -9.640;35135.422
673.867;49740.023;   -6.300;36114.480
674.443;49440.211;  -14.070;36152.859
675.020;50309.086;  -11.440;35327.238
675.596;50304.313;   -8.710;35795.176
676.173;50513.031;  -10.530;35430.355
676.749;50858.656;  -13.850;33549.516
677.326;50998.781;  -12.950;32210.012
677.902;51540.750;  -11.880;32068.871
678.478;52089.727;   -9.900;32583.891
679.054;53851.883;  -12.790;32088.928
679.631;56050.742;   -9.370;30978.848
680.207;58463.219;   -7.990;33160.887
680.783;60346.750;   -8.500;35570.363
681.359;61493.664;  -11.450;36125.184
681.935;62298.508;  -10.930;35240.922
682.511;62122.949;   -5.170;34429.961
683.087;61587.641;  -10.020;34463.680
683.663;60493.828;  -13.370;34648.898
684.239;59237.703;  -10.860;34546.457
684.815;58304.004;   -4.640;35586.375
685.390;57286.281;   -6.970;35821.895
685.966;56598.793;  -11.860;35085.871
686.542;55432.621;  -11.410;34198.230
687.118;54350.566;  -10.080;32847.707
687.693;53678.242;  -11.870;32794.027
688.269;52314.742;  -11.620;33072.367
688.844;51548.449;  -10.690;33141.664
689.420;51237.266;   -7.920;33965.742
689.995;51032.121;   -8.370;34655.523
690.571;51415.152;  -12.640;33576.742
691.146;52172.352;  -13.600;32657.219
691.722;52640.539;   -7.510;32526.979
692.297;53294.930;   -9.900;33014.617
692.872;53844.387;  -11.440;34012.254
693.448;53702.977;  -13.480;34237.434
694.023;54041.570;   -9.590;34142.672
694.598;54015.719;   -8.290;34132.031
695.173;52743.516;  -14.640;34205.250
695.748;51902.465;  -10.540;32882.488
696.323;51077.879;   -9.790;32864.906
696.898;49783.859;   -7.280;33170.004
697.473;49819.059;  -14.450;32432.984
698.048;50302.457;  -11.370;31649.303
698.623;50643.746;   -9.350;30778.141
699.198;51937.918;   -9.200;31140.119
699.773;52827.504;  -15.060;31764.299
700.348;53094.984;  -11.880;31780.816
700.922;53778.449;   -8.680;32046.375
701.497;54200.715;   -8.620;32603.574
702.072;53571.152;  -12.280;34799.871
702.646;53023.445;  -10.700;35793.172
703.221;52425.707;   -7.100;35201.590
703.795;51493.133;  -11.930;34764.527
704.370;50899.336;  -12.770;34307.367
704.944;49798.211;  -13.270;33509.887
705.519;49041.754;   -7.070;31388.584
706.093;48959.992;  -11.220;31340.104
706.668;48547.773;  -10.160;32630.281
707.242;47836.203;   -9.200;32728.779
707.816;47917.984;   -7.970;32947.238
708.390;47355.426;  -11.300;33277.855
708.965;47035.430;  -10.210;33834.336
709.539;47417.141;  -13.290;33709.273
710.113;47535.355;   -6.840;33044.313
710.687;47340.480;   -7.350;31953.992
711.261;47197.164;  -12.460;30505.949
711.835;46550.551;  -11.280;30262.369
712.409;46046.070;   -9.300;31254.447
712.983;46393.301;  -13.200;32754.986
713.557;46880.195;  -14.370;34018.824
714.131;46737.195;  -12.890;34579.625
714.704;46995.207;   -9.090;33890.262
715.278;46783.297;   -8.410;33531.102
715.852;45982.363;  -14.730;33601.660
716.425;45503.555;   -9.240;33515.117
716.999;44673.715;  -11.400;33185.555
717.573;43422.191;  -10.500;33905.996
718.146;42739.672;  -11.510;35199.293
718.720;42332.133;  -12.260;35060.551
719.293;42089.273;   -6.900;34973.230
719.867;42300.867;   -8.840;36394.449
720.440;42598.820;  -14.000;36663.008
721.013;42828.082;  -11.570;35102.426
721.587;43436.344;  -11.520;33985.266
722.160;44084.699;   -8.290;33524.965
722.733;44730.367;  -13.810;32987.043
723.306;45511.512;  -10.450;33066.301
723.880;46982.414;  -10.840;33399.500
724.453;48495.984;   -5.950;33468.297
725.026;49573.879;  -13.500;33816.637
725.599;51107.375;  -12.710;32797.996
726.172;51973.867;   -7.600;33187.434
726.745;51766.270;   -9.620;35136.613
727.318;52163.203;  -12.300;35751.730
727.891;52260.215;  -11.350;35890.430
728.463;51453.988;   -9.590;34822.090
729.036;51489.984;  -11.560;32895.086
729.609;51606.602;  -14.160;31823.225
730.182;50542.691;  -10.880;31445.283
730.754;50494.863;  -11.240;32373.223
731.327;50511.070;   -8.190;33676.820
731.900;49402.602;  -12.310;33417.000
732.472;48437.965;  -12.780;31978.498
733.045;48316.930;   -9.090;30368.777
733.617;47639.590;  -11.600;30574.215
734.190;47425.992;  -13.370;31280.975
734.762;48212.504;  -12.640;31674.412
735.334;48552.297;   -9.310;31247.291
735.907;48201.449;   -9.800;29876.211
736.479;48377.648;  -11.440;29808.488
737.051;48572.336;  -10.150;30233.547
737.623;47910.367;   -9.180;31469.086
738.195;47829.008;   -8.960;31784.225
738.768;48030.848;  -13.020;32120.523
739.340;47487.660;  -12.130;32094.342
739.912;47041.445;   -7.440;31312.680
740.484;47345.410;   -9.060;31946.238
741.056;47611.738;  -12.480;32984.059
741.628;47274.316;  -13.010;33897.715
742.199;47209.496;   -7.500;33213.016
742.771;47565.320;   -9.660;31369.113
743.343;47051.574;  -11.570;31865.473
743.915;46186.484;  -12.280;32388.631
744.487;45930.035;   -8.360;31079.568
745.058;45326.793;   -8.650;30570.107
745.630;44283.430;  -11.210;29970.127
746.201;44119.066;  -11.900;29186.766
746.773;44238.512;  -10.000;28805.723
747.344;44322.063;   -9.900;29591.223
747.916;44384.961;  -13.200;31412.201
748.487;44869.574;  -10.500;32194.898
749.059;44705.246;   -9.310;32533.719
749.630;43894.336;   -8.270;32158.518
750.201;43587.129;  -12.930;30855.395
750.773;43114.641;   -9.870;28622.555
751.344;43012.082;   -9.520;28405.732
751.915;43185.195;   -7.700;28461.551
752.486;42321.605;  -12.950;27842.850
753.057;40697.664;  -14.490;27845.008
753.628;40604.309;  -10.260;27728.107
754.199;41191.367;   -9.940;27381.086
754.770;40436.727;  -11.910;25882.203
755.341;39483.777;  -10.670;25886.184
755.912;38940.281;   -9.610;26050.861
756.483;37780.957;   -8.330;26798.779
757.054;37277.883;  -11.430;27048.238
757.625;37895.246;  -10.030;26294.838
758.195;38154.070;   -8.980;26142.076
758.766;38104.109;  -11.090;26392.234
759.337;38620.125;  -14.540;26334.594
759.907;39486.605;  -14.080;27579.652
760.478;39728.578;   -5.830;28352.770
761.048;38957.414;   -8.990;27325.088
761.619;38455.422;  -12.200;26460.428
762.189;38047.949;  -11.440;26029.826
762.760;36978.785;   -7.700;26430.145
763.330;36043.203;   -9.710;26670.902
763.900;36481.992;  -13.960;26603.021
764.471;36861.066;  -13.220;25542.740
765.041;36547.047;   -8.450;24358.459
765.611;37012.375;   -9.660;23991.297
766.181;38296.375;  -10.630;24470.236
766.751;38879.391;  -12.140;24845.975
767.321;38937.680;   -9.450;24533.633
767.891;39488.395;   -9.780;24916.492
768.461;39832.250;  -12.220;24776.771
769.031;39720.086;  -12.090;24757.988
769.601;40222.223;   -9.390;24181.088
770.171;41386.434;   -7.610;23670.387
770.741;42447.656;  -12.480;22960.045
771.311;43276.684;  -14.230;22917.523
771.880;44373.793;   -6.560;23562.941
772.450;44683.465;  -10.730;24216.500
773.020;43909.996;  -14.690;24140.398
773.589;42751.164;  -12.320;24414.857
774.159;41842.188;  -11.530;23858.717
774.729;40600.520;  -11.760;22942.135
775.298;38670.402;  -16.800;22324.033
775.867;37281.043;  -11.100;21140.313
776.437;36022.676;   -7.210;20838.092
777.006;34682.301;  -12.690;20599.510
777.576;33827.023;   -9.470;20508.809
778.145;33532.828;  -13.070;20732.947
778.714;33174.227;   -8.060;21062.465
779.283;32472.898;   -8.360;20949.664
779.853;32318.666;  -12.240;20508.623
780.422;32165.176;  -13.060;20649.082
780.991;31641.256;  -10.290;21527.520
781.560;31133.396;   -7.870;22632.658
782.129;31027.260;  -11.960;23048.277
782.698;30975.045;  -12.200;23438.555
783.267;30790.912;  -10.800;23267.734
783.836;31014.262;   -5.930;22415.133
784.404;31463.229;  -12.220;20443.152
784.973;31607.770;  -14.320;19699.150
785.542;31048.352;   -8.010;19763.828
786.111;30138.715;  -11.710;20341.408
786.679;29455.357;  -10.890;20207.967
787.248;27938.406;  -15.060;19516.465
787.817;26046.156;   -7.730;18900.363
788.385;25902.568;   -9.100;17879.121
788.954;25808.283;  -13.320;17658.301
789.522;25095.287;  -12.240;17788.879
790.090;24052.021;   -9.200;18118.277
790.659;23302.248;  -10.850;18338.736
791.227;22904.701;  -12.560;18508.615
791.795;22483.949;  -10.160;17898.254
792.364;21993.488;  -10.280;17295.133
792.932;21705.193;   -8.610;16822.051
793.500;21434.318;  -15.060;17040.148
794.068;20831.625;  -12.860;17179.787
794.636;20202.521;   -9.770;16664.246
795.204;20083.561;  -11.680;16524.545
795.772;19774.020;  -13.880;17274.564
796.340;19422.031;  -12.180;17891.002
796.908;19406.576;   -8.050;17648.561
797.476;19553.102;  -10.710;17064.080
798.044;19327.197;  -15.930;16672.777
798.612;18970.893;  -12.300;17023.996
799.180;18865.463;  -11.500;16561.615
799.747;18395.174;  -10.240;15962.773
800.315;17250.838;  -15.290;15296.992
800.883;17586.512;  -15.600;14801.771
801.450;18365.092;   -9.010;14534.430
802.018;18911.510;  -11.020;14173.248
802.585;19265.150;  -13.690;14029.547
803.153;19266.287;  -13.180;13836.846
803.720;19463.701;  -10.490;13567.324
804.287;19651.746;   -8.550;13360.622
804.855;19641.258;  -10.980;13681.981
805.422;19198.273;  -12.580;13536.560
805.989;18234.367;   -8.890;13355.958
806.556;19009.029;   -8.970;13747.896
807.124;19201.430;  -13.690;13987.376
807.691;18624.451;  -13.390;14038.674
808.258;18194.990;  -10.710;14120.152
808.825;17801.027;   -8.560;13860.111
809.392;17324.922;   -7.860;13268.790
809.959;16726.545;  -11.380;12680.389
810.526;16337.709;   -7.100;12427.308
811.093;16171.057;   -7.120;12030.105
811.659;15542.874;  -13.820;11653.664
812.226;15265.016;  -10.840;11637.183
812.793;15771.269;   -7.800;11611.521
813.360;16364.323;  -12.530;11885.181
813.926;16885.547;  -12.480;12770.539
814.493;17057.797;  -12.220;12677.638
815.060;17321.002;  -12.120;11974.336
815.626;17371.365;  -12.680;11594.715
816.193;16975.383;  -11.760;11579.474
816.759;16584.889;  -14.970;11666.972
817.325;16354.901;  -10.010;11325.530
817.892;16257.127;   -7.740;11105.369
818.458;16010.458;  -13.210;10843.928
819.024;15463.813;  -13.340;10714.406
819.591;15409.143;   -7.060;10469.165
820.157;15597.386;  -15.590;10235.523
820.723;15611.475;  -14.830;10847.563
821.289;15547.562;   -9.140;11040.980
821.855;15439.852;   -5.960;10357.100
822.421;15515.338;  -10.820; 9978.918
822.987;15674.350;  -14.270; 9754.177
823.553;15306.129;  -13.090;10065.755
824.119;15078.658;   -9.130;10036.294
824.685;15154.946;  -10.050;10029.192
825.251;15189.296;  -12.930;10199.230
825.816;14881.873;   -7.640; 9820.189
826.382;14334.653;  -10.370; 9297.248
826.948;14136.027;   -8.650; 9381.347
827.513;14156.798;  -15.340; 9450.726
828.079;13802.665;  -11.450; 9472.444
828.645;13431.128;  -10.890; 9292.643
829.210;13181.536;  -12.060; 9065.341
829.776;12883.052;  -11.520; 9132.620
830.341;12416.136;   -9.110; 9092.878
830.906;11547.854;   -7.090; 9078.557
831.472;10499.646;  -10.500; 8534.535
832.037;10373.488;  -12.430; 8677.874
832.602;10765.346;  -14.350; 8628.692
833.167;10585.569;  -11.460; 8879.031
833.733;10184.930;   -7.710; 9189.790
834.298; 9899.241;  -12.360; 9052.608
834.863; 9880.890;  -10.960; 8895.087
835.428; 9859.535;   -8.740; 8824.266
835.993; 9679.179;  -10.440; 8845.385
836.558; 9678.203;  -13.300; 8888.563
837.123; 9871.109;   -7.910; 8966.582
837.688;10117.834;   -9.910; 8617.860
838.253;10180.667;   -9.940; 8590.699
838.817;10130.796;  -12.490; 8443.797
839.382;10284.749;  -12.890; 8799.356
839.947;10384.672;   -8.630; 8810.595
840.511;10309.740;   -8.970; 8796.394
841.076;10382.132;  -16.230; 8347.231
841.641;10478.443;  -10.630; 8224.330
842.205;10659.354;   -9.540; 8223.349
842.770;10751.784;   -8.910; 8622.107
843.334;10637.106;  -13.580; 8410.386
843.898;10799.470;  -13.710; 8337.465
844.463;11130.725;   -9.990; 8506.283
845.027;11197.548;  -10.570; 8280.962
845.591;11226.104;  -13.250; 8231.141
846.156;11239.960;  -15.810; 7969.179
846.720;11075.841;   -7.960; 7768.278
847.284;10638.475;  -11.370; 7630.957
847.848;10026.555;  -10.720; 7472.395
848.412;10090.851;  -15.770; 7437.394
848.976;10347.882;   -8.150; 7674.592
849.540;10057.661;   -9.440; 7836.011
850.104; 9724.162;  -12.920; 7913.669
850.668; 9565.637;  -13.510; 7694.508
851.232; 9413.303;  -11.550; 7756.887
851.796; 9252.777;  -10.150; 7926.545
852.359; 9054.777;  -11.280; 7827.844
852.923; 8783.716;  -13.170; 7641.163
853.487; 8715.352;   -8.270; 7342.501
854.050; 8801.229;  -13.730; 7042.820
854.614; 8721.932;  -15.760; 7151.338
855.177; 8671.850;  -13.870; 7105.077
855.741; 8599.447;   -8.400; 6989.675
856.304; 8504.234;  -10.860; 6596.634
856.868; 8408.449;  -11.990; 6356.272
857.431; 8151.705;  -13.200; 6468.571
857.995; 7925.101;   -9.990; 6373.210
858.558; 7932.934;   -8.170; 6324.448
859.121; 7939.657;  -13.140; 6408.327
859.684; 7835.423;   -9.450; 6347.886
860.247; 7752.209;  -11.220; 6321.264
860.810; 7575.954;  -13.780; 6301.903
861.374; 7471.620;  -10.030; 6607.881
861.937; 7460.555;  -13.030; 6408.200
862.500; 7372.554;  -10.540; 6572.639
863.062; 7210.685;   -8.590; 6387.297
863.625; 7133.258;  -10.180; 6190.836
864.188; 6981.813;  -13.800; 5807.254
864.751; 6742.003;  -11.460; 5682.413
865.314; 6484.794;   -9.150; 5547.492
865.876; 6112.923;  -11.670; 5500.150
866.439; 5871.497;  -12.180; 5415.909
867.002; 5790.456;   -9.240; 5501.567
867.564; 5636.054;   -9.110; 5413.946
868.127; 5446.479;  -14.500; 5160.325
868.689; 5413.531;  -12.170; 5133.183
869.252; 5372.049;  -10.090; 5252.382
869.814; 5262.331;  -10.410; 5297.141
870.377; 5201.561;  -10.800; 5390.919
870.939; 5090.197;  -10.510; 5599.898
871.501; 5088.531;   -9.790; 5248.336
872.063; 5172.560;  -12.250; 4854.235
872.626; 5101.330;  -13.540; 4817.074
873.188; 4980.551;  -15.090; 4987.732
873.750; 4957.791;  -10.310; 4868.651
874.312; 4921.163;  -11.260; 4779.330
874.874; 4839.315;  -10.690; 4866.348
875.436; 4698.000;  -12.930; 4718.887
875.998; 4538.252;   -7.660; 4660.005
876.560; 4454.667;   -7.530; 4462.964
877.122; 4449.113;  -13.000; 4145.042
877.683; 4247.680;  -13.860; 4056.481
878.245; 4187.043;  -10.260; 3950.740
878.807; 4361.833;  -10.130; 4058.958
879.369; 4397.031;  -12.220; 3954.677
879.930; 4372.365;  -13.730; 3941.495
880.492; 4355.514;   -8.490; 4067.014
881.053; 4200.786;  -12.720; 3859.633
881.615; 4065.639;  -13.390; 3776.071
882.176; 4047.737;  -12.020; 3734.750
882.738; 3940.498;   -9.320; 3678.489
883.299; 3764.839;   -8.730; 3405.407
883.860; 3608.823;  -15.950; 3351.106
884.422; 3443.300;  -12.580; 3394.044
884.983; 3321.765;  -12.580; 3166.443
885.544; 3287.733;   -8.890; 3189.802
886.105; 3157.841;  -11.210; 3160.360
886.666; 2952.366;  -12.350; 3093.059
887.227; 2809.612;   -9.290; 2941.957
887.788; 2718.877;  -10.190; 2974.836
888.349; 2618.147;  -14.090; 2721.214
888.910; 2533.089;  -14.530; 2696.493
889.471; 2421.162;   -7.100; 2560.172
890.032; 2308.397;  -10.210; 2558.190
890.593; 2261.143;  -13.520; 2567.669
891.153; 2192.414;  -12.680; 2460.307
891.714; 2051.577;  -12.490; 2372.046
892.275; 1928.115;  -10.900; 2309.505
892.835; 1841.072;  -12.710; 2382.543
893.396; 1734.708;  -13.250; 2295.502
893.956; 1617.922;  -12.530; 2162.420
894.517; 1511.299;   -8.720; 2125.439
895.077; 1391.871;  -12.530; 2086.978
895.638; 1306.871;  -13.230; 2126.316
896.198; 1253.597;   -9.480; 1838.275
896.758; 1178.772;   -9.970; 1892.813
897.319; 1091.383;  -11.840; 1792.232
897.879; 1025.742;  -14.430; 1762.751
898.439;  967.711;  -11.760; 1661.149
898.999;  924.839;   -8.600; 1781.468
899.559;  881.310;  -14.490; 1703.347
900.119;  817.519;  -15.010; 1537.525
900.679;  760.241;  -10.050; 1638.384
901.239;  732.593;   -8.750; 1527.902
901.799;  712.202;  -12.020; 1456.441
902.359;  673.389;  -13.550; 1357.140
902.919;  640.987;   -8.960; 1331.118
903.479;  614.910;  -10.570; 1317.257
904.038;  582.199;  -15.670; 1262.595
904.598;  559.672;  -15.610; 1152.034
905.158;  545.970;  -11.680; 1240.893
905.717;  523.817;   -9.310; 1233.691
906.277;  502.026;  -12.560; 1217.330
906.836;  487.564;  -11.680; 1222.408
907.396;  470.985;  -10.650; 1193.047
907.955;  456.811;   -8.670; 1182.526
908.515;  441.877;  -15.210; 1099.364
909.074;  431.824;  -11.830; 1092.863
909.633;  414.273;  -12.480; 1069.121
910.192;  405.391;   -6.940; 1196.460
910.752;  393.415;  -12.500; 1029.960
911.311;  381.229;  -12.990; 1009.780
911.870;  370.287;  -11.210;  971.460
912.429;  364.299;   -9.580; 1094.080
912.988;  352.986;  -13.880; 1081.060
913.547;  339.857;  -16.370;  940.380
914.106;  337.761;  -12.180;  999.420
914.665;  330.077;  -10.650;  984.020
915.224;  323.331;  -11.860; 1035.760
915.782;  319.713;  -12.240;  922.560
916.341;  318.980;   -9.590; 1049.840
916.900;  311.187;  -10.880;  925.260
917.458;  307.238;  -14.100;  884.220
918.017;  305.121;  -16.510;  942.600
918.576;  301.535;  -12.600;  904.440
919.134;  301.497;   -8.170;  837.980
919.693;  298.294;  -14.790;  893.060
920.251;  296.773;  -14.280;  876.500
920.809;  292.161;  -13.100;  839.580
921.368;  292.656;   -7.690;  885.360
921.926;  287.191;  -14.040;  842.940
922.484;  284.155;  -14.080;  903.360
923.042;  283.192;  -11.300;  880.340
923.601;  285.582;   -7.720;  998.680
924.159;  281.183;  -13.020;  935.560
924.717;  277.925;  -15.430;  841.080
925.275;  281.652;   -9.520;  903.240
925.833;  278.425;  -10.810;  779.320
926.391;  278.879;  -14.330;  938.380
926.949;  276.310;  -14.100;  857.680
927.506;  280.955;  -12.020;  903.500
928.064;  280.731;  -10.390;  877.580
928.622;  280.236;  -11.650;  880.100
929.180;  281.237;  -14.090;  814.180
929.737;  283.652;  -13.070;  808.540
930.295;  288.362;   -9.670;  928.480
930.853;  291.975;  -15.390;  849.100
931.410;  293.708;  -14.200;  821.120
931.968;  293.952;  -10.330;  940.660
932.525;  293.601;  -11.210;  909.380
933.082;  297.987;  -18.200;  811.440
933.640;  307.815;  -13.590;  925.900
934.197;  309.391;  -10.910;  886.360
934.754;  311.647;  -10.230;  897.780
935.312;  312.787;  -14.320;  863.340
935.869;  317.384;  -10.010; 1012.980
936.426;  318.325;  -12.650;  872.800
936.983;  326.884;   -9.460;  889.020
937.540;  329.581;  -16.050;  838.280
938.097;  333.719;  -13.260;  940.120
938.654;  337.335;  -10.930;  898.860
939.211;  342.647;  -11.210;  952.480
939.768;  342.959;  -15.520;  915.420
940.324;  347.655;  -15.570;  904.200
940.881;  354.703;  -10.840;  878.500
941.438;  358.397;   -8.600; 1021.200
941.995;  356.642;  -13.690;  992.560
942.551;  363.243;  -15.050;  875.620
943.108;  370.523;   -9.990;  937.920
943.664;  368.377;  -12.640;  869.340
944.221;  370.741;  -12.030; 1088.140
944.777;  368.237;  -15.350;  869.680
945.334;  371.478;  -10.950;  884.840
945.890;  371.204;   -9.010;  946.480
946.446;  371.945;  -13.830;  947.020
947.003;  373.593;  -13.600;  964.940
947.559;  369.563;   -9.640; 1063.040
948.115;  366.254;  -10.750; 1026.540
948.671;  366.603;  -13.290;  967.300
949.227;  365.136;  -14.450;  859.560
949.783;  359.576;  -10.990;  858.900
950.339;  357.909;  -11.240;  991.000
950.895;  357.416;  -13.980; 1023.840
951.451;  352.221;  -15.110;  925.280
952.007;  352.099;  -11.670;  998.540
952.563;  357.499;  -11.150;  937.780
953.118;  357.297;  -14.340;  904.940
953.674;  351.787;  -13.650;  935.780
954.230;  351.302;   -9.690;  949.640
954.785;  354.727;  -10.680;  936.640
955.341;  356.787;  -13.300;  998.160
955.897;  351.462;  -15.560;  834.660
956.452;  353.437;  -11.510;  953.840
957.008;  353.677;  -10.390; 1083.640
957.563;  349.382;  -10.880; 1009.540
958.118;  344.934;  -16.370;  877.700
958.674;  351.811;  -12.490;  946.780
959.229;  351.932;  -10.420; 1013.980
959.784;  340.390;  -16.240;  832.400
960.339;  335.612;  -11.590; 1001.280
960.894;  334.193;  -10.940;  963.760
961.449;  333.324;   -8.960;  859.960
962.004;  331.487;  -10.890; 1212.840
962.559;  326.333;  -13.020;  860.140
963.114;  323.429;  -14.100;  742.480
963.669;  323.374;   -8.330;  915.500
964.224;  318.295;  -14.680;  874.340
964.779;  325.996;  -13.520;  828.420
965.334;  332.075;  -10.400; 1017.860
965.888;  325.753;  -11.710;  875.360
966.443;  321.888;  -14.090;  972.380
966.998;  318.915;  -14.910;  819.460
967.552;  318.181;  -11.300;  908.380
968.107;  313.057;  -12.800;  868.300
968.661;  313.663;  -14.380;  922.440
969.216;  311.419;  -14.100;  856.280
969.770;  306.699;  -11.490;  917.200
970.324;  300.300;  -11.150;  923.140
970.879;  300.087;  -14.010;  947.180
971.433;  304.117;  -12.510;  952.720
971.987;  300.125;  -11.760;  895.340
972.541;  293.152;  -11.190;  917.100
973.095;  289.778;  -11.650; 1009.460
973.649;  284.147;  -15.670;  809.480
974.203;  278.932;  -12.570;  829.040
974.757;  282.145;  -11.210;  855.220
975.311;  285.578;  -16.470;  872.600
975.865;  282.700;  -15.550;  881.820
976.419;  279.833;  -12.370;  857.400
976.973;  276.092;  -10.490;  849.620
977.526;  277.116;  -14.560;  949.920
978.080;  273.569;  -16.000;  796.780
978.634;  271.445;  -11.080;  921.320
979.187;  267.363;   -8.680;  905.400
979.741;  266.487;  -11.260; 1018.380
980.294;  258.136;  -14.740;  789.160
980.848;  253.179;  -11.440;  717.220
981.401;  255.263;  -10.330;  816.540
981.955;  253.441;  -14.260;  844.300
982.508;  244.908;  -15.800;  746.340
983.061;  242.315;  -10.860;  915.260
983.615;  239.117;  -12.010;  798.800
984.168;  236.570;  -12.840;  770.080
984.721;  230.114;  -12.990;  880.760
985.274;  227.018;  -10.810;  867.500
985.827;  221.831;  -13.400;  834.220
986.380;  216.761;  -15.690;  721.340
986.933;  212.190;  -13.410;  864.800
987.486;  210.400;   -9.030;  861.920
988.039;  207.321;  -10.370;  863.100
988.591;  202.877;  -13.170;  893.260
989.144;  195.493;  -14.450;  737.260
989.697;  191.305;  -13.040;  758.740
990.250;  189.983;   -9.060;  858.100
990.802;  182.518;  -15.460;  755.860
991.355;  181.030;  -10.290;  974.880
991.907;  176.658;  -10.920;  864.320
992.460;  172.286;  -11.550;  753.760
993.012;  166.167;  -14.150;  749.540
993.565;  161.229;  -12.660;  711.360
994.117;  159.292;  -10.170;  950.780
994.669;  154.692;  -11.730;  701.320
995.221;  150.655;  -13.860;  791.920
995.774;  147.857;  -13.500;  787.580
996.326;  143.427;  -13.710;  740.220
996.878;  143.366;  -10.480;  838.420
997.430;  138.428;  -13.470;  699.860
997.982;  135.082;  -14.710;  750.140
998.534;  134.176;  -12.870;  739.060
999.086;  132.705;   -9.030;  738.220
999.638;  130.208;  -14.720;  661.380
1000.190;  126.663;  -14.510;  699.320
1000.741;  127.700;  -11.610;  742.700
1001.293;  126.824;   -9.310;  686.020
1001.845;  122.211;  -15.080;  676.640
1002.396;  120.885;  -14.260;  743.400
1002.948;  121.282;  -10.620;  737.400
1003.500;  116.954;   -9.680;  723.780
1004.051;  115.389;  -12.980;  907.580
1004.603;  110.007;  -14.340;  791.820
1005.154;  105.446;  -13.850;  608.980
1005.705;  104.281;   -9.860;  723.960
1006.257;   99.661;  -13.870;  707.220
1006.808;  100.182;  -14.110;  685.460
1007.359;   97.185;  -10.190;  763.240
1007.910;   95.246;   -9.180;  646.640
1008.461;   92.958;  -12.210;  732.940
1009.013;   90.496;  -15.250;  588.340
1009.564;   93.454;  -10.040;  793.520
1010.115;   89.148;  -11.810;  597.040
1010.665;   87.831;  -15.200;  602.160
1011.216;   87.476;  -14.530;  667.920
1011.767;   89.585;   -9.620;  697.920
1012.318;   87.922;  -10.290;  736.980
1012.869;   86.356;  -13.690;  679.000
1013.419;   84.353;  -16.680;  603.120
1013.970;   86.393;  -10.980;  666.640
1014.521;   85.548;  -10.220;  620.620
1015.071;   82.917;  -13.820;  670.380
1015.622;   83.272;  -15.510;  635.460
1016.172;   82.155;  -13.630;  596.820
1016.723;   82.136;  -12.190;  614.380
1017.273;   81.793;  -15.000;  604.160
1017.823;   81.353;  -15.270;  650.340
1018.374;   79.459;  -10.540;  611.760
1018.924;   80.415;  -12.690;  716.880
1019.474;   80.995;  -12.420;  718.880
1020.024;   78.788;  -14.240;  657.580
1020.574;   81.059;  -10.370;  726.160
1021.124;   80.318;   -8.650;  673.580
1021.674;   76.615;  -15.610;  559.120
1022.224;   78.801;  -14.230;  708.940
1022.774;   77.614;  -11.740;  668.820
1023.324;   77.967;  -10.900;  753.520
1023.874;   80.460;   -8.900;  875.760
1024.423;   73.446;  -16.440;  613.700
1024.973;   75.367;  -12.230;  610.760
1025.523;   74.221;  -10.970;  620.960
1026.072;   73.754;  -14.660;  606.420
1026.622;   73.643;  -13.680;  675.740
1027.172;   74.143;  -12.610;  715.660
1027.721;   73.688;  -11.100;  601.220
1028.270;   73.264;  -13.960;  663.400
1028.820;   71.716;  -14.120;  638.080
1029.369;   70.680;  -13.140;  612.700
1029.918;   72.573;  -12.830;  649.840
1030.468;   69.528;  -16.360;  564.780
1031.017;   71.109;  -13.860;  634.800
1031.566;   69.713;  -11.080;  608.900
1032.115;   70.914;   -8.710;  694.500
1032.664;   67.435;  -16.770;  596.480
1033.213;   69.956;  -12.840;  735.420
1033.762;   67.636;  -12.620;  635.620
1034.311;   67.531;  -10.750;  677.220
1034.860;   67.679;  -12.880;  691.000
1035.408;   67.081;  -13.920;  722.720
1035.957;   68.246;   -8.580;  719.540
1036.506;   63.943;  -11.910;  530.800
1037.055;   68.799;  -12.760;  844.320
1037.603;   64.342;  -14.440;  664.000
1038.152;   62.763;  -14.250;  534.760
1038.700;   64.287;  -11.060;  585.740
1039.249;   62.641;  -16.010;  681.220
1039.797;   63.559;  -13.650;  633.360
1040.345;   63.684;  -10.830;  705.420
1040.894;   65.028;   -9.840;  625.300
1041.442;   61.317;  -14.770;  632.200
1041.990;   60.382;  -18.520;  559.160
1042.538;   60.635;  -12.970;  536.180
1043.087;   60.620;  -11.730;  570.860
1043.635;   61.409;  -12.880;  670.500
1044.183;   60.081;  -15.620;  586.400
1044.731;   60.223;  -11.080;  576.000
1045.279;   60.744;  -10.030;  674.920
1045.827;   62.737;  -11.020;  892.400
1046.374;   57.755;  -15.130;  515.420
1046.922;   59.038;  -12.570;  590.580
1047.470;   60.312;  -10.810;  691.300
1048.018;   58.478;  -13.900;  647.960
1048.565;   60.067;  -12.760;  708.600
1049.113;   57.155;  -13.550;  557.000
1049.660;   57.061;  -12.430;  629.660
1050.208;   57.637;  -14.770;  675.640
1050.755;   55.661;  -15.970;  606.580
1051.303;   57.080;  -11.460;  686.820
1051.850;   55.851;  -10.990;  635.120
1052.397;   54.100;  -15.980;  473.960
1052.945;   54.378;  -13.960;  617.760
1053.492;   56.989;  -10.510;  741.840
1054.039;   56.217;  -11.940;  720.180
1054.586;   54.140;  -15.500;  557.240
1055.133;   55.262;  -12.570;  693.140
1055.680;   54.656;  -11.770;  646.620
1056.227;   52.349;  -13.940;  542.780
1056.774;   55.156;  -11.440;  794.980
1057.321;   52.052;  -14.200;  523.260
1057.868;   53.795;  -10.810;  651.320
1058.415;   52.035;  -11.780;  651.980
1058.961;   53.883;  -13.070;  678.940
1059.508;   52.522;  -16.400;  643.820
1060.055;   51.208;  -14.040;  581.780
1060.601;   53.478;   -9.460;  624.300
1061.148;   51.414;  -15.430;  616.820
1061.694;   51.200;  -15.940;  592.580
1062.241;   51.127;  -13.520;  596.320
1062.787;   51.405;  -11.070;  663.140
1063.334;   53.330;  -11.220;  808.560
1063.880;   49.811;  -14.810;  668.360
1064.426;   50.812;  -10.460;  706.820
1064.972;   49.309;  -10.790;  601.340
1065.518;   47.897;  -16.930;  566.640
1066.065;   48.162;  -15.590;  624.460
1066.611;   50.165;  -12.090;  598.800
1067.157;   49.208;  -12.370;  641.860
1067.703;   48.776;  -13.220;  668.480
1068.249;   46.728;  -15.890;  605.220
1068.794;   47.719;  -12.560;  626.880
1069.340;   47.259;  -12.040;  578.960
1069.886;   45.391;  -14.660;  590.700
1070.432;   45.288;  -16.230;  541.720
1070.977;   47.768;   -9.620;  601.080
1071.523;   46.622;  -11.160;  573.060
1072.068;   45.776;  -13.510;  582.000
1072.614;   43.248;  -17.000;  527.760
1073.160;   47.601;   -9.740;  687.040
1073.705;   45.053;  -11.750;  572.520
1074.250;   44.402;  -14.070;  559.900
1074.796;   44.098;  -16.470;  655.160
1075.341;   46.805;  -11.210;  664.100
1075.886;   44.991;  -11.160;  594.240
1076.431;   43.624;  -15.540;  649.880
1076.976;   42.002;  -15.020;  639.220
1077.521;   43.549;  -10.110;  583.080
1078.067;   42.649;  -12.700;  579.400
1078.612;   43.667;  -12.010;  661.620
1079.156;   41.968;  -15.690;  601.540
1079.701;   44.405;  -12.260;  693.260
1080.246;   43.698;  -10.470;  696.300
1080.791;   42.056;  -15.620;  625.020
1081.336;   41.896;  -15.570;  659.320
1081.880;   41.126;  -12.700;  649.680
1082.425;   41.030;  -10.880;  573.480
1082.970;   42.800;  -12.050;  717.040
1083.514;   39.284;  -14.830;  597.000
1084.059;   40.209;  -13.630;  586.720
1084.603;   39.759;  -11.610;  565.840
1085.147;   40.294;  -13.170;  645.220
1085.692;   40.646;  -14.330;  716.800
1086.236;   38.319;  -10.860;  503.140
1086.780;   40.868;  -10.600;  751.440
1087.325;   39.759;  -11.690;  654.620
1087.869;   38.690;  -13.220;  610.700
1088.413;   39.487;  -12.020;  705.040
1088.957;   36.274;  -14.320;  543.400
1089.501;   38.899;  -11.420;  766.640
1090.045;   38.912;  -12.630;  726.480
1090.589;   35.964;  -13.780;  569.920
1091.133;   38.598;   -9.030;  673.340
1091.676;   37.421;  -14.350;  591.940
1092.220;   37.122;  -15.850;  600.920
1092.764;   37.985;  -10.860;  706.960
1093.307;   38.290;   -9.680;  673.780
1093.851;   33.955;  -17.180;  556.540
1094.395;   36.843;  -14.810;  683.140
1094.938;   34.127;  -13.770;  632.520
1095.482;   36.379;  -11.120;  559.800
1096.025;   36.842;  -12.780;  710.880
1096.568;   36.254;  -14.470;  779.280
1097.112;   33.777;  -12.370;  508.180
1097.655;   35.210;  -12.030;  603.000
1098.198;   34.749;  -15.440;  600.180
1098.741;   33.311;  -15.860;  612.860
1099.285;   35.166;  -13.030;  657.300
1099.828;   32.226;  -12.830;  439.400
1100.371;   34.234;  -14.870;  608.160
1100.914;   33.626;  -15.020;  682.660
1101.457;   32.658;  -12.910;  679.900
1101.999;   32.956;  -10.120;  584.680
1102.542;   32.589;  -14.110;  641.440
1103.085;   32.300;  -14.560;  658.500
1103.628;   34.542;  -10.370;  762.060
1104.170;   32.367;  -10.620;  588.280
1104.713;   31.466;  -14.580;  646.700
1105.256;   31.548;  -12.820;  557.440
1105.798;   30.008;  -13.800;  499.980
1106.341;   33.361;   -9.240;  728.900
1106.883;   29.096;  -16.780;  521.340
1107.425;   30.251;  -13.710;  668.180
1107.968;   29.882;  -12.640;  612.380
1108.510;   32.124;   -9.170;  684.960
1109.052;   28.627;  -12.700;  612.620
1109.594;   28.551;  -14.340;  554.440
1110.136;   30.976;  -10.420;  643.220
1110.679;   29.837;  -10.640;  633.080
1111.221;   28.139;  -14.610;  604.460
1111.763;   27.290;  -16.140;  559.220
1112.304;   28.732;  -13.800;  547.140
1112.846;   29.147;  -10.580;  666.240
1113.388;   32.895;   -9.890;  942.180
1113.930;   27.989;  -14.720;  694.200
1114.472;   27.550;  -11.940;  606.540
1115.013;   26.049;  -12.180;  551.280
1115.555;   26.363;  -16.040;  587.100
1116.097;   25.225;  -16.340;  579.480
1116.638;   28.271;  -12.270;  684.600
1117.180;   28.311;   -8.280;  667.740
1117.721;   24.628;  -15.290;  568.580
1118.262;   27.936;  -13.110;  677.960
1118.804;   26.241;  -12.690;  637.340
1119.345;   25.494;  -11.940;  578.400
1119.886;   26.102;  -15.090;  704.040
1120.427;   24.939;  -14.820;  589.020
1120.969;   24.993;  -11.040;  597.920
1121.510;   23.844;  -13.070;  563.060
1122.051;   25.977;  -14.060;  723.580
1122.592;   23.767;  -16.410;  655.420
1123.133;   24.151;  -13.480;  547.940
1123.673;   25.749;  -10.570;  706.480
1124.214;   25.410;  -13.230;  612.460
1124.755;   23.361;  -15.080;  639.460
1125.296;   24.814;  -11.240;  627.320
1125.836;   24.766;   -7.670;  691.500
1126.377;   22.332;  -13.370;  599.660
1126.918;   23.157;  -13.320;  614.980
1127.458;   21.865;  -13.410;  622.220
1127.999;   23.648;   -9.310;  656.980
1128.539;   24.137;  -13.340;  694.240
1129.079;   22.039;  -15.830;  632.720
1129.620;   21.298;  -13.620;  558.100
1130.160;   22.686;  -12.950;  539.480
1130.700;   22.619;  -13.720;  640.840
1131.240;   23.519;  -14.260;  643.700
1131.781;   21.349;  -13.410;  619.680
1132.321;   21.267;  -13.840;  599.120
1132.861;   20.770;  -16.310;  564.200
1133.401;   19.385;  -16.110;  593.940
1133.941;   21.183;  -10.450;  626.280
1134.481;   20.977;  -10.680;  597.580
1135.020;   20.974;  -14.480;  609.160
1135.560;   20.203;  -13.580;  674.940
1136.100;   18.870;  -13.670;  501.160
1136.640;   19.341;  -14.170;  510.480
1137.179;   19.196;  -16.700;  537.960
1137.719;   19.597;  -14.230;  605.400
1138.258;   18.568;  -14.920;  587.360
1138.798;   20.642;   -8.810;  663.780
1139.337;   17.748;  -16.230;  482.840
1139.877;   18.867;  -14.910;  642.360
1140.416;   22.645;   -7.730;  878.060
1140.955;   17.849;  -13.370;  535.380
1141.494;   18.641;  -13.300;  669.280
1142.034;   17.458;  -14.940;  583.520
1142.573;   19.119;  -12.700;  646.280
1143.112;   18.186;  -12.790;  553.480
1143.651;   17.838;  -14.310;  536.480
1144.190;   18.009;  -15.170;  691.640
1144.729;   16.784;  -14.040;  607.420
1145.267;   18.673;  -10.770;  584.900
1145.806;   17.791;  -11.880;  637.040
1146.345;   16.278;  -15.880;  635.020
1146.884;   16.368;  -11.540;  622.500
1147.422;   16.151;  -12.360;  533.060
1147.961;   17.792;  -11.920;  708.460
1148.500;   18.132;  -13.760;  669.720
1149.038;   17.572;  -12.710;  632.500
1149.577;   17.936;   -9.950;  698.640
1150.115;   14.120;  -17.560;  452.280
1150.653;   15.049;  -15.380;  607.340
1151.192;   15.586;  -11.990;  552.920
1151.730;   16.194;  -10.960;  652.560
1152.268;   15.548;  -13.890;  589.520
1152.806;   14.086;  -16.930;  571.180
1153.344;   15.025;  -11.760;  577.640
1153.882;   15.480;   -9.560;  600.060
1154.421;   12.719;  -16.140;  470.620
1154.958;   12.862;  -15.940;  595.240
1155.496;   15.985;  -13.580;  645.280
1156.034;   15.025;  -10.580;  721.880
1156.572;   14.847;  -14.520;  667.060
1157.110;   12.812;  -15.450;  473.940
1157.647;   14.727;  -11.280;  676.960
1158.185;   13.261;  -14.090;  564.320
1158.723;   11.614;  -18.640;  509.200
1159.260;   13.815;  -12.690;  701.700
1159.798;   14.059;  -10.450;  658.160
1160.335;   13.791;  -12.130;  631.820

