gmr_left_hwp1
Integration time [ms]: 300.000
Averaging Nr. [scans]: 30
Smoothing Nr. [pixels]: 0
Data measured with spectrometer [name]: 7414430SP
Wave   ;Sample   ;Dark     ;Reference
[nm]   ;[counts] ;[counts] ;[counts] 

288.544;  478.333;  409.495;    6.613
289.143;  399.437;  334.741;   14.216
289.742;  504.774;  438.471;   11.816
290.341;  478.576;  418.127;   -4.936
290.940;  437.887;  374.571;    0.852
291.538;  547.302;  486.444;    1.792
292.137;  485.243;  414.837;    6.262
292.736;  618.909;  548.261;    8.164
293.335;  440.893;  380.904;   -6.418
293.934;  470.218;  413.615;   -2.904
294.532;  651.858;  601.463;   -5.162
295.131;  520.039;  463.325;  -10.283
295.730;  507.716;  447.004;  -16.141
296.328;  484.874;  435.754;  -14.740
296.927;  478.427;  428.130;   -8.768
297.525;  479.090;  423.459;  -15.255
298.124;  387.639;  340.248;  -22.063
298.722;  464.097;  419.149;  -14.796
299.321;  431.402;  377.482;  -10.466
299.919;  459.047;  410.080;  -10.979
300.518;  416.314;  368.337;  -12.077
301.116;  415.038;  370.383;  -13.509
301.715;  442.274;  390.100;  -11.939
302.313;  431.083;  382.345;  -15.424
302.911;  453.324;  409.207;  -19.833
303.509;  589.819;  543.847;   -3.567
304.108;  471.086;  423.019;   -9.553
304.706;  505.422;  452.293;   -8.582
305.304;  499.361;  460.774;  -12.348
305.902;  489.692;  441.800;  -14.411
306.500;  449.793;  404.342;   -7.194
307.098;  467.462;  424.328;   -9.322
307.696;  495.097;  457.530;  -19.192
308.294;  459.387;  419.528;   -9.736
308.892;  481.731;  441.888;  -15.482
309.490;  443.404;  397.807;  -14.107
310.088;  495.564;  463.266;  -15.862
310.686;  522.764;  480.333;  -10.781
311.284;  482.201;  445.100;  -14.878
311.882;  460.773;  422.933;   -9.948
312.480;  430.800;  400.225;  -15.503
313.078;  515.027;  475.435;  -17.262
313.675;  432.393;  394.542;   -3.694
314.273;  512.777;  482.288;  -18.246
314.871;  356.042;  328.213;  -15.190
315.468;  401.390;  369.507;  -12.633
316.066;  433.785;  402.504;   -5.765
316.664;  406.266;  380.819;  -14.317
317.261;  589.897;  553.581;   -8.677
317.859;  495.329;  465.282;  -11.804
318.456;  541.163;  506.913;   -3.107
319.054;  502.506;  472.927;   -3.062
319.651;  486.733;  461.622;   -6.706
320.249;  522.467;  496.555;   -5.206
320.846;  453.510;  426.783;   -4.679
321.443;  543.420;  514.791;   -7.920
322.041;  527.863;  499.737;  -14.105
322.638;  442.802;  424.051;   -6.263
323.235;  415.450;  394.945;   -7.424
323.833;  472.515;  451.307;  -14.765
324.430;  375.532;  353.447;  -10.550
325.027;  572.257;  544.441;   -9.951
325.624;  395.455;  367.891;   -3.712
326.221;  432.669;  398.524;   -9.368
326.818;  528.224;  500.113;   -5.637
327.415;  475.789;  435.885;   -6.699
328.012;  432.226;  386.964;   -5.713
328.609;  455.498;  424.864;   -9.983
329.206;  494.565;  454.999;   -7.154
329.803;  457.768;  417.719;   -1.682
330.400;  434.520;  389.434;   -2.741
330.997;  511.416;  468.961;   -4.339
331.594;  492.010;  450.395;  -10.278
332.191;  449.411;  403.452;   -6.967
332.787;  525.889;  483.017;   -0.480
333.384;  468.011;  428.015;  -10.333
333.981;  503.633;  466.840;  -19.900
334.578;  425.228;  383.913;  -19.816
335.174;  437.548;  399.076;  -15.844
335.771;  519.580;  482.567;  -12.670
336.367;  430.244;  393.669;  -21.124
336.964;  495.336;  453.616;  -18.226
337.561;  446.820;  406.390;  -13.311
338.157;  576.261;  537.645;  -19.006
338.754;  497.577;  465.774;  -19.418
339.350;  434.776;  404.223;  -29.433
339.946;  472.319;  442.621;  -16.622
340.543;  531.142;  495.432;  -16.744
341.139;  435.708;  410.435;  -21.841
341.735;  480.418;  452.920;  -25.012
342.332;  424.779;  394.848;  -19.156
342.928;  497.621;  465.203;  -20.443
343.524;  480.610;  446.876;  -14.397
344.120;  458.295;  432.262;  -20.654
344.716;  446.618;  413.833;   -5.730
345.313;  497.893;  480.927;  -10.929
345.909;  372.842;  342.011;  -19.843
346.505;  466.025;  436.364;  -19.645
347.101;  523.768;  490.958;   -9.618
347.697;  498.748;  467.365;  -10.305
348.293;  374.232;  344.251;  -23.189
348.889;  469.352;  438.836;  -18.418
349.485;  419.541;  384.594;  -10.476
350.081;  490.198;  454.803;  -17.320
350.676;  427.353;  395.638;  -21.088
351.272;  515.110;  474.538;  -12.821
351.868;  485.067;  454.235;  -13.165
352.464;  458.325;  419.565;  -12.464
353.059;  396.376;  371.751;  -22.547
353.655;  495.054;  462.550;   -9.379
354.251;  480.096;  445.226;   -8.266
354.846;  466.177;  434.234;  -17.705
355.442;  466.098;  439.506;   -9.317
356.038;  469.959;  437.316;  -11.049
356.633;  458.107;  423.492;  -10.006
357.229;  458.739;  425.098;  -13.120
357.824;  440.163;  410.071;  -15.647
358.420;  415.777;  388.980;  -19.204
359.015;  432.200;  398.905;  -12.263
359.610;  491.194;  455.161;  -16.421
360.206;  370.533;  339.469;  -20.074
360.801;  396.387;  368.207;  -13.277
361.396;  461.019;  425.487;   -5.822
361.992;  412.463;  388.404;  -11.247
362.587;  420.602;  385.521;  -21.502
363.182;  430.992;  399.301;   -7.461
363.777;  471.648;  436.726;   -8.719
364.372;  471.282;  439.716;  -14.590
364.967;  427.671;  397.056;  -15.145
365.563;  518.920;  487.956;   -7.192
366.158;  428.942;  399.566;   -5.662
366.753;  408.720;  374.929;   -8.378
367.348;  478.370;  442.336;  -14.990
367.942;  438.982;  403.765;   -6.005
368.537;  478.611;  450.125;  -11.504
369.132;  446.562;  411.847;  -10.576
369.727;  399.366;  370.647;  -12.573
370.322;  365.417;  329.318;  -11.560
370.917;  456.420;  422.304;  -10.388
371.511;  563.579;  526.876;   -9.161
372.106;  507.038;  477.156;  -10.245
372.701;  368.871;  333.029;  -10.158
373.296;  561.252;  531.224;   -4.719
373.890;  412.636;  378.521;  -11.802
374.485;  446.102;  420.279;  -13.500
375.079;  482.274;  450.906;   -6.276
375.674;  535.280;  500.215;   -0.447
376.268;  444.293;  416.988;   -6.916
376.863;  362.273;  339.418;  -14.483
377.457;  427.486;  401.520;   -6.903
378.052;  497.305;  466.935;   -9.844
378.646;  484.231;  457.469;  -12.601
379.240;  466.006;  443.092;  -14.715
379.835;  404.484;  383.209;  -12.331
380.429;  357.478;  326.727;   -9.074
381.023;  514.747;  486.447;   -1.729
381.617;  443.189;  412.160;  -13.714
382.212;  439.762;  421.010;   -7.060
382.806;  498.019;  474.220;   -2.303
383.400;  443.314;  415.320;   -0.815
383.994;  434.822;  409.675;   -4.429
384.588;  460.642;  433.890;   -6.261
385.182;  473.732;  451.715;    0.008
385.776;  467.755;  444.976;   -3.247
386.370;  447.501;  425.010;   -1.030
386.964;  452.655;  428.755;   -1.346
387.558;  386.927;  358.906;   -2.020
388.152;  447.230;  426.062;   -5.345
388.745;  548.662;  525.538;   -2.774
389.339;  499.211;  484.952;    3.510
389.933;  460.710;  435.917;    5.280
390.527;  583.840;  556.134;    2.610
391.120;  390.760;  367.345;   -7.914
391.714;  467.306;  450.473;   -1.903
392.308;  523.970;  501.397;    6.023
392.901;  426.036;  405.276;   -4.103
393.495;  389.318;  373.438;    3.284
394.089;  517.134;  492.192;    8.655
394.682;  472.074;  449.791;    2.312
395.275;  486.131;  466.091;   -7.402
395.869;  448.324;  425.698;   -1.072
396.462;  408.880;  391.306;    6.454
397.056;  521.036;  500.706;    8.494
397.649;  497.194;  479.805;    1.599
398.242;  480.405;  462.999;    3.153
398.836;  515.898;  498.021;   11.395
399.429;  418.169;  400.852;   14.695
400.022;  446.953;  432.501;    3.627
400.615;  551.143;  538.132;    8.383
401.208;  460.219;  446.863;   13.295
401.802;  472.007;  454.579;    6.211
402.395;  465.187;  447.734;    7.227
402.988;  466.565;  451.215;    2.700
403.581;  431.612;  413.103;   11.225
404.174;  467.162;  453.490;   18.922
404.767;  429.326;  415.270;   14.169
405.360;  412.244;  400.695;    8.999
405.953;  517.046;  490.897;   13.138
406.545;  489.142;  476.388;   13.937
407.138;  413.355;  394.439;   10.869
407.731;  410.626;  400.391;   12.768
408.324;  439.004;  427.127;   22.921
408.917;  459.932;  443.448;   15.308
409.509;  504.467;  493.496;   12.239
410.102;  433.837;  419.217;   13.741
410.695;  446.276;  431.403;   20.249
411.287;  398.003;  386.549;   21.793
411.880;  391.672;  381.535;   22.965
412.472;  404.798;  402.894;   15.082
413.065;  420.462;  413.469;   23.423
413.657;  380.540;  371.883;   21.077
414.250;  437.430;  420.377;   12.349
414.842;  447.304;  441.751;   20.423
415.434;  375.912;  370.604;   19.906
416.027;  433.552;  421.460;   26.574
416.619;  481.758;  469.417;   15.705
417.211;  387.419;  385.081;   17.791
417.804;  414.076;  402.209;   30.244
418.396;  408.315;  399.311;   24.177
418.988;  440.370;  430.319;   24.904
419.580;  371.461;  367.521;   20.692
420.172;  352.252;  353.384;   22.275
420.764;  448.527;  439.276;   26.773
421.356;  421.834;  416.954;   25.731
421.948;  444.394;  451.479;   24.876
422.540;  452.339;  448.554;   30.042
423.132;  390.655;  389.159;   32.728
423.724;  369.375;  364.076;   21.317
424.316;  412.127;  401.037;   29.359
424.908;  388.450;  384.026;   28.798
425.500;  428.659;  420.493;   30.512
426.092;  431.572;  415.597;   26.741
426.683;  456.013;  455.610;   27.029
427.275;  420.630;  418.767;   32.611
427.867;  444.433;  436.346;   33.796
428.458;  483.207;  475.212;   34.453
429.050;  450.448;  448.830;   34.255
429.642;  493.404;  490.604;   39.082
430.233;  354.835;  356.763;   41.138
430.825;  484.379;  482.287;   31.581
431.416;  459.452;  457.128;   35.755
432.008;  419.495;  411.713;   40.566
432.599;  427.472;  421.497;   46.322
433.190;  417.487;  410.745;   46.897
433.782;  381.532;  379.813;   41.069
434.373;  585.404;  589.623;   48.778
434.964;  387.429;  379.395;   50.078
435.556;  404.974;  405.856;   52.381
436.147;  497.415;  493.316;   38.251
436.738;  459.856;  455.759;   47.237
437.329;  468.780;  462.759;   61.304
437.920;  432.742;  429.359;   48.611
438.511;  351.055;  358.172;   44.910
439.103;  394.905;  394.743;   62.404
439.694;  437.783;  435.667;   63.075
440.285;  502.627;  497.775;   61.033
440.876;  554.511;  554.861;   57.249
441.466;  356.280;  355.217;   61.306
442.057;  424.033;  421.853;   65.773
442.648;  482.654;  479.009;   65.676
443.239;  391.332;  391.774;   55.963
443.830;  455.302;  447.867;   69.631
444.421;  411.636;  409.282;   69.943
445.011;  443.917;  440.130;   72.791
445.602;  483.707;  475.218;   68.848
446.193;  289.991;  289.880;   80.044
446.783;  398.685;  390.851;   82.599
447.374;  434.581;  440.444;   77.419
447.964;  452.909;  446.408;   72.605
448.555;  527.799;  527.827;   82.041
449.145;  415.427;  411.627;   76.230
449.736;  521.778;  512.600;   75.545
450.326;  454.707;  451.236;   67.945
450.917;  421.914;  415.408;   77.598
451.507;  362.157;  362.493;   68.027
452.097;  478.471;  473.860;   67.771
452.688;  460.951;  462.279;   62.884
453.278;  335.115;  338.493;   65.512
453.868;  511.356;  503.912;   71.796
454.458;  400.187;  394.953;   60.956
455.048;  442.708;  437.873;   62.356
455.639;  336.043;  334.515;   58.782
456.229;  437.752;  440.675;   65.209
456.819;  468.255;  466.677;   61.466
457.409;  485.513;  481.128;   59.967
457.999;  455.814;  449.881;   58.093
458.589;  418.254;  417.908;   59.536
459.179;  441.618;  437.091;   55.994
459.769;  376.670;  372.249;   43.624
460.358;  486.985;  488.228;   46.978
460.948;  423.324;  408.154;   49.821
461.538;  393.810;  391.000;   54.678
462.128;  397.986;  396.875;   49.309
462.717;  423.039;  423.321;   52.774
463.307;  430.370;  423.256;   48.101
463.897;  390.415;  384.542;   45.606
464.486;  521.577;  524.293;   45.010
465.076;  443.962;  441.649;   45.519
465.666;  385.089;  374.268;   50.058
466.255;  482.959;  474.393;   44.463
466.845;  391.378;  387.211;   41.206
467.434;  437.071;  424.688;   44.847
468.023;  381.634;  377.718;   46.760
468.613;  429.887;  422.941;   39.736
469.202;  372.384;  369.407;   46.461
469.791;  439.451;  429.932;   47.944
470.381;  438.363;  434.973;   47.529
470.970;  418.443;  406.861;   43.773
471.559;  441.284;  428.056;   41.646
472.148;  385.362;  379.588;   37.914
472.738;  451.306;  441.906;   48.071
473.327;  357.527;  347.159;   47.871
473.916;  432.045;  427.635;   37.716
474.505;  444.643;  434.219;   40.256
475.094;  479.660;  471.223;   43.269
475.683;  470.741;  454.217;   36.499
476.272;  415.551;  416.541;   44.542
476.861;  396.699;  387.399;   42.297
477.449;  413.461;  400.102;   46.878
478.038;  383.426;  375.742;   35.156
478.627;  398.520;  393.394;   42.514
479.216;  435.680;  421.384;   43.937
479.805;  441.799;  429.150;   51.393
480.393;  604.188;  593.969;   53.239
480.982;  515.022;  503.699;   38.955
481.571;  498.551;  481.123;   45.436
482.159;  378.358;  365.728;   51.007
482.748;  467.616;  456.530;   49.695
483.336;  490.649;  472.134;   48.280
483.925;  430.148;  414.107;   47.166
484.513;  412.217;  396.464;   55.404
485.102;  443.589;  427.957;   54.238
485.690;  578.785;  564.805;   55.748
486.278;  555.443;  545.971;   55.934
486.867;  430.050;  418.355;   57.106
487.455;  497.716;  484.255;   56.979
488.043;  375.044;  364.352;   57.564
488.631;  561.693;  544.670;   57.432
489.220;  491.011;  467.920;   63.646
489.808;  365.194;  347.078;   65.449
490.396;  483.307;  466.870;   61.977
490.984;  409.514;  392.002;   68.834
491.572;  486.391;  463.968;   70.775
492.160;  464.644;  446.152;   67.564
492.748;  419.483;  405.612;   66.808
493.336;  498.040;  478.001;   79.747
493.924;  433.700;  404.945;   88.688
494.512;  482.984;  467.227;   84.120
495.100;  472.269;  463.219;   86.250
495.687;  497.437;  481.836;  103.074
496.275;  400.130;  384.150;  108.717
496.863;  424.831;  404.803;  107.035
497.451;  411.483;  398.294;  117.993
498.038;  439.934;  423.756;  120.116
498.626;  428.286;  410.875;  143.059
499.214;  458.543;  439.271;  153.434
499.801;  435.776;  425.344;  175.121
500.389;  365.709;  350.829;  185.617
500.976;  466.237;  442.021;  215.789
501.564;  443.780;  426.642;  240.321
502.151;  318.429;  296.059;  267.007
502.738;  421.282;  401.601;  317.961
503.326;  433.430;  407.992;  361.216
503.913;  450.977;  432.559;  401.433
504.500;  467.908;  443.554;  446.492
505.088;  381.611;  373.728;  512.063
505.675;  432.383;  409.822;  586.387
506.262;  432.305;  406.392;  671.021
506.849;  442.474;  419.819;  759.062
507.436;  491.075;  477.106;  849.788
508.023;  439.692;  416.429;  944.288
508.610;  490.787;  461.389; 1020.690
509.197;  469.227;  446.115; 1089.052
509.784;  435.124;  421.247; 1133.776
510.371;  365.867;  344.805; 1165.501
510.958;  448.422;  428.742; 1251.735
511.545;  516.927;  495.766; 1350.248
512.132;  440.294;  414.552; 1525.945
512.719;  395.077;  367.793; 1834.933
513.305;  406.577;  376.622; 1965.349
513.892;  509.094;  490.642; 1963.265
514.479;  454.911;  430.353; 2046.446
515.066;  496.734;  478.374; 2252.803
515.652;  459.836;  427.304; 2567.247
516.239;  483.797;  456.707; 2636.919
516.825;  373.821;  358.595; 2482.304
517.412;  570.160;  545.991; 2427.031
517.998;  434.294;  407.151; 2540.463
518.585;  425.363;  402.625; 2609.007
519.171;  456.367;  432.545; 2842.088
519.758;  382.713;  351.321; 3090.703
520.344;  492.057;  463.514; 3176.076
520.930;  393.189;  374.466; 3295.037
521.516;  475.115;  447.977; 3500.959
522.103;  522.784;  492.264; 3736.704
522.689;  429.084;  400.951; 3971.022
523.275;  505.657;  480.038; 4213.778
523.861;  434.336;  411.788; 4190.361
524.447;  505.713;  469.742; 4070.602
525.033;  508.558;  484.410; 4088.892
525.619;  412.410;  379.280; 4416.851
526.205;  393.318;  361.911; 4836.835
526.791;  434.455;  401.416; 4885.903
527.377;  423.971;  391.487; 4544.907
527.963;  459.891;  431.280; 4321.995
528.549;  466.061;  437.447; 4473.979
529.135;  413.782;  382.725; 4788.663
529.721;  453.570;  420.218; 4888.577
530.306;  609.061;  580.947; 4775.779
530.892;  435.425;  395.249; 4793.906
531.478;  427.140;  389.046; 4956.948
532.063;  405.847;  368.426; 5136.936
532.649;  554.998;  522.196; 5336.867
533.235;  407.008;  377.000; 5748.092
533.820;  518.424;  482.790; 6456.875
534.406;  441.761;  409.399; 6590.167
534.991;  407.180;  377.820; 6179.622
535.576;  448.045;  411.785; 6098.691
536.162;  618.689;  584.963; 6441.234
536.747;  390.846;  356.157; 6816.224
537.333;  412.323;  376.896; 6889.752
537.918;  446.236;  412.087; 7154.280
538.503;  430.419;  388.705; 7150.848
539.088;  470.438;  436.665; 7253.308
539.673;  441.140;  407.318; 7625.180
540.259;  418.545;  383.364; 8226.793
540.844;  382.358;  336.610; 8745.092
541.429;  559.047;  519.480; 8762.553
542.014;  388.887;  350.519; 8871.497
542.599;  478.383;  435.412; 8886.008
543.184;  404.626;  356.454; 9079.139
543.769;  428.261;  383.817; 9076.182
544.354;  442.411;  395.094; 8354.081
544.938;  472.792;  437.052; 8236.809
545.523;  555.811;  512.791; 8222.179
546.108;  468.036;  415.345; 8114.082
546.693;  462.996;  413.231; 8535.912
547.278;  467.309;  413.668; 9238.322
547.862;  466.046;  408.157; 9034.405
548.447;  519.875;  462.999; 7795.011
549.031;  453.882;  404.079; 7485.099
549.616;  492.308;  435.463; 7626.308
550.201;  457.142;  393.375; 7627.909
550.785;  517.571;  449.341; 7859.125
551.370;  423.160;  359.017; 7990.654
551.954;  530.540;  467.270; 8196.468
552.538;  530.533;  457.008; 7959.495
553.123;  465.100;  384.555; 7964.826
553.707;  473.397;  400.284; 8515.957
554.291;  567.288;  489.018; 8724.024
554.876;  545.016;  460.260; 8524.211
555.460;  481.043;  384.052; 8704.456
556.044;  481.385;  387.855; 9141.473
556.628;  516.232;  417.244; 9250.197
557.212;  590.597;  479.461; 9444.237
557.796;  521.557;  405.744; 9379.783
558.380;  554.297;  434.930; 9353.658
558.964;  558.067;  421.226; 9210.310
559.548;  501.102;  353.821; 8475.153
560.132;  544.340;  397.378; 7954.084
560.716;  527.504;  363.734; 7489.529
561.300;  543.877;  357.771; 7211.952
561.884;  636.091;  449.167; 7141.313
562.467;  646.669;  445.272; 7155.386
563.051;  637.147;  417.174; 7323.158
563.635;  654.920;  401.327; 7709.114
564.219;  681.151;  414.401; 7678.855
564.802;  739.219;  443.494; 7376.187
565.386;  740.114;  421.879; 7054.372
565.969;  822.778;  490.012; 6589.196
566.553;  911.240;  538.506; 6279.371
567.136;  901.583;  479.126; 5967.930
567.720;  875.115;  420.827; 5660.703
568.303;  933.220;  435.839; 5648.615
568.887;  975.109;  420.625; 5618.443
569.470; 1018.197;  434.505; 5411.875
570.053; 1056.110;  461.885; 5149.274
570.637; 1035.920;  379.297; 5122.798
571.220; 1195.623;  464.538; 4957.369
571.803; 1353.470;  541.031; 4933.018
572.386; 1317.839;  395.375; 4840.973
572.969; 1411.448;  404.785; 4592.886
573.552; 1508.815;  408.464; 4348.387
574.135; 1513.306;  381.817; 4002.290
574.718; 1515.235;  389.178; 3654.773
575.301; 1625.654;  385.145; 3502.288
575.884; 1736.074;  381.111; 3349.803
576.467; 2068.682;  478.927; 3191.403
577.050; 2238.824;  428.239; 3062.418
577.633; 2531.124;  519.252; 3214.200
578.216; 2613.723;  403.683; 3284.889
578.799; 2679.789;  404.034; 3189.777
579.381; 2897.011;  541.163; 3064.502
579.964; 2955.664;  385.784; 2888.357
580.547; 3291.351;  428.540; 2905.760
581.129; 3562.900;  497.348; 2966.849
581.712; 3613.694;  447.028; 2887.292
582.294; 3830.137;  420.025; 2771.631
582.877; 4275.532;  539.038; 2711.602
583.459; 4420.592;  414.466; 2577.049
584.042; 4800.428;  408.667; 2454.707
584.624; 5184.769;  379.923; 2305.893
585.206; 5258.963;  326.348; 2189.546
585.789; 5612.222;  391.946; 2112.577
586.371; 5869.959;  441.495; 2153.065
586.953; 6092.465;  465.752; 2197.806
587.536; 6361.856;  495.483; 2105.489
588.118; 6669.406;  411.286; 1963.911
588.700; 7113.880;  503.076; 1843.179
589.282; 7464.958;  447.902; 1813.834
589.864; 7792.586;  420.445; 1777.620
590.446; 8063.693;  329.246; 1733.780
591.028; 8460.557;  425.227; 1676.008
591.610; 8492.079;  342.207; 1631.649
592.192; 8742.043;  430.570; 1632.362
592.774; 8636.494;  365.246; 1569.507
593.356; 8948.262;  392.805; 1524.539
593.937; 9077.299;  383.391; 1569.720
594.519; 9544.038;  481.979; 1569.049
595.101;10098.438;  348.094; 1545.452
595.683;11224.775;  401.609; 1607.568
596.264;11731.640;  413.014; 1615.506
596.846;11927.207;  400.744; 1667.622
597.427;12156.413;  389.318; 1670.469
598.009;12648.682;  386.714; 1640.312
598.591;12775.345;  456.341; 1541.022
599.172;12454.597;  405.793; 1598.665
599.753;12445.838;  359.390; 1619.068
600.335;12837.481;  500.893; 1548.612
600.916;13216.502;  410.410; 1607.510
601.498;13906.710;  434.136; 1745.181
602.079;14391.231;  416.725; 1801.011
602.660;14692.179;  414.874; 1834.640
603.241;14528.446;  328.998; 1787.351
603.823;14235.222;  394.777; 1684.266
604.404;14335.820;  364.402; 1654.241
604.985;15069.607;  401.455; 1758.741
605.566;15646.922;  469.937; 1697.679
606.147;16003.169;  411.297; 1526.728
606.728;15967.997;  361.883; 1484.086
607.309;15685.567;  385.917; 1421.070
607.890;15603.893;  402.220; 1369.867
608.471;15920.736;  379.906; 1277.826
609.051;15966.927;  433.033; 1180.416
609.632;16003.406;  372.346; 1075.816
610.213;16038.348;  411.693; 1053.313
610.794;15774.486;  398.314;  979.442
611.374;15912.123;  438.800;  917.414
611.955;16148.992;  351.498;  819.987
612.536;16303.020;  438.963;  752.627
613.116;16334.389;  386.882;  690.799
613.697;16215.737;  383.263;  674.974
614.277;15743.545;  376.279;  663.846
614.858;14785.547;  386.020;  665.898
615.438;14363.610;  420.529;  660.712
616.019;14418.277;  497.074;  632.732
616.599;15303.795;  323.350;  551.759
617.179;17057.070;  361.926;  512.871
617.760;18102.025;  558.005;  473.655
618.340;17657.418;  411.157;  440.004
618.920;17014.869;  513.467;  429.731
619.500;16786.166;  396.617;  441.361
620.080;16166.414;  375.435;  425.202
620.660;15406.133;  375.586;  408.164
621.241;15417.982;  395.128;  387.161
621.821;15431.647;  418.053;  378.017
622.401;15534.942;  468.066;  379.188
622.980;16383.335;  352.664;  350.019
623.560;16104.628;  393.369;  336.446
624.140;14505.729;  425.268;  336.473
624.720;13484.983;  438.321;  334.974
625.300;12742.598;  367.297;  325.717
625.880;13714.839;  410.661;  308.519
626.459;14604.894;  412.112;  307.117
627.039;15094.763;  340.643;  290.890
627.619;15619.048;  539.219;  286.635
628.198;16320.448;  478.807;  282.535
628.778;17159.949;  446.655;  285.474
629.357;16680.143;  363.050;  284.103
629.937;16048.729;  396.128;  292.178
630.516;15877.198;  500.902;  290.749
631.096;16166.268;  377.050;  285.489
631.675;16616.646;  491.125;  287.022
632.254;16306.806;  384.127;  286.038
632.834;15773.215;  410.949;  276.451
633.413;15726.465;  501.045;  279.447
633.992;15216.479;  472.220;  264.508
634.571;15212.784;  448.108;  271.010
635.151;15660.798;  367.866;  277.338
635.730;15588.980;  410.105;  289.305
636.309;15417.501;  441.237;  285.306
636.888;15138.344;  449.985;  254.051
637.467;15329.755;  337.144;  230.324
638.046;16338.424;  498.141;  253.349
638.625;16296.786;  484.452;  246.866
639.204;15686.080;  428.662;  240.825
639.782;14732.090;  413.143;  261.970
640.361;13231.529;  482.874;  277.780
640.940;12991.572;  382.110;  270.101
641.519;13445.348;  439.647;  248.622
642.097;14888.957;  447.483;  239.843
642.676;15881.666;  423.953;  244.264
643.255;16066.108;  401.956;  234.985
643.833;15946.650;  448.226;  244.406
644.412;15938.760;  395.396;  244.927
644.990;15563.769;  418.399;  249.948
645.569;15136.178;  444.669;  249.569
646.147;15485.887;  468.672;  243.290
646.726;15458.762;  425.709;  249.511
647.304;15571.838;  402.579;  228.032
647.882;15851.080;  335.515;  214.552
648.461;15978.822;  434.185;  214.973
649.039;15446.599;  456.889;  223.394
649.617;14905.574;  452.492;  261.415
650.195;14121.583;  427.495;  298.736
650.773;13678.925;  392.832;  309.557
651.352;13155.668;  323.801;  297.978
651.930;12378.343;  318.671;  289.399
652.508;12037.919;  458.841;  285.620
653.086;12178.961;  434.078;  272.241
653.663;13828.771;  374.914;  265.062
654.241;15106.313;  356.318;  286.083
654.819;15378.621;  362.354;  286.404
655.397;15005.431;  376.591;  291.825
655.975;14904.640;  401.194;  299.145
656.553;15457.249;  500.364;  288.866
657.130;14950.258;  367.800;  304.087
657.708;14142.233;  430.804;  302.908
658.286;13657.176;  414.340;  294.629
658.863;13048.251;  426.177;  293.350
659.441;13520.327;  426.813;  318.671
660.018;14543.203;  413.016;  333.692
660.596;14972.278;  326.286;  335.013
661.173;15010.888;  389.056;  371.534
661.750;14909.463;  368.959;  365.155
662.328;14975.405;  444.363;  349.976
662.905;13772.548;  393.499;  332.997
663.482;12853.123;  407.269;  321.717
664.060;12481.766;  381.572;  314.438
664.637;12672.708;  456.109;  306.259
665.214;13464.617;  425.479;  314.580
665.791;14524.926;  400.882;  334.501
666.368;15190.269;  386.252;  329.222
666.945;15687.511;  452.688;  342.143
667.522;15629.319;  371.892;  370.964
668.099;15686.195;  404.828;  396.885
668.676;15727.738;  404.831;  391.706
669.253;15967.514;  504.701;  369.627
669.830;16653.322;  481.505;  360.348
670.407;16179.099;  404.108;  344.769
670.984;15663.240;  410.411;  322.890
671.560;15313.783;  455.814;  316.910
672.137;14621.492;  388.117;  322.531
672.714;14431.768;  437.121;  318.552
673.290;14675.576;  427.957;  324.473
673.867;14798.652;  379.494;  340.594
674.443;14932.028;  354.464;  319.515
675.020;14889.903;  424.067;  286.336
675.596;15058.779;  402.037;  247.557
676.173;15395.588;  347.573;  227.778
676.749;15970.030;  301.010;  224.399
677.326;16864.840;  342.280;  230.520
677.902;17040.982;  374.416;  241.841
678.478;15950.324;  349.919;  239.762
679.054;15999.200;  620.423;  248.583
679.631;16036.409;  432.093;  237.503
680.207;16056.385;  520.296;  245.924
680.783;15542.261;  316.666;  224.845
681.359;14863.103;  410.836;  209.666
681.935;14890.012;  415.505;  191.687
682.511;15545.221;  416.242;  210.008
683.087;15499.930;  441.445;  213.329
683.663;15054.372;  398.882;  216.850
684.239;14308.314;  350.018;  229.471
684.815;13880.590;  468.988;  248.792
685.390;14495.732;  529.491;  231.813
685.966;15363.075;  413.461;  221.234
686.542;15331.250;  375.298;  214.255
687.118;14599.626;  421.001;  212.276
687.693;14963.635;  443.704;  233.096
688.269;15375.044;  401.074;  246.917
688.844;15717.486;  436.044;  236.938
689.420;16300.862;  418.281;  242.059
689.995;15947.071;  510.317;  245.480
690.571;15338.280;  487.387;  244.701
691.146;15403.723;  399.657;  251.922
691.722;16109.731;  431.160;  284.743
692.297;15611.874;  383.697;  320.664
692.872;15181.449;  371.067;  313.885
693.448;15008.925;  363.270;  290.106
694.023;15090.435;  420.573;  304.327
694.598;15465.843;  416.443;  319.648
695.173;15977.586;  391.680;  323.169
695.748;16545.127;  326.783;  376.389
696.323;16216.937;  407.086;  397.610
696.898;16298.746;  476.623;  430.231
697.473;16585.588;  335.926;  454.952
698.048;15974.697;  395.396;  478.973
698.623;15139.973;  348.499;  477.094
699.198;15367.148;  421.569;  496.915
699.773;15410.124;  377.505;  490.236
700.348;15489.934;  357.509;  519.957
700.922;16254.376;  412.778;  575.678
701.497;16176.718;  407.648;  621.399
702.072;15949.360;  459.318;  664.420
702.646;15595.236;  449.388;  690.541
703.221;15337.078;  426.625;  748.862
703.795;14784.954;  360.594;  774.282
704.370;14218.363;  296.731;  799.803
704.944;14297.105;  394.334;  875.824
705.519;14530.715;  422.104;  902.945
706.093;14905.457;  368.807;  889.266
706.668;15689.032;  444.311;  903.487
707.242;15997.208;  450.080;  881.708
707.816;15307.351;  386.317;  892.329
708.390;15291.393;  405.454;  970.250
708.965;15726.135;  426.357;  984.671
709.539;15298.678;  399.660; 1026.092
710.113;14612.854;  410.530; 1067.913
710.687;14453.495;  449.766; 1166.434
711.261;14300.505;  356.003; 1190.854
711.835;14592.313;  365.506; 1197.275
712.409;14671.789;  328.643; 1308.096
712.983;14634.265;  338.346; 1461.617
713.557;14474.540;  337.683; 1611.838
714.131;14511.517;  397.819; 1554.359
714.704;15061.825;  368.289; 1520.780
715.278;14791.268;  408.759; 1575.101
715.852;13669.043;  445.995; 1689.822
716.425;13216.086;  520.432; 1829.143
716.999;13288.961;  331.435; 2008.664
717.573;13443.604;  435.738; 2000.485
718.146;13252.412;  507.875; 1914.506
718.720;13126.222;  415.978; 1818.026
719.293;13368.063;  431.881; 1734.147
719.867;13357.506;  371.085; 1716.968
720.440;13630.516;  477.755; 1918.589
721.013;14214.591;  380.458; 1975.410
721.587;14044.767;  341.994; 2073.331
722.160;13562.109;  455.064; 2357.852
722.733;13383.451;  419.534; 2657.073
723.306;12718.827;  404.204; 2703.894
723.880;12003.169;  420.674; 2549.415
724.453;12095.679;  482.310; 2414.336
725.026;12496.987;  380.414; 2298.557
725.599;13292.063;  423.417; 2168.778
726.172;13516.072;  436.120; 2106.099
726.745;13178.181;  426.923; 2253.320
727.318;13033.823;  456.693; 2404.740
727.891;13109.599;  422.696; 2680.161
728.463;13460.008;  415.466; 2838.882
729.036;13508.750;  373.903; 2755.103
729.609;13095.526;  365.373; 2731.824
730.182;12481.068;  448.843; 2855.645
730.754;11931.711;  306.879; 2946.866
731.327;12265.453;  430.849; 2840.187
731.900;12401.396;  340.786; 2647.608
732.472;12699.638;  410.456; 2473.929
733.045;13302.180;  387.159; 2445.750
733.617;13289.223;  329.229; 2511.771
734.190;12640.231;  428.232; 2581.592
734.762;12049.641;  400.902; 2710.813
735.334;12158.449;  412.272; 3005.733
735.907;12324.525;  411.542; 3154.954
736.479;12577.268;  469.678; 3171.675
737.051;13140.644;  430.848; 3217.496
737.623;13269.652;  445.751; 3246.217
738.195;12883.062;  375.954; 2985.238
738.768;12713.104;  308.891; 2727.559
739.340;13048.046;  387.394; 2666.880
739.912;13407.155;  452.164; 2769.601
740.484;13555.197;  432.401; 2731.422
741.056;13470.040;  394.970; 2963.043
741.628;12906.215;  360.507; 3361.364
742.199;12421.558;  477.377; 3641.185
742.771;12303.500;  347.947; 3932.005
743.343;12202.609;  360.417; 4319.926
743.915;12378.251;  430.787; 4706.647
744.487;12223.327;  435.456; 4874.968
745.058;11744.203;  438.360; 4616.589
745.630;11217.145;  441.496; 4253.410
746.201;10956.320;  376.899; 4056.131
746.773;11077.630;  433.369; 3772.952
747.344;11441.306;  403.406; 3642.473
747.916;11563.681;  422.642; 3752.294
748.487;11656.156;  449.846; 4106.215
749.059;11437.032;  349.649; 4457.835
749.630;11479.342;  377.119; 4366.457
750.201;11492.750;  405.889; 4600.078
750.773;11357.626;  375.092; 4658.499
751.344;11705.235;  412.462; 4609.319
751.915;11969.444;  405.532; 4526.440
752.486;11343.087;  371.235; 4536.061
753.057;10599.028;  413.405; 4383.282
753.628;10355.738;  365.275; 4296.503
754.199;10853.413;  385.978; 4383.224
754.770;11606.189;  443.748; 4653.545
755.341;11925.165;  459.018; 4831.666
755.912;11456.107;  395.754; 4831.387
756.483;11167.017;  438.857; 4735.808
757.054;10954.691;  389.961; 4685.029
757.625;10863.534;  361.131; 4994.250
758.195;10779.310;  345.634; 5051.471
758.766;10764.752;  418.904; 5317.792
759.337;10768.062;  330.474; 5646.512
759.907;11103.870;  341.910; 5404.133
760.478;11340.946;  377.280; 5090.954
761.048;10808.655;  433.950; 4871.175
761.619;10404.063;  430.920; 4589.396
762.189;10811.006;  401.090; 4171.317
762.760;10879.349;  455.526; 3872.538
763.330;10211.958;  440.663; 3832.259
763.900; 9884.467;  420.233; 4150.180
764.471; 9523.942;  361.269; 4529.801
765.041; 9432.852;  466.706; 4715.922
765.611; 9588.994;  427.909; 4681.442
766.181; 9856.436;  399.712; 4717.063
766.751;10237.945;  413.315; 4710.285
767.321;10262.921;  351.385; 4450.305
767.891; 9948.863;  415.122; 4274.126
768.461; 9574.405;  397.025; 4215.047
769.031; 9332.081;  406.562; 4173.068
769.601; 9294.590;  459.531; 4174.689
770.171; 9390.366;  341.035; 4229.310
770.741; 9993.842;  382.638; 4352.031
771.311;10433.950;  435.608; 4336.652
771.880;10196.826;  356.811; 4300.873
772.450; 9644.002;  370.614; 4387.194
773.020; 9453.645;  331.117; 4220.415
773.589; 9563.253;  385.954; 4075.835
774.159; 9464.129;  378.624; 4105.756
774.729; 9747.805;  376.760; 4114.978
775.298; 9972.247;  371.997; 3693.298
775.867; 9741.056;  375.500; 3343.119
776.437; 9616.898;  405.770; 3062.040
777.006; 9812.907;  339.440; 2927.161
777.576; 9795.816;  437.543; 3046.482
778.145; 9368.658;  426.646; 3230.203
778.714; 9175.301;  404.083; 3253.324
779.283; 9125.910;  434.386; 3129.745
779.853; 9054.819;  396.056; 2983.566
780.422; 9019.795;  406.526; 2929.887
780.991; 8835.703;  426.829; 2863.908
781.560; 8898.546;  475.832; 2948.029
782.129; 8946.521;  426.069; 3074.149
782.698; 8739.364;  482.472; 2893.970
783.267; 8419.106;  378.875; 2721.391
783.836; 8271.249;  411.212; 2659.712
784.404; 8227.824;  351.782; 2622.233
784.973; 8541.066;  299.652; 2600.754
785.542; 8890.809;  397.522; 2528.475
786.111; 9154.284;  465.225; 2404.396
786.679; 9326.394;  430.561; 2365.717
787.248; 8848.369;  333.731; 2498.438
787.817; 7914.412;  383.335; 2645.659
788.385; 7183.021;  460.104; 2709.280
788.954; 7282.063;  340.841; 2620.500
789.522; 8038.706;  446.078; 2625.422
790.090; 8280.081;  341.547; 2743.843
790.659; 8162.357;  386.784; 2635.163
791.227; 7897.999;  393.354; 2495.484
791.795; 7747.375;  418.024; 2413.705
792.364; 7757.917;  361.460; 2345.326
792.932; 8088.526;  429.630; 2350.447
793.500; 8326.035;  392.500; 2429.768
794.068; 8340.110;  340.437; 2513.589
794.636; 8127.787;  361.940; 2664.310
795.204; 7699.396;  324.976; 2721.431
795.772; 7284.904;  364.580; 2802.052
796.340; 7147.880;  375.283; 2847.173
796.908; 7303.889;  327.386; 2997.194
797.476; 7403.932;  347.923; 3151.615
798.044; 7622.274;  317.526; 3110.735
798.612; 8156.183;  397.196; 2931.656
799.180; 8568.059;  409.266; 2785.777
799.747; 8822.834;  406.369; 2899.098
800.315; 8277.410;  347.272; 2955.519
800.883; 7461.319;  318.375; 2948.940
801.450; 7458.261;  396.478; 2965.361
802.018; 7771.870;  417.915; 3070.582
802.585; 7848.313;  399.685; 3156.103
803.153; 7635.622;  370.655; 3199.524
803.720; 7401.364;  375.925; 3168.845
804.287; 7488.506;  386.995; 3248.366
804.855; 7639.315;  452.264; 3406.187
805.422; 7578.625;  385.801; 3430.907
805.989; 7818.300;  365.071; 3453.528
806.556; 7980.642;  364.707; 3612.649
807.124; 8301.385;  444.911; 3736.570
807.691; 8092.494;  354.214; 3770.491
808.258; 7826.469;  399.484; 3705.012
808.825; 7557.845;  451.687; 3828.733
809.392; 7306.254;  483.557; 3986.754
809.959; 7029.930;  419.560; 4410.075
810.526; 7295.439;  487.463; 4774.996
811.093; 7332.881;  468.033; 4754.217
811.659; 6977.257;  396.236; 4661.238
812.226; 6661.899;  397.673; 4672.559
812.793; 6526.241;  417.976; 4822.979
813.360; 6438.884;  395.079; 5189.800
813.926; 6666.726;  417.149; 5310.622
814.493; 6871.302;  347.153; 5414.542
815.060; 6899.511;  320.556; 5548.963
815.626; 6485.486;  345.559; 5452.284
816.193; 6259.762;  405.129; 5339.305
816.759; 6054.738;  363.365; 5544.426
817.325; 6160.713;  320.269; 5706.547
817.892; 6386.822;  441.005; 5623.468
818.458; 6502.098;  423.208; 5586.689
819.024; 6552.974;  460.978; 5647.910
819.591; 6318.883;  396.715; 5762.031
820.157; 6162.258;  344.818; 6284.452
820.723; 6126.034;  418.721; 6906.973
821.289; 6275.610;  625.725; 7086.894
821.855; 6100.386;  433.094; 7054.915
822.421; 5984.561;  375.031; 7112.035
822.987; 5987.837;  351.401; 7256.156
823.553; 5944.679;  382.504; 7538.077
824.119; 5929.521;  445.174; 7594.298
824.685; 5862.797;  464.044; 7613.619
825.251; 5616.973;  440.714; 7644.140
825.816; 5388.982;  493.750; 7720.261
826.382; 5359.524;  434.787; 8014.282
826.948; 5504.167;  442.690; 8281.503
827.513; 5616.476;  389.727; 8289.624
828.079; 5738.218;  354.663; 8587.045
828.645; 5749.260;  414.766; 8821.865
829.210; 5526.369;  344.270; 9054.486
829.776; 5482.178;  427.573; 9054.607
830.341; 5385.487;  441.543; 9415.628
830.906; 5219.796;  455.779; 9932.449
831.472; 4811.706;  368.316;10150.271
832.037; 4357.314;  447.052; 9420.391
832.602; 3895.090;  376.156; 8664.912
833.167; 3865.399;  402.892; 8491.933
833.733; 4050.475;  449.562; 8872.854
834.298; 4100.217;  352.765; 9370.575
834.863; 4154.160;  426.135; 9610.695
835.428; 4141.668;  420.238; 9655.616
835.993; 4233.211;  429.042; 9437.838
836.558; 4350.153;  438.978; 9441.459
837.123; 4377.162;  544.548; 9600.979
837.688; 4069.438;  429.385; 9798.301
838.253; 4017.547;  420.754; 9902.921
838.817; 3958.289;  387.524;10339.742
839.382; 3971.098;  477.961;10548.363
839.947; 3867.407;  414.764;10252.484
840.511; 3871.816;  487.934;10040.005
841.076; 3630.759;  316.471;10099.926
841.641; 3587.568;  430.607;10347.347
842.205; 3420.777;  419.110;10817.368
842.770; 3432.186;  505.380;11435.289
843.334; 3398.195;  390.250;12072.409
843.898; 3402.504;  394.687;12635.431
844.463; 3533.613;  480.390;12537.252
845.027; 3409.088;  377.593;12759.673
845.591; 3355.231;  450.730;12821.993
846.156; 3152.640;  379.933;12520.914
846.720; 3184.149;  445.703;12390.436
847.284; 3120.658;  414.939;12956.456
847.848; 2990.100;  435.043;13240.177
848.412; 2795.442;  406.379;13216.998
848.976; 2854.851;  480.816;13014.619
849.540; 2897.027;  527.286;12355.740
850.104; 2838.636;  482.255;12208.761
850.668; 2615.012;  326.692;12106.882
851.232; 2567.821;  339.362;11862.103
851.796; 2715.763;  399.098;11700.523
852.359; 2873.172;  449.802;12375.944
852.923; 2876.248;  463.538;13087.966
853.487; 2767.590;  443.308;13297.187
854.050; 2518.499;  277.978;13851.207
854.614; 2634.108;  385.048;14854.229
855.177; 2722.850;  425.451;15802.149
855.741; 2721.793;  432.921;16603.570
856.304; 2651.235;  459.991;16359.891
856.868; 2405.677;  360.827;14365.512
857.431; 2326.553;  411.631;13361.333
857.995; 2293.595;  393.267;14130.554
858.558; 2374.971;  433.570;14883.175
859.121; 2490.747;  444.274;15754.195
859.684; 2498.656;  419.777;15995.017
860.247; 2417.298;  411.280;15149.537
860.810; 2334.341;  387.650;14640.358
861.374; 2422.383;  531.387;15551.079
861.937; 2261.192;  359.956;16519.801
862.500; 2335.934;  379.460;16796.521
863.062; 2307.510;  366.129;16538.742
863.625; 2330.552;  429.333;16716.764
864.188; 2237.094;  385.303;17055.084
864.751; 2223.470;  389.439;17197.705
865.314; 2199.946;  410.176;17151.625
865.876; 2153.622;  458.546;17783.547
866.439; 2090.331;  442.049;19283.467
867.002; 2105.406;  524.252;20256.389
867.564; 1990.615;  470.822;20485.410
868.127; 1909.858;  426.825;20789.730
868.689; 1903.567;  426.428;21981.951
869.252; 1977.609;  469.665;23803.771
869.814; 1924.351;  370.668;24974.094
870.377; 1946.227;  417.505;24690.314
870.939; 2036.703;  597.108;23963.436
871.501; 1807.745;  424.544;25167.156
872.063; 1663.887;  299.948;26995.477
872.626; 1740.696;  325.218;27443.098
873.188; 1889.039;  423.421;26718.418
873.750; 1857.448;  402.591;26558.840
874.312; 1776.290;  386.194;26701.561
874.874; 1812.866;  501.397;27970.582
875.436; 1691.675;  453.067;29173.402
875.998; 1709.517;  480.570;30376.623
876.560; 1706.193;  455.507;32507.344
877.122; 1637.268;  377.577;34833.066
877.683; 1657.844;  445.780;36458.285
878.245; 1532.320;  394.850;37248.207
878.807; 1514.595;  437.420;36758.027
879.369; 1461.938;  347.490;35223.551
879.930; 1545.214;  365.359;33824.969
880.492; 1683.556;  478.796;34436.492
881.053; 1554.265;  375.133;37745.313
881.615; 1526.574;  381.002;41184.633
882.176; 1474.816;  406.606;42871.555
882.738; 1493.859;  445.376;41693.074
883.299; 1350.768;  324.079;40289.895
883.860; 1347.477;  331.382;39231.215
884.422; 1406.619;  443.552;38264.039
884.983; 1295.361;  361.488;37171.859
885.544; 1305.337;  418.658;35842.379
886.105; 1240.879;  409.428;34810.000
886.666; 1171.122;  391.231;34519.020
887.227; 1079.631;  334.968;33905.641
887.788; 1145.973;  426.605;34502.965
888.349; 1053.315;  353.974;34241.785
888.910; 1146.358;  455.311;33722.203
889.471; 1120.233;  429.514;32539.625
890.032; 1085.909;  412.017;31528.346
890.593; 1090.585;  443.087;32655.068
891.153; 1033.260;  401.324;33882.289
891.714;  951.503;  344.860;33318.711
892.275;  938.912;  354.864;31848.930
892.835; 1027.387;  458.667;30339.752
893.396;  980.230;  453.937;30074.973
893.956;  901.739;  394.340;30338.393
894.517;  907.914;  421.043;30864.113
895.077;  911.923;  428.546;29766.734
895.638;  963.866;  500.450;26379.557
896.198;  808.008;  356.486;24056.277
896.758;  879.184;  452.956;22961.898
897.319;  813.693;  398.059;21772.020
897.879;  804.435;  411.262;20877.539
898.439;  716.977;  335.866;19509.461
898.999;  803.220;  438.869;17297.582
899.559;  784.762;  431.972;14712.002
900.119;  703.305;  358.775;12790.224
900.679;  824.147;  489.679;11586.744
901.239;  760.556;  437.948;10776.465
901.799;  725.632;  419.118; 9691.687
902.359;  666.107;  376.388; 8725.907
902.919;  647.016;  371.258; 8305.728
903.479;  645.025;  364.361; 8172.649
904.038;  622.468;  345.465; 7913.870
904.598;  564.477;  305.534; 7262.291
905.158;  629.486;  382.171; 6609.012
905.717;  632.628;  400.174; 6236.133
906.277;  640.070;  410.444; 5829.054
906.836;  651.513;  426.814; 5396.674
907.396;  640.755;  431.251; 4964.195
907.955;  638.797;  432.354; 4528.917
908.515;  593.706;  392.224; 4223.837
909.074;  593.949;  395.927; 4023.958
909.633;  592.324;  395.663; 4065.379
910.192;  690.400;  498.900; 4066.300
910.752;  580.100;  391.767; 3971.600
911.311;  566.833;  382.400; 3839.600
911.870;  545.633;  367.300; 3684.500
912.429;  637.033;  459.167; 3635.600
912.988;  631.033;  457.667; 3689.800
913.547;  534.567;  359.367; 3737.700
914.106;  585.367;  417.600; 3740.300
914.665;  582.133;  409.033; 3604.600
915.224;  615.100;  456.700; 3358.700
915.782;  541.367;  382.233; 3188.400
916.341;  632.133;  474.000; 3091.400
916.900;  545.167;  385.133; 3044.800
917.458;  518.433;  359.667; 2888.600
918.017;  561.467;  411.167; 2818.900
918.576;  534.367;  382.367; 2838.600
919.134;  484.733;  334.833; 2880.100
919.693;  532.900;  381.600; 2996.300
920.251;  517.967;  371.233; 3183.100
920.809;  494.500;  352.667; 3247.000
921.368;  529.633;  383.667; 3156.600
921.926;  509.167;  356.967; 2964.900
922.484;  543.200;  404.933; 2846.300
923.042;  527.667;  386.033; 2890.400
923.601;  613.233;  469.600; 2987.700
924.159;  570.700;  424.600; 3049.800
924.717;  502.267;  360.533; 3087.000
925.275;  548.067;  408.000; 3093.400
925.833;  459.600;  320.600; 3182.400
926.391;  567.533;  433.233; 3397.900
926.949;  523.233;  379.300; 3575.400
927.506;  554.133;  416.333; 3713.400
928.064;  534.733;  385.633; 3871.300
928.622;  539.400;  392.033; 4092.800
929.180;  482.867;  340.433; 4499.300
929.737;  480.867;  333.567; 4813.200
930.295;  574.000;  421.833; 5084.100
930.853;  504.600;  358.500; 5185.000
931.410;  483.033;  340.700; 5313.100
931.968;  575.433;  432.900; 5339.600
932.525;  545.733;  402.267; 5399.900
933.082;  478.433;  335.967; 5457.500
933.640;  561.867;  411.667; 5692.900
934.197;  531.067;  378.467; 5821.200
934.754;  543.767;  380.133; 5617.900
935.312;  519.300;  358.033; 5512.400
935.869;  625.800;  472.967; 5582.400
936.426;  527.967;  369.467; 5650.100
936.983;  539.533;  381.833; 5657.400
937.540;  499.033;  340.200; 5564.300
938.097;  575.433;  415.000; 5574.000
938.654;  538.867;  376.900; 5665.900
939.211;  580.700;  410.433; 5931.600
939.768;  554.533;  391.667; 6153.600
940.324;  538.933;  379.133; 6397.600
940.881;  521.500;  358.067; 6454.200
941.438;  618.000;  456.500; 6206.900
941.995;  606.400;  433.467; 6003.900
942.551;  508.533;  343.800; 6228.300
943.108;  556.933;  400.467; 6603.500
943.664;  515.033;  346.000; 7188.100
944.221;  663.833;  501.467; 7579.900
944.777;  502.867;  338.500; 7658.100
945.334;  517.733;  350.667; 7670.400
945.890;  565.033;  394.300; 7525.100
946.446;  564.133;  394.533; 7261.500
947.003;  573.600;  408.767; 6949.200
947.559;  650.167;  485.033; 6773.100
948.115;  614.933;  448.033; 6668.400
948.671;  574.400;  409.933; 6488.400
949.227;  494.900;  328.733; 6236.600
949.783;  485.300;  320.900; 6008.900
950.339;  588.067;  421.133; 5934.100
950.895;  615.467;  442.667; 5933.500
951.451;  542.733;  376.367; 6074.700
952.007;  594.900;  423.667; 6066.400
952.563;  548.467;  379.633; 5884.100
953.118;  524.933;  368.967; 5733.800
953.674;  550.667;  387.100; 5734.300
954.230;  546.733;  397.600; 6039.700
954.785;  540.833;  390.133; 6383.500
955.341;  589.200;  431.767; 6568.200
955.897;  479.700;  318.533; 6488.600
956.452;  564.633;  408.600; 6239.200
957.008;  660.067;  506.300; 5954.600
957.563;  611.567;  453.800; 5816.700
958.118;  512.333;  362.033; 5828.200
958.674;  561.067;  402.500; 5717.400
959.229;  610.800;  458.500; 5506.800
959.784;  489.867;  329.600; 5292.200
960.339;  610.933;  456.900; 5101.900
960.894;  583.333;  430.767; 5093.200
961.449;  507.133;  350.767; 5227.900
962.004;  758.700;  612.867; 5349.300
962.559;  515.467;  362.333; 5514.900
963.114;  429.167;  277.600; 5717.300
963.669;  551.167;  400.667; 5841.400
964.224;  525.967;  362.667; 5805.900
964.779;  484.800;  339.700; 5723.400
965.334;  622.933;  478.467; 5779.500
965.888;  513.967;  366.033; 5948.500
966.443;  582.733;  437.900; 6344.200
966.998;  472.300;  320.033; 6666.300
967.552;  548.667;  397.733; 6710.100
968.107;  527.700;  362.067; 6593.500
968.661;  558.533;  406.600; 6344.100
969.216;  511.200;  365.067; 6062.400
969.770;  558.067;  408.800; 5785.500
970.324;  553.833;  409.633; 5426.800
970.879;  576.267;  438.733; 5016.800
971.433;  580.233;  436.900; 4904.500
971.987;  541.667;  399.100; 4991.000
972.541;  556.400;  417.867; 4978.500
973.095;  623.067;  486.000; 4832.000
973.649;  471.133;  332.100; 4767.900
974.203;  481.433;  356.433; 4881.200
974.757;  511.533;  367.767; 4969.500
975.311;  527.233;  386.967; 4953.000
975.865;  529.400;  394.600; 4884.300
976.419;  513.900;  376.067; 4739.800
976.973;  507.900;  369.367; 4698.100
977.526;  574.567;  451.800; 4631.100
978.080;  460.000;  331.567; 4621.600
978.634;  552.867;  432.200; 4650.200
979.187;  550.500;  417.767; 4669.200
979.741;  628.300;  509.633; 4658.000
980.294;  465.833;  340.700; 4579.100
980.848;  414.300;  296.033; 4452.800
981.401;  490.733;  368.200; 4271.900
981.955;  521.700;  391.333; 4087.800
982.508;  437.633;  325.633; 3973.900
983.061;  562.800;  446.067; 3928.600
983.615;  471.967;  360.967; 3851.200
984.168;  450.633;  340.200; 3734.800
984.721;  526.733;  422.800; 3628.300
985.274;  519.433;  412.633; 3564.300
985.827;  500.867;  393.067; 3558.100
986.380;  422.033;  314.167; 3559.900
986.933;  522.800;  423.833; 3688.700
987.486;  522.967;  415.267; 3778.500
988.039;  519.633;  414.167; 3559.900
988.591;  543.833;  437.767; 3219.300
989.144;  433.000;  339.533; 2902.900
989.697;  450.167;  357.067; 2722.600
990.250;  523.567;  424.167; 2618.000
990.802;  455.233;  353.700; 2523.900
991.355;  605.067;  521.233; 2436.500
991.907;  531.250;  441.467; 2412.200
992.460;  457.433;  361.700; 2387.900
993.012;  456.933;  366.333; 2365.800
993.565;  427.033;  341.900; 2311.100
994.117;  602.000;  524.100; 2308.700
994.669;  424.267;  343.333; 2249.300
995.221;  494.133;  413.333; 2158.100
995.774;  489.933;  410.167; 2085.600
996.326;  459.533;  384.967; 2068.100
996.878;  531.267;  454.533; 1975.300
997.430;  427.933;  351.200; 1929.500
997.982;  465.833;  390.800; 1861.900
998.534;  467.233;  385.033; 1830.200
999.086;  460.833;  384.467; 1823.200
999.638;  402.233;  335.667; 1815.000
1000.190;  436.267;  366.200; 1796.600
1000.741;  469.767;  393.600; 1738.800
1001.293;  426.967;  357.200; 1666.200
1001.845;  424.267;  355.033; 1566.500
1002.396;  474.267;  399.333; 1471.900
1002.948;  466.233;  402.167; 1398.000
1003.500;  456.967;  388.033; 1356.500
1004.051;  595.267;  532.300; 1294.200
1004.603;  513.000;  451.533; 1190.000
1005.154;  384.000;  320.100; 1063.900
1005.705;  469.600;  405.700;  968.300
1006.257;  452.033;  395.333;  889.800
1006.808;  444.667;  384.400;  801.500
1007.359;  501.100;  460.567;  716.400
1007.910;  419.533;  362.067;  639.100
1008.461;  483.133;  429.700;  561.600
1009.013;  372.200;  329.067;  500.400
1009.564;  529.067;  478.833;  476.100
1010.115;  380.433;  330.767;  431.600
1010.665;  390.500;  346.767;  409.300
1011.216;  439.700;  394.800;  399.700
1011.767;  454.467;  407.800;  388.100
1012.318;  486.100;  435.767;  381.400
1012.869;  444.267;  398.267;  375.400
1013.419;  394.400;  340.933;  357.600
1013.970;  436.467;  394.100;  358.300
1014.521;  401.700;  354.733;  344.100
1015.071;  444.000;  395.700;  322.800
1015.622;  416.233;  367.733;  320.600
1016.172;  384.667;  347.033;  301.700
1016.723;  399.500;  350.367;  289.800
1017.273;  396.433;  344.400;  287.600
1017.823;  426.933;  376.933;  278.700
1018.374;  400.967;  351.667;  274.400
1018.924;  471.667;  424.033;  283.200
1019.474;  464.567;  425.667;  278.500
1020.024;  427.233;  389.867;  274.700
1020.574;  480.933;  438.233;  272.700
1021.124;  441.900;  400.767;  278.400
1021.674;  358.200;  315.367;  269.200
1022.224;  471.567;  423.400;  267.800
1022.774;  441.700;  400.700;  258.100
1023.324;  501.367;  456.967;  260.000
1023.874;  594.367;  549.633;  260.700
1024.423;  403.333;  363.267;  252.700
1024.973;  395.567;  358.933;  234.700
1025.523;  400.533;  365.800;  226.500
1026.072;  394.700;  355.467;  225.500
1026.622;  442.233;  399.133;  210.100
1027.172;  478.133;  435.167;  213.000
1027.721;  393.167;  351.433;  207.700
1028.270;  443.367;  401.900;  205.400
1028.820;  421.033;  380.533;  201.000
1029.369;  401.600;  367.467;  201.000
1029.918;  424.867;  385.900;  198.400
1030.468;  363.333;  325.833;  199.200
1031.017;  423.767;  381.633;  192.600
1031.566;  399.633;  363.400;  197.400
1032.115;  459.667;  425.267;  188.300
1032.664;  393.600;  354.600;  193.700
1033.213;  482.200;  446.433;  191.900
1033.762;  413.700;  377.967;  184.500
1034.311;  452.967;  412.700;  194.300
1034.860;  463.733;  421.533;  192.300
1035.408;  482.433;  447.733;  182.600
1035.957;  477.533;  440.967;  173.900
1036.506;  349.233;  304.100;  185.200
1037.055;  573.600;  532.100;  182.500
1037.603;  440.367;  402.633;  167.600
1038.152;  344.433;  309.400;  168.200
1038.700;  377.667;  340.400;  169.600
1039.249;  453.267;  417.500;  164.300
1039.797;  421.200;  387.233;  169.600
1040.345;  469.067;  433.367;  167.100
1040.894;  417.033;  371.300;  164.400
1041.442;  421.100;  384.767;  158.300
1041.990;  367.433;  331.267;  160.000
1042.538;  351.633;  312.367;  156.800
1043.087;  374.633;  336.367;  146.600
1043.635;  448.967;  412.967;  162.400
1044.183;  383.133;  353.500;  156.300
1044.731;  373.500;  342.567;  158.100
1045.279;  448.367;  413.567;  154.500
1045.827;  613.767;  573.967;  146.200
1046.374;  335.967;  299.167;  154.000
1046.922;  391.467;  358.967;  149.000
1047.470;  462.267;  427.433;  154.900
1048.018;  430.767;  394.800;  148.400
1048.565;  480.100;  444.500;  146.300
1049.113;  363.700;  329.500;  156.100
1049.660;  416.967;  375.867;  154.300
1050.208;  454.200;  413.500;  149.400
1050.755;  398.867;  364.900;  157.500
1051.303;  457.233;  426.667;  157.700
1051.850;  421.767;  390.100;  152.800
1052.397;  307.000;  271.900;  146.300
1052.945;  412.167;  375.400;  149.500
1053.492;  493.567;  471.667;  149.300
1054.039;  482.100;  457.767;  163.100
1054.586;  367.733;  347.000;  150.400
1055.133;  468.600;  428.800;  153.500
1055.680;  427.133;  395.833;  155.600
1056.227;  354.700;  317.867;  148.700
1056.774;  534.467;  503.267;  151.500
1057.321;  337.000;  309.267;  143.700
1057.868;  429.300;  399.467;  145.300
1058.415;  437.733;  401.933;  153.500
1058.961;  451.567;  417.933;  149.900
1059.508;  423.367;  392.800;  147.300
1060.055;  385.733;  351.033;  151.000
1060.601;  410.633;  379.200;  148.700
1061.148;  415.900;  380.600;  153.800
1061.694;  396.933;  364.667;  150.500
1062.241;  392.500;  360.333;  149.100
1062.787;  443.700;  410.800;  153.000
1063.334;  550.867;  513.867;  153.200
1063.880;  453.700;  420.267;  148.400
1064.426;  469.067;  451.600;  149.200
1064.972;  393.267;  366.667;  156.400
1065.518;  377.600;  345.300;  144.700
1066.065;  424.033;  386.267;  139.400
1066.611;  392.500;  371.200;  139.300
1067.157;  422.567;  397.733;  138.400
1067.703;  447.833;  417.400;  142.700
1068.249;  401.567;  378.867;  136.700
1068.794;  416.667;  394.133;  139.400
1069.340;  379.000;  354.500;  142.700
1069.886;  390.133;  364.600;  135.600
1070.432;  350.933;  328.600;  133.400
1070.977;  400.367;  371.933;  138.200
1071.523;  377.933;  346.267;  132.400
1072.068;  384.933;  358.633;  132.700
1072.614;  340.667;  317.667;  127.000
1073.160;  459.133;  435.933;  131.300
1073.705;  380.400;  351.367;  135.700
1074.250;  371.600;  339.467;  133.000
1074.796;  439.200;  412.067;  138.000
1075.341;  443.533;  420.333;  137.300
1075.886;  395.733;  363.200;  134.300
1076.431;  439.167;  408.600;  138.200
1076.976;  429.933;  404.467;  132.200
1077.521;  381.767;  359.500;  138.900
1078.067;  386.767;  356.133;  128.600
1078.612;  452.700;  422.200;  138.900
1079.156;  398.367;  369.767;  128.900
1079.701;  468.133;  437.200;  129.700
1080.246;  463.667;  442.000;  128.600
1080.791;  419.967;  392.800;  122.600
1081.336;  446.233;  418.900;  122.000
1081.880;  434.233;  408.800;  123.900
1082.425;  384.600;  351.200;  120.600
1082.970;  481.567;  452.833;  124.500
1083.514;  388.733;  369.400;  112.000
1084.059;  388.800;  365.167;  120.700
1084.603;  371.233;  349.000;  116.000
1085.147;  432.800;  407.600;  116.300
1085.692;  481.200;  458.200;  108.200
1086.236;  333.933;  306.800;  114.600
1086.780;  508.733;  479.933;  118.900
1087.325;  437.667;  411.767;  120.400
1087.869;  413.400;  384.667;  110.500
1088.413;  472.700;  450.600;  114.000
1088.957;  354.133;  330.000;  114.300
1089.501;  518.300;  488.833;  114.600
1090.045;  495.600;  461.333;  114.200
1090.589;  378.500;  354.333;  105.500
1091.133;  460.533;  428.267;  111.800
1091.676;  397.167;  371.467;  110.900
1092.220;  400.900;  375.600;  110.100
1092.764;  479.733;  459.100;  108.100
1093.307;  455.567;  423.833;  109.900
1093.851;  366.700;  335.600;  107.500
1094.395;  457.767;  438.200;   96.200
1094.938;  418.733;  398.667;   99.300
1095.482;  375.500;  343.733;   97.700
1096.025;  482.067;  459.767;   84.900
1096.568;  528.267;  513.500;   88.500
1097.112;  340.533;  310.867;   95.700
1097.655;  396.600;  372.633;   97.300
1098.198;  396.767;  373.400;   92.600
1098.741;  413.267;  392.000;   91.800
1099.285;  440.733;  417.433;   88.000
1099.828;  285.467;  260.733;   91.700
1100.371;  407.633;  387.200;   89.900
1100.914;  463.667;  434.033;   91.500
1101.457;  458.500;  436.300;   88.100
1101.999;  386.367;  356.733;   86.400
1102.542;  438.100;  412.200;   90.800
1103.085;  445.367;  422.433;   95.400
1103.628;  518.700;  497.733;   97.700
1104.170;  391.933;  370.933;   84.000
1104.713;  442.667;  406.567;   93.900
1105.256;  369.933;  349.367;   93.000
1105.798;  331.133;  308.400;   85.600
1106.341;  494.833;  472.167;   87.100
1106.883;  344.633;  320.500;   85.200
1107.425;  446.533;  426.200;   85.000
1107.968;  413.300;  390.500;   84.300
1108.510;  465.467;  443.500;   88.200
1109.052;  414.833;  397.067;   86.600
1109.594;  367.800;  351.400;   79.400
1110.136;  435.967;  413.033;   81.700
1110.679;  429.267;  397.800;   75.500
1111.221;  404.800;  380.933;   88.500
1111.763;  367.833;  348.200;   87.700
1112.304;  362.100;  342.800;   89.700
1112.846;  449.867;  427.133;   81.900
1113.388;  647.833;  629.167;   86.400
1113.930;  468.533;  444.067;   84.700
1114.472;  405.500;  385.833;   78.900
1115.013;  367.733;  341.267;   78.100
1115.555;  394.400;  380.600;   84.900
1116.097;  383.433;  359.133;   79.200
1116.638;  459.700;  441.733;   83.700
1117.180;  453.100;  428.567;   85.500
1117.721;  380.933;  362.733;   78.800
1118.262;  455.633;  438.667;   77.400
1118.804;  433.033;  405.200;   81.400
1119.345;  387.733;  368.600;   77.800
1119.886;  479.867;  455.000;   81.200
1120.427;  393.700;  372.933;   77.200
1120.969;  399.367;  385.600;   75.200
1121.510;  379.033;  353.567;   80.900
1122.051;  491.033;  473.000;   77.300
1122.592;  444.567;  425.333;   73.300
1123.133;  358.600;  347.133;   90.100
1123.673;  480.133;  463.567;   75.000
1124.214;  408.700;  391.600;   80.600
1124.755;  435.067;  415.133;   78.000
1125.296;  411.867;  397.300;   77.500
1125.836;  468.500;  446.667;   80.400
1126.377;  396.767;  380.900;   75.600
1126.918;  412.633;  397.167;   78.900
1127.458;  420.400;  399.333;   78.000
1127.999;  446.667;  424.367;   76.100
1128.539;  470.300;  445.933;   81.400
1129.079;  425.100;  407.767;   77.400
1129.620;  368.833;  355.933;   68.000
1130.160;  360.800;  341.400;   77.500
1130.700;  430.400;  414.767;   76.300
1131.240;  430.667;  413.600;   66.800
1131.781;  418.100;  400.667;   70.600
1132.321;  405.467;  380.733;   77.200
1132.861;  377.567;  357.267;   70.400
1133.401;  396.567;  378.367;   68.700
1133.941;  425.067;  405.533;   68.500
1134.481;  407.000;  385.733;   75.900
1135.020;  409.033;  392.900;   66.600
1135.560;  456.767;  439.233;   68.100
1136.100;  330.200;  315.133;   64.900
1136.640;  341.533;  322.667;   72.500
1137.179;  359.400;  342.733;   69.700
1137.719;  404.467;  389.533;   68.400
1138.258;  392.633;  377.700;   67.000
1138.798;  445.167;  429.133;   69.600
1139.337;  323.167;  300.733;   64.000
1139.877;  432.367;  418.133;   64.500
1140.416;  602.267;  588.033;   74.900
1140.955;  353.967;  331.367;   67.200
1141.494;  460.900;  434.300;   69.900
1142.034;  391.033;  377.467;   59.100
1142.573;  441.767;  422.867;   65.900
1143.112;  373.567;  349.200;   70.600
1143.651;  363.700;  343.267;   67.100
1144.190;  471.467;  454.700;   56.700
1144.729;  401.967;  389.333;   61.800
1145.267;  391.800;  367.233;   62.500
1145.806;  434.733;  409.133;   68.500
1146.345;  431.900;  409.467;   58.300
1146.884;  426.533;  406.600;   63.100
1147.422;  356.367;  334.233;   54.800
1147.961;  480.333;  467.400;   67.600
1148.500;  454.167;  441.033;   64.700
1149.038;  433.633;  412.300;   61.000
1149.577;  473.533;  457.667;   65.100
1150.115;  300.633;  279.100;   58.100
1150.653;  411.233;  391.267;   60.500
1151.192;  367.700;  355.000;   56.600
1151.730;  443.400;  429.700;   62.300
1152.268;  395.233;  377.700;   55.500
1152.806;  385.933;  370.033;   58.200
1153.344;  379.000;  372.433;   55.000
1153.882;  400.033;  389.233;   64.200
1154.421;  312.533;  292.567;   60.300
1154.958;  406.267;  387.233;   58.100
1155.496;  440.400;  426.200;   55.800
1156.034;  492.300;  476.100;   61.000
1156.572;  455.333;  434.467;   56.200
1157.110;  314.367;  300.300;   53.200
1157.647;  457.200;  448.900;   57.400
1158.185;  380.133;  369.133;   55.500
1158.723;  337.933;  326.500;   58.000
1159.260;  475.767;  460.033;   53.700
1159.798;  446.633;  434.733;   51.700
1160.335;  421.500;  406.900;   59.600

