gmr_right
Integration time [ms]: 300.000
Averaging Nr. [scans]: 30
Smoothing Nr. [pixels]: 0
Data measured with spectrometer [name]: 7414430SP
Wave   ;Sample   ;Dark     ;Reference
[nm]   ;[counts] ;[counts] ;[counts] 

288.544;  480.543;  409.495;    6.613
289.143;  397.382;  334.741;   14.216
289.742;  501.134;  438.471;   11.816
290.341;  475.673;  418.127;   -4.936
290.940;  440.780;  374.571;    0.852
291.538;  539.553;  486.444;    1.792
292.137;  479.079;  414.837;    6.262
292.736;  613.073;  548.261;    8.164
293.335;  443.242;  380.904;   -6.418
293.934;  463.614;  413.615;   -2.904
294.532;  654.090;  601.463;   -5.162
295.131;  516.375;  463.325;  -10.283
295.730;  501.403;  447.004;  -16.141
296.328;  479.813;  435.754;  -14.740
296.927;  477.555;  428.130;   -8.768
297.525;  475.665;  423.459;  -15.255
298.124;  391.344;  340.248;  -22.063
298.722;  469.924;  419.149;  -14.796
299.321;  427.652;  377.482;  -10.466
299.919;  456.679;  410.080;  -10.979
300.518;  419.573;  368.337;  -12.077
301.116;  416.632;  370.383;  -13.509
301.715;  447.493;  390.100;  -11.939
302.313;  431.985;  382.345;  -15.424
302.911;  458.561;  409.207;  -19.833
303.509;  595.132;  543.847;   -3.567
304.108;  477.274;  423.019;   -9.553
304.706;  506.262;  452.293;   -8.582
305.304;  513.144;  460.774;  -12.348
305.902;  486.750;  441.800;  -14.411
306.500;  456.166;  404.342;   -7.194
307.098;  476.634;  424.328;   -9.322
307.696;  503.878;  457.530;  -19.192
308.294;  462.822;  419.528;   -9.736
308.892;  485.099;  441.888;  -15.482
309.490;  447.826;  397.807;  -14.107
310.088;  509.655;  463.266;  -15.862
310.686;  522.012;  480.333;  -10.781
311.284;  488.904;  445.100;  -14.878
311.882;  462.466;  422.933;   -9.948
312.480;  445.628;  400.225;  -15.503
313.078;  521.703;  475.435;  -17.262
313.675;  436.732;  394.542;   -3.694
314.273;  520.212;  482.288;  -18.246
314.871;  367.426;  328.213;  -15.190
315.468;  419.895;  369.507;  -12.633
316.066;  445.959;  402.504;   -5.765
316.664;  420.053;  380.819;  -14.317
317.261;  601.466;  553.581;   -8.677
317.859;  505.263;  465.282;  -11.804
318.456;  550.089;  506.913;   -3.107
319.054;  517.191;  472.927;   -3.062
319.651;  501.754;  461.622;   -6.706
320.249;  532.521;  496.555;   -5.206
320.846;  458.027;  426.783;   -4.679
321.443;  550.991;  514.791;   -7.920
322.041;  540.016;  499.737;  -14.105
322.638;  456.059;  424.051;   -6.263
323.235;  429.385;  394.945;   -7.424
323.833;  490.174;  451.307;  -14.765
324.430;  398.702;  353.447;  -10.550
325.027;  590.419;  544.441;   -9.951
325.624;  413.618;  367.891;   -3.712
326.221;  447.925;  398.524;   -9.368
326.818;  552.194;  500.113;   -5.637
327.415;  486.780;  435.885;   -6.699
328.012;  450.610;  386.964;   -5.713
328.609;  485.205;  424.864;   -9.983
329.206;  523.982;  454.999;   -7.154
329.803;  489.384;  417.719;   -1.682
330.400;  462.055;  389.434;   -2.741
330.997;  547.030;  468.961;   -4.339
331.594;  531.574;  450.395;  -10.278
332.191;  479.629;  403.452;   -6.967
332.787;  555.122;  483.017;   -0.480
333.384;  499.140;  428.015;  -10.333
333.981;  536.116;  466.840;  -19.900
334.578;  456.629;  383.913;  -19.816
335.174;  472.224;  399.076;  -15.844
335.771;  549.914;  482.567;  -12.670
336.367;  462.808;  393.669;  -21.124
336.964;  528.578;  453.616;  -18.226
337.561;  475.040;  406.390;  -13.311
338.157;  607.344;  537.645;  -19.006
338.754;  529.856;  465.774;  -19.418
339.350;  465.134;  404.223;  -29.433
339.946;  504.172;  442.621;  -16.622
340.543;  559.213;  495.432;  -16.744
341.139;  466.954;  410.435;  -21.841
341.735;  509.354;  452.920;  -25.012
342.332;  445.450;  394.848;  -19.156
342.928;  519.515;  465.203;  -20.443
343.524;  502.739;  446.876;  -14.397
344.120;  488.484;  432.262;  -20.654
344.716;  470.525;  413.833;   -5.730
345.313;  525.328;  480.927;  -10.929
345.909;  406.860;  342.011;  -19.843
346.505;  489.193;  436.364;  -19.645
347.101;  550.266;  490.958;   -9.618
347.697;  530.702;  467.365;  -10.305
348.293;  406.644;  344.251;  -23.189
348.889;  496.692;  438.836;  -18.418
349.485;  444.796;  384.594;  -10.476
350.081;  509.887;  454.803;  -17.320
350.676;  457.003;  395.638;  -21.088
351.272;  539.182;  474.538;  -12.821
351.868;  510.827;  454.235;  -13.165
352.464;  481.884;  419.565;  -12.464
353.059;  431.626;  371.751;  -22.547
353.655;  523.777;  462.550;   -9.379
354.251;  501.795;  445.226;   -8.266
354.846;  486.917;  434.234;  -17.705
355.442;  500.928;  439.506;   -9.317
356.038;  499.372;  437.316;  -11.049
356.633;  489.119;  423.492;  -10.006
357.229;  482.257;  425.098;  -13.120
357.824;  466.051;  410.071;  -15.647
358.420;  444.031;  388.980;  -19.204
359.015;  454.434;  398.905;  -12.263
359.610;  512.122;  455.161;  -16.421
360.206;  391.233;  339.469;  -20.074
360.801;  420.604;  368.207;  -13.277
361.396;  483.072;  425.487;   -5.822
361.992;  439.917;  388.404;  -11.247
362.587;  443.135;  385.521;  -21.502
363.182;  457.091;  399.301;   -7.461
363.777;  487.294;  436.726;   -8.719
364.372;  489.157;  439.716;  -14.590
364.967;  450.948;  397.056;  -15.145
365.563;  536.149;  487.956;   -7.192
366.158;  453.471;  399.566;   -5.662
366.753;  427.857;  374.929;   -8.378
367.348;  496.482;  442.336;  -14.990
367.942;  461.502;  403.765;   -6.005
368.537;  492.578;  450.125;  -11.504
369.132;  463.987;  411.847;  -10.576
369.727;  416.346;  370.647;  -12.573
370.322;  380.101;  329.318;  -11.560
370.917;  464.603;  422.304;  -10.388
371.511;  577.536;  526.876;   -9.161
372.106;  518.915;  477.156;  -10.245
372.701;  377.386;  333.029;  -10.158
373.296;  578.179;  531.224;   -4.719
373.890;  420.401;  378.521;  -11.802
374.485;  456.328;  420.279;  -13.500
375.079;  492.876;  450.906;   -6.276
375.674;  542.777;  500.215;   -0.447
376.268;  456.356;  416.988;   -6.916
376.863;  376.029;  339.418;  -14.483
377.457;  430.414;  401.520;   -6.903
378.052;  507.728;  466.935;   -9.844
378.646;  492.263;  457.469;  -12.601
379.240;  478.991;  443.092;  -14.715
379.835;  420.064;  383.209;  -12.331
380.429;  363.055;  326.727;   -9.074
381.023;  523.987;  486.447;   -1.729
381.617;  447.678;  412.160;  -13.714
382.212;  446.489;  421.010;   -7.060
382.806;  507.581;  474.220;   -2.303
383.400;  447.361;  415.320;   -0.815
383.994;  446.357;  409.675;   -4.429
384.588;  466.298;  433.890;   -6.261
385.182;  491.537;  451.715;    0.008
385.776;  468.181;  444.976;   -3.247
386.370;  455.685;  425.010;   -1.030
386.964;  454.194;  428.755;   -1.346
387.558;  389.836;  358.906;   -2.020
388.152;  451.478;  426.062;   -5.345
388.745;  547.148;  525.538;   -2.774
389.339;  504.139;  484.952;    3.510
389.933;  460.729;  435.917;    5.280
390.527;  584.268;  556.134;    2.610
391.120;  395.083;  367.345;   -7.914
391.714;  474.973;  450.473;   -1.903
392.308;  526.477;  501.397;    6.023
392.901;  431.321;  405.276;   -4.103
393.495;  400.900;  373.438;    3.284
394.089;  513.030;  492.192;    8.655
394.682;  468.661;  449.791;    2.312
395.275;  481.316;  466.091;   -7.402
395.869;  444.223;  425.698;   -1.072
396.462;  410.971;  391.306;    6.454
397.056;  518.747;  500.706;    8.494
397.649;  491.145;  479.805;    1.599
398.242;  482.221;  462.999;    3.153
398.836;  516.476;  498.021;   11.395
399.429;  419.161;  400.852;   14.695
400.022;  441.038;  432.501;    3.627
400.615;  550.016;  538.132;    8.383
401.208;  462.421;  446.863;   13.295
401.802;  469.381;  454.579;    6.211
402.395;  461.805;  447.734;    7.227
402.988;  465.143;  451.215;    2.700
403.581;  426.894;  413.103;   11.225
404.174;  467.727;  453.490;   18.922
404.767;  426.234;  415.270;   14.169
405.360;  412.985;  400.695;    8.999
405.953;  504.489;  490.897;   13.138
406.545;  487.690;  476.388;   13.937
407.138;  403.316;  394.439;   10.869
407.731;  411.854;  400.391;   12.768
408.324;  435.870;  427.127;   22.921
408.917;  458.137;  443.448;   15.308
409.509;  499.761;  493.496;   12.239
410.102;  433.873;  419.217;   13.741
410.695;  437.472;  431.403;   20.249
411.287;  395.053;  386.549;   21.793
411.880;  383.222;  381.535;   22.965
412.472;  399.281;  402.894;   15.082
413.065;  424.441;  413.469;   23.423
413.657;  376.803;  371.883;   21.077
414.250;  432.683;  420.377;   12.349
414.842;  446.830;  441.751;   20.423
415.434;  374.752;  370.604;   19.906
416.027;  430.404;  421.460;   26.574
416.619;  479.460;  469.417;   15.705
417.211;  386.633;  385.081;   17.791
417.804;  410.437;  402.209;   30.244
418.396;  398.973;  399.311;   24.177
418.988;  433.255;  430.319;   24.904
419.580;  368.917;  367.521;   20.692
420.172;  348.231;  353.384;   22.275
420.764;  448.361;  439.276;   26.773
421.356;  419.939;  416.954;   25.731
421.948;  444.535;  451.479;   24.876
422.540;  445.259;  448.554;   30.042
423.132;  389.777;  389.159;   32.728
423.724;  363.034;  364.076;   21.317
424.316;  406.919;  401.037;   29.359
424.908;  382.748;  384.026;   28.798
425.500;  420.627;  420.493;   30.512
426.092;  420.432;  415.597;   26.741
426.683;  462.387;  455.610;   27.029
427.275;  421.085;  418.767;   32.611
427.867;  439.481;  436.346;   33.796
428.458;  483.813;  475.212;   34.453
429.050;  452.510;  448.830;   34.255
429.642;  490.925;  490.604;   39.082
430.233;  352.940;  356.763;   41.138
430.825;  480.381;  482.287;   31.581
431.416;  452.895;  457.128;   35.755
432.008;  417.953;  411.713;   40.566
432.599;  423.156;  421.497;   46.322
433.190;  411.820;  410.745;   46.897
433.782;  379.445;  379.813;   41.069
434.373;  583.437;  589.623;   48.778
434.964;  379.901;  379.395;   50.078
435.556;  402.763;  405.856;   52.381
436.147;  491.123;  493.316;   38.251
436.738;  450.504;  455.759;   47.237
437.329;  462.017;  462.759;   61.304
437.920;  428.340;  429.359;   48.611
438.511;  350.415;  358.172;   44.910
439.103;  398.127;  394.743;   62.404
439.694;  437.538;  435.667;   63.075
440.285;  497.969;  497.775;   61.033
440.876;  555.144;  554.861;   57.249
441.466;  354.410;  355.217;   61.306
442.057;  417.471;  421.853;   65.773
442.648;  480.137;  479.009;   65.676
443.239;  392.197;  391.774;   55.963
443.830;  449.131;  447.867;   69.631
444.421;  415.446;  409.282;   69.943
445.011;  442.540;  440.130;   72.791
445.602;  483.845;  475.218;   68.848
446.193;  288.485;  289.880;   80.044
446.783;  397.787;  390.851;   82.599
447.374;  438.439;  440.444;   77.419
447.964;  450.612;  446.408;   72.605
448.555;  527.201;  527.827;   82.041
449.145;  414.948;  411.627;   76.230
449.736;  509.510;  512.600;   75.545
450.326;  453.158;  451.236;   67.945
450.917;  424.156;  415.408;   77.598
451.507;  370.622;  362.493;   68.027
452.097;  474.829;  473.860;   67.771
452.688;  465.846;  462.279;   62.884
453.278;  343.277;  338.493;   65.512
453.868;  507.199;  503.912;   71.796
454.458;  400.034;  394.953;   60.956
455.048;  443.459;  437.873;   62.356
455.639;  336.769;  334.515;   58.782
456.229;  440.242;  440.675;   65.209
456.819;  466.622;  466.677;   61.466
457.409;  487.932;  481.128;   59.967
457.999;  457.588;  449.881;   58.093
458.589;  416.478;  417.908;   59.536
459.179;  443.420;  437.091;   55.994
459.769;  375.070;  372.249;   43.624
460.358;  493.185;  488.228;   46.978
460.948;  416.741;  408.154;   49.821
461.538;  399.815;  391.000;   54.678
462.128;  407.408;  396.875;   49.309
462.717;  430.776;  423.321;   52.774
463.307;  432.527;  423.256;   48.101
463.897;  390.449;  384.542;   45.606
464.486;  530.152;  524.293;   45.010
465.076;  441.586;  441.649;   45.519
465.666;  388.567;  374.268;   50.058
466.255;  487.753;  474.393;   44.463
466.845;  398.364;  387.211;   41.206
467.434;  441.072;  424.688;   44.847
468.023;  385.082;  377.718;   46.760
468.613;  428.878;  422.941;   39.736
469.202;  378.422;  369.407;   46.461
469.791;  442.440;  429.932;   47.944
470.381;  442.340;  434.973;   47.529
470.970;  423.467;  406.861;   43.773
471.559;  439.534;  428.056;   41.646
472.148;  393.818;  379.588;   37.914
472.738;  456.021;  441.906;   48.071
473.327;  361.680;  347.159;   47.871
473.916;  433.419;  427.635;   37.716
474.505;  442.951;  434.219;   40.256
475.094;  484.639;  471.223;   43.269
475.683;  471.038;  454.217;   36.499
476.272;  428.246;  416.541;   44.542
476.861;  400.741;  387.399;   42.297
477.449;  416.047;  400.102;   46.878
478.038;  386.658;  375.742;   35.156
478.627;  403.382;  393.394;   42.514
479.216;  441.994;  421.384;   43.937
479.805;  444.954;  429.150;   51.393
480.393;  611.091;  593.969;   53.239
480.982;  525.726;  503.699;   38.955
481.571;  500.919;  481.123;   45.436
482.159;  384.125;  365.728;   51.007
482.748;  476.554;  456.530;   49.695
483.336;  499.185;  472.134;   48.280
483.925;  435.957;  414.107;   47.166
484.513;  413.415;  396.464;   55.404
485.102;  447.911;  427.957;   54.238
485.690;  593.000;  564.805;   55.748
486.278;  561.021;  545.971;   55.934
486.867;  436.742;  418.355;   57.106
487.455;  498.639;  484.255;   56.979
488.043;  387.679;  364.352;   57.564
488.631;  569.635;  544.670;   57.432
489.220;  498.669;  467.920;   63.646
489.808;  375.383;  347.078;   65.449
490.396;  492.808;  466.870;   61.977
490.984;  422.540;  392.002;   68.834
491.572;  488.321;  463.968;   70.775
492.160;  468.012;  446.152;   67.564
492.748;  427.135;  405.612;   66.808
493.336;  512.531;  478.001;   79.747
493.924;  435.406;  404.945;   88.688
494.512;  487.717;  467.227;   84.120
495.100;  487.667;  463.219;   86.250
495.687;  508.383;  481.836;  103.074
496.275;  412.164;  384.150;  108.717
496.863;  426.993;  404.803;  107.035
497.451;  423.714;  398.294;  117.993
498.038;  454.822;  423.756;  120.116
498.626;  440.401;  410.875;  143.059
499.214;  465.288;  439.271;  153.434
499.801;  454.827;  425.344;  175.121
500.389;  372.239;  350.829;  185.617
500.976;  476.338;  442.021;  215.789
501.564;  450.645;  426.642;  240.321
502.151;  328.310;  296.059;  267.007
502.738;  425.243;  401.601;  317.961
503.326;  436.904;  407.992;  361.216
503.913;  458.508;  432.559;  401.433
504.500;  474.163;  443.554;  446.492
505.088;  402.085;  373.728;  512.063
505.675;  439.533;  409.822;  586.387
506.262;  441.789;  406.392;  671.021
506.849;  452.853;  419.819;  759.062
507.436;  503.809;  477.106;  849.788
508.023;  450.583;  416.429;  944.288
508.610;  499.925;  461.389; 1020.690
509.197;  479.124;  446.115; 1089.052
509.784;  450.335;  421.247; 1133.776
510.371;  379.567;  344.805; 1165.501
510.958;  455.823;  428.742; 1251.735
511.545;  529.670;  495.766; 1350.248
512.132;  451.783;  414.552; 1525.945
512.719;  398.708;  367.793; 1834.933
513.305;  413.210;  376.622; 1965.349
513.892;  522.485;  490.642; 1963.265
514.479;  465.136;  430.353; 2046.446
515.066;  509.341;  478.374; 2252.803
515.652;  466.846;  427.304; 2567.247
516.239;  492.425;  456.707; 2636.919
516.825;  386.466;  358.595; 2482.304
517.412;  584.821;  545.991; 2427.031
517.998;  445.292;  407.151; 2540.463
518.585;  440.844;  402.625; 2609.007
519.171;  473.373;  432.545; 2842.088
519.758;  392.583;  351.321; 3090.703
520.344;  501.601;  463.514; 3176.076
520.930;  405.784;  374.466; 3295.037
521.516;  486.083;  447.977; 3500.959
522.103;  540.115;  492.264; 3736.704
522.689;  442.744;  400.951; 3971.022
523.275;  514.695;  480.038; 4213.778
523.861;  454.968;  411.788; 4190.361
524.447;  516.503;  469.742; 4070.602
525.033;  518.670;  484.410; 4088.892
525.619;  428.370;  379.280; 4416.851
526.205;  398.138;  361.911; 4836.835
526.791;  442.153;  401.416; 4885.903
527.377;  435.047;  391.487; 4544.907
527.963;  474.611;  431.280; 4321.995
528.549;  484.027;  437.447; 4473.979
529.135;  431.403;  382.725; 4788.663
529.721;  465.470;  420.218; 4888.577
530.306;  623.194;  580.947; 4775.779
530.892;  442.445;  395.249; 4793.906
531.478;  440.111;  389.046; 4956.948
532.063;  416.300;  368.426; 5136.936
532.649;  573.831;  522.196; 5336.867
533.235;  419.844;  377.000; 5748.092
533.820;  530.874;  482.790; 6456.875
534.406;  450.446;  409.399; 6590.167
534.991;  424.325;  377.820; 6179.622
535.576;  461.948;  411.785; 6098.691
536.162;  636.577;  584.963; 6441.234
536.747;  401.966;  356.157; 6816.224
537.333;  431.486;  376.896; 6889.752
537.918;  464.844;  412.087; 7154.280
538.503;  441.000;  388.705; 7150.848
539.088;  490.894;  436.665; 7253.308
539.673;  462.029;  407.318; 7625.180
540.259;  444.962;  383.364; 8226.793
540.844;  388.170;  336.610; 8745.092
541.429;  576.663;  519.480; 8762.553
542.014;  410.766;  350.519; 8871.497
542.599;  494.202;  435.412; 8886.008
543.184;  422.129;  356.454; 9079.139
543.769;  451.634;  383.817; 9076.182
544.354;  458.661;  395.094; 8354.081
544.938;  496.719;  437.052; 8236.809
545.523;  578.687;  512.791; 8222.179
546.108;  489.771;  415.345; 8114.082
546.693;  489.958;  413.231; 8535.912
547.278;  494.687;  413.668; 9238.322
547.862;  492.123;  408.157; 9034.405
548.447;  543.086;  462.999; 7795.011
549.031;  487.575;  404.079; 7485.099
549.616;  524.045;  435.463; 7626.308
550.201;  483.792;  393.375; 7627.909
550.785;  546.409;  449.341; 7859.125
551.370;  454.198;  359.017; 7990.654
551.954;  563.914;  467.270; 8196.468
552.538;  560.581;  457.008; 7959.495
553.123;  492.338;  384.555; 7964.826
553.707;  516.690;  400.284; 8515.957
554.291;  601.936;  489.018; 8724.024
554.876;  584.956;  460.260; 8524.211
555.460;  515.451;  384.052; 8704.456
556.044;  529.004;  387.855; 9141.473
556.628;  561.055;  417.244; 9250.197
557.212;  634.087;  479.461; 9444.237
557.796;  564.776;  405.744; 9379.783
558.380;  610.503;  434.930; 9353.658
558.964;  612.236;  421.226; 9210.310
559.548;  556.641;  353.821; 8475.153
560.132;  609.530;  397.378; 7954.084
560.716;  582.310;  363.734; 7489.529
561.300;  599.864;  357.771; 7211.952
561.884;  706.106;  449.167; 7141.313
562.467;  719.272;  445.272; 7155.386
563.051;  721.130;  417.174; 7323.158
563.635;  732.082;  401.327; 7709.114
564.219;  762.241;  414.401; 7678.855
564.802;  815.112;  443.494; 7376.187
565.386;  825.372;  421.879; 7054.372
565.969;  930.883;  490.012; 6589.196
566.553; 1007.255;  538.506; 6279.371
567.136;  995.832;  479.126; 5967.930
567.720;  985.829;  420.827; 5660.703
568.303; 1049.928;  435.839; 5648.615
568.887; 1085.923;  420.625; 5618.443
569.470; 1119.352;  434.505; 5411.875
570.053; 1172.327;  461.885; 5149.274
570.637; 1164.213;  379.297; 5122.798
571.220; 1291.435;  464.538; 4957.369
571.803; 1442.509;  541.031; 4933.018
572.386; 1416.329;  395.375; 4840.973
572.969; 1575.480;  404.785; 4592.886
573.552; 1688.994;  408.464; 4348.387
574.135; 1653.511;  381.817; 4002.290
574.718; 1692.877;  389.178; 3654.773
575.301; 1830.475;  385.145; 3502.288
575.884; 1968.072;  381.111; 3349.803
576.467; 2332.095;  478.927; 3191.403
577.050; 2529.887;  428.239; 3062.418
577.633; 2790.992;  519.252; 3214.200
578.216; 2867.891;  403.683; 3284.889
578.799; 3083.309;  404.034; 3189.777
579.381; 3447.210;  541.163; 3064.502
579.964; 3502.057;  385.784; 2888.357
580.547; 3783.222;  428.540; 2905.760
581.129; 4154.314;  497.348; 2966.849
581.712; 4287.763;  447.028; 2887.292
582.294; 4519.304;  420.025; 2771.631
582.877; 4869.422;  539.038; 2711.602
583.459; 5040.158;  414.466; 2577.049
584.042; 5246.571;  408.667; 2454.707
584.624; 5445.366;  379.923; 2305.893
585.206; 5740.556;  326.348; 2189.546
585.789; 5771.489;  391.946; 2112.577
586.371; 5635.260;  441.495; 2153.065
586.953; 5832.509;  465.752; 2197.806
587.536; 5943.991;  495.483; 2105.489
588.118; 6658.594;  411.286; 1963.911
588.700; 7874.613;  503.076; 1843.179
589.282; 8749.289;  447.902; 1813.834
589.864; 9274.176;  420.445; 1777.620
590.446; 9461.015;  329.246; 1733.780
591.028;10115.547;  425.227; 1676.008
591.610;10524.836;  342.207; 1631.649
592.192;10827.546;  430.570; 1632.362
592.774;10068.585;  365.246; 1569.507
593.356; 9969.688;  392.805; 1524.539
593.937;10362.518;  383.391; 1569.720
594.519;11639.433;  481.979; 1569.049
595.101;12562.254;  348.094; 1545.452
595.683;13176.527;  401.609; 1607.568
596.264;13446.713;  413.014; 1615.506
596.846;13689.114;  400.744; 1667.622
597.427;14002.292;  389.318; 1670.469
598.009;15067.230;  386.714; 1640.312
598.591;15851.434;  456.341; 1541.022
599.172;16536.111;  405.793; 1598.665
599.753;16703.389;  359.390; 1619.068
600.335;17000.277;  500.893; 1548.612
600.916;17241.596;  410.410; 1607.510
601.498;17214.154;  434.136; 1745.181
602.079;17179.957;  416.725; 1801.011
602.660;17389.477;  414.874; 1834.640
603.241;17958.029;  328.998; 1787.351
603.823;18503.121;  394.777; 1684.266
604.404;18577.713;  364.402; 1654.241
604.985;18935.070;  401.455; 1758.741
605.566;18859.516;  469.937; 1697.679
606.147;18954.457;  411.297; 1526.728
606.728;19330.980;  361.883; 1484.086
607.309;20382.330;  385.917; 1421.070
607.890;20803.453;  402.220; 1369.867
608.471;20365.098;  379.906; 1277.826
609.051;19548.420;  433.033; 1180.416
609.632;19000.994;  372.346; 1075.816
610.213;19401.078;  411.693; 1053.313
610.794;19987.326;  398.314;  979.442
611.374;20175.693;  438.800;  917.414
611.955;20197.609;  351.498;  819.987
612.536;20432.271;  438.963;  752.627
613.116;20003.006;  386.882;  690.799
613.697;20457.604;  383.263;  674.974
614.277;19966.457;  376.279;  663.846
614.858;19320.369;  386.020;  665.898
615.438;18673.125;  420.529;  660.712
616.019;18302.182;  497.074;  632.732
616.599;19100.744;  323.350;  551.759
617.179;19537.096;  361.926;  512.871
617.760;20151.539;  558.005;  473.655
618.340;20540.035;  411.157;  440.004
618.920;20989.832;  513.467;  429.731
619.500;21545.504;  396.617;  441.361
620.080;21473.090;  375.435;  425.202
620.660;20866.711;  375.586;  408.164
621.241;21219.230;  395.128;  387.161
621.821;21203.578;  418.053;  378.017
622.401;21041.264;  468.066;  379.188
622.980;20263.396;  352.664;  350.019
623.560;19202.863;  393.369;  336.446
624.140;17365.766;  425.268;  336.473
624.720;16155.392;  438.321;  334.974
625.300;15502.505;  367.297;  325.717
625.880;16319.549;  410.661;  308.519
626.459;17238.199;  412.112;  307.117
627.039;18563.348;  340.643;  290.890
627.619;20017.221;  539.219;  286.635
628.198;20250.475;  478.807;  282.535
628.778;20473.857;  446.655;  285.474
629.357;19730.686;  363.050;  284.103
629.937;19687.768;  396.128;  292.178
630.516;20133.922;  500.902;  290.749
631.096;19177.141;  377.050;  285.489
631.675;19128.893;  491.125;  287.022
632.254;19729.191;  384.127;  286.038
632.834;20167.289;  410.949;  276.451
633.413;20046.463;  501.045;  279.447
633.992;19609.684;  472.220;  264.508
634.571;19283.863;  448.108;  271.010
635.151;19455.820;  367.866;  277.338
635.730;19227.396;  410.105;  289.305
636.309;19454.736;  441.237;  285.306
636.888;20209.871;  449.985;  254.051
637.467;20196.156;  337.144;  230.324
638.046;20150.453;  498.141;  253.349
638.625;18963.482;  484.452;  246.866
639.204;17593.000;  428.662;  240.825
639.782;17980.936;  413.143;  261.970
640.361;18252.814;  482.874;  277.780
640.940;17783.682;  382.110;  270.101
641.519;17317.246;  439.647;  248.622
642.097;17518.145;  447.483;  239.843
642.676;18222.377;  423.953;  244.264
643.255;18990.109;  401.956;  234.985
643.833;18632.842;  448.226;  244.406
644.412;18040.908;  395.396;  244.927
644.990;17959.473;  418.399;  249.948
645.569;18367.471;  444.669;  249.569
646.147;19271.170;  468.672;  243.290
646.726;19169.303;  425.709;  249.511
647.304;19241.334;  402.579;  228.032
647.882;19983.668;  335.515;  214.552
648.461;19977.467;  434.185;  214.973
649.039;19636.932;  456.889;  223.394
649.617;19406.164;  452.492;  261.415
650.195;18395.596;  427.495;  298.736
650.773;17472.361;  392.832;  309.557
651.352;17260.127;  323.801;  297.978
651.930;16036.426;  318.671;  289.399
652.508;16281.258;  458.841;  285.620
653.086;16285.557;  434.078;  272.241
653.663;17054.488;  374.914;  265.062
654.241;18632.787;  356.318;  286.083
654.819;18835.686;  362.354;  286.404
655.397;18055.619;  376.591;  291.825
655.975;18458.750;  401.194;  299.145
656.553;18942.949;  500.364;  288.866
657.130;17672.281;  367.800;  304.087
657.708;16945.682;  430.804;  302.908
658.286;17055.047;  414.340;  294.629
658.863;17246.313;  426.177;  293.350
659.441;17627.178;  426.813;  318.671
660.018;17803.377;  413.016;  333.692
660.596;17415.041;  326.286;  335.013
661.173;17326.207;  389.056;  371.534
661.750;17375.340;  368.959;  365.155
662.328;17875.938;  444.363;  349.976
662.905;18357.604;  393.499;  332.997
663.482;17439.736;  407.269;  321.717
664.060;17078.768;  381.572;  314.438
664.637;17282.268;  456.109;  306.259
665.214;18348.832;  425.479;  314.580
665.791;19078.465;  400.882;  334.501
666.368;19791.996;  386.252;  329.222
666.945;20167.096;  452.688;  342.143
667.522;20025.594;  371.892;  370.964
668.099;20120.160;  404.828;  396.885
668.676;20332.293;  404.831;  391.706
669.253;21338.225;  504.701;  369.627
669.830;21708.723;  481.505;  360.348
670.407;21265.088;  404.108;  344.769
670.984;20881.420;  410.411;  322.890
671.560;21532.520;  455.814;  316.910
672.137;20639.219;  388.117;  322.531
672.714;19201.350;  437.121;  318.552
673.290;18579.850;  427.957;  324.473
673.867;18714.781;  379.494;  340.594
674.443;18692.146;  354.464;  319.515
675.020;19512.445;  424.067;  286.336
675.596;20023.379;  402.037;  247.557
676.173;20079.410;  347.573;  227.778
676.749;20543.010;  301.010;  224.399
677.326;20764.141;  342.280;  230.520
677.902;20565.473;  374.416;  241.841
678.478;20932.639;  349.919;  239.762
679.054;21641.371;  620.423;  248.583
679.631;21104.938;  432.093;  237.503
680.207;21727.236;  520.296;  245.924
680.783;22824.301;  316.666;  224.845
681.359;23082.033;  410.836;  209.666
681.935;21739.699;  415.505;  191.687
682.511;20975.465;  416.242;  210.008
683.087;20768.330;  441.445;  213.329
683.663;20665.029;  398.882;  216.850
684.239;21010.395;  350.018;  229.471
684.815;21007.760;  468.988;  248.792
685.390;20575.592;  529.491;  231.813
685.966;20253.490;  413.461;  221.234
686.542;20500.957;  375.298;  214.255
687.118;20823.221;  421.001;  212.276
687.693;20984.721;  443.704;  233.096
688.269;21520.420;  401.074;  246.917
688.844;21733.385;  436.044;  236.938
689.420;21577.117;  418.281;  242.059
689.995;21575.016;  510.317;  245.480
690.571;21384.281;  487.387;  244.701
691.146;20521.014;  399.657;  251.922
691.722;19892.313;  431.160;  284.743
692.297;19533.045;  383.697;  320.664
692.872;19751.277;  371.067;  313.885
693.448;20256.242;  363.270;  290.106
694.023;20863.975;  420.573;  304.327
694.598;20648.707;  416.443;  319.648
695.173;20360.305;  391.680;  323.169
695.748;20082.738;  326.783;  376.389
696.323;20545.270;  407.086;  397.610
696.898;21298.902;  476.623;  430.231
697.473;21247.500;  335.926;  454.952
698.048;20767.867;  395.396;  478.973
698.623;19623.498;  348.499;  477.094
699.198;19395.363;  421.569;  496.915
699.773;19624.695;  377.505;  490.236
700.348;19413.262;  357.509;  519.957
700.922;19538.928;  412.778;  575.678
701.497;19704.059;  407.648;  621.399
702.072;19444.391;  459.318;  664.420
702.646;19643.957;  449.388;  690.541
703.221;20465.223;  426.625;  748.862
703.795;20315.855;  360.594;  774.282
704.370;20822.221;  296.731;  799.803
704.944;21123.520;  394.334;  875.824
705.519;21349.785;  422.104;  902.945
706.093;21327.750;  368.807;  889.266
706.668;21043.715;  444.311;  903.487
707.242;20132.715;  450.080;  881.708
707.816;19099.514;  386.317;  892.329
708.390;19175.512;  405.454;  970.250
708.965;19676.479;  426.357;  984.671
709.539;19512.877;  399.660; 1026.092
710.113;19470.609;  410.530; 1067.913
710.687;20032.342;  449.766; 1166.434
711.261;20006.307;  356.003; 1190.854
711.835;19827.871;  365.506; 1197.275
712.409;20006.471;  328.643; 1308.096
712.983;20100.969;  338.346; 1461.617
713.557;19140.535;  337.683; 1611.838
714.131;18141.367;  397.819; 1554.359
714.704;17382.299;  368.289; 1520.780
715.278;17116.631;  408.759; 1575.101
715.852;17009.664;  445.995; 1689.822
716.425;17534.662;  520.432; 1829.143
716.999;18110.229;  331.435; 2008.664
717.573;18798.961;  435.738; 2000.485
718.146;19117.492;  507.875; 1914.506
718.720;19097.725;  415.978; 1818.026
719.293;18829.623;  431.881; 1734.147
719.867;18535.322;  371.085; 1716.968
720.440;18595.588;  477.755; 1918.589
721.013;18291.920;  380.458; 1975.410
721.587;17765.385;  341.994; 2073.331
722.160;17803.018;  455.064; 2357.852
722.733;18298.783;  419.534; 2657.073
723.306;18847.850;  404.204; 2703.894
723.880;18975.648;  420.674; 2549.415
724.453;19589.180;  482.310; 2414.336
725.026;19321.012;  380.414; 2298.557
725.599;18511.377;  423.417; 2168.778
726.172;17523.010;  436.120; 2106.099
726.745;17622.143;  426.923; 2253.320
727.318;17988.873;  456.693; 2404.740
727.891;17639.006;  422.696; 2680.161
728.463;17425.705;  415.466; 2838.882
729.036;17753.938;  373.903; 2755.103
729.609;17859.137;  365.373; 2731.824
730.182;17742.936;  448.843; 2855.645
730.754;17297.900;  306.879; 2946.866
731.327;16838.000;  430.849; 2840.187
731.900;16840.266;  340.786; 2647.608
732.472;17127.930;  410.456; 2473.929
733.045;17375.596;  387.159; 2445.750
733.617;16692.395;  329.229; 2511.771
734.190;15590.060;  428.232; 2581.592
734.762;14936.126;  400.902; 2710.813
735.334;14864.258;  412.272; 3005.733
735.907;15617.557;  411.542; 3154.954
736.479;16706.422;  469.678; 3171.675
737.051;17193.754;  430.848; 3217.496
737.623;17806.887;  445.751; 3246.217
738.195;18017.818;  375.954; 2985.238
738.768;18168.684;  308.891; 2727.559
739.340;18830.684;  387.394; 2666.880
739.912;18904.416;  452.164; 2769.601
740.484;18584.215;  432.401; 2731.422
741.056;17596.014;  394.970; 2963.043
741.628;16997.211;  360.507; 3361.364
742.199;17126.910;  477.377; 3641.185
742.771;17066.377;  347.947; 3932.005
743.343;16894.209;  360.417; 4319.926
743.915;17107.607;  430.787; 4706.647
744.487;16894.307;  435.456; 4874.968
745.058;15854.638;  438.360; 4616.589
745.630;15716.104;  441.496; 4253.410
746.201;15966.669;  376.899; 4056.131
746.773;16201.568;  433.369; 3772.952
747.344;16036.000;  403.406; 3642.473
747.916;15965.232;  422.642; 3752.294
748.487;15896.564;  449.846; 4106.215
749.059;15748.597;  349.649; 4457.835
749.630;16009.362;  377.119; 4366.457
750.201;16506.561;  405.889; 4600.078
750.773;16565.459;  375.092; 4658.499
751.344;15851.025;  412.462; 4609.319
751.915;14587.258;  405.532; 4526.440
752.486;13665.090;  371.235; 4536.061
753.057;13172.322;  413.405; 4383.282
753.628;13041.154;  365.275; 4296.503
754.199;14036.586;  385.978; 4383.224
754.770;14589.185;  443.748; 4653.545
755.341;14364.284;  459.018; 4831.666
755.912;14302.949;  395.754; 4831.387
756.483;15073.481;  438.857; 4735.808
757.054;15090.414;  389.961; 4685.029
757.625;14950.213;  361.131; 4994.250
758.195;14752.845;  345.634; 5051.471
758.766;14783.943;  418.904; 5317.792
759.337;14665.742;  330.474; 5646.512
759.907;14226.008;  341.910; 5404.133
760.478;13801.240;  377.280; 5090.954
761.048;13853.372;  433.950; 4871.175
761.619;14095.138;  430.920; 4589.396
762.189;14363.104;  401.090; 4171.317
762.760;14930.336;  455.526; 3872.538
763.330;14686.701;  440.663; 3832.259
763.900;14517.667;  420.233; 4150.180
764.471;14252.065;  361.269; 4529.801
765.041;13773.564;  466.706; 4715.922
765.611;13306.996;  427.909; 4681.442
766.181;13641.962;  399.712; 4717.063
766.751;13776.327;  413.315; 4710.285
767.321;12979.393;  351.385; 4450.305
767.891;12379.092;  415.122; 4274.126
768.461;12111.624;  397.025; 4215.047
769.031;12250.189;  406.562; 4173.068
769.601;12626.255;  459.531; 4174.689
770.171;12615.153;  341.035; 4229.310
770.741;12211.220;  382.638; 4352.031
771.311;11590.418;  435.608; 4336.652
771.880;11264.117;  356.811; 4300.873
772.450;10754.916;  370.614; 4387.194
773.020;10005.548;  331.117; 4220.415
773.589; 9830.646;  385.954; 4075.835
774.159;10432.513;  378.624; 4105.756
774.729;11711.078;  376.760; 4114.978
775.298;12336.210;  371.997; 3693.298
775.867;12079.442;  375.500; 3343.119
776.437;11820.407;  405.770; 3062.040
777.006;11841.873;  339.440; 2927.161
777.576;11805.105;  437.543; 3046.482
778.145;11644.671;  426.646; 3230.203
778.714;11542.336;  404.083; 3253.324
779.283;11497.035;  434.386; 3129.745
779.853;11556.367;  396.056; 2983.566
780.422;11496.466;  406.526; 2929.887
780.991;11088.132;  426.829; 2863.908
781.560;10948.464;  475.832; 2948.029
782.129;11282.663;  426.069; 3074.149
782.698;11937.795;  482.472; 2893.970
783.267;11836.061;  378.875; 2721.391
783.836;11429.159;  411.212; 2659.712
784.404;11307.592;  351.782; 2622.233
784.973;11081.290;  299.652; 2600.754
785.542;10905.289;  397.522; 2528.475
786.111;10653.188;  465.225; 2404.396
786.679;10457.820;  430.561; 2365.717
787.248;10171.519;  333.731; 2498.438
787.817; 9969.585;  383.335; 2645.659
788.385;10171.850;  460.104; 2709.280
788.954;10704.882;  340.841; 2620.500
789.522;11344.581;  446.078; 2625.422
790.090;10905.747;  341.547; 2743.843
790.659;10613.778;  386.784; 2635.163
791.227;10636.077;  393.354; 2495.484
791.795;10740.977;  418.024; 2413.705
792.364;10644.575;  361.460; 2345.326
792.932;10442.241;  429.630; 2350.447
793.500;10207.106;  392.500; 2429.768
794.068; 9844.271;  340.437; 2513.589
794.636; 9949.204;  361.940; 2664.310
795.204;10253.437;  324.976; 2721.431
795.772;10325.868;  364.580; 2802.052
796.340;10126.801;  375.283; 2847.173
796.908; 9831.399;  327.386; 2997.194
797.476; 9607.132;  347.923; 3151.615
798.044; 9301.131;  317.526; 3110.735
798.612; 8984.096;  397.196; 2931.656
799.180; 8977.128;  409.266; 2785.777
799.747; 8943.394;  406.369; 2899.098
800.315; 8845.259;  347.272; 2955.519
800.883; 8939.925;  318.375; 2948.940
801.450; 9567.424;  396.478; 2965.361
802.018;10155.756;  417.915; 3070.582
802.585; 9789.755;  399.685; 3156.103
803.153; 9222.520;  370.655; 3199.524
803.720; 9075.686;  375.925; 3168.845
804.287; 9343.185;  386.995; 3248.366
804.855; 9447.116;  452.264; 3406.187
805.422; 8998.915;  385.801; 3430.907
805.989; 8538.314;  365.071; 3453.528
806.556; 8488.180;  364.707; 3612.649
807.124; 9036.545;  444.911; 3736.570
807.691; 9181.944;  354.214; 3770.491
808.258; 8999.109;  399.484; 3705.012
808.825; 8878.742;  451.687; 3828.733
809.392; 8719.808;  483.557; 3986.754
809.959; 8261.072;  419.560; 4410.075
810.526; 8169.838;  487.463; 4774.996
811.093; 8057.037;  468.033; 4754.217
811.659; 8080.369;  396.236; 4661.238
812.226; 8141.468;  397.673; 4672.559
812.793; 8320.667;  417.976; 4822.979
813.360; 8631.799;  395.079; 5189.800
813.926; 8929.598;  417.149; 5310.622
814.493; 9086.964;  347.153; 5414.542
815.060; 8929.596;  320.556; 5548.963
815.626; 8642.562;  345.559; 5452.284
816.193; 8307.160;  405.129; 5339.305
816.759; 8024.826;  363.365; 5544.426
817.325; 7973.625;  320.269; 5706.547
817.892; 8164.557;  441.005; 5623.468
818.458; 7973.555;  423.208; 5586.689
819.024; 7672.054;  460.978; 5647.910
819.591; 7357.720;  396.715; 5762.031
820.157; 7254.552;  344.818; 6284.452
820.723; 7448.951;  418.721; 6906.973
821.289; 7744.183;  625.725; 7086.894
821.855; 7289.548;  433.094; 7054.915
822.421; 7240.880;  375.031; 7112.035
822.987; 7246.313;  351.401; 7256.156
823.553; 7266.745;  382.504; 7538.077
824.119; 7340.110;  445.174; 7594.298
824.685; 7313.809;  464.044; 7613.619
825.251; 7169.308;  440.714; 7644.140
825.816; 7063.007;  493.750; 7720.261
826.382; 6939.873;  434.787; 8014.282
826.948; 7067.471;  442.690; 8281.503
827.513; 6955.537;  389.727; 8289.624
828.079; 6854.936;  354.663; 8587.045
828.645; 6710.334;  414.766; 8821.865
829.210; 6205.000;  344.270; 9054.486
829.776; 5785.666;  427.573; 9054.607
830.341; 5678.631;  441.543; 9415.628
830.906; 5713.330;  455.779; 9932.449
831.472; 5540.329;  368.316;10150.271
832.037; 5546.627;  447.052; 9420.391
832.602; 5306.026;  376.156; 8664.912
833.167; 5221.759;  402.892; 8491.933
833.733; 5261.424;  449.562; 8872.854
834.298; 5042.390;  352.765; 9370.575
834.863; 5044.222;  426.135; 9610.695
835.428; 5110.787;  420.238; 9655.616
835.993; 5125.953;  429.042; 9437.838
836.558; 5114.552;  438.978; 9441.459
837.123; 5054.117;  544.548; 9600.979
837.688; 4721.349;  429.385; 9798.301
838.253; 4489.048;  420.754; 9902.921
838.817; 4327.247;  387.524;10339.742
839.382; 4352.646;  477.961;10548.363
839.947; 4305.912;  414.764;10252.484
840.511; 4474.877;  487.934;10040.005
841.076; 4384.709;  316.471;10099.926
841.641; 4602.541;  430.607;10347.347
842.205; 4525.240;  419.110;10817.368
842.770; 4496.706;  505.380;11435.289
843.334; 4174.371;  390.250;12072.409
843.898; 4009.537;  394.687;12635.431
844.463; 3982.035;  480.390;12537.252
845.027; 3865.901;  377.593;12759.673
845.591; 3927.400;  450.730;12821.993
846.156; 3840.399;  379.933;12520.914
846.720; 3780.597;  445.703;12390.436
847.284; 3507.130;  414.939;12956.456
847.848; 3300.195;  435.043;13240.177
848.412; 3155.094;  406.379;13216.998
848.976; 3283.426;  480.816;13014.619
849.540; 3500.525;  527.286;12355.740
850.104; 3589.690;  482.255;12208.761
850.668; 3363.689;  326.692;12106.882
851.232; 3262.221;  339.362;11862.103
851.796; 3228.287;  399.098;11700.523
852.359; 3182.619;  449.802;12375.944
852.923; 3229.485;  463.538;13087.966
853.487; 3200.684;  443.308;13297.187
854.050; 2932.882;  277.978;13851.207
854.614; 2932.581;  385.048;14854.229
855.177; 2940.647;  425.451;15802.149
855.741; 3047.979;  432.921;16603.570
856.304; 3179.011;  459.991;16359.891
856.868; 3086.210;  360.827;14365.512
857.431; 2937.109;  411.631;13361.333
857.995; 2767.408;  393.267;14130.554
858.558; 2772.073;  433.570;14883.175
859.121; 2841.239;  444.274;15754.195
859.684; 2876.438;  419.777;15995.017
860.247; 2871.203;  411.280;15149.537
860.810; 2857.202;  387.650;14640.358
861.374; 2977.434;  531.387;15551.079
861.937; 2788.566;  359.956;16519.801
862.500; 2704.198;  379.460;16796.521
863.062; 2539.364;  366.129;16538.742
863.625; 2507.096;  429.333;16716.764
864.188; 2447.362;  385.303;17055.084
864.751; 2475.994;  389.439;17197.705
865.314; 2504.493;  410.176;17151.625
865.876; 2470.725;  458.546;17783.547
866.439; 2414.690;  442.049;19283.467
867.002; 2466.356;  524.252;20256.389
867.564; 2452.121;  470.822;20485.410
868.127; 2471.620;  426.825;20789.730
868.689; 2432.386;  426.428;21981.951
869.252; 2380.151;  469.665;23803.771
869.814; 2263.350;  370.668;24974.094
870.377; 2361.115;  417.505;24690.314
870.939; 2518.414;  597.108;23963.436
871.501; 2275.646;  424.544;25167.156
872.063; 2077.845;  299.948;26995.477
872.626; 2014.644;  325.218;27443.098
873.188; 2067.843;  423.421;26718.418
873.750; 2017.509;  402.591;26558.840
874.312; 2027.307;  386.194;26701.561
874.874; 2177.906;  501.397;27970.582
875.436; 2128.472;  453.067;29173.402
875.998; 2195.104;  480.570;30376.623
876.560; 2171.303;  455.507;32507.344
877.122; 2010.535;  377.577;34833.066
877.683; 1969.200;  445.780;36458.285
878.245; 1846.933;  394.850;37248.207
878.807; 1894.365;  437.420;36758.027
879.369; 1855.897;  347.490;35223.551
879.930; 1857.129;  365.359;33824.969
880.492; 1907.961;  478.796;34436.492
881.053; 1778.094;  375.133;37745.313
881.615; 1806.392;  381.002;41184.633
882.176; 1787.058;  406.606;42871.555
882.738; 1798.490;  445.376;41693.074
883.299; 1639.256;  324.079;40289.895
883.860; 1622.454;  331.382;39231.215
884.422; 1692.987;  443.552;38264.039
884.983; 1555.252;  361.488;37171.859
885.544; 1600.651;  418.658;35842.379
886.105; 1596.150;  409.428;34810.000
886.666; 1551.782;  391.231;34519.020
887.227; 1435.347;  334.968;33905.641
887.788; 1420.680;  426.605;34502.965
888.349; 1274.612;  353.974;34241.785
888.910; 1328.377;  455.311;33722.203
889.471; 1290.010;  429.514;32539.625
890.032; 1254.208;  412.017;31528.346
890.593; 1278.174;  443.087;32655.068
891.153; 1222.873;  401.324;33882.289
891.714; 1152.172;  344.860;33318.711
892.275; 1126.970;  354.864;31848.930
892.835; 1189.203;  458.667;30339.752
893.396; 1112.168;  453.937;30074.973
893.956; 1022.734;  394.340;30338.393
894.517; 1026.199;  421.043;30864.113
895.077; 1032.598;  428.546;29766.734
895.638; 1072.830;  500.450;26379.557
896.198;  925.996;  356.486;24056.277
896.758;  991.194;  452.956;22961.898
897.319;  915.727;  398.059;21772.020
897.879;  902.559;  411.262;20877.539
898.439;  810.158;  335.866;19509.461
898.999;  880.823;  438.869;17297.582
899.559;  854.222;  431.972;14712.002
900.119;  779.621;  358.775;12790.224
900.679;  882.553;  489.679;11586.744
901.239;  823.119;  437.948;10776.465
901.799;  791.251;  419.118; 9691.687
902.359;  744.283;  376.388; 8725.907
902.919;  717.782;  371.258; 8305.728
903.479;  695.614;  364.361; 8172.649
904.038;  663.346;  345.465; 7913.870
904.598;  603.012;  305.534; 7262.291
905.158;  675.310;  382.171; 6609.012
905.717;  690.609;  400.174; 6236.133
906.277;  695.875;  410.444; 5829.054
906.836;  711.274;  426.814; 5396.674
907.396;  702.206;  431.251; 4964.195
907.955;  702.371;  432.354; 4528.917
908.515;  654.437;  392.224; 4223.837
909.074;  649.336;  395.927; 4023.958
909.633;  645.068;  395.663; 4065.379
910.192;  742.167;  498.900; 4066.300
910.752;  626.767;  391.767; 3971.600
911.311;  610.300;  382.400; 3839.600
911.870;  592.800;  367.300; 3684.500
912.429;  681.400;  459.167; 3635.600
912.988;  667.467;  457.667; 3689.800
913.547;  580.167;  359.367; 3737.700
914.106;  624.700;  417.600; 3740.300
914.665;  618.400;  409.033; 3604.600
915.224;  661.800;  456.700; 3358.700
915.782;  577.367;  382.233; 3188.400
916.341;  670.400;  474.000; 3091.400
916.900;  572.900;  385.133; 3044.800
917.458;  558.300;  359.667; 2888.600
918.017;  595.133;  411.167; 2818.900
918.576;  569.667;  382.367; 2838.600
919.134;  525.900;  334.833; 2880.100
919.693;  571.400;  381.600; 2996.300
920.251;  555.367;  371.233; 3183.100
920.809;  533.167;  352.667; 3247.000
921.368;  561.600;  383.667; 3156.600
921.926;  536.833;  356.967; 2964.900
922.484;  581.467;  404.933; 2846.300
923.042;  563.600;  386.033; 2890.400
923.601;  648.767;  469.600; 2987.700
924.159;  607.133;  424.600; 3049.800
924.717;  542.200;  360.533; 3087.000
925.275;  577.600;  408.000; 3093.400
925.833;  496.933;  320.600; 3182.400
926.391;  615.733;  433.233; 3397.900
926.949;  557.233;  379.300; 3575.400
927.506;  580.267;  416.333; 3713.400
928.064;  560.900;  385.633; 3871.300
928.622;  562.300;  392.033; 4092.800
929.180;  514.467;  340.433; 4499.300
929.737;  506.300;  333.567; 4813.200
930.295;  605.967;  421.833; 5084.100
930.853;  544.133;  358.500; 5185.000
931.410;  526.900;  340.700; 5313.100
931.968;  605.167;  432.900; 5339.600
932.525;  580.933;  402.267; 5399.900
933.082;  505.967;  335.967; 5457.500
933.640;  588.367;  411.667; 5692.900
934.197;  560.367;  378.467; 5821.200
934.754;  565.067;  380.133; 5617.900
935.312;  543.767;  358.033; 5512.400
935.869;  652.700;  472.967; 5582.400
936.426;  551.567;  369.467; 5650.100
936.983;  569.967;  381.833; 5657.400
937.540;  524.000;  340.200; 5564.300
938.097;  604.633;  415.000; 5574.000
938.654;  567.967;  376.900; 5665.900
939.211;  606.533;  410.433; 5931.600
939.768;  581.433;  391.667; 6153.600
940.324;  568.133;  379.133; 6397.600
940.881;  550.367;  358.067; 6454.200
941.438;  652.900;  456.500; 6206.900
941.995;  630.100;  433.467; 6003.900
942.551;  546.167;  343.800; 6228.300
943.108;  597.433;  400.467; 6603.500
943.664;  546.500;  346.000; 7188.100
944.221;  699.100;  501.467; 7579.900
944.777;  533.900;  338.500; 7658.100
945.334;  547.567;  350.667; 7670.400
945.890;  587.767;  394.300; 7525.100
946.446;  596.533;  394.533; 7261.500
947.003;  607.467;  408.767; 6949.200
947.559;  682.967;  485.033; 6773.100
948.115;  650.367;  448.033; 6668.400
948.671;  621.133;  409.933; 6488.400
949.227;  547.433;  328.733; 6236.600
949.783;  530.867;  320.900; 6008.900
950.339;  621.300;  421.133; 5934.100
950.895;  639.300;  442.667; 5933.500
951.451;  571.767;  376.367; 6074.700
952.007;  619.367;  423.667; 6066.400
952.563;  577.800;  379.633; 5884.100
953.118;  567.200;  368.967; 5733.800
953.674;  579.833;  387.100; 5734.300
954.230;  588.667;  397.600; 6039.700
954.785;  589.700;  390.133; 6383.500
955.341;  633.833;  431.767; 6568.200
955.897;  517.100;  318.533; 6488.600
956.452;  595.633;  408.600; 6239.200
957.008;  694.833;  506.300; 5954.600
957.563;  640.567;  453.800; 5816.700
958.118;  544.100;  362.033; 5828.200
958.674;  586.867;  402.500; 5717.400
959.229;  635.000;  458.500; 5506.800
959.784;  518.367;  329.600; 5292.200
960.339;  634.933;  456.900; 5101.900
960.894;  605.033;  430.767; 5093.200
961.449;  531.167;  350.767; 5227.900
962.004;  781.267;  612.867; 5349.300
962.559;  530.000;  362.333; 5514.900
963.114;  445.367;  277.600; 5717.300
963.669;  561.267;  400.667; 5841.400
964.224;  538.433;  362.667; 5805.900
964.779;  500.867;  339.700; 5723.400
965.334;  643.467;  478.467; 5779.500
965.888;  540.033;  366.033; 5948.500
966.443;  609.900;  437.900; 6344.200
966.998;  493.467;  320.033; 6666.300
967.552;  567.500;  397.733; 6710.100
968.107;  535.133;  362.067; 6593.500
968.661;  570.833;  406.600; 6344.100
969.216;  523.767;  365.067; 6062.400
969.770;  567.767;  408.800; 5785.500
970.324;  573.833;  409.633; 5426.800
970.879;  587.333;  438.733; 5016.800
971.433;  602.000;  436.900; 4904.500
971.987;  554.833;  399.100; 4991.000
972.541;  577.100;  417.867; 4978.500
973.095;  638.933;  486.000; 4832.000
973.649;  500.167;  332.100; 4767.900
974.203;  519.967;  356.433; 4881.200
974.757;  536.000;  367.767; 4969.500
975.311;  540.700;  386.967; 4953.000
975.865;  549.300;  394.600; 4884.300
976.419;  527.400;  376.067; 4739.800
976.973;  523.867;  369.367; 4698.100
977.526;  588.967;  451.800; 4631.100
978.080;  487.433;  331.567; 4621.600
978.634;  576.533;  432.200; 4650.200
979.187;  567.767;  417.767; 4669.200
979.741;  654.167;  509.633; 4658.000
980.294;  484.467;  340.700; 4579.100
980.848;  437.000;  296.033; 4452.800
981.401;  515.167;  368.200; 4271.900
981.955;  533.667;  391.333; 4087.800
982.508;  460.233;  325.633; 3973.900
983.061;  585.467;  446.067; 3928.600
983.615;  492.200;  360.967; 3851.200
984.168;  470.967;  340.200; 3734.800
984.721;  554.933;  422.800; 3628.300
985.274;  543.767;  412.633; 3564.300
985.827;  525.300;  393.067; 3558.100
986.380;  444.167;  314.167; 3559.900
986.933;  549.167;  423.833; 3688.700
987.486;  548.833;  415.267; 3778.500
988.039;  537.300;  414.167; 3559.900
988.591;  565.567;  437.767; 3219.300
989.144;  453.733;  339.533; 2902.900
989.697;  467.033;  357.067; 2722.600
990.250;  539.867;  424.167; 2618.000
990.802;  466.767;  353.700; 2523.900
991.355;  628.633;  521.233; 2436.500
991.907;  549.133;  441.467; 2412.200
992.460;  469.633;  361.700; 2387.900
993.012;  476.333;  366.333; 2365.800
993.565;  450.367;  341.900; 2311.100
994.117;  613.367;  524.100; 2308.700
994.669;  436.267;  343.333; 2249.300
995.221;  507.667;  413.333; 2158.100
995.774;  511.967;  410.167; 2085.600
996.326;  474.633;  384.967; 2068.100
996.878;  538.433;  454.533; 1975.300
997.430;  446.733;  351.200; 1929.500
997.982;  482.633;  390.800; 1861.900
998.534;  481.600;  385.033; 1830.200
999.086;  476.167;  384.467; 1823.200
999.638;  421.633;  335.667; 1815.000
1000.190;  452.167;  366.200; 1796.600
1000.741;  481.833;  393.600; 1738.800
1001.293;  443.933;  357.200; 1666.200
1001.845;  439.567;  355.033; 1566.500
1002.396;  480.933;  399.333; 1471.900
1002.948;  480.867;  402.167; 1398.000
1003.500;  464.367;  388.033; 1356.500
1004.051;  606.733;  532.300; 1294.200
1004.603;  533.633;  451.533; 1190.000
1005.154;  394.400;  320.100; 1063.900
1005.705;  476.100;  405.700;  968.300
1006.257;  466.033;  395.333;  889.800
1006.808;  459.500;  384.400;  801.500
1007.359;  524.400;  460.567;  716.400
1007.910;  437.967;  362.067;  639.100
1008.461;  492.733;  429.700;  561.600
1009.013;  387.600;  329.067;  500.400
1009.564;  536.467;  478.833;  476.100
1010.115;  392.300;  330.767;  431.600
1010.665;  407.600;  346.767;  409.300
1011.216;  451.933;  394.800;  399.700
1011.767;  467.633;  407.800;  388.100
1012.318;  498.667;  435.767;  381.400
1012.869;  454.233;  398.267;  375.400
1013.419;  407.333;  340.933;  357.600
1013.970;  454.633;  394.100;  358.300
1014.521;  413.133;  354.733;  344.100
1015.071;  451.233;  395.700;  322.800
1015.622;  426.700;  367.733;  320.600
1016.172;  402.100;  347.033;  301.700
1016.723;  410.600;  350.367;  289.800
1017.273;  407.067;  344.400;  287.600
1017.823;  435.800;  376.933;  278.700
1018.374;  408.633;  351.667;  274.400
1018.924;  485.533;  424.033;  283.200
1019.474;  489.133;  425.667;  278.500
1020.024;  440.233;  389.867;  274.700
1020.574;  488.667;  438.233;  272.700
1021.124;  452.967;  400.767;  278.400
1021.674;  373.333;  315.367;  269.200
1022.224;  485.733;  423.400;  267.800
1022.774;  449.500;  400.700;  258.100
1023.324;  514.167;  456.967;  260.000
1023.874;  605.233;  549.633;  260.700
1024.423;  413.900;  363.267;  252.700
1024.973;  405.333;  358.933;  234.700
1025.523;  418.733;  365.800;  226.500
1026.072;  405.600;  355.467;  225.500
1026.622;  445.000;  399.133;  210.100
1027.172;  484.533;  435.167;  213.000
1027.721;  399.567;  351.433;  207.700
1028.270;  454.533;  401.900;  205.400
1028.820;  435.933;  380.533;  201.000
1029.369;  410.133;  367.467;  201.000
1029.918;  434.267;  385.900;  198.400
1030.468;  379.200;  325.833;  199.200
1031.017;  432.300;  381.633;  192.600
1031.566;  410.367;  363.400;  197.400
1032.115;  466.433;  425.267;  188.300
1032.664;  406.967;  354.600;  193.700
1033.213;  493.867;  446.433;  191.900
1033.762;  428.000;  377.967;  184.500
1034.311;  457.967;  412.700;  194.300
1034.860;  470.833;  421.533;  192.300
1035.408;  495.400;  447.733;  182.600
1035.957;  494.667;  440.967;  173.900
1036.506;  351.567;  304.100;  185.200
1037.055;  581.000;  532.100;  182.500
1037.603;  453.667;  402.633;  167.600
1038.152;  355.600;  309.400;  168.200
1038.700;  389.167;  340.400;  169.600
1039.249;  462.233;  417.500;  164.300
1039.797;  430.267;  387.233;  169.600
1040.345;  486.433;  433.367;  167.100
1040.894;  419.033;  371.300;  164.400
1041.442;  429.800;  384.767;  158.300
1041.990;  376.567;  331.267;  160.000
1042.538;  361.900;  312.367;  156.800
1043.087;  379.067;  336.367;  146.600
1043.635;  464.800;  412.967;  162.400
1044.183;  394.267;  353.500;  156.300
1044.731;  387.767;  342.567;  158.100
1045.279;  461.267;  413.567;  154.500
1045.827;  624.000;  573.967;  146.200
1046.374;  346.233;  299.167;  154.000
1046.922;  397.400;  358.967;  149.000
1047.470;  463.967;  427.433;  154.900
1048.018;  442.267;  394.800;  148.400
1048.565;  491.700;  444.500;  146.300
1049.113;  374.767;  329.500;  156.100
1049.660;  421.967;  375.867;  154.300
1050.208;  463.867;  413.500;  149.400
1050.755;  406.133;  364.900;  157.500
1051.303;  468.200;  426.667;  157.700
1051.850;  432.633;  390.100;  152.800
1052.397;  312.700;  271.900;  146.300
1052.945;  421.633;  375.400;  149.500
1053.492;  507.367;  471.667;  149.300
1054.039;  485.367;  457.767;  163.100
1054.586;  371.033;  347.000;  150.400
1055.133;  482.633;  428.800;  153.500
1055.680;  440.533;  395.833;  155.600
1056.227;  359.867;  317.867;  148.700
1056.774;  541.200;  503.267;  151.500
1057.321;  353.233;  309.267;  143.700
1057.868;  436.967;  399.467;  145.300
1058.415;  441.967;  401.933;  153.500
1058.961;  457.900;  417.933;  149.900
1059.508;  441.067;  392.800;  147.300
1060.055;  394.000;  351.033;  151.000
1060.601;  420.600;  379.200;  148.700
1061.148;  419.033;  380.600;  153.800
1061.694;  405.400;  364.667;  150.500
1062.241;  400.533;  360.333;  149.100
1062.787;  454.067;  410.800;  153.000
1063.334;  559.600;  513.867;  153.200
1063.880;  459.200;  420.267;  148.400
1064.426;  486.800;  451.600;  149.200
1064.972;  400.733;  366.667;  156.400
1065.518;  382.367;  345.300;  144.700
1066.065;  428.633;  386.267;  139.400
1066.611;  404.767;  371.200;  139.300
1067.157;  436.967;  397.733;  138.400
1067.703;  456.000;  417.400;  142.700
1068.249;  411.200;  378.867;  136.700
1068.794;  421.133;  394.133;  139.400
1069.340;  383.267;  354.500;  142.700
1069.886;  406.733;  364.600;  135.600
1070.432;  364.400;  328.600;  133.400
1070.977;  411.367;  371.933;  138.200
1071.523;  387.267;  346.267;  132.400
1072.068;  397.133;  358.633;  132.700
1072.614;  353.400;  317.667;  127.000
1073.160;  468.200;  435.933;  131.300
1073.705;  389.167;  351.367;  135.700
1074.250;  375.633;  339.467;  133.000
1074.796;  449.533;  412.067;  138.000
1075.341;  456.367;  420.333;  137.300
1075.886;  401.433;  363.200;  134.300
1076.431;  449.233;  408.600;  138.200
1076.976;  441.367;  404.467;  132.200
1077.521;  394.267;  359.500;  138.900
1078.067;  391.267;  356.133;  128.600
1078.612;  456.733;  422.200;  138.900
1079.156;  408.300;  369.767;  128.900
1079.701;  471.867;  437.200;  129.700
1080.246;  479.333;  442.000;  128.600
1080.791;  425.800;  392.800;  122.600
1081.336;  449.100;  418.900;  122.000
1081.880;  441.700;  408.800;  123.900
1082.425;  386.833;  351.200;  120.600
1082.970;  488.533;  452.833;  124.500
1083.514;  408.500;  369.400;  112.000
1084.059;  396.433;  365.167;  120.700
1084.603;  378.400;  349.000;  116.000
1085.147;  445.167;  407.600;  116.300
1085.692;  491.800;  458.200;  108.200
1086.236;  336.400;  306.800;  114.600
1086.780;  523.300;  479.933;  118.900
1087.325;  447.100;  411.767;  120.400
1087.869;  424.367;  384.667;  110.500
1088.413;  484.200;  450.600;  114.000
1088.957;  357.233;  330.000;  114.300
1089.501;  525.867;  488.833;  114.600
1090.045;  499.067;  461.333;  114.200
1090.589;  383.733;  354.333;  105.500
1091.133;  460.667;  428.267;  111.800
1091.676;  404.100;  371.467;  110.900
1092.220;  412.767;  375.600;  110.100
1092.764;  485.400;  459.100;  108.100
1093.307;  462.667;  423.833;  109.900
1093.851;  373.400;  335.600;  107.500
1094.395;  471.400;  438.200;   96.200
1094.938;  428.000;  398.667;   99.300
1095.482;  374.700;  343.733;   97.700
1096.025;  487.300;  459.767;   84.900
1096.568;  545.567;  513.500;   88.500
1097.112;  340.833;  310.867;   95.700
1097.655;  404.000;  372.633;   97.300
1098.198;  406.100;  373.400;   92.600
1098.741;  419.767;  392.000;   91.800
1099.285;  443.867;  417.433;   88.000
1099.828;  297.867;  260.733;   91.700
1100.371;  421.067;  387.200;   89.900
1100.914;  469.100;  434.033;   91.500
1101.457;  467.933;  436.300;   88.100
1101.999;  391.833;  356.733;   86.400
1102.542;  447.333;  412.200;   90.800
1103.085;  446.767;  422.433;   95.400
1103.628;  527.867;  497.733;   97.700
1104.170;  401.267;  370.933;   84.000
1104.713;  444.100;  406.567;   93.900
1105.256;  376.200;  349.367;   93.000
1105.798;  334.467;  308.400;   85.600
1106.341;  498.433;  472.167;   87.100
1106.883;  348.567;  320.500;   85.200
1107.425;  465.400;  426.200;   85.000
1107.968;  417.867;  390.500;   84.300
1108.510;  474.067;  443.500;   88.200
1109.052;  424.967;  397.067;   86.600
1109.594;  380.733;  351.400;   79.400
1110.136;  439.967;  413.033;   81.700
1110.679;  427.300;  397.800;   75.500
1111.221;  409.100;  380.933;   88.500
1111.763;  374.267;  348.200;   87.700
1112.304;  370.467;  342.800;   89.700
1112.846;  450.467;  427.133;   81.900
1113.388;  655.700;  629.167;   86.400
1113.930;  474.467;  444.067;   84.700
1114.472;  415.000;  385.833;   78.900
1115.013;  372.533;  341.267;   78.100
1115.555;  399.933;  380.600;   84.900
1116.097;  389.300;  359.133;   79.200
1116.638;  471.967;  441.733;   83.700
1117.180;  456.300;  428.567;   85.500
1117.721;  388.833;  362.733;   78.800
1118.262;  469.233;  438.667;   77.400
1118.804;  432.867;  405.200;   81.400
1119.345;  390.633;  368.600;   77.800
1119.886;  481.467;  455.000;   81.200
1120.427;  399.067;  372.933;   77.200
1120.969;  403.733;  385.600;   75.200
1121.510;  378.967;  353.567;   80.900
1122.051;  501.000;  473.000;   77.300
1122.592;  452.300;  425.333;   73.300
1123.133;  369.467;  347.133;   90.100
1123.673;  485.733;  463.567;   75.000
1124.214;  411.200;  391.600;   80.600
1124.755;  442.667;  415.133;   78.000
1125.296;  421.200;  397.300;   77.500
1125.836;  470.300;  446.667;   80.400
1126.377;  411.900;  380.900;   75.600
1126.918;  418.467;  397.167;   78.900
1127.458;  422.967;  399.333;   78.000
1127.999;  449.933;  424.367;   76.100
1128.539;  475.667;  445.933;   81.400
1129.079;  432.800;  407.767;   77.400
1129.620;  374.300;  355.933;   68.000
1130.160;  362.633;  341.400;   77.500
1130.700;  441.333;  414.767;   76.300
1131.240;  439.967;  413.600;   66.800
1131.781;  422.533;  400.667;   70.600
1132.321;  404.900;  380.733;   77.200
1132.861;  377.800;  357.267;   70.400
1133.401;  404.333;  378.367;   68.700
1133.941;  428.233;  405.533;   68.500
1134.481;  414.400;  385.733;   75.900
1135.020;  415.733;  392.900;   66.600
1135.560;  464.500;  439.233;   68.100
1136.100;  337.733;  315.133;   64.900
1136.640;  344.500;  322.667;   72.500
1137.179;  360.233;  342.733;   69.700
1137.719;  413.800;  389.533;   68.400
1138.258;  399.933;  377.700;   67.000
1138.798;  454.700;  429.133;   69.600
1139.337;  324.367;  300.733;   64.000
1139.877;  444.267;  418.133;   64.500
1140.416;  605.433;  588.033;   74.900
1140.955;  357.800;  331.367;   67.200
1141.494;  462.600;  434.300;   69.900
1142.034;  396.400;  377.467;   59.100
1142.573;  448.767;  422.867;   65.900
1143.112;  376.700;  349.200;   70.600
1143.651;  372.800;  343.267;   67.100
1144.190;  477.600;  454.700;   56.700
1144.729;  411.133;  389.333;   61.800
1145.267;  394.633;  367.233;   62.500
1145.806;  433.700;  409.133;   68.500
1146.345;  439.300;  409.467;   58.300
1146.884;  430.833;  406.600;   63.100
1147.422;  358.900;  334.233;   54.800
1147.961;  490.233;  467.400;   67.600
1148.500;  468.333;  441.033;   64.700
1149.038;  436.500;  412.300;   61.000
1149.577;  482.900;  457.667;   65.100
1150.115;  300.200;  279.100;   58.100
1150.653;  419.433;  391.267;   60.500
1151.192;  374.467;  355.000;   56.600
1151.730;  449.633;  429.700;   62.300
1152.268;  398.700;  377.700;   55.500
1152.806;  392.000;  370.033;   58.200
1153.344;  390.967;  372.433;   55.000
1153.882;  411.133;  389.233;   64.200
1154.421;  313.200;  292.567;   60.300
1154.958;  416.733;  387.233;   58.100
1155.496;  445.567;  426.200;   55.800
1156.034;  497.000;  476.100;   61.000
1156.572;  462.667;  434.467;   56.200
1157.110;  318.000;  300.300;   53.200
1157.647;  470.667;  448.900;   57.400
1158.185;  387.400;  369.133;   55.500
1158.723;  344.100;  326.500;   58.000
1159.260;  481.700;  460.033;   53.700
1159.798;  447.500;  434.733;   51.700
1160.335;  430.333;  406.900;   59.600

