source_left
Integration time [ms]: 300.000
Averaging Nr. [scans]: 30
Smoothing Nr. [pixels]: 0
Data measured with spectrometer [name]: 7414430SP
Wave   ;Sample   ;Dark     ;Reference
[nm]   ;[counts] ;[counts] ;[counts] 

288.544;  510.281;  409.495;    6.613
289.143;  432.987;  334.741;   14.216
289.742;  542.143;  438.471;   11.816
290.341;  511.732;  418.127;   -4.936
290.940;  465.986;  374.571;    0.852
291.538;  572.029;  486.444;    1.792
292.137;  514.206;  414.837;    6.262
292.736;  638.232;  548.261;    8.164
293.335;  469.743;  380.904;   -6.418
293.934;  499.869;  413.615;   -2.904
294.532;  683.538;  601.463;   -5.162
295.131;  540.007;  463.325;  -10.283
295.730;  525.598;  447.004;  -16.141
296.328;  506.266;  435.754;  -14.740
296.927;  501.903;  428.130;   -8.768
297.525;  501.439;  423.459;  -15.255
298.124;  407.966;  340.248;  -22.063
298.722;  492.816;  419.149;  -14.796
299.321;  452.239;  377.482;  -10.466
299.919;  476.481;  410.080;  -10.979
300.518;  440.373;  368.337;  -12.077
301.116;  440.369;  370.383;  -13.509
301.715;  468.712;  390.100;  -11.939
302.313;  459.540;  382.345;  -15.424
302.911;  473.890;  409.207;  -19.833
303.509;  609.170;  543.847;   -3.567
304.108;  498.175;  423.019;   -9.553
304.706;  525.542;  452.293;   -8.582
305.304;  521.883;  460.774;  -12.348
305.902;  512.943;  441.800;  -14.411
306.500;  474.586;  404.342;   -7.194
307.098;  490.899;  424.328;   -9.322
307.696;  507.933;  457.530;  -19.192
308.294;  482.217;  419.528;   -9.736
308.892;  504.687;  441.888;  -15.482
309.490;  458.861;  397.807;  -14.107
310.088;  521.201;  463.266;  -15.862
310.686;  542.400;  480.333;  -10.781
311.284;  509.293;  445.100;  -14.878
311.882;  480.150;  422.933;   -9.948
312.480;  451.889;  400.225;  -15.503
313.078;  539.145;  475.435;  -17.262
313.675;  454.619;  394.542;   -3.694
314.273;  538.564;  482.288;  -18.246
314.871;  385.992;  328.213;  -15.190
315.468;  429.756;  369.507;  -12.633
316.066;  463.396;  402.504;   -5.765
316.664;  432.885;  380.819;  -14.317
317.261;  613.350;  553.581;   -8.677
317.859;  518.787;  465.282;  -11.804
318.456;  557.450;  506.913;   -3.107
319.054;  524.312;  472.927;   -3.062
319.651;  503.685;  461.622;   -6.706
320.249;  540.218;  496.555;   -5.206
320.846;  471.826;  426.783;   -4.679
321.443;  562.180;  514.791;   -7.920
322.041;  540.642;  499.737;  -14.105
322.638;  467.644;  424.051;   -6.263
323.235;  439.107;  394.945;   -7.424
323.833;  499.473;  451.307;  -14.765
324.430;  403.380;  353.447;  -10.550
325.027;  597.622;  544.441;   -9.951
325.624;  428.775;  367.891;   -3.712
326.221;  463.347;  398.524;   -9.368
326.818;  563.693;  500.113;   -5.637
327.415;  513.067;  435.885;   -6.699
328.012;  471.006;  386.964;   -5.713
328.609;  499.762;  424.864;   -9.983
329.206;  539.563;  454.999;   -7.154
329.803;  506.776;  417.719;   -1.682
330.400;  483.187;  389.434;   -2.741
330.997;  556.957;  468.961;   -4.339
331.594;  541.638;  450.395;  -10.278
332.191;  498.725;  403.452;   -6.967
332.787;  572.134;  483.017;   -0.480
333.384;  515.189;  428.015;  -10.333
333.981;  548.173;  466.840;  -19.900
334.578;  481.088;  383.913;  -19.816
335.174;  486.612;  399.076;  -15.844
335.771;  561.874;  482.567;  -12.670
336.367;  481.082;  393.669;  -21.124
336.964;  547.912;  453.616;  -18.226
337.561;  493.352;  406.390;  -13.311
338.157;  612.560;  537.645;  -19.006
338.754;  536.224;  465.774;  -19.418
339.350;  485.241;  404.223;  -29.433
339.946;  520.852;  442.621;  -16.622
340.543;  566.253;  495.432;  -16.744
341.139;  480.024;  410.435;  -21.841
341.735;  527.557;  452.920;  -25.012
342.332;  467.563;  394.848;  -19.156
342.928;  536.600;  465.203;  -20.443
343.524;  518.496;  446.876;  -14.397
344.120;  503.078;  432.262;  -20.654
344.716;  487.136;  413.833;   -5.730
345.313;  541.647;  480.927;  -10.929
345.909;  409.066;  342.011;  -19.843
346.505;  507.318;  436.364;  -19.645
347.101;  559.792;  490.958;   -9.618
347.697;  539.072;  467.365;  -10.305
348.293;  420.958;  344.251;  -23.189
348.889;  511.069;  438.836;  -18.418
349.485;  464.248;  384.594;  -10.476
350.081;  533.144;  454.803;  -17.320
350.676;  471.870;  395.638;  -21.088
351.272;  556.120;  474.538;  -12.821
351.868;  525.537;  454.235;  -13.165
352.464;  497.750;  419.565;  -12.464
353.059;  445.169;  371.751;  -22.547
353.655;  540.678;  462.550;   -9.379
354.251;  522.402;  445.226;   -8.266
354.846;  506.616;  434.234;  -17.705
355.442;  513.749;  439.506;   -9.317
356.038;  510.434;  437.316;  -11.049
356.633;  504.381;  423.492;  -10.006
357.229;  496.622;  425.098;  -13.120
357.824;  486.915;  410.071;  -15.647
358.420;  458.162;  388.980;  -19.204
359.015;  472.108;  398.905;  -12.263
359.610;  533.109;  455.161;  -16.421
360.206;  405.941;  339.469;  -20.074
360.801;  432.369;  368.207;  -13.277
361.396;  507.619;  425.487;   -5.822
361.992;  452.648;  388.404;  -11.247
362.587;  450.388;  385.521;  -21.502
363.182;  472.021;  399.301;   -7.461
363.777;  509.034;  436.726;   -8.719
364.372;  507.022;  439.716;  -14.590
364.967;  461.618;  397.056;  -15.145
365.563;  553.686;  487.956;   -7.192
366.158;  469.786;  399.566;   -5.662
366.753;  441.224;  374.929;   -8.378
367.348;  510.334;  442.336;  -14.990
367.942;  474.172;  403.765;   -6.005
368.537;  517.374;  450.125;  -11.504
369.132;  481.127;  411.847;  -10.576
369.727;  437.487;  370.647;  -12.573
370.322;  401.389;  329.318;  -11.560
370.917;  490.736;  422.304;  -10.388
371.511;  594.021;  526.876;   -9.161
372.106;  537.418;  477.156;  -10.245
372.701;  400.993;  333.029;  -10.158
373.296;  590.256;  531.224;   -4.719
373.890;  440.788;  378.521;  -11.802
374.485;  475.047;  420.279;  -13.500
375.079;  512.327;  450.906;   -6.276
375.674;  567.192;  500.215;   -0.447
376.268;  471.272;  416.988;   -6.916
376.863;  391.111;  339.418;  -14.483
377.457;  453.086;  401.520;   -6.903
378.052;  522.931;  466.935;   -9.844
378.646;  507.445;  457.469;  -12.601
379.240;  497.052;  443.092;  -14.715
379.835;  437.277;  383.209;  -12.331
380.429;  384.742;  326.727;   -9.074
381.023;  541.293;  486.447;   -1.729
381.617;  464.721;  412.160;  -13.714
382.212;  464.023;  421.010;   -7.060
382.806;  517.919;  474.220;   -2.303
383.400;  456.730;  415.320;   -0.815
383.994;  452.504;  409.675;   -4.429
384.588;  472.344;  433.890;   -6.261
385.182;  499.553;  451.715;    0.008
385.776;  488.637;  444.976;   -3.247
386.370;  467.246;  425.010;   -1.030
386.964;  465.849;  428.755;   -1.346
387.558;  410.789;  358.906;   -2.020
388.152;  466.307;  426.062;   -5.345
388.745;  555.752;  525.538;   -2.774
389.339;  517.366;  484.952;    3.510
389.933;  470.499;  435.917;    5.280
390.527;  593.123;  556.134;    2.610
391.120;  400.964;  367.345;   -7.914
391.714;  482.865;  450.473;   -1.903
392.308;  536.626;  501.397;    6.023
392.901;  440.042;  405.276;   -4.103
393.495;  402.073;  373.438;    3.284
394.089;  527.629;  492.192;    8.655
394.682;  474.348;  449.791;    2.312
395.275;  494.666;  466.091;   -7.402
395.869;  455.122;  425.698;   -1.072
396.462;  417.917;  391.306;    6.454
397.056;  535.904;  500.706;    8.494
397.649;  504.689;  479.805;    1.599
398.242;  486.593;  462.999;    3.153
398.836;  527.061;  498.021;   11.395
399.429;  433.417;  400.852;   14.695
400.022;  447.766;  432.501;    3.627
400.615;  559.883;  538.132;    8.383
401.208;  471.894;  446.863;   13.295
401.802;  474.969;  454.579;    6.211
402.395;  466.066;  447.734;    7.227
402.988;  466.524;  451.215;    2.700
403.581;  436.816;  413.103;   11.225
404.174;  476.335;  453.490;   18.922
404.767;  438.222;  415.270;   14.169
405.360;  416.112;  400.695;    8.999
405.953;  514.242;  490.897;   13.138
406.545;  494.973;  476.388;   13.937
407.138;  414.266;  394.439;   10.869
407.731;  418.009;  400.391;   12.768
408.324;  443.021;  427.127;   22.921
408.917;  458.953;  443.448;   15.308
409.509;  498.566;  493.496;   12.239
410.102;  434.714;  419.217;   13.741
410.695;  449.986;  431.403;   20.249
411.287;  401.646;  386.549;   21.793
411.880;  392.160;  381.535;   22.965
412.472;  407.003;  402.894;   15.082
413.065;  426.181;  413.469;   23.423
413.657;  386.939;  371.883;   21.077
414.250;  433.085;  420.377;   12.349
414.842;  449.046;  441.751;   20.423
415.434;  373.116;  370.604;   19.906
416.027;  434.922;  421.460;   26.574
416.619;  480.704;  469.417;   15.705
417.211;  395.510;  385.081;   17.791
417.804;  414.889;  402.209;   30.244
418.396;  402.517;  399.311;   24.177
418.988;  435.379;  430.319;   24.904
419.580;  373.868;  367.521;   20.692
420.172;  349.581;  353.384;   22.275
420.764;  452.921;  439.276;   26.773
421.356;  418.119;  416.954;   25.731
421.948;  447.859;  451.479;   24.876
422.540;  449.542;  448.554;   30.042
423.132;  391.314;  389.159;   32.728
423.724;  362.027;  364.076;   21.317
424.316;  406.883;  401.037;   29.359
424.908;  383.925;  384.026;   28.798
425.500;  428.407;  420.493;   30.512
426.092;  420.317;  415.597;   26.741
426.683;  455.949;  455.610;   27.029
427.275;  424.571;  418.767;   32.611
427.867;  438.477;  436.346;   33.796
428.458;  481.796;  475.212;   34.453
429.050;  449.799;  448.830;   34.255
429.642;  491.028;  490.604;   39.082
430.233;  358.690;  356.763;   41.138
430.825;  483.727;  482.287;   31.581
431.416;  457.388;  457.128;   35.755
432.008;  425.054;  411.713;   40.566
432.599;  422.582;  421.497;   46.322
433.190;  416.035;  410.745;   46.897
433.782;  376.047;  379.813;   41.069
434.373;  590.711;  589.623;   48.778
434.964;  384.266;  379.395;   50.078
435.556;  408.338;  405.856;   52.381
436.147;  492.382;  493.316;   38.251
436.738;  450.976;  455.759;   47.237
437.329;  469.427;  462.759;   61.304
437.920;  429.805;  429.359;   48.611
438.511;  354.660;  358.172;   44.910
439.103;  388.961;  394.743;   62.404
439.694;  441.594;  435.667;   63.075
440.285;  495.082;  497.775;   61.033
440.876;  558.034;  554.861;   57.249
441.466;  359.018;  355.217;   61.306
442.057;  421.313;  421.853;   65.773
442.648;  483.263;  479.009;   65.676
443.239;  392.171;  391.774;   55.963
443.830;  458.522;  447.867;   69.631
444.421;  414.601;  409.282;   69.943
445.011;  439.891;  440.130;   72.791
445.602;  473.166;  475.218;   68.848
446.193;  288.393;  289.880;   80.044
446.783;  400.707;  390.851;   82.599
447.374;  438.810;  440.444;   77.419
447.964;  451.117;  446.408;   72.605
448.555;  527.620;  527.827;   82.041
449.145;  423.498;  411.627;   76.230
449.736;  517.971;  512.600;   75.545
450.326;  456.216;  451.236;   67.945
450.917;  427.138;  415.408;   77.598
451.507;  371.304;  362.493;   68.027
452.097;  475.710;  473.860;   67.771
452.688;  467.602;  462.279;   62.884
453.278;  338.022;  338.493;   65.512
453.868;  505.625;  503.912;   71.796
454.458;  401.770;  394.953;   60.956
455.048;  443.549;  437.873;   62.356
455.639;  343.786;  334.515;   58.782
456.229;  444.661;  440.675;   65.209
456.819;  468.824;  466.677;   61.466
457.409;  486.992;  481.128;   59.967
457.999;  459.175;  449.881;   58.093
458.589;  421.890;  417.908;   59.536
459.179;  449.277;  437.091;   55.994
459.769;  371.934;  372.249;   43.624
460.358;  503.814;  488.228;   46.978
460.948;  425.596;  408.154;   49.821
461.538;  400.003;  391.000;   54.678
462.128;  400.627;  396.875;   49.309
462.717;  430.496;  423.321;   52.774
463.307;  435.637;  423.256;   48.101
463.897;  396.534;  384.542;   45.606
464.486;  530.462;  524.293;   45.010
465.076;  451.913;  441.649;   45.519
465.666;  389.011;  374.268;   50.058
466.255;  483.629;  474.393;   44.463
466.845;  398.878;  387.211;   41.206
467.434;  444.100;  424.688;   44.847
468.023;  386.103;  377.718;   46.760
468.613;  426.757;  422.941;   39.736
469.202;  378.259;  369.407;   46.461
469.791;  450.850;  429.932;   47.944
470.381;  451.234;  434.973;   47.529
470.970;  424.794;  406.861;   43.773
471.559;  439.042;  428.056;   41.646
472.148;  393.850;  379.588;   37.914
472.738;  461.446;  441.906;   48.071
473.327;  366.358;  347.159;   47.871
473.916;  437.065;  427.635;   37.716
474.505;  448.651;  434.219;   40.256
475.094;  491.520;  471.223;   43.269
475.683;  476.088;  454.217;   36.499
476.272;  427.392;  416.541;   44.542
476.861;  408.151;  387.399;   42.297
477.449;  426.562;  400.102;   46.878
478.038;  393.274;  375.742;   35.156
478.627;  413.839;  393.394;   42.514
479.216;  446.973;  421.384;   43.937
479.805;  455.568;  429.150;   51.393
480.393;  619.343;  593.969;   53.239
480.982;  521.273;  503.699;   38.955
481.571;  508.170;  481.123;   45.436
482.159;  388.194;  365.728;   51.007
482.748;  482.249;  456.530;   49.695
483.336;  503.286;  472.134;   48.280
483.925;  441.594;  414.107;   47.166
484.513;  424.478;  396.464;   55.404
485.102;  460.164;  427.957;   54.238
485.690;  592.283;  564.805;   55.748
486.278;  569.834;  545.971;   55.934
486.867;  446.836;  418.355;   57.106
487.455;  510.040;  484.255;   56.979
488.043;  392.680;  364.352;   57.564
488.631;  576.498;  544.670;   57.432
489.220;  508.446;  467.920;   63.646
489.808;  376.674;  347.078;   65.449
490.396;  495.604;  466.870;   61.977
490.984;  427.389;  392.002;   68.834
491.572;  498.635;  463.968;   70.775
492.160;  474.080;  446.152;   67.564
492.748;  433.928;  405.612;   66.808
493.336;  513.903;  478.001;   79.747
493.924;  449.392;  404.945;   88.688
494.512;  502.574;  467.227;   84.120
495.100;  495.564;  463.219;   86.250
495.687;  517.277;  481.836;  103.074
496.275;  425.370;  384.150;  108.717
496.863;  435.525;  404.803;  107.035
497.451;  432.011;  398.294;  117.993
498.038;  461.667;  423.756;  120.116
498.626;  447.749;  410.875;  143.059
499.214;  476.200;  439.271;  153.434
499.801;  454.109;  425.344;  175.121
500.389;  380.358;  350.829;  185.617
500.976;  486.860;  442.021;  215.789
501.564;  458.164;  426.642;  240.321
502.151;  332.716;  296.059;  267.007
502.738;  440.052;  401.601;  317.961
503.326;  457.312;  407.992;  361.216
503.913;  476.254;  432.559;  401.433
504.500;  482.921;  443.554;  446.492
505.088;  409.955;  373.728;  512.063
505.675;  452.036;  409.822;  586.387
506.262;  453.232;  406.392;  671.021
506.849;  457.953;  419.819;  759.062
507.436;  518.570;  477.106;  849.788
508.023;  462.726;  416.429;  944.288
508.610;  504.196;  461.389; 1020.690
509.197;  488.211;  446.115; 1089.052
509.784;  460.281;  421.247; 1133.776
510.371;  387.017;  344.805; 1165.501
510.958;  464.713;  428.742; 1251.735
511.545;  534.828;  495.766; 1350.248
512.132;  471.077;  414.552; 1525.945
512.719;  415.488;  367.793; 1834.933
513.305;  426.351;  376.622; 1965.349
513.892;  533.003;  490.642; 1963.265
514.479;  477.213;  430.353; 2046.446
515.066;  526.588;  478.374; 2252.803
515.652;  480.847;  427.304; 2567.247
516.239;  503.395;  456.707; 2636.919
516.825;  399.934;  358.595; 2482.304
517.412;  600.685;  545.991; 2427.031
517.998;  460.078;  407.151; 2540.463
518.585;  449.750;  402.625; 2609.007
519.171;  480.992;  432.545; 2842.088
519.758;  407.176;  351.321; 3090.703
520.344;  515.214;  463.514; 3176.076
520.930;  424.839;  374.466; 3295.037
521.516;  498.827;  447.977; 3500.959
522.103;  558.345;  492.264; 3736.704
522.689;  451.366;  400.951; 3971.022
523.275;  533.273;  480.038; 4213.778
523.861;  472.098;  411.788; 4190.361
524.447;  523.730;  469.742; 4070.602
525.033;  531.310;  484.410; 4088.892
525.619;  435.076;  379.280; 4416.851
526.205;  421.624;  361.911; 4836.835
526.791;  463.721;  401.416; 4885.903
527.377;  451.828;  391.487; 4544.907
527.963;  483.481;  431.280; 4321.995
528.549;  492.574;  437.447; 4473.979
529.135;  440.477;  382.725; 4788.663
529.721;  478.027;  420.218; 4888.577
530.306;  637.607;  580.947; 4775.779
530.892;  457.681;  395.249; 4793.906
531.478;  456.616;  389.046; 4956.948
532.063;  432.281;  368.426; 5136.936
532.649;  584.884;  522.196; 5336.867
533.235;  440.333;  377.000; 5748.092
533.820;  546.222;  482.790; 6456.875
534.406;  469.128;  409.399; 6590.167
534.991;  438.477;  377.820; 6179.622
535.576;  478.910;  411.785; 6098.691
536.162;  651.168;  584.963; 6441.234
536.747;  421.515;  356.157; 6816.224
537.333;  443.468;  376.896; 6889.752
537.918;  484.865;  412.087; 7154.280
538.503;  459.483;  388.705; 7150.848
539.088;  508.707;  436.665; 7253.308
539.673;  475.087;  407.318; 7625.180
540.259;  456.722;  383.364; 8226.793
540.844;  407.977;  336.610; 8745.092
541.429;  592.736;  519.480; 8762.553
542.014;  423.763;  350.519; 8871.497
542.599;  509.328;  435.412; 8886.008
543.184;  439.386;  356.454; 9079.139
543.769;  458.379;  383.817; 9076.182
544.354;  477.289;  395.094; 8354.081
544.938;  516.686;  437.052; 8236.809
545.523;  597.218;  512.791; 8222.179
546.108;  498.223;  415.345; 8114.082
546.693;  498.225;  413.231; 8535.912
547.278;  509.400;  413.668; 9238.322
547.862;  509.114;  408.157; 9034.405
548.447;  565.834;  462.999; 7795.011
549.031;  495.633;  404.079; 7485.099
549.616;  535.729;  435.463; 7626.308
550.201;  504.675;  393.375; 7627.909
550.785;  560.249;  449.341; 7859.125
551.370;  473.583;  359.017; 7990.654
551.954;  577.142;  467.270; 8196.468
552.538;  574.260;  457.008; 7959.495
553.123;  512.373;  384.555; 7964.826
553.707;  525.176;  400.284; 8515.957
554.291;  626.260;  489.018; 8724.024
554.876;  607.579;  460.260; 8524.211
555.460;  535.618;  384.052; 8704.456
556.044;  541.038;  387.855; 9141.473
556.628;  571.897;  417.244; 9250.197
557.212;  655.383;  479.461; 9444.237
557.796;  590.648;  405.744; 9379.783
558.380;  624.022;  434.930; 9353.658
558.964;  630.543;  421.226; 9210.310
559.548;  575.569;  353.821; 8475.153
560.132;  627.517;  397.378; 7954.084
560.716;  605.212;  363.734; 7489.529
561.300;  626.601;  357.771; 7211.952
561.884;  728.203;  449.167; 7141.313
562.467;  739.953;  445.272; 7155.386
563.051;  724.532;  417.174; 7323.158
563.635;  747.672;  401.327; 7709.114
564.219;  790.817;  414.401; 7678.855
564.802;  849.009;  443.494; 7376.187
565.386;  855.103;  421.879; 7054.372
565.969;  965.973;  490.012; 6589.196
566.553; 1045.013;  538.506; 6279.371
567.136; 1035.846;  479.126; 5967.930
567.720; 1036.050;  420.827; 5660.703
568.303; 1111.418;  435.839; 5648.615
568.887; 1145.193;  420.625; 5618.443
569.470; 1225.798;  434.505; 5411.875
570.053; 1270.919;  461.885; 5149.274
570.637; 1230.509;  379.297; 5122.798
571.220; 1368.977;  464.538; 4957.369
571.803; 1534.146;  541.031; 4933.018
572.386; 1530.817;  395.375; 4840.973
572.969; 1629.141;  404.785; 4592.886
573.552; 1745.720;  408.464; 4348.387
574.135; 1760.959;  381.817; 4002.290
574.718; 1792.961;  389.178; 3654.773
575.301; 2000.690;  385.145; 3502.288
575.884; 2208.418;  381.111; 3349.803
576.467; 2527.050;  478.927; 3191.403
577.050; 2673.145;  428.239; 3062.418
577.633; 2952.624;  519.252; 3214.200
578.216; 3068.291;  403.683; 3284.889
578.799; 3241.378;  404.034; 3189.777
579.381; 3612.094;  541.163; 3064.502
579.964; 3789.076;  385.784; 2888.357
580.547; 4201.493;  428.540; 2905.760
581.129; 4489.570;  497.348; 2966.849
581.712; 4641.796;  447.028; 2887.292
582.294; 5038.438;  420.025; 2771.631
582.877; 5595.660;  539.038; 2711.602
583.459; 5614.271;  414.466; 2577.049
584.042; 5789.134;  408.667; 2454.707
584.624; 6340.841;  379.923; 2305.893
585.206; 6980.476;  326.348; 2189.546
585.789; 7511.257;  391.946; 2112.577
586.371; 7433.934;  441.495; 2153.065
586.953; 7478.044;  465.752; 2197.806
587.536; 7860.957;  495.483; 2105.489
588.118; 8598.364;  411.286; 1963.911
588.700; 9847.938;  503.076; 1843.179
589.282;10488.675;  447.902; 1813.834
589.864;10629.761;  420.445; 1777.620
590.446;10710.951;  329.246; 1733.780
591.028;11423.537;  425.227; 1676.008
591.610;11873.870;  342.207; 1631.649
592.192;12568.540;  430.570; 1632.362
592.774;12831.413;  365.246; 1569.507
593.356;13269.206;  392.805; 1524.539
593.937;13228.648;  383.391; 1569.720
594.519;14284.025;  481.979; 1569.049
595.101;15158.776;  348.094; 1545.452
595.683;16010.249;  401.609; 1607.568
596.264;17577.488;  413.014; 1615.506
596.846;18726.484;  400.744; 1667.622
597.427;19129.984;  389.318; 1670.469
598.009;19693.143;  386.714; 1640.312
598.591;20484.475;  456.341; 1541.022
599.172;21190.756;  405.793; 1598.665
599.753;21535.939;  359.390; 1619.068
600.335;22311.156;  500.893; 1548.612
600.916;23372.330;  410.410; 1607.510
601.498;23533.439;  434.136; 1745.181
602.079;23744.887;  416.725; 1801.011
602.660;23418.842;  414.874; 1834.640
603.241;23087.430;  328.998; 1787.351
603.823;22958.725;  394.777; 1684.266
604.404;23130.754;  364.402; 1654.241
604.985;23996.332;  401.455; 1758.741
605.566;25093.549;  469.937; 1697.679
606.147;25616.451;  411.297; 1526.728
606.728;26195.482;  361.883; 1484.086
607.309;26787.209;  385.917; 1421.070
607.890;27642.859;  402.220; 1369.867
608.471;28253.760;  379.906; 1277.826
609.051;28687.072;  433.033; 1180.416
609.632;28563.861;  372.346; 1075.816
610.213;28700.555;  411.693; 1053.313
610.794;29404.033;  398.314;  979.442
611.374;28835.146;  438.800;  917.414
611.955;27648.639;  351.498;  819.987
612.536;26710.615;  438.963;  752.627
613.116;27356.828;  386.882;  690.799
613.697;28646.014;  383.263;  674.974
614.277;28971.084;  376.279;  663.846
614.858;28516.184;  386.020;  665.898
615.438;27914.766;  420.529;  660.712
616.019;27020.646;  497.074;  632.732
616.599;27610.453;  323.350;  551.759
617.179;27537.510;  361.926;  512.871
617.760;28411.447;  558.005;  473.655
618.340;29119.850;  411.157;  440.004
618.920;28784.021;  513.467;  429.731
619.500;29002.980;  396.617;  441.361
620.080;29221.168;  375.435;  425.202
620.660;29139.250;  375.586;  408.164
621.241;28731.424;  395.128;  387.161
621.821;27874.752;  418.053;  378.017
622.401;27865.074;  468.066;  379.188
622.980;27888.955;  352.664;  350.019
623.560;27649.773;  393.369;  336.446
624.140;25645.803;  425.268;  336.473
624.720;22985.516;  438.321;  334.974
625.300;21860.496;  367.297;  325.717
625.880;23391.711;  410.661;  308.519
626.459;26125.086;  412.112;  307.117
627.039;27568.178;  340.643;  290.890
627.619;28769.520;  539.219;  286.635
628.198;28674.406;  478.807;  282.535
628.778;28571.182;  446.655;  285.474
629.357;28662.725;  363.050;  284.103
629.937;28540.266;  396.128;  292.178
630.516;28264.066;  500.902;  290.749
631.096;27591.809;  377.050;  285.489
631.675;27564.127;  491.125;  287.022
632.254;27207.045;  384.127;  286.038
632.834;27290.350;  410.949;  276.451
633.413;27425.809;  501.045;  279.447
633.992;27233.889;  472.220;  264.508
634.571;27718.305;  448.108;  271.010
635.151;28207.834;  367.866;  277.338
635.730;28136.773;  410.105;  289.305
636.309;26726.430;  441.237;  285.306
636.888;26539.260;  449.985;  254.051
637.467;27249.230;  337.144;  230.324
638.046;27411.955;  498.141;  253.349
638.625;26969.209;  484.452;  246.866
639.204;25858.498;  428.662;  240.825
639.782;24664.160;  413.143;  261.970
640.361;23363.848;  482.874;  277.780
640.940;24076.381;  382.110;  270.101
641.519;25797.816;  439.647;  248.622
642.097;27163.816;  447.483;  239.843
642.676;27723.318;  423.953;  244.264
643.255;28712.951;  401.956;  234.985
643.833;29487.785;  448.226;  244.406
644.412;29436.654;  395.396;  244.927
644.990;28508.855;  418.399;  249.948
645.569;27171.488;  444.669;  249.569
646.147;27062.057;  468.672;  243.290
646.726;28005.791;  425.709;  249.511
647.304;28283.426;  402.579;  228.032
647.882;28144.793;  335.515;  214.552
648.461;28237.227;  434.185;  214.973
649.039;28792.295;  456.889;  223.394
649.617;29185.063;  452.492;  261.415
650.195;27929.529;  427.495;  298.736
650.773;26393.197;  392.832;  309.557
651.352;25469.098;  323.801;  297.978
651.930;23567.832;  318.671;  289.399
652.508;24052.834;  458.841;  285.620
653.086;24928.969;  434.078;  272.241
653.663;25803.770;  374.914;  265.062
654.241;26024.703;  356.318;  286.083
654.819;26784.670;  362.354;  286.404
655.397;27175.639;  376.591;  291.825
655.975;25747.373;  401.194;  299.145
656.553;24397.141;  500.364;  288.866
657.130;23696.375;  367.800;  304.087
657.708;24808.342;  430.804;  302.908
658.286;24915.344;  414.340;  294.629
658.863;24552.578;  426.177;  293.350
659.441;26208.645;  426.813;  318.671
660.018;27963.779;  413.016;  333.692
660.596;28322.381;  326.286;  335.013
661.173;28683.348;  389.056;  371.534
661.750;28313.783;  368.959;  365.155
662.328;27483.449;  444.363;  349.976
662.905;26518.084;  393.499;  332.997
663.482;24779.219;  407.269;  321.717
664.060;23798.420;  381.572;  314.438
664.637;24795.887;  456.109;  306.259
665.214;26089.422;  425.479;  314.580
665.791;26454.389;  400.882;  334.501
666.368;27083.391;  386.252;  329.222
666.945;27262.725;  452.688;  342.143
667.522;26071.092;  371.892;  370.964
668.099;26818.859;  404.828;  396.885
668.676;28299.527;  404.831;  391.706
669.253;28770.061;  504.701;  369.627
669.830;28554.262;  481.505;  360.348
670.407;27380.830;  404.108;  344.769
670.984;26953.264;  410.411;  322.890
671.560;27486.465;  455.814;  316.910
672.137;27676.232;  388.117;  322.531
672.714;28301.168;  437.121;  318.552
673.290;28741.734;  427.957;  324.473
673.867;28427.436;  379.494;  340.594
674.443;27791.404;  354.464;  319.515
675.020;28870.070;  424.067;  286.336
675.596;30479.805;  402.037;  247.557
676.173;29526.906;  347.573;  227.778
676.749;29234.373;  301.010;  224.399
677.326;30580.275;  342.280;  230.520
677.902;31521.543;  374.416;  241.841
678.478;31337.576;  349.919;  239.762
679.054;30520.979;  620.423;  248.583
679.631;29922.912;  432.093;  237.503
680.207;30531.646;  520.296;  245.924
680.783;30597.281;  316.666;  224.845
681.359;30718.215;  410.836;  209.666
681.935;30530.250;  415.505;  191.687
682.511;31089.283;  416.242;  210.008
683.087;30217.117;  441.445;  213.329
683.663;29367.152;  398.882;  216.850
684.239;29580.020;  350.018;  229.471
684.815;29734.154;  468.988;  248.792
685.390;29747.654;  529.491;  231.813
685.966;29459.822;  413.461;  221.234
686.542;29251.756;  375.298;  214.255
687.118;30076.391;  421.001;  212.276
687.693;29716.758;  443.704;  233.096
688.269;28148.525;  401.074;  246.917
688.844;27077.594;  436.044;  236.938
689.420;27341.729;  418.281;  242.059
689.995;28653.363;  510.317;  245.480
690.571;29871.797;  487.387;  244.701
691.146;29549.764;  399.657;  251.922
691.722;28719.266;  431.160;  284.743
692.297;28684.000;  383.697;  320.664
692.872;28749.102;  371.067;  313.885
693.448;28952.535;  363.270;  290.106
694.023;28636.002;  420.573;  304.327
694.598;28136.570;  416.443;  319.648
695.173;28358.838;  391.680;  323.169
695.748;28173.939;  326.783;  376.389
696.323;27627.539;  407.086;  397.610
696.898;27430.441;  476.623;  430.231
697.473;27548.209;  335.926;  454.952
698.048;27336.477;  395.396;  478.973
698.623;27961.443;  348.499;  477.094
699.198;29236.645;  421.569;  496.915
699.773;29952.846;  377.505;  490.236
700.348;30598.846;  357.509;  519.957
700.922;31200.281;  412.778;  575.678
701.497;31089.982;  407.648;  621.399
702.072;30212.082;  459.318;  664.420
702.646;29356.018;  449.388;  690.541
703.221;28760.451;  426.625;  748.862
703.795;29655.086;  360.594;  774.282
704.370;29498.619;  296.731;  799.803
704.944;29053.721;  394.334;  875.824
705.519;28515.855;  422.104;  902.945
706.093;28565.189;  368.807;  889.266
706.668;28761.189;  444.311;  903.487
707.242;27946.258;  450.080;  881.708
707.816;26952.225;  386.317;  892.329
708.390;26430.793;  405.454;  970.250
708.965;26106.494;  426.357;  984.671
709.539;26122.861;  399.660; 1026.092
710.113;26432.330;  410.530; 1067.913
710.687;27297.396;  449.766; 1166.434
711.261;27128.264;  356.003; 1190.854
711.835;26776.232;  365.506; 1197.275
712.409;27279.900;  328.643; 1308.096
712.983;27301.135;  338.346; 1461.617
713.557;26808.234;  337.683; 1611.838
714.131;26255.869;  397.819; 1554.359
714.704;26279.037;  368.289; 1520.780
715.278;26121.004;  408.759; 1575.101
715.852;26430.338;  445.995; 1689.822
716.425;26856.740;  520.432; 1829.143
716.999;26336.607;  331.435; 2008.664
717.573;25170.941;  435.738; 2000.485
718.146;24838.576;  507.875; 1914.506
718.720;25187.844;  415.978; 1818.026
719.293;24863.277;  431.881; 1734.147
719.867;24144.680;  371.085; 1716.968
720.440;24372.646;  477.755; 1918.589
721.013;24251.613;  380.458; 1975.410
721.587;23830.049;  341.994; 2073.331
722.160;23683.115;  455.064; 2357.852
722.733;23338.750;  419.534; 2657.073
723.306;23804.719;  404.204; 2703.894
723.880;24242.486;  420.674; 2549.415
724.453;23930.652;  482.310; 2414.336
725.026;24249.787;  380.414; 2298.557
725.599;24629.021;  423.417; 2168.778
726.172;25050.156;  436.120; 2106.099
726.745;26036.189;  426.923; 2253.320
727.318;25658.525;  456.693; 2404.740
727.891;24302.658;  422.696; 2680.161
728.463;24002.959;  415.466; 2838.882
729.036;23370.262;  373.903; 2755.103
729.609;22235.361;  365.373; 2731.824
730.182;21757.764;  448.843; 2855.645
730.754;22131.396;  306.879; 2946.866
731.327;22457.465;  430.849; 2840.187
731.900;21409.566;  340.786; 2647.608
732.472;21808.133;  410.456; 2473.929
733.045;22579.434;  387.159; 2445.750
733.617;22592.102;  329.229; 2511.771
734.190;21855.469;  428.232; 2581.592
734.762;20570.637;  400.902; 2710.813
735.334;20878.572;  412.272; 3005.733
735.907;21106.373;  411.542; 3154.954
736.479;21507.607;  469.678; 3171.675
737.051;22262.941;  430.848; 3217.496
737.623;22386.709;  445.751; 3246.217
738.195;21870.242;  375.954; 2985.238
738.768;21694.010;  308.891; 2727.559
739.340;21814.178;  387.394; 2666.880
739.912;22788.279;  452.164; 2769.601
740.484;23532.813;  432.401; 2731.422
741.056;23316.613;  394.970; 2963.043
741.628;23282.248;  360.507; 3361.364
742.199;22627.549;  477.377; 3641.185
742.771;22076.984;  347.947; 3932.005
743.343;22441.318;  360.417; 4319.926
743.915;22595.553;  430.787; 4706.647
744.487;22790.920;  435.456; 4874.968
745.058;23237.055;  438.360; 4616.589
745.630;22530.621;  441.496; 4253.410
746.201;22050.723;  376.899; 4056.131
746.773;22162.924;  433.369; 3772.952
747.344;21861.725;  403.406; 3642.473
747.916;21835.793;  422.642; 3752.294
748.487;21474.094;  449.846; 4106.215
749.059;20344.961;  349.649; 4457.835
749.630;18507.828;  377.119; 4366.457
750.201;17870.195;  405.889; 4600.078
750.773;18142.631;  375.092; 4658.499
751.344;18989.799;  412.462; 4609.319
751.915;19825.000;  405.532; 4526.440
752.486;19629.834;  371.235; 4536.061
753.057;18696.135;  413.405; 4383.282
753.628;17379.168;  365.275; 4296.503
754.199;17864.170;  385.978; 4383.224
754.770;19024.805;  443.748; 4653.545
755.341;19580.039;  459.018; 4831.666
755.912;19168.873;  395.754; 4831.387
756.483;18936.740;  438.857; 4735.808
757.054;18880.273;  389.961; 4685.029
757.625;18866.408;  361.131; 4994.250
758.195;18697.143;  345.634; 5051.471
758.766;18938.211;  418.904; 5317.792
759.337;18882.678;  330.474; 5646.512
759.907;18662.445;  341.910; 5404.133
760.478;18758.613;  377.280; 5090.954
761.048;18894.648;  433.950; 4871.175
761.619;18707.982;  430.920; 4589.396
762.189;18703.650;  401.090; 4171.317
762.760;18844.250;  455.526; 3872.538
763.330;18871.152;  440.663; 3832.259
763.900;17991.053;  420.233; 4150.180
764.471;17062.221;  361.269; 4529.801
765.041;17162.889;  466.706; 4715.922
765.611;17631.555;  427.909; 4681.442
766.181;17645.189;  399.712; 4717.063
766.751;16855.023;  413.315; 4710.285
767.321;16188.892;  351.385; 4450.305
767.891;15840.759;  415.122; 4274.126
768.461;15597.460;  397.025; 4215.047
769.031;15292.895;  406.562; 4173.068
769.601;14886.129;  459.531; 4174.689
770.171;14857.296;  341.035; 4229.310
770.741;15304.297;  382.638; 4352.031
771.311;15231.031;  435.608; 4336.652
771.880;14756.832;  356.811; 4300.873
772.450;14867.800;  370.614; 4387.194
773.020;15067.901;  331.117; 4220.415
773.589;14694.002;  385.954; 4075.835
774.159;13902.903;  378.624; 4105.756
774.729;13622.337;  376.760; 4114.978
775.298;14344.238;  371.997; 3693.298
775.867;15064.872;  375.500; 3343.119
776.437;15145.440;  405.770; 3062.040
777.006;14948.675;  339.440; 2927.161
777.576;14990.842;  437.543; 3046.482
778.145;14991.143;  426.646; 3230.203
778.714;14976.277;  404.083; 3253.324
779.283;14952.179;  434.386; 3129.745
779.853;15089.313;  396.056; 2983.566
780.422;15543.014;  406.526; 2929.887
780.991;15583.081;  426.829; 2863.908
781.560;15197.249;  475.832; 2948.029
782.129;14913.416;  426.069; 3074.149
782.698;15029.084;  482.472; 2893.970
783.267;14989.385;  378.875; 2721.391
783.836;15034.286;  411.212; 2659.712
784.404;15079.054;  351.782; 2622.233
784.973;15140.088;  299.652; 2600.754
785.542;14858.922;  397.522; 2528.475
786.111;14347.156;  465.225; 2404.396
786.679;14319.490;  430.561; 2365.717
787.248;14039.958;  333.731; 2498.438
787.817;14027.226;  383.335; 2645.659
788.385;13868.960;  460.104; 2709.280
788.954;13737.494;  340.841; 2620.500
789.522;14722.896;  446.078; 2625.422
790.090;14762.496;  341.547; 2743.843
790.659;14084.897;  386.784; 2635.163
791.227;13806.731;  393.354; 2495.484
791.795;13879.666;  418.024; 2413.705
792.364;13652.567;  361.460; 2345.326
792.932;13541.135;  429.630; 2350.447
793.500;13577.969;  392.500; 2429.768
794.068;13658.069;  340.437; 2513.589
794.636;13741.537;  361.940; 2664.310
795.204;13358.805;  324.976; 2721.431
795.772;12957.806;  364.580; 2802.052
796.340;12705.940;  375.283; 2847.173
796.908;12877.308;  327.386; 2997.194
797.476;12709.042;  347.923; 3151.615
798.044;12144.377;  317.526; 3110.735
798.612;11797.844;  397.196; 2931.656
799.180;11549.812;  409.266; 2785.777
799.747;11171.513;  406.369; 2899.098
800.315;11628.813;  347.272; 2955.519
800.883;12032.015;  318.375; 2948.940
801.450;12126.615;  396.478; 2965.361
802.018;12625.616;  417.915; 3070.582
802.585;12969.284;  399.685; 3156.103
803.153;13242.418;  370.655; 3199.524
803.720;13326.119;  375.925; 3168.845
804.287;13219.387;  386.995; 3248.366
804.855;13187.288;  452.264; 3406.187
805.422;13109.089;  385.801; 3430.907
805.989;13114.390;  365.071; 3453.528
806.556;12574.457;  364.707; 3612.649
807.124;12326.292;  444.911; 3736.570
807.691;11941.593;  354.214; 3770.491
808.258;11427.427;  399.484; 3705.012
808.825;11203.228;  451.687; 3828.733
809.392;11351.662;  483.557; 3986.754
809.959;11388.797;  419.560; 4410.075
810.526;11160.864;  487.463; 4774.996
811.093;11033.299;  468.033; 4754.217
811.659;10885.800;  396.236; 4661.238
812.226;10849.967;  397.673; 4672.559
812.793;10974.734;  417.976; 4822.979
813.360;11075.702;  395.079; 5189.800
813.926;10966.870;  417.149; 5310.622
814.493;10741.971;  347.153; 5414.542
815.060;10911.305;  320.556; 5548.963
815.626;10972.573;  345.559; 5452.284
816.193;10792.674;  405.129; 5339.305
816.759;10660.741;  363.365; 5544.426
817.325;10572.309;  320.269; 5706.547
817.892;10421.276;  441.005; 5623.468
818.458;10389.178;  423.208; 5586.689
819.024;10824.745;  460.978; 5647.910
819.591;10591.846;  396.715; 5762.031
820.157; 9833.113;  344.818; 6284.452
820.723; 9271.015;  418.721; 6906.973
821.289; 9440.582;  625.725; 7086.894
821.855; 9580.583;  433.094; 7054.915
822.421; 9899.218;  375.031; 7112.035
822.987;10225.552;  351.401; 7256.156
823.553;10146.086;  382.504; 7538.077
824.119; 9808.987;  445.174; 7594.298
824.685; 9404.555;  464.044; 7613.619
825.251; 9473.956;  440.714; 7644.140
825.816; 9988.224;  493.750; 7720.261
826.382; 9875.891;  434.787; 8014.282
826.948; 9557.358;  442.690; 8281.503
827.513; 9284.326;  389.727; 8289.624
828.079; 9379.761;  354.663; 8587.045
828.645; 9779.028;  414.766; 8821.865
829.210; 9503.896;  344.270; 9054.486
829.776; 9026.196;  427.573; 9054.607
830.341; 8601.730;  441.543; 9415.628
830.906; 7965.699;  455.779; 9932.449
831.472; 7384.833;  368.316;10150.271
832.037; 7373.434;  447.052; 9420.391
832.602; 7412.001;  376.156; 8664.912
833.167; 7569.402;  402.892; 8491.933
833.733; 7641.403;  449.562; 8872.854
834.298; 7225.204;  352.765; 9370.575
834.863; 6843.872;  426.135; 9610.695
835.428; 6907.640;  420.238; 9655.616
835.993; 7369.440;  429.042; 9437.838
836.558; 7500.242;  438.978; 9441.459
837.123; 7686.276;  544.548; 9600.979
837.688; 7355.077;  429.385; 9798.301
838.253; 7059.844;  420.754; 9902.921
838.817; 6716.345;  387.524;10339.742
839.382; 6674.546;  477.961;10548.363
839.947; 6556.514;  414.764;10252.484
840.511; 6516.148;  487.934;10040.005
841.076; 6351.016;  316.471;10099.926
841.641; 6579.050;  430.607;10347.347
842.205; 6716.784;  419.110;10817.368
842.770; 6818.252;  505.380;11435.289
843.334; 6267.686;  390.250;12072.409
843.898; 5768.587;  394.687;12635.431
844.463; 5381.055;  480.390;12537.252
845.027; 5075.789;  377.593;12759.673
845.591; 5002.457;  450.730;12821.993
846.156; 5044.458;  379.933;12520.914
846.720; 5424.559;  445.703;12390.436
847.284; 5448.826;  414.939;12956.456
847.848; 5136.860;  435.043;13240.177
848.412; 4555.461;  406.379;13216.998
848.976; 4405.329;  480.816;13014.619
849.540; 4556.197;  527.286;12355.740
850.104; 4712.398;  482.255;12208.761
850.668; 4704.699;  326.692;12106.882
851.232; 4687.633;  339.362;11862.103
851.796; 4543.034;  399.098;11700.523
852.359; 4408.302;  449.802;12375.944
852.923; 4418.569;  463.538;13087.966
853.487; 4565.770;  443.308;13297.187
854.050; 4547.304;  277.978;13851.207
854.614; 4556.605;  385.048;14854.229
855.177; 4424.939;  425.451;15802.149
855.741; 4203.607;  432.921;16603.570
856.304; 4192.375;  459.991;16359.891
856.868; 4108.976;  360.827;14365.512
857.431; 4026.610;  411.631;13361.333
857.995; 3909.911;  393.267;14130.554
858.558; 3853.445;  433.570;14883.175
859.121; 3812.546;  444.274;15754.195
859.684; 3693.281;  419.777;15995.017
860.247; 3666.648;  411.280;15149.537
860.810; 3835.149;  387.650;14640.358
861.374; 4266.217;  531.387;15551.079
861.937; 4194.718;  359.956;16519.801
862.500; 4067.719;  379.460;16796.521
863.062; 3745.220;  366.129;16538.742
863.625; 3575.821;  429.333;16716.764
864.188; 3396.955;  385.303;17055.084
864.751; 3345.256;  389.439;17197.705
865.314; 3455.857;  410.176;17151.625
865.876; 3460.125;  458.546;17783.547
866.439; 3348.192;  442.049;19283.467
867.002; 3374.826;  524.252;20256.389
867.564; 3305.161;  470.822;20485.410
868.127; 3258.895;  426.825;20789.730
868.689; 3291.229;  426.428;21981.951
869.252; 3306.563;  469.665;23803.771
869.814; 3214.264;  370.668;24974.094
870.377; 3226.599;  417.505;24690.314
870.939; 3392.400;  597.108;23963.436
871.501; 3178.934;  424.544;25167.156
872.063; 3054.835;  299.948;26995.477
872.626; 3023.269;  325.218;27443.098
873.188; 2976.804;  423.421;26718.418
873.750; 2845.871;  402.591;26558.840
874.312; 2732.006;  386.194;26701.561
874.874; 2751.573;  501.397;27970.582
875.436; 2712.074;  453.067;29173.402
875.998; 2871.575;  480.570;30376.623
876.560; 2897.776;  455.507;32507.344
877.122; 2764.110;  377.577;34833.066
877.683; 2724.911;  445.780;36458.285
878.245; 2559.179;  394.850;37248.207
878.807; 2542.480;  437.420;36758.027
879.369; 2539.514;  347.490;35223.551
879.930; 2673.648;  365.359;33824.969
880.492; 2762.849;  478.796;34436.492
881.053; 2610.017;  375.133;37745.313
881.615; 2537.818;  381.002;41184.633
882.176; 2486.052;  406.606;42871.555
882.738; 2503.520;  445.376;41693.074
883.299; 2341.521;  324.079;40289.895
883.860; 2265.888;  331.382;39231.215
884.422; 2267.523;  443.552;38264.039
884.983; 2108.557;  361.488;37171.859
885.544; 2068.425;  418.658;35842.379
886.105; 1998.659;  409.428;34810.000
886.666; 1995.227;  391.231;34519.020
887.227; 1955.061;  334.968;33905.641
887.788; 2020.828;  426.605;34502.965
888.349; 1915.529;  353.974;34241.785
888.910; 1916.897;  455.311;33722.203
889.471; 1804.331;  429.514;32539.625
890.032; 1702.366;  412.017;31528.346
890.593; 1658.567;  443.087;32655.068
891.153; 1549.334;  401.324;33882.289
891.714; 1482.368;  344.860;33318.711
892.275; 1472.769;  354.864;31848.930
892.835; 1511.004;  458.667;30339.752
893.396; 1426.671;  453.937;30074.973
893.956; 1317.739;  394.340;30338.393
894.517; 1314.307;  421.043;30864.113
895.077; 1315.008;  428.546;29766.734
895.638; 1378.142;  500.450;26379.557
896.198; 1213.809;  356.486;24056.277
896.758; 1270.110;  452.956;22961.898
897.319; 1179.278;  398.059;21772.020
897.879; 1140.779;  411.262;20877.539
898.439; 1031.513;  335.866;19509.461
898.999; 1086.114;  438.869;17297.582
899.559; 1049.015;  431.972;14712.002
900.119;  946.149;  358.775;12790.224
900.679; 1053.084;  489.679;11586.744
901.239;  971.751;  437.948;10776.465
901.799;  941.086;  419.118; 9691.687
902.359;  879.353;  376.388; 8725.907
902.919;  867.188;  371.258; 8305.728
903.479;  844.189;  364.361; 8172.649
904.038;  807.856;  345.465; 7913.870
904.598;  741.990;  305.534; 7262.291
905.158;  798.058;  382.171; 6609.012
905.717;  795.892;  400.174; 6236.133
906.277;  795.360;  410.444; 5829.054
906.836;  815.694;  426.814; 5396.674
907.396;  808.262;  431.251; 4964.195
907.955;  801.130;  432.354; 4528.917
908.515;  755.364;  392.224; 4223.837
909.074;  739.365;  395.927; 4023.958
909.633;  735.532;  395.663; 4065.379
910.192;  825.033;  498.900; 4066.300
910.752;  714.667;  391.767; 3971.600
911.311;  695.767;  382.400; 3839.600
911.870;  674.433;  367.300; 3684.500
912.429;  761.833;  459.167; 3635.600
912.988;  743.633;  457.667; 3689.800
913.547;  648.400;  359.367; 3737.700
914.106;  695.867;  417.600; 3740.300
914.665;  690.200;  409.033; 3604.600
915.224;  730.700;  456.700; 3358.700
915.782;  649.500;  382.233; 3188.400
916.341;  739.167;  474.000; 3091.400
916.900;  651.467;  385.133; 3044.800
917.458;  619.667;  359.667; 2888.600
918.017;  662.033;  411.167; 2818.900
918.576;  642.167;  382.367; 2838.600
919.134;  582.767;  334.833; 2880.100
919.693;  637.300;  381.600; 2996.300
920.251;  626.567;  371.233; 3183.100
920.809;  601.400;  352.667; 3247.000
921.368;  627.833;  383.667; 3156.600
921.926;  598.000;  356.967; 2964.900
922.484;  641.533;  404.933; 2846.300
923.042;  618.500;  386.033; 2890.400
923.601;  705.633;  469.600; 2987.700
924.159;  671.600;  424.600; 3049.800
924.717;  603.767;  360.533; 3087.000
925.275;  643.467;  408.000; 3093.400
925.833;  560.033;  320.600; 3182.400
926.391;  668.967;  433.233; 3397.900
926.949;  613.367;  379.300; 3575.400
927.506;  652.567;  416.333; 3713.400
928.064;  625.967;  385.633; 3871.300
928.622;  628.833;  392.033; 4092.800
929.180;  580.367;  340.433; 4499.300
929.737;  575.233;  333.567; 4813.200
930.295;  666.333;  421.833; 5084.100
930.853;  600.433;  358.500; 5185.000
931.410;  582.767;  340.700; 5313.100
931.968;  667.733;  432.900; 5339.600
932.525;  653.667;  402.267; 5399.900
933.082;  577.033;  335.967; 5457.500
933.640;  664.333;  411.667; 5692.900
934.197;  633.700;  378.467; 5821.200
934.754;  629.867;  380.133; 5617.900
935.312;  612.933;  358.033; 5512.400
935.869;  723.167;  472.967; 5582.400
936.426;  628.333;  369.467; 5650.100
936.983;  641.667;  381.833; 5657.400
937.540;  600.433;  340.200; 5564.300
938.097;  679.367;  415.000; 5574.000
938.654;  647.600;  376.900; 5665.900
939.211;  691.900;  410.433; 5931.600
939.768;  665.067;  391.667; 6153.600
940.324;  647.133;  379.133; 6397.600
940.881;  635.133;  358.067; 6454.200
941.438;  739.733;  456.500; 6206.900
941.995;  727.267;  433.467; 6003.900
942.551;  632.967;  343.800; 6228.300
943.108;  676.667;  400.467; 6603.500
943.664;  637.533;  346.000; 7188.100
944.221;  797.933;  501.467; 7579.900
944.777;  636.700;  338.500; 7658.100
945.334;  647.733;  350.667; 7670.400
945.890;  682.200;  394.300; 7525.100
946.446;  680.567;  394.533; 7261.500
947.003;  693.500;  408.767; 6949.200
947.559;  766.200;  485.033; 6773.100
948.115;  742.933;  448.033; 6668.400
948.671;  708.933;  409.933; 6488.400
949.227;  631.867;  328.733; 6236.600
949.783;  626.667;  320.900; 6008.900
950.339;  727.700;  421.133; 5934.100
950.895;  730.333;  442.667; 5933.500
951.451;  659.867;  376.367; 6074.700
952.007;  710.300;  423.667; 6066.400
952.563;  661.400;  379.633; 5884.100
953.118;  647.967;  368.967; 5733.800
953.674;  669.400;  387.100; 5734.300
954.230;  669.200;  397.600; 6039.700
954.785;  667.900;  390.133; 6383.500
955.341;  703.867;  431.767; 6568.200
955.897;  588.933;  318.533; 6488.600
956.452;  679.033;  408.600; 6239.200
957.008;  771.567;  506.300; 5954.600
957.563;  713.800;  453.800; 5816.700
958.118;  622.800;  362.033; 5828.200
958.674;  666.400;  402.500; 5717.400
959.229;  716.233;  458.500; 5506.800
959.784;  595.267;  329.600; 5292.200
960.339;  716.567;  456.900; 5101.900
960.894;  691.500;  430.767; 5093.200
961.449;  611.333;  350.767; 5227.900
962.004;  857.533;  612.867; 5349.300
962.559;  608.167;  362.333; 5514.900
963.114;  520.933;  277.600; 5717.300
963.669;  637.600;  400.667; 5841.400
964.224;  606.667;  362.667; 5805.900
964.779;  572.000;  339.700; 5723.400
965.334;  707.900;  478.467; 5779.500
965.888;  598.233;  366.033; 5948.500
966.443;  670.867;  437.900; 6344.200
966.998;  563.000;  320.033; 6666.300
967.552;  623.200;  397.733; 6710.100
968.107;  598.600;  362.067; 6593.500
968.661;  637.600;  406.600; 6344.100
969.216;  580.700;  365.067; 6062.400
969.770;  628.267;  408.800; 5785.500
970.324;  627.233;  409.633; 5426.800
970.879;  647.833;  438.733; 5016.800
971.433;  653.700;  436.900; 4904.500
971.987;  611.133;  399.100; 4991.000
972.541;  629.433;  417.867; 4978.500
973.095;  699.400;  486.000; 4832.000
973.649;  548.933;  332.100; 4767.900
974.203;  568.700;  356.433; 4881.200
974.757;  587.933;  367.767; 4969.500
975.311;  589.000;  386.967; 4953.000
975.865;  594.400;  394.600; 4884.300
976.419;  570.167;  376.067; 4739.800
976.973;  569.533;  369.367; 4698.100
977.526;  643.233;  451.800; 4631.100
978.080;  529.367;  331.567; 4621.600
978.634;  628.267;  432.200; 4650.200
979.187;  617.567;  417.767; 4669.200
979.741;  703.833;  509.633; 4658.000
980.294;  540.667;  340.700; 4579.100
980.848;  489.600;  296.033; 4452.800
981.401;  560.567;  368.200; 4271.900
981.955;  577.533;  391.333; 4087.800
982.508;  505.233;  325.633; 3973.900
983.061;  621.933;  446.067; 3928.600
983.615;  528.567;  360.967; 3851.200
984.168;  510.967;  340.200; 3734.800
984.721;  598.267;  422.800; 3628.300
985.274;  578.100;  412.633; 3564.300
985.827;  557.267;  393.067; 3558.100
986.380;  483.267;  314.167; 3559.900
986.933;  585.333;  423.833; 3688.700
987.486;  579.533;  415.267; 3778.500
988.039;  572.300;  414.167; 3559.900
988.591;  608.367;  437.767; 3219.300
989.144;  488.933;  339.533; 2902.900
989.697;  507.900;  357.067; 2722.600
990.250;  580.067;  424.167; 2618.000
990.802;  501.133;  353.700; 2523.900
991.355;  658.667;  521.233; 2436.500
991.907;  580.767;  441.467; 2412.200
992.460;  502.867;  361.700; 2387.900
993.012;  509.767;  366.333; 2365.800
993.565;  470.800;  341.900; 2311.100
994.117;  650.867;  524.100; 2308.700
994.669;  470.300;  343.333; 2249.300
995.221;  542.433;  413.333; 2158.100
995.774;  534.900;  410.167; 2085.600
996.326;  507.867;  384.967; 2068.100
996.878;  567.800;  454.533; 1975.300
997.430;  473.000;  351.200; 1929.500
997.982;  511.300;  390.800; 1861.900
998.534;  507.333;  385.033; 1830.200
999.086;  504.967;  384.467; 1823.200
999.638;  446.933;  335.667; 1815.000
1000.190;  476.767;  366.200; 1796.600
1000.741;  513.767;  393.600; 1738.800
1001.293;  471.600;  357.200; 1666.200
1001.845;  468.733;  355.033; 1566.500
1002.396;  511.100;  399.333; 1471.900
1002.948;  512.400;  402.167; 1398.000
1003.500;  499.500;  388.033; 1356.500
1004.051;  631.667;  532.300; 1294.200
1004.603;  552.800;  451.533; 1190.000
1005.154;  419.833;  320.100; 1063.900
1005.705;  504.733;  405.700;  968.300
1006.257;  496.200;  395.333;  889.800
1006.808;  481.800;  384.400;  801.500
1007.359;  539.633;  460.567;  716.400
1007.910;  455.900;  362.067;  639.100
1008.461;  522.433;  429.700;  561.600
1009.013;  413.500;  329.067;  500.400
1009.564;  559.767;  478.833;  476.100
1010.115;  415.633;  330.767;  431.600
1010.665;  429.133;  346.767;  409.300
1011.216;  473.167;  394.800;  399.700
1011.767;  489.500;  407.800;  388.100
1012.318;  520.833;  435.767;  381.400
1012.869;  478.133;  398.267;  375.400
1013.419;  427.667;  340.933;  357.600
1013.970;  477.500;  394.100;  358.300
1014.521;  432.600;  354.733;  344.100
1015.071;  476.267;  395.700;  322.800
1015.622;  445.700;  367.733;  320.600
1016.172;  416.900;  347.033;  301.700
1016.723;  431.267;  350.367;  289.800
1017.273;  425.467;  344.400;  287.600
1017.823;  452.267;  376.933;  278.700
1018.374;  438.667;  351.667;  274.400
1018.924;  507.433;  424.033;  283.200
1019.474;  503.100;  425.667;  278.500
1020.024;  465.900;  389.867;  274.700
1020.574;  513.300;  438.233;  272.700
1021.124;  478.000;  400.767;  278.400
1021.674;  392.133;  315.367;  269.200
1022.224;  496.200;  423.400;  267.800
1022.774;  473.100;  400.700;  258.100
1023.324;  535.400;  456.967;  260.000
1023.874;  625.200;  549.633;  260.700
1024.423;  431.367;  363.267;  252.700
1024.973;  428.300;  358.933;  234.700
1025.523;  438.567;  365.800;  226.500
1026.072;  425.733;  355.467;  225.500
1026.622;  468.667;  399.133;  210.100
1027.172;  504.867;  435.167;  213.000
1027.721;  422.533;  351.433;  207.700
1028.270;  470.300;  401.900;  205.400
1028.820;  448.600;  380.533;  201.000
1029.369;  435.967;  367.467;  201.000
1029.918;  455.167;  385.900;  198.400
1030.468;  398.200;  325.833;  199.200
1031.017;  447.367;  381.633;  192.600
1031.566;  429.433;  363.400;  197.400
1032.115;  493.700;  425.267;  188.300
1032.664;  425.000;  354.600;  193.700
1033.213;  517.100;  446.433;  191.900
1033.762;  450.033;  377.967;  184.500
1034.311;  478.967;  412.700;  194.300
1034.860;  488.567;  421.533;  192.300
1035.408;  509.000;  447.733;  182.600
1035.957;  510.733;  440.967;  173.900
1036.506;  373.467;  304.100;  185.200
1037.055;  597.633;  532.100;  182.500
1037.603;  468.033;  402.633;  167.600
1038.152;  377.433;  309.400;  168.200
1038.700;  412.233;  340.400;  169.600
1039.249;  480.833;  417.500;  164.300
1039.797;  442.067;  387.233;  169.600
1040.345;  499.433;  433.367;  167.100
1040.894;  446.533;  371.300;  164.400
1041.442;  442.100;  384.767;  158.300
1041.990;  388.933;  331.267;  160.000
1042.538;  375.800;  312.367;  156.800
1043.087;  399.067;  336.367;  146.600
1043.635;  477.933;  412.967;  162.400
1044.183;  415.967;  353.500;  156.300
1044.731;  408.100;  342.567;  158.100
1045.279;  468.000;  413.567;  154.500
1045.827;  636.867;  573.967;  146.200
1046.374;  361.033;  299.167;  154.000
1046.922;  415.867;  358.967;  149.000
1047.470;  482.967;  427.433;  154.900
1048.018;  457.367;  394.800;  148.400
1048.565;  501.100;  444.500;  146.300
1049.113;  387.900;  329.500;  156.100
1049.660;  438.233;  375.867;  154.300
1050.208;  481.700;  413.500;  149.400
1050.755;  425.400;  364.900;  157.500
1051.303;  483.200;  426.667;  157.700
1051.850;  445.967;  390.100;  152.800
1052.397;  331.267;  271.900;  146.300
1052.945;  433.167;  375.400;  149.500
1053.492;  526.700;  471.667;  149.300
1054.039;  510.500;  457.767;  163.100
1054.586;  389.133;  347.000;  150.400
1055.133;  487.700;  428.800;  153.500
1055.680;  461.467;  395.833;  155.600
1056.227;  376.300;  317.867;  148.700
1056.774;  560.767;  503.267;  151.500
1057.321;  356.600;  309.267;  143.700
1057.868;  455.500;  399.467;  145.300
1058.415;  461.867;  401.933;  153.500
1058.961;  478.400;  417.933;  149.900
1059.508;  448.500;  392.800;  147.300
1060.055;  407.933;  351.033;  151.000
1060.601;  437.633;  379.200;  148.700
1061.148;  439.867;  380.600;  153.800
1061.694;  416.200;  364.667;  150.500
1062.241;  418.000;  360.333;  149.100
1062.787;  466.367;  410.800;  153.000
1063.334;  570.967;  513.867;  153.200
1063.880;  476.133;  420.267;  148.400
1064.426;  497.467;  451.600;  149.200
1064.972;  426.167;  366.667;  156.400
1065.518;  402.667;  345.300;  144.700
1066.065;  442.900;  386.267;  139.400
1066.611;  420.233;  371.200;  139.300
1067.157;  448.800;  397.733;  138.400
1067.703;  474.367;  417.400;  142.700
1068.249;  425.567;  378.867;  136.700
1068.794;  440.400;  394.133;  139.400
1069.340;  403.067;  354.500;  142.700
1069.886;  415.200;  364.600;  135.600
1070.432;  373.767;  328.600;  133.400
1070.977;  423.600;  371.933;  138.200
1071.523;  400.600;  346.267;  132.400
1072.068;  409.267;  358.633;  132.700
1072.614;  362.233;  317.667;  127.000
1073.160;  488.033;  435.933;  131.300
1073.705;  401.200;  351.367;  135.700
1074.250;  393.233;  339.467;  133.000
1074.796;  461.967;  412.067;  138.000
1075.341;  466.633;  420.333;  137.300
1075.886;  410.333;  363.200;  134.300
1076.431;  458.167;  408.600;  138.200
1076.976;  450.733;  404.467;  132.200
1077.521;  408.000;  359.500;  138.900
1078.067;  406.567;  356.133;  128.600
1078.612;  469.467;  422.200;  138.900
1079.156;  418.667;  369.767;  128.900
1079.701;  489.200;  437.200;  129.700
1080.246;  488.867;  442.000;  128.600
1080.791;  440.267;  392.800;  122.600
1081.336;  460.767;  418.900;  122.000
1081.880;  461.567;  408.800;  123.900
1082.425;  402.433;  351.200;  120.600
1082.970;  498.600;  452.833;  124.500
1083.514;  413.267;  369.400;  112.000
1084.059;  408.767;  365.167;  120.700
1084.603;  399.367;  349.000;  116.000
1085.147;  457.833;  407.600;  116.300
1085.692;  506.000;  458.200;  108.200
1086.236;  346.467;  306.800;  114.600
1086.780;  530.733;  479.933;  118.900
1087.325;  452.100;  411.767;  120.400
1087.869;  423.700;  384.667;  110.500
1088.413;  496.800;  450.600;  114.000
1088.957;  380.433;  330.000;  114.300
1089.501;  546.533;  488.833;  114.600
1090.045;  515.400;  461.333;  114.200
1090.589;  393.000;  354.333;  105.500
1091.133;  477.733;  428.267;  111.800
1091.676;  416.967;  371.467;  110.900
1092.220;  418.000;  375.600;  110.100
1092.764;  502.333;  459.100;  108.100
1093.307;  470.967;  423.833;  109.900
1093.851;  385.300;  335.600;  107.500
1094.395;  477.700;  438.200;   96.200
1094.938;  443.300;  398.667;   99.300
1095.482;  388.167;  343.733;   97.700
1096.025;  508.333;  459.767;   84.900
1096.568;  552.433;  513.500;   88.500
1097.112;  355.700;  310.867;   95.700
1097.655;  417.367;  372.633;   97.300
1098.198;  415.833;  373.400;   92.600
1098.741;  432.033;  392.000;   91.800
1099.285;  452.433;  417.433;   88.000
1099.828;  302.967;  260.733;   91.700
1100.371;  428.200;  387.200;   89.900
1100.914;  479.667;  434.033;   91.500
1101.457;  477.233;  436.300;   88.100
1101.999;  401.800;  356.733;   86.400
1102.542;  453.300;  412.200;   90.800
1103.085;  461.133;  422.433;   95.400
1103.628;  539.500;  497.733;   97.700
1104.170;  411.867;  370.933;   84.000
1104.713;  452.333;  406.567;   93.900
1105.256;  386.933;  349.367;   93.000
1105.798;  348.567;  308.400;   85.600
1106.341;  516.167;  472.167;   87.100
1106.883;  358.067;  320.500;   85.200
1107.425;  466.733;  426.200;   85.000
1107.968;  431.633;  390.500;   84.300
1108.510;  480.533;  443.500;   88.200
1109.052;  434.067;  397.067;   86.600
1109.594;  389.367;  351.400;   79.400
1110.136;  451.133;  413.033;   81.700
1110.679;  442.133;  397.800;   75.500
1111.221;  420.533;  380.933;   88.500
1111.763;  387.467;  348.200;   87.700
1112.304;  375.633;  342.800;   89.700
1112.846;  468.767;  427.133;   81.900
1113.388;  666.733;  629.167;   86.400
1113.930;  484.333;  444.067;   84.700
1114.472;  424.633;  385.833;   78.900
1115.013;  384.967;  341.267;   78.100
1115.555;  415.767;  380.600;   84.900
1116.097;  396.300;  359.133;   79.200
1116.638;  477.133;  441.733;   83.700
1117.180;  467.633;  428.567;   85.500
1117.721;  401.433;  362.733;   78.800
1118.262;  475.500;  438.667;   77.400
1118.804;  445.267;  405.200;   81.400
1119.345;  402.500;  368.600;   77.800
1119.886;  497.000;  455.000;   81.200
1120.427;  408.600;  372.933;   77.200
1120.969;  415.000;  385.600;   75.200
1121.510;  393.267;  353.567;   80.900
1122.051;  509.600;  473.000;   77.300
1122.592;  458.200;  425.333;   73.300
1123.133;  380.367;  347.133;   90.100
1123.673;  497.133;  463.567;   75.000
1124.214;  431.433;  391.600;   80.600
1124.755;  453.367;  415.133;   78.000
1125.296;  427.200;  397.300;   77.500
1125.836;  486.967;  446.667;   80.400
1126.377;  416.867;  380.900;   75.600
1126.918;  432.300;  397.167;   78.900
1127.458;  437.100;  399.333;   78.000
1127.999;  461.267;  424.367;   76.100
1128.539;  484.767;  445.933;   81.400
1129.079;  447.400;  407.767;   77.400
1129.620;  384.267;  355.933;   68.000
1130.160;  376.967;  341.400;   77.500
1130.700;  443.967;  414.767;   76.300
1131.240;  443.133;  413.600;   66.800
1131.781;  435.167;  400.667;   70.600
1132.321;  424.400;  380.733;   77.200
1132.861;  393.233;  357.267;   70.400
1133.401;  418.467;  378.367;   68.700
1133.941;  437.200;  405.533;   68.500
1134.481;  428.533;  385.733;   75.900
1135.020;  424.033;  392.900;   66.600
1135.560;  468.600;  439.233;   68.100
1136.100;  344.233;  315.133;   64.900
1136.640;  354.333;  322.667;   72.500
1137.179;  372.667;  342.733;   69.700
1137.719;  415.067;  389.533;   68.400
1138.258;  408.767;  377.700;   67.000
1138.798;  459.100;  429.133;   69.600
1139.337;  332.933;  300.733;   64.000
1139.877;  448.467;  418.133;   64.500
1140.416;  621.067;  588.033;   74.900
1140.955;  370.167;  331.367;   67.200
1141.494;  467.600;  434.300;   69.900
1142.034;  401.200;  377.467;   59.100
1142.573;  453.100;  422.867;   65.900
1143.112;  380.067;  349.200;   70.600
1143.651;  374.800;  343.267;   67.100
1144.190;  482.567;  454.700;   56.700
1144.729;  418.767;  389.333;   61.800
1145.267;  404.433;  367.233;   62.500
1145.806;  446.467;  409.133;   68.500
1146.345;  444.167;  409.467;   58.300
1146.884;  434.300;  406.600;   63.100
1147.422;  372.667;  334.233;   54.800
1147.961;  498.900;  467.400;   67.600
1148.500;  470.900;  441.033;   64.700
1149.038;  439.867;  412.300;   61.000
1149.577;  492.367;  457.667;   65.100
1150.115;  310.500;  279.100;   58.100
1150.653;  425.433;  391.267;   60.500
1151.192;  382.200;  355.000;   56.600
1151.730;  463.900;  429.700;   62.300
1152.268;  409.767;  377.700;   55.500
1152.806;  404.633;  370.033;   58.200
1153.344;  397.800;  372.433;   55.000
1153.882;  421.800;  389.233;   64.200
1154.421;  325.667;  292.567;   60.300
1154.958;  414.667;  387.233;   58.100
1155.496;  449.467;  426.200;   55.800
1156.034;  505.400;  476.100;   61.000
1156.572;  469.367;  434.467;   56.200
1157.110;  322.700;  300.300;   53.200
1157.647;  471.700;  448.900;   57.400
1158.185;  396.933;  369.133;   55.500
1158.723;  351.200;  326.500;   58.000
1159.260;  486.133;  460.033;   53.700
1159.798;  462.200;  434.733;   51.700
1160.335;  435.933;  406.900;   59.600

