source_left
Integration time [ms]: 300.000
Averaging Nr. [scans]: 30
Smoothing Nr. [pixels]: 0
Data measured with spectrometer [name]: 7414430SP
Wave   ;Sample   ;Dark     ;Reference
[nm]   ;[counts] ;[counts] ;[counts] 

288.544;  513.138;  409.495;    6.613
289.143;  441.948;  334.741;   14.216
289.742;  537.513;  438.471;   11.816
290.341;  516.383;  418.127;   -4.936
290.940;  474.366;  374.571;    0.852
291.538;  575.256;  486.444;    1.792
292.137;  512.578;  414.837;    6.262
292.736;  651.083;  548.261;    8.164
293.335;  479.139;  380.904;   -6.418
293.934;  508.494;  413.615;   -2.904
294.532;  694.713;  601.463;   -5.162
295.131;  551.506;  463.325;  -10.283
295.730;  536.723;  447.004;  -16.141
296.328;  512.279;  435.754;  -14.740
296.927;  514.935;  428.130;   -8.768
297.525;  508.002;  423.459;  -15.255
298.124;  426.327;  340.248;  -22.063
298.722;  497.797;  419.149;  -14.796
299.321;  453.904;  377.482;  -10.466
299.919;  489.567;  410.080;  -10.979
300.518;  452.805;  368.337;  -12.077
301.116;  448.628;  370.383;  -13.509
301.715;  475.232;  390.100;  -11.939
302.313;  460.566;  382.345;  -15.424
302.911;  479.395;  409.207;  -19.833
303.509;  619.891;  543.847;   -3.567
304.108;  495.409;  423.019;   -9.553
304.706;  523.652;  452.293;   -8.582
305.304;  533.670;  460.774;  -12.348
305.902;  517.028;  441.800;  -14.411
306.500;  478.538;  404.342;   -7.194
307.098;  491.933;  424.328;   -9.322
307.696;  516.008;  457.530;  -19.192
308.294;  478.219;  419.528;   -9.736
308.892;  496.015;  441.888;  -15.482
309.490;  456.567;  397.807;  -14.107
310.088;  524.517;  463.266;  -15.862
310.686;  543.468;  480.333;  -10.781
311.284;  507.525;  445.100;  -14.878
311.882;  477.131;  422.933;   -9.948
312.480;  456.547;  400.225;  -15.503
313.078;  539.452;  475.435;  -17.262
313.675;  447.838;  394.542;   -3.694
314.273;  528.068;  482.288;  -18.246
314.871;  382.209;  328.213;  -15.190
315.468;  424.695;  369.507;  -12.633
316.066;  454.630;  402.504;   -5.765
316.664;  425.996;  380.819;  -14.317
317.261;  605.479;  553.581;   -8.677
317.859;  507.729;  465.282;  -11.804
318.456;  553.604;  506.913;   -3.107
319.054;  514.580;  472.927;   -3.062
319.651;  500.755;  461.622;   -6.706
320.249;  537.255;  496.555;   -5.206
320.846;  465.702;  426.783;   -4.679
321.443;  554.642;  514.791;   -7.920
322.041;  542.076;  499.737;  -14.105
322.638;  455.795;  424.051;   -6.263
323.235;  431.233;  394.945;   -7.424
323.833;  484.765;  451.307;  -14.765
324.430;  392.329;  353.447;  -10.550
325.027;  579.846;  544.441;   -9.951
325.624;  409.877;  367.891;   -3.712
326.221;  447.765;  398.524;   -9.368
326.818;  543.931;  500.113;   -5.637
327.415;  485.342;  435.885;   -6.699
328.012;  440.636;  386.964;   -5.713
328.609;  471.710;  424.864;   -9.983
329.206;  507.651;  454.999;   -7.154
329.803;  473.313;  417.719;   -1.682
330.400;  448.288;  389.434;   -2.741
330.997;  525.729;  468.961;   -4.339
331.594;  509.588;  450.395;  -10.278
332.191;  460.528;  403.452;   -6.967
332.787;  540.324;  483.017;   -0.480
333.384;  480.667;  428.015;  -10.333
333.981;  521.292;  466.840;  -19.900
334.578;  441.803;  383.913;  -19.816
335.174;  454.339;  399.076;  -15.844
335.771;  525.295;  482.567;  -12.670
336.367;  445.461;  393.669;  -21.124
336.964;  509.859;  453.616;  -18.226
337.561;  461.523;  406.390;  -13.311
338.157;  589.117;  537.645;  -19.006
338.754;  504.978;  465.774;  -19.418
339.350;  456.774;  404.223;  -29.433
339.946;  483.397;  442.621;  -16.622
340.543;  537.434;  495.432;  -16.744
341.139;  447.559;  410.435;  -21.841
341.735;  490.611;  452.920;  -25.012
342.332;  426.953;  394.848;  -19.156
342.928;  497.982;  465.203;  -20.443
343.524;  484.485;  446.876;  -14.397
344.120;  466.885;  432.262;  -20.654
344.716;  450.815;  413.833;   -5.730
345.313;  506.912;  480.927;  -10.929
345.909;  385.520;  342.011;  -19.843
346.505;  473.555;  436.364;  -19.645
347.101;  528.435;  490.958;   -9.618
347.697;  507.308;  467.365;  -10.305
348.293;  383.025;  344.251;  -23.189
348.889;  480.841;  438.836;  -18.418
349.485;  435.267;  384.594;  -10.476
350.081;  495.531;  454.803;  -17.320
350.676;  439.116;  395.638;  -21.088
351.272;  520.353;  474.538;  -12.821
351.868;  494.397;  454.235;  -13.165
352.464;  465.706;  419.565;  -12.464
353.059;  414.656;  371.751;  -22.547
353.655;  504.570;  462.550;   -9.379
354.251;  489.979;  445.226;   -8.266
354.846;  474.877;  434.234;  -17.705
355.442;  485.556;  439.506;   -9.317
356.038;  485.377;  437.316;  -11.049
356.633;  468.559;  423.492;  -10.006
357.229;  469.027;  425.098;  -13.120
357.824;  450.047;  410.071;  -15.647
358.420;  430.430;  388.980;  -19.204
359.015;  439.989;  398.905;  -12.263
359.610;  503.313;  455.161;  -16.421
360.206;  379.263;  339.469;  -20.074
360.801;  412.576;  368.207;  -13.277
361.396;  467.430;  425.487;   -5.822
361.992;  429.014;  388.404;  -11.247
362.587;  432.658;  385.521;  -21.502
363.182;  440.465;  399.301;   -7.461
363.777;  478.657;  436.726;   -8.719
364.372;  481.746;  439.716;  -14.590
364.967;  445.483;  397.056;  -15.145
365.563;  533.072;  487.956;   -7.192
366.158;  447.752;  399.566;   -5.662
366.753;  417.123;  374.929;   -8.378
367.348;  484.771;  442.336;  -14.990
367.942;  453.308;  403.765;   -6.005
368.537;  489.749;  450.125;  -11.504
369.132;  457.392;  411.847;  -10.576
369.727;  408.549;  370.647;  -12.573
370.322;  377.987;  329.318;  -11.560
370.917;  464.283;  422.304;  -10.388
371.511;  573.736;  526.876;   -9.161
372.106;  514.550;  477.156;  -10.245
372.701;  379.184;  333.029;  -10.158
373.296;  575.822;  531.224;   -4.719
373.890;  417.225;  378.521;  -11.802
374.485;  461.397;  420.279;  -13.500
375.079;  493.753;  450.906;   -6.276
375.674;  542.654;  500.215;   -0.447
376.268;  457.110;  416.988;   -6.916
376.863;  379.772;  339.418;  -14.483
377.457;  437.212;  401.520;   -6.903
378.052;  510.702;  466.935;   -9.844
378.646;  495.279;  457.469;  -12.601
379.240;  480.025;  443.092;  -14.715
379.835;  431.443;  383.209;  -12.331
380.429;  374.291;  326.727;   -9.074
381.023;  523.370;  486.447;   -1.729
381.617;  455.537;  412.160;  -13.714
382.212;  459.649;  421.010;   -7.060
382.806;  513.946;  474.220;   -2.303
383.400;  448.754;  415.320;   -0.815
383.994;  447.633;  409.675;   -4.429
384.588;  471.258;  433.890;   -6.261
385.182;  491.033;  451.715;    0.008
385.776;  480.251;  444.976;   -3.247
386.370;  459.889;  425.010;   -1.030
386.964;  469.070;  428.755;   -1.346
387.558;  404.166;  358.906;   -2.020
388.152;  460.920;  426.062;   -5.345
388.745;  559.231;  525.538;   -2.774
389.339;  513.214;  484.952;    3.510
389.933;  471.306;  435.917;    5.280
390.527;  585.769;  556.134;    2.610
391.120;  398.216;  367.345;   -7.914
391.714;  486.104;  450.473;   -1.903
392.308;  538.769;  501.397;    6.023
392.901;  435.805;  405.276;   -4.103
393.495;  406.233;  373.438;    3.284
394.089;  525.318;  492.192;    8.655
394.682;  481.541;  449.791;    2.312
395.275;  492.693;  466.091;   -7.402
395.869;  455.172;  425.698;   -1.072
396.462;  422.060;  391.306;    6.454
397.056;  528.647;  500.706;    8.494
397.649;  504.014;  479.805;    1.599
398.242;  489.711;  462.999;    3.153
398.836;  524.901;  498.021;   11.395
399.429;  423.466;  400.852;   14.695
400.022;  450.607;  432.501;    3.627
400.615;  555.884;  538.132;    8.383
401.208;  468.907;  446.863;   13.295
401.802;  477.988;  454.579;    6.211
402.395;  469.640;  447.734;    7.227
402.988;  475.399;  451.215;    2.700
403.581;  441.418;  413.103;   11.225
404.174;  474.253;  453.490;   18.922
404.767;  430.973;  415.270;   14.169
405.360;  422.974;  400.695;    8.999
405.953;  519.350;  490.897;   13.138
406.545;  495.333;  476.388;   13.937
407.138;  416.941;  394.439;   10.869
407.731;  414.553;  400.391;   12.768
408.324;  450.177;  427.127;   22.921
408.917;  457.933;  443.448;   15.308
409.509;  505.461;  493.496;   12.239
410.102;  439.232;  419.217;   13.741
410.695;  454.412;  431.403;   20.249
411.287;  403.441;  386.549;   21.793
411.880;  389.637;  381.535;   22.965
412.472;  406.770;  402.894;   15.082
413.065;  424.439;  413.469;   23.423
413.657;  382.116;  371.883;   21.077
414.250;  433.650;  420.377;   12.349
414.842;  454.483;  441.751;   20.423
415.434;  381.436;  370.604;   19.906
416.027;  432.266;  421.460;   26.574
416.619;  479.178;  469.417;   15.705
417.211;  391.962;  385.081;   17.791
417.804;  419.381;  402.209;   30.244
418.396;  404.813;  399.311;   24.177
418.988;  436.701;  430.319;   24.904
419.580;  376.345;  367.521;   20.692
420.172;  358.905;  353.384;   22.275
420.764;  449.643;  439.276;   26.773
421.356;  426.286;  416.954;   25.731
421.948;  451.002;  451.479;   24.876
422.540;  454.710;  448.554;   30.042
423.132;  389.099;  389.159;   32.728
423.724;  362.998;  364.076;   21.317
424.316;  410.725;  401.037;   29.359
424.908;  385.426;  384.026;   28.798
425.500;  427.307;  420.493;   30.512
426.092;  423.271;  415.597;   26.741
426.683;  461.122;  455.610;   27.029
427.275;  427.233;  418.767;   32.611
427.867;  442.594;  436.346;   33.796
428.458;  483.317;  475.212;   34.453
429.050;  454.119;  448.830;   34.255
429.642;  488.474;  490.604;   39.082
430.233;  358.481;  356.763;   41.138
430.825;  479.451;  482.287;   31.581
431.416;  456.718;  457.128;   35.755
432.008;  420.021;  411.713;   40.566
432.599;  419.990;  421.497;   46.322
433.190;  415.005;  410.745;   46.897
433.782;  385.644;  379.813;   41.069
434.373;  586.363;  589.623;   48.778
434.964;  383.600;  379.395;   50.078
435.556;  405.720;  405.856;   52.381
436.147;  497.875;  493.316;   38.251
436.738;  453.767;  455.759;   47.237
437.329;  466.504;  462.759;   61.304
437.920;  429.528;  429.359;   48.611
438.511;  356.703;  358.172;   44.910
439.103;  393.560;  394.743;   62.404
439.694;  437.247;  435.667;   63.075
440.285;  490.821;  497.775;   61.033
440.876;  556.504;  554.861;   57.249
441.466;  354.776;  355.217;   61.306
442.057;  418.015;  421.853;   65.773
442.648;  481.598;  479.009;   65.676
443.239;  392.527;  391.774;   55.963
443.830;  452.359;  447.867;   69.631
444.421;  412.005;  409.282;   69.943
445.011;  438.604;  440.130;   72.791
445.602;  474.187;  475.218;   68.848
446.193;  294.482;  289.880;   80.044
446.783;  395.252;  390.851;   82.599
447.374;  438.775;  440.444;   77.419
447.964;  454.125;  446.408;   72.605
448.555;  525.001;  527.827;   82.041
449.145;  411.943;  411.627;   76.230
449.736;  506.607;  512.600;   75.545
450.326;  445.075;  451.236;   67.945
450.917;  420.901;  415.408;   77.598
451.507;  365.686;  362.493;   68.027
452.097;  471.141;  473.860;   67.771
452.688;  467.834;  462.279;   62.884
453.278;  332.305;  338.493;   65.512
453.868;  500.725;  503.912;   71.796
454.458;  400.577;  394.953;   60.956
455.048;  437.702;  437.873;   62.356
455.639;  340.479;  334.515;   58.782
456.229;  436.926;  440.675;   65.209
456.819;  461.784;  466.677;   61.466
457.409;  485.307;  481.128;   59.967
457.999;  455.104;  449.881;   58.093
458.589;  421.309;  417.908;   59.536
459.179;  437.355;  437.091;   55.994
459.769;  372.223;  372.249;   43.624
460.358;  494.565;  488.228;   46.978
460.948;  418.336;  408.154;   49.821
461.538;  396.901;  391.000;   54.678
462.128;  403.826;  396.875;   49.309
462.717;  426.259;  423.321;   52.774
463.307;  427.944;  423.256;   48.101
463.897;  387.336;  384.542;   45.606
464.486;  525.815;  524.293;   45.010
465.076;  443.943;  441.649;   45.519
465.666;  379.875;  374.268;   50.058
466.255;  478.804;  474.393;   44.463
466.845;  393.237;  387.211;   41.206
467.434;  439.409;  424.688;   44.847
468.023;  383.909;  377.718;   46.760
468.613;  428.609;  422.941;   39.736
469.202;  378.469;  369.407;   46.461
469.791;  439.926;  429.932;   47.944
470.381;  443.450;  434.973;   47.529
470.970;  412.385;  406.861;   43.773
471.559;  440.665;  428.056;   41.646
472.148;  388.212;  379.588;   37.914
472.738;  450.814;  441.906;   48.071
473.327;  354.639;  347.159;   47.871
473.916;  435.111;  427.635;   37.716
474.505;  438.275;  434.219;   40.256
475.094;  483.647;  471.223;   43.269
475.683;  470.317;  454.217;   36.499
476.272;  426.720;  416.541;   44.542
476.861;  402.815;  387.399;   42.297
477.449;  417.734;  400.102;   46.878
478.038;  385.635;  375.742;   35.156
478.627;  405.082;  393.394;   42.514
479.216;  444.591;  421.384;   43.937
479.805;  452.703;  429.150;   51.393
480.393;  609.327;  593.969;   53.239
480.982;  514.650;  503.699;   38.955
481.571;  500.717;  481.123;   45.436
482.159;  378.792;  365.728;   51.007
482.748;  474.135;  456.530;   49.695
483.336;  497.745;  472.134;   48.280
483.925;  432.113;  414.107;   47.166
484.513;  415.070;  396.464;   55.404
485.102;  441.374;  427.957;   54.238
485.690;  586.030;  564.805;   55.748
486.278;  563.082;  545.971;   55.934
486.867;  432.009;  418.355;   57.106
487.455;  500.859;  484.255;   56.979
488.043;  382.209;  364.352;   57.564
488.631;  570.269;  544.670;   57.432
489.220;  494.494;  467.920;   63.646
489.808;  363.946;  347.078;   65.449
490.396;  488.757;  466.870;   61.977
490.984;  416.980;  392.002;   68.834
491.572;  493.611;  463.968;   70.775
492.160;  463.143;  446.152;   67.564
492.748;  431.214;  405.612;   66.808
493.336;  506.149;  478.001;   79.747
493.924;  443.887;  404.945;   88.688
494.512;  491.594;  467.227;   84.120
495.100;  482.562;  463.219;   86.250
495.687;  508.934;  481.836;  103.074
496.275;  407.930;  384.150;  108.717
496.863;  429.526;  404.803;  107.035
497.451;  419.144;  398.294;  117.993
498.038;  451.256;  423.756;  120.116
498.626;  435.622;  410.875;  143.059
499.214;  463.382;  439.271;  153.434
499.801;  449.983;  425.344;  175.121
500.389;  375.672;  350.829;  185.617
500.976;  478.404;  442.021;  215.789
501.564;  454.181;  426.642;  240.321
502.151;  321.790;  296.059;  267.007
502.738;  428.396;  401.601;  317.961
503.326;  437.891;  407.992;  361.216
503.913;  461.296;  432.559;  401.433
504.500;  476.294;  443.554;  446.492
505.088;  406.537;  373.728;  512.063
505.675;  437.460;  409.822;  586.387
506.262;  435.804;  406.392;  671.021
506.849;  444.253;  419.819;  759.062
507.436;  505.050;  477.106;  849.788
508.023;  452.876;  416.429;  944.288
508.610;  494.350;  461.389; 1020.690
509.197;  476.937;  446.115; 1089.052
509.784;  446.464;  421.247; 1133.776
510.371;  375.385;  344.805; 1165.501
510.958;  456.996;  428.742; 1251.735
511.545;  528.093;  495.766; 1350.248
512.132;  451.748;  414.552; 1525.945
512.719;  400.396;  367.793; 1834.933
513.305;  413.152;  376.622; 1965.349
513.892;  518.769;  490.642; 1963.265
514.479;  468.394;  430.353; 2046.446
515.066;  510.877;  478.374; 2252.803
515.652;  468.417;  427.304; 2567.247
516.239;  498.036;  456.707; 2636.919
516.825;  385.268;  358.595; 2482.304
517.412;  580.316;  545.991; 2427.031
517.998;  441.364;  407.151; 2540.463
518.585;  437.323;  402.625; 2609.007
519.171;  465.253;  432.545; 2842.088
519.758;  394.219;  351.321; 3090.703
520.344;  502.730;  463.514; 3176.076
520.930;  407.035;  374.466; 3295.037
521.516;  491.658;  447.977; 3500.959
522.103;  533.570;  492.264; 3736.704
522.689;  432.899;  400.951; 3971.022
523.275;  517.236;  480.038; 4213.778
523.861;  451.554;  411.788; 4190.361
524.447;  512.733;  469.742; 4070.602
525.033;  516.654;  484.410; 4088.892
525.619;  418.958;  379.280; 4416.851
526.205;  405.031;  361.911; 4836.835
526.791;  451.249;  401.416; 4885.903
527.377;  432.653;  391.487; 4544.907
527.963;  467.746;  431.280; 4321.995
528.549;  476.920;  437.447; 4473.979
529.135;  422.702;  382.725; 4788.663
529.721;  463.845;  420.218; 4888.577
530.306;  624.487;  580.947; 4775.779
530.892;  441.339;  395.249; 4793.906
531.478;  438.068;  389.046; 4956.948
532.063;  416.486;  368.426; 5136.936
532.649;  570.273;  522.196; 5336.867
533.235;  419.347;  377.000; 5748.092
533.820;  534.492;  482.790; 6456.875
534.406;  451.041;  409.399; 6590.167
534.991;  429.234;  377.820; 6179.622
535.576;  456.926;  411.785; 6098.691
536.162;  630.510;  584.963; 6441.234
536.747;  405.459;  356.157; 6816.224
537.333;  428.292;  376.896; 6889.752
537.918;  463.370;  412.087; 7154.280
538.503;  444.196;  388.705; 7150.848
539.088;  485.839;  436.665; 7253.308
539.673;  456.635;  407.318; 7625.180
540.259;  438.312;  383.364; 8226.793
540.844;  385.854;  336.610; 8745.092
541.429;  566.048;  519.480; 8762.553
542.014;  404.573;  350.519; 8871.497
542.599;  493.881;  435.412; 8886.008
543.184;  413.539;  356.454; 9079.139
543.769;  438.412;  383.817; 9076.182
544.354;  454.886;  395.094; 8354.081
544.938;  490.630;  437.052; 8236.809
545.523;  572.027;  512.791; 8222.179
546.108;  478.142;  415.345; 8114.082
546.693;  479.173;  413.231; 8535.912
547.278;  478.322;  413.668; 9238.322
547.862;  484.744;  408.157; 9034.405
548.447;  528.962;  462.999; 7795.011
549.031;  472.547;  404.079; 7485.099
549.616;  507.971;  435.463; 7626.308
550.201;  467.457;  393.375; 7627.909
550.785;  528.682;  449.341; 7859.125
551.370;  435.229;  359.017; 7990.654
551.954;  551.056;  467.270; 8196.468
552.538;  535.842;  457.008; 7959.495
553.123;  469.570;  384.555; 7964.826
553.707;  489.919;  400.284; 8515.957
554.291;  582.722;  489.018; 8724.024
554.876;  557.126;  460.260; 8524.211
555.460;  487.908;  384.052; 8704.456
556.044;  493.048;  387.855; 9141.473
556.628;  538.401;  417.244; 9250.197
557.212;  601.398;  479.461; 9444.237
557.796;  534.053;  405.744; 9379.783
558.380;  575.038;  434.930; 9353.658
558.964;  571.280;  421.226; 9210.310
559.548;  518.553;  353.821; 8475.153
560.132;  560.232;  397.378; 7954.084
560.716;  533.680;  363.734; 7489.529
561.300;  561.530;  357.771; 7211.952
561.884;  645.375;  449.167; 7141.313
562.467;  656.439;  445.272; 7155.386
563.051;  658.612;  417.174; 7323.158
563.635;  672.482;  401.327; 7709.114
564.219;  693.552;  414.401; 7678.855
564.802;  747.599;  443.494; 7376.187
565.386;  766.363;  421.879; 7054.372
565.969;  855.857;  490.012; 6589.196
566.553;  944.314;  538.506; 6279.371
567.136;  918.108;  479.126; 5967.930
567.720;  898.591;  420.827; 5660.703
568.303;  954.568;  435.839; 5648.615
568.887;  982.176;  420.625; 5618.443
569.470; 1039.482;  434.505; 5411.875
570.053; 1089.157;  461.885; 5149.274
570.637; 1064.625;  379.297; 5122.798
571.220; 1234.335;  464.538; 4957.369
571.803; 1419.887;  541.031; 4933.018
572.386; 1394.606;  395.375; 4840.973
572.969; 1507.981;  404.785; 4592.886
573.552; 1628.868;  408.464; 4348.387
574.135; 1631.016;  381.817; 4002.290
574.718; 1654.341;  389.178; 3654.773
575.301; 1766.144;  385.145; 3502.288
575.884; 1877.947;  381.111; 3349.803
576.467; 2251.125;  478.927; 3191.403
577.050; 2423.392;  428.239; 3062.418
577.633; 2687.529;  519.252; 3214.200
578.216; 2692.103;  403.683; 3284.889
578.799; 2854.524;  404.034; 3189.777
579.381; 3200.260;  541.163; 3064.502
579.964; 3305.986;  385.784; 2888.357
580.547; 3582.469;  428.540; 2905.760
581.129; 3885.216;  497.348; 2966.849
581.712; 4027.679;  447.028; 2887.292
582.294; 4312.352;  420.025; 2771.631
582.877; 4815.898;  539.038; 2711.602
583.459; 5096.706;  414.466; 2577.049
584.042; 5260.297;  408.667; 2454.707
584.624; 5546.209;  379.923; 2305.893
585.206; 5984.193;  326.348; 2189.546
585.789; 6232.410;  391.946; 2112.577
586.371; 6246.663;  441.495; 2153.065
586.953; 6548.809;  465.752; 2197.806
587.536; 7140.169;  495.483; 2105.489
588.118; 8163.389;  411.286; 1963.911
588.700; 8898.686;  503.076; 1843.179
589.282; 8992.282;  447.902; 1813.834
589.864; 9335.519;  420.445; 1777.620
590.446; 9646.333;  329.246; 1733.780
591.028;10194.271;  425.227; 1676.008
591.610;10639.911;  342.207; 1631.649
592.192;10449.645;  430.570; 1632.362
592.774; 9831.983;  365.246; 1569.507
593.356;10247.464;  392.805; 1524.539
593.937;10882.728;  383.391; 1569.720
594.519;12200.515;  481.979; 1569.049
595.101;12819.525;  348.094; 1545.452
595.683;13790.694;  401.609; 1607.568
596.264;14549.706;  413.014; 1615.506
596.846;15526.196;  400.744; 1667.622
597.427;16249.346;  389.318; 1670.469
598.009;16226.752;  386.714; 1640.312
598.591;16237.895;  456.341; 1541.022
599.172;16451.461;  405.793; 1598.665
599.753;17064.383;  359.390; 1619.068
600.335;17414.039;  500.893; 1548.612
600.916;17370.904;  410.410; 1607.510
601.498;16993.594;  434.136; 1745.181
602.079;16735.193;  416.725; 1801.011
602.660;17395.076;  414.874; 1834.640
603.241;17818.250;  328.998; 1787.351
603.823;18203.883;  394.777; 1684.266
604.404;18495.439;  364.402; 1654.241
604.985;18670.564;  401.455; 1758.741
605.566;19230.115;  469.937; 1697.679
606.147;20348.602;  411.297; 1526.728
606.728;21221.949;  361.883; 1484.086
607.309;21801.457;  385.917; 1421.070
607.890;21180.602;  402.220; 1369.867
608.471;21066.928;  379.906; 1277.826
609.051;20801.045;  433.033; 1180.416
609.632;20230.320;  372.346; 1075.816
610.213;20373.439;  411.693; 1053.313
610.794;21684.260;  398.314;  979.442
611.374;22309.055;  438.800;  917.414
611.955;22168.770;  351.498;  819.987
612.536;22434.188;  438.963;  752.627
613.116;22072.250;  386.882;  690.799
613.697;21643.766;  383.263;  674.974
614.277;21495.459;  376.279;  663.846
614.858;20895.787;  386.020;  665.898
615.438;20219.740;  420.529;  660.712
616.019;20676.008;  497.074;  632.732
616.599;20749.199;  323.350;  551.759
617.179;21287.508;  361.926;  512.871
617.760;21410.889;  558.005;  473.655
618.340;21501.135;  411.157;  440.004
618.920;22051.992;  513.467;  429.731
619.500;22070.955;  396.617;  441.361
620.080;22079.332;  375.435;  425.202
620.660;21869.113;  375.586;  408.164
621.241;21905.295;  395.128;  387.161
621.821;21468.936;  418.053;  378.017
622.401;19873.016;  468.066;  379.188
622.980;18885.633;  352.664;  350.019
623.560;18501.586;  393.369;  336.446
624.140;17377.670;  425.268;  336.473
624.720;16821.895;  438.321;  334.974
625.300;16720.742;  367.297;  325.717
625.880;17911.697;  410.661;  308.519
626.459;18908.164;  412.112;  307.117
627.039;19172.613;  340.643;  290.890
627.619;20382.219;  539.219;  286.635
628.198;21684.732;  478.807;  282.535
628.778;22286.027;  446.655;  285.474
629.357;22073.719;  363.050;  284.103
629.937;22108.434;  396.128;  292.178
630.516;21604.443;  500.902;  290.749
631.096;20668.039;  377.050;  285.489
631.675;20784.619;  491.125;  287.022
632.254;20840.813;  384.127;  286.038
632.834;21542.941;  410.949;  276.451
633.413;21936.736;  501.045;  279.447
633.992;21211.234;  472.220;  264.508
634.571;20648.105;  448.108;  271.010
635.151;19739.316;  367.866;  277.338
635.730;19530.590;  410.105;  289.305
636.309;20014.367;  441.237;  285.306
636.888;20086.609;  449.985;  254.051
637.467;20155.021;  337.144;  230.324
638.046;20216.180;  498.141;  253.349
638.625;19741.891;  484.452;  246.866
639.204;19896.711;  428.662;  240.825
639.782;20002.688;  413.143;  261.970
640.361;18520.154;  482.874;  277.780
640.940;17373.578;  382.110;  270.101
641.519;17723.033;  439.647;  248.622
642.097;19658.623;  447.483;  239.843
642.676;21644.947;  423.953;  244.264
643.255;21489.070;  401.956;  234.985
643.833;21689.826;  448.226;  244.406
644.412;21726.717;  395.396;  244.927
644.990;21273.973;  418.399;  249.948
645.569;21397.629;  444.669;  249.569
646.147;22370.953;  468.672;  243.290
646.726;22836.275;  425.709;  249.511
647.304;21840.100;  402.579;  228.032
647.882;21712.955;  335.515;  214.552
648.461;21857.645;  434.185;  214.973
649.039;21960.268;  456.889;  223.394
649.617;21432.158;  452.492;  261.415
650.195;20412.215;  427.495;  298.736
650.773;19926.105;  392.832;  309.557
651.352;18940.160;  323.801;  297.978
651.930;17517.584;  318.671;  289.399
652.508;17343.541;  458.841;  285.620
653.086;17238.230;  434.078;  272.241
653.663;18038.387;  374.914;  265.062
654.241;19715.811;  356.318;  286.083
654.819;20737.334;  362.354;  286.404
655.397;21273.289;  376.591;  291.825
655.975;21281.879;  401.194;  299.145
656.553;20945.170;  500.364;  288.866
657.130;20662.926;  367.800;  304.087
657.708;20551.516;  430.804;  302.908
658.286;20063.873;  414.340;  294.629
658.863;19720.096;  426.177;  293.350
659.441;20245.553;  426.813;  318.671
660.018;21128.775;  413.016;  333.692
660.596;21881.031;  326.286;  335.013
661.173;22336.521;  389.056;  371.534
661.750;21614.244;  368.959;  365.155
662.328;21581.934;  444.363;  349.976
662.905;20222.891;  393.499;  332.997
663.482;17015.348;  407.269;  321.717
664.060;16286.771;  381.572;  314.438
664.637;17394.994;  456.109;  306.259
665.214;18697.250;  425.479;  314.580
665.791;20009.939;  400.882;  334.501
666.368;20582.396;  386.252;  329.222
666.945;20622.053;  452.688;  342.143
667.522;20893.742;  371.892;  370.964
668.099;21087.533;  404.828;  396.885
668.676;20316.557;  404.831;  391.706
669.253;20886.779;  504.701;  369.627
669.830;21971.236;  481.505;  360.348
670.407;22104.893;  404.108;  344.769
670.984;21476.549;  410.411;  322.890
671.560;21398.871;  455.814;  316.910
672.137;20965.129;  388.117;  322.531
672.714;20662.051;  437.121;  318.552
673.290;20855.275;  427.957;  324.473
673.867;21277.031;  379.494;  340.594
674.443;21828.787;  354.464;  319.515
675.020;23028.545;  424.067;  286.336
675.596;23579.000;  402.037;  247.557
676.173;23550.324;  347.573;  227.778
676.749;24805.779;  301.010;  224.399
677.326;24982.104;  342.280;  230.520
677.902;24172.693;  374.416;  241.841
678.478;24148.617;  349.919;  239.762
679.054;24263.906;  620.423;  248.583
679.631;24235.297;  432.093;  237.503
680.207;24781.486;  520.296;  245.924
680.783;24242.076;  316.666;  224.845
681.359;23665.898;  410.836;  209.666
681.935;23411.621;  415.505;  191.687
682.511;24168.746;  416.242;  210.008
683.087;23943.568;  441.445;  213.329
683.663;23911.857;  398.882;  216.850
684.239;24505.314;  350.018;  229.471
684.815;24069.305;  468.988;  248.792
685.390;23242.961;  529.491;  231.813
685.966;23429.717;  413.461;  221.234
686.542;23104.141;  375.298;  214.255
687.118;22443.631;  421.001;  212.276
687.693;22683.754;  443.704;  233.096
688.269;24299.244;  401.074;  246.917
688.844;24598.666;  436.044;  236.938
689.420;24845.957;  418.281;  242.059
689.995;25349.480;  510.317;  245.480
690.571;24966.537;  487.387;  244.701
691.146;24213.260;  399.657;  251.922
691.722;24437.350;  431.160;  284.743
692.297;24383.805;  383.697;  320.664
692.872;24257.795;  371.067;  313.885
693.448;24673.418;  363.270;  290.106
694.023;25002.709;  420.573;  304.327
694.598;25968.766;  416.443;  319.648
695.173;27462.754;  391.680;  323.169
695.748;27604.811;  326.783;  376.389
696.323;27113.234;  407.086;  397.610
696.898;26036.957;  476.623;  430.231
697.473;24595.980;  335.926;  454.952
698.048;24207.004;  395.396;  478.973
698.623;23766.561;  348.499;  477.094
699.198;23586.916;  421.569;  496.915
699.773;24244.406;  377.505;  490.236
700.348;24251.963;  357.509;  519.957
700.922;24472.354;  412.778;  575.678
701.497;24484.410;  407.648;  621.399
702.072;23992.232;  459.318;  664.420
702.646;24083.389;  449.388;  690.541
703.221;24520.213;  426.625;  748.862
703.795;24023.836;  360.594;  774.282
704.370;23686.793;  296.731;  799.803
704.944;24241.582;  394.334;  875.824
705.519;24269.838;  422.104;  902.945
706.093;24696.295;  368.807;  889.266
706.668;25521.318;  444.311;  903.487
707.242;25629.707;  450.080;  881.708
707.816;24197.932;  386.317;  892.329
708.390;23646.887;  405.454;  970.250
708.965;23878.910;  426.357;  984.671
709.539;24419.033;  399.660; 1026.092
710.113;24550.391;  410.530; 1067.913
710.687;24683.246;  449.766; 1166.434
711.261;24468.670;  356.003; 1190.854
711.835;23698.260;  365.506; 1197.275
712.409;23272.449;  328.643; 1308.096
712.983;24150.572;  338.346; 1461.617
713.557;24969.529;  337.683; 1611.838
714.131;24688.086;  397.819; 1554.359
714.704;23963.143;  368.289; 1520.780
715.278;23855.566;  408.759; 1575.101
715.852;23447.521;  445.995; 1689.822
716.425;23142.379;  520.432; 1829.143
716.999;23239.768;  331.435; 2008.664
717.573;23082.857;  435.738; 2000.485
718.146;22789.281;  507.875; 1914.506
718.720;22152.438;  415.978; 1818.026
719.293;21819.262;  431.881; 1734.147
719.867;22452.518;  371.085; 1716.968
720.440;21883.273;  477.755; 1918.589
721.013;21577.998;  380.458; 1975.410
721.587;21649.221;  341.994; 2073.331
722.160;22006.977;  455.064; 2357.852
722.733;22938.699;  419.534; 2657.073
723.306;22726.656;  404.204; 2703.894
723.880;21271.680;  420.674; 2549.415
724.453;20857.436;  482.310; 2414.336
725.026;20886.227;  380.414; 2298.557
725.599;20908.182;  423.417; 2168.778
726.172;22343.072;  436.120; 2106.099
726.745;23406.496;  426.923; 2253.320
727.318;22328.752;  456.693; 2404.740
727.891;21198.275;  422.696; 2680.161
728.463;21711.266;  415.466; 2838.882
729.036;23352.455;  373.903; 2755.103
729.609;24466.211;  365.373; 2731.824
730.182;24041.068;  448.843; 2855.645
730.754;22471.824;  306.879; 2946.866
731.327;22264.381;  430.849; 2840.187
731.900;22251.236;  340.786; 2647.608
732.472;22831.260;  410.456; 2473.929
733.045;23426.650;  387.159; 2445.750
733.617;23891.674;  329.229; 2511.771
734.190;23740.697;  428.232; 2581.592
734.762;23155.152;  400.902; 2710.813
735.334;22172.877;  412.272; 3005.733
735.907;21822.398;  411.542; 3154.954
736.479;21778.523;  469.678; 3171.675
737.051;21841.012;  430.848; 3217.496
737.623;21713.102;  445.751; 3246.217
738.195;21513.559;  375.954; 2985.238
738.768;21310.615;  308.891; 2727.559
739.340;21622.971;  387.394; 2666.880
739.912;21869.861;  452.164; 2769.601
740.484;21624.951;  432.401; 2731.422
741.056;21880.375;  394.970; 2963.043
741.628;22321.098;  360.507; 3361.364
742.199;21821.787;  477.377; 3641.185
742.771;20169.178;  347.947; 3932.005
743.343;19366.934;  360.417; 4319.926
743.915;18971.324;  430.787; 4706.647
744.487;19198.646;  435.456; 4874.968
745.058;19490.504;  438.360; 4616.589
745.630;19262.992;  441.496; 4253.410
746.201;19271.283;  376.899; 4056.131
746.773;19503.539;  433.369; 3772.952
747.344;19445.996;  403.406; 3642.473
747.916;20386.352;  422.642; 3752.294
748.487;21121.375;  449.846; 4106.215
749.059;21004.832;  349.649; 4457.835
749.630;20055.455;  377.119; 4366.457
750.201;19040.012;  405.889; 4600.078
750.773;18915.135;  375.092; 4658.499
751.344;19434.559;  412.462; 4609.319
751.915;19553.281;  405.532; 4526.440
752.486;18585.238;  371.235; 4536.061
753.057;16813.861;  413.405; 4383.282
753.628;16804.316;  365.275; 4296.503
754.199;18039.406;  385.978; 4383.224
754.770;18260.598;  443.748; 4653.545
755.341;18171.688;  459.018; 4831.666
755.912;18363.109;  395.754; 4831.387
756.483;19146.934;  438.857; 4735.808
757.054;19593.457;  389.961; 4685.029
757.625;18898.813;  361.131; 4994.250
758.195;18198.502;  345.634; 5051.471
758.766;18097.125;  418.904; 5317.792
759.337;18291.582;  330.474; 5646.512
759.907;18035.271;  341.910; 5404.133
760.478;17466.996;  377.280; 5090.954
761.048;17111.285;  433.950; 4871.175
761.619;16632.809;  430.920; 4589.396
762.189;16469.197;  401.090; 4171.317
762.760;16536.721;  455.526; 3872.538
763.330;16803.244;  440.663; 3832.259
763.900;16846.568;  420.233; 4150.180
764.471;16776.857;  361.269; 4529.801
765.041;16556.680;  466.706; 4715.922
765.611;16444.404;  427.909; 4681.442
766.181;16734.928;  399.712; 4717.063
766.751;16893.717;  413.315; 4710.285
767.321;17441.006;  351.385; 4450.305
767.891;17925.963;  415.122; 4274.126
768.461;17103.686;  397.025; 4215.047
769.031;16444.043;  406.562; 4173.068
769.601;16533.600;  459.531; 4174.689
770.171;15970.256;  341.035; 4229.310
770.741;15454.712;  382.638; 4352.031
771.311;15218.202;  435.608; 4336.652
771.880;15426.892;  356.811; 4300.873
772.450;15890.015;  370.614; 4387.194
773.020;15409.571;  331.117; 4220.415
773.589;15233.395;  385.954; 4075.835
774.159;15552.817;  378.624; 4105.756
774.729;14929.675;  376.760; 4114.978
775.298;15021.364;  371.997; 3693.298
775.867;15449.421;  375.500; 3343.119
776.437;15777.610;  405.770; 3062.040
777.006;15689.767;  339.440; 2927.161
777.576;16187.190;  437.543; 3046.482
778.145;16178.780;  426.646; 3230.203
778.714;15591.137;  404.083; 3253.324
779.283;15206.026;  434.386; 3129.745
779.853;14780.517;  396.056; 2983.566
780.422;14499.806;  406.526; 2929.887
780.991;14152.196;  426.829; 2863.908
781.560;13980.119;  475.832; 2948.029
782.129;14167.575;  426.069; 3074.149
782.698;14555.032;  482.472; 2893.970
783.267;14120.922;  378.875; 2721.391
783.836;13474.912;  411.212; 2659.712
784.404;12947.734;  351.782; 2622.233
784.973;13150.258;  299.652; 2600.754
785.542;13970.048;  397.522; 2528.475
786.111;15029.838;  465.225; 2404.396
786.679;15307.395;  430.561; 2365.717
787.248;14613.084;  333.731; 2498.438
787.817;13073.674;  383.335; 2645.659
788.385;11640.896;  460.104; 2709.280
788.954;11212.620;  340.841; 2620.500
789.522;12216.810;  446.078; 2625.422
790.090;13388.233;  341.547; 2743.843
790.659;13613.756;  386.784; 2635.163
791.227;13041.546;  393.354; 2495.484
791.795;12669.669;  418.024; 2413.705
792.364;12677.626;  361.460; 2345.326
792.932;12609.549;  429.630; 2350.447
793.500;12596.639;  392.500; 2429.768
794.068;12816.595;  340.437; 2513.589
794.636;12729.485;  361.940; 2664.310
795.204;12571.809;  324.976; 2721.431
795.772;12794.831;  364.580; 2802.052
796.340;12492.088;  375.283; 2847.173
796.908;11909.711;  327.386; 2997.194
797.476;11727.201;  347.923; 3151.615
798.044;11969.857;  317.526; 3110.735
798.612;13073.080;  397.196; 2931.656
799.180;14488.437;  409.266; 2785.777
799.747;14689.727;  406.369; 2899.098
800.315;13056.250;  347.272; 2955.519
800.883;11115.240;  318.375; 2948.940
801.450;10293.796;  396.478; 2965.361
802.018;10534.652;  417.915; 3070.582
802.585;11582.043;  399.685; 3156.103
803.153;11708.366;  370.655; 3199.524
803.720;11143.022;  375.925; 3168.845
804.287;10833.445;  386.995; 3248.366
804.855;10885.136;  452.264; 3406.187
805.422;10844.925;  385.801; 3430.907
805.989;11198.815;  365.071; 3453.528
806.556;11656.071;  364.707; 3612.649
807.124;11893.895;  444.911; 3736.570
807.691;11574.718;  354.214; 3770.491
808.258;11074.174;  399.484; 3705.012
808.825;10764.264;  451.687; 3828.733
809.392;10760.820;  483.557; 3986.754
809.959;10593.943;  419.560; 4410.075
810.526;10435.601;  487.463; 4774.996
811.093;10191.057;  468.033; 4754.217
811.659; 9572.446;  396.236; 4661.238
812.226; 8628.403;  397.673; 4672.559
812.793; 8382.560;  417.976; 4822.979
813.360; 8665.050;  395.079; 5189.800
813.926; 9412.306;  417.149; 5310.622
814.493; 9928.229;  347.153; 5414.542
815.060;10089.686;  320.556; 5548.963
815.626;10077.176;  345.559; 5452.284
816.193;10157.698;  405.129; 5339.305
816.759;10042.722;  363.365; 5544.426
817.325; 9510.145;  320.269; 5706.547
817.892; 9356.135;  441.005; 5623.468
818.458; 9451.925;  423.208; 5586.689
819.024; 9783.348;  460.978; 5647.910
819.591;10119.504;  396.715; 5762.031
820.157;10216.694;  344.818; 6284.452
820.723; 9538.751;  418.721; 6906.973
821.289; 9324.407;  625.725; 7086.894
821.855; 9406.597;  433.094; 7054.915
822.421; 9489.253;  375.031; 7112.035
822.987; 9252.343;  351.401; 7256.156
823.553; 9091.300;  382.504; 7538.077
824.119; 8810.689;  445.174; 7594.298
824.685; 8723.579;  464.044; 7613.619
825.251; 8534.536;  440.714; 7644.140
825.816; 8208.626;  493.750; 7720.261
826.382; 7736.916;  434.787; 8014.282
826.948; 7676.339;  442.690; 8281.503
827.513; 7770.895;  389.727; 8289.624
828.079; 7969.585;  354.663; 8587.045
828.645; 8132.175;  414.766; 8821.865
829.210; 7850.331;  344.270; 9054.486
829.776; 7820.788;  427.573; 9054.607
830.341; 7860.978;  441.543; 9415.628
830.906; 7907.134;  455.779; 9932.449
831.472; 7416.724;  368.316;10150.271
832.037; 6754.014;  447.052; 9420.391
832.602; 6082.337;  376.156; 8664.912
833.167; 5782.427;  402.892; 8491.933
833.733; 5911.717;  449.562; 8872.854
834.298; 6082.040;  352.765; 9370.575
834.863; 6157.629;  426.135; 9610.695
835.428; 6097.120;  420.238; 9655.616
835.993; 6101.609;  429.042; 9437.838
836.558; 6132.732;  438.978; 9441.459
837.123; 6179.922;  544.548; 9600.979
837.688; 5916.579;  429.385; 9798.301
838.253; 5820.802;  420.754; 9902.921
838.817; 5530.125;  387.524;10339.742
839.382; 5397.715;  477.961;10548.363
839.947; 5353.104;  414.764;10252.484
840.511; 5531.895;  487.934;10040.005
841.076; 5332.318;  316.471;10099.926
841.641; 5120.041;  430.607;10347.347
842.205; 4851.131;  419.110;10817.368
842.770; 4773.587;  505.380;11435.289
843.334; 4587.910;  390.250;12072.409
843.898; 4461.767;  394.687;12635.431
844.463; 4514.257;  480.390;12537.252
845.027; 4432.747;  377.593;12759.673
845.591; 4493.903;  450.730;12821.993
846.156; 4457.693;  379.933;12520.914
846.720; 4563.949;  445.703;12390.436
847.284; 4492.572;  414.939;12956.456
847.848; 4206.563;  435.043;13240.177
848.412; 3774.585;  406.379;13216.998
848.976; 3724.309;  480.816;13014.619
849.540; 3847.198;  527.286;12355.740
850.104; 3827.688;  482.255;12208.761
850.668; 3568.978;  326.692;12106.882
851.232; 3444.768;  339.362;11862.103
851.796; 3465.024;  399.098;11700.523
852.359; 3542.648;  449.802;12375.944
852.923; 3636.637;  463.538;13087.966
853.487; 3700.061;  443.308;13297.187
854.050; 3492.584;  277.978;13851.207
854.614; 3441.007;  385.048;14854.229
855.177; 3361.364;  425.451;15802.149
855.741; 3352.153;  432.921;16603.570
856.304; 3338.310;  459.991;16359.891
856.868; 3130.466;  360.827;14365.512
857.431; 3035.889;  411.631;13361.333
857.995; 2899.379;  393.267;14130.554
858.558; 2916.269;  433.570;14883.175
859.121; 2977.492;  444.274;15754.195
859.684; 2983.815;  419.777;15995.017
860.247; 2978.938;  411.280;15149.537
860.810; 2889.495;  387.650;14640.358
861.374; 2914.251;  531.387;15551.079
861.937; 2692.075;  359.956;16519.801
862.500; 2754.531;  379.460;16796.521
863.062; 2800.754;  366.129;16538.742
863.625; 2911.244;  429.333;16716.764
864.188; 2869.401;  385.303;17055.084
864.751; 2794.190;  389.439;17197.705
865.314; 2738.580;  410.176;17151.625
865.876; 2711.604;  458.546;17783.547
866.439; 2694.360;  442.049;19283.467
867.002; 2726.316;  524.252;20256.389
867.564; 2564.373;  470.822;20485.410
868.127; 2410.030;  426.825;20789.730
868.689; 2366.219;  426.428;21981.951
869.252; 2393.343;  469.665;23803.771
869.814; 2342.766;  370.668;24974.094
870.377; 2443.622;  417.505;24690.314
870.939; 2589.612;  597.108;23963.436
871.501; 2343.469;  424.544;25167.156
872.063; 2144.358;  299.948;26995.477
872.626; 2142.115;  325.218;27443.098
873.188; 2230.438;  423.421;26718.418
873.750; 2198.461;  402.591;26558.840
874.312; 2157.551;  386.194;26701.561
874.874; 2212.907;  501.397;27970.582
875.436; 2126.231;  453.067;29173.402
875.998; 2158.487;  480.570;30376.623
876.560; 2094.577;  455.507;32507.344
877.122; 1974.533;  377.577;34833.066
877.683; 1939.290;  445.780;36458.285
878.245; 1742.680;  394.850;37248.207
878.807; 1691.370;  437.420;36758.027
879.369; 1622.459;  347.490;35223.551
879.930; 1728.816;  365.359;33824.969
880.492; 1920.106;  478.796;34436.492
881.053; 1820.862;  375.133;37745.313
881.615; 1835.652;  381.002;41184.633
882.176; 1806.809;  406.606;42871.555
882.738; 1778.665;  445.376;41693.074
883.299; 1599.055;  324.079;40289.895
883.860; 1613.878;  331.382;39231.215
884.422; 1749.368;  443.552;38264.039
884.983; 1657.458;  361.488;37171.859
885.544; 1684.714;  418.658;35842.379
886.105; 1591.037;  409.428;34810.000
886.666; 1452.760;  391.231;34519.020
887.227; 1329.784;  334.968;33905.641
887.788; 1378.874;  426.605;34502.965
888.349; 1300.230;  353.974;34241.785
888.910; 1367.420;  455.311;33722.203
889.471; 1329.243;  429.514;32539.625
890.032; 1272.266;  412.017;31528.346
890.593; 1281.089;  443.087;32655.068
891.153; 1229.146;  401.324;33882.289
891.714; 1161.602;  344.860;33318.711
892.275; 1164.026;  354.864;31848.930
892.835; 1249.882;  458.667;30339.752
893.396; 1211.805;  453.937;30074.973
893.956; 1116.228;  394.340;30338.393
894.517; 1092.751;  421.043;30864.113
895.077; 1085.108;  428.546;29766.734
895.638; 1126.164;  500.450;26379.557
896.198;  969.421;  356.486;24056.277
896.758; 1042.244;  452.956;22961.898
897.319;  980.067;  398.059;21772.020
897.879;  965.557;  411.262;20877.539
898.439;  862.980;  335.866;19509.461
898.999;  938.870;  438.869;17297.582
899.559;  908.427;  431.972;14712.002
900.119;  812.716;  358.775;12790.224
900.679;  928.273;  489.679;11586.744
901.239;  857.029;  437.948;10776.465
901.799;  828.286;  419.118; 9691.687
902.359;  772.009;  376.388; 8725.907
902.919;  763.966;  371.258; 8305.728
903.479;  746.389;  364.361; 8172.649
904.038;  726.612;  345.465; 7913.870
904.598;  663.202;  305.534; 7262.291
905.158;  727.258;  382.171; 6609.012
905.717;  726.248;  400.174; 6236.133
906.277;  728.438;  410.444; 5829.054
906.836;  739.294;  426.814; 5396.674
907.396;  730.451;  431.251; 4964.195
907.955;  728.207;  432.354; 4528.917
908.515;  685.731;  392.224; 4223.837
909.074;  680.787;  395.927; 4023.958
909.633;  674.210;  395.663; 4065.379
910.192;  767.567;  498.900; 4066.300
910.752;  663.567;  391.767; 3971.600
911.311;  647.033;  382.400; 3839.600
911.870;  624.300;  367.300; 3684.500
912.429;  703.700;  459.167; 3635.600
912.988;  701.033;  457.667; 3689.800
913.547;  606.433;  359.367; 3737.700
914.106;  650.600;  417.600; 3740.300
914.665;  642.500;  409.033; 3604.600
915.224;  689.367;  456.700; 3358.700
915.782;  609.200;  382.233; 3188.400
916.341;  701.100;  474.000; 3091.400
916.900;  606.933;  385.133; 3044.800
917.458;  582.300;  359.667; 2888.600
918.017;  630.867;  411.167; 2818.900
918.576;  601.333;  382.367; 2838.600
919.134;  544.000;  334.833; 2880.100
919.693;  596.433;  381.600; 2996.300
920.251;  586.267;  371.233; 3183.100
920.809;  557.933;  352.667; 3247.000
921.368;  590.567;  383.667; 3156.600
921.926;  565.300;  356.967; 2964.900
922.484;  606.133;  404.933; 2846.300
923.042;  589.400;  386.033; 2890.400
923.601;  673.567;  469.600; 2987.700
924.159;  635.800;  424.600; 3049.800
924.717;  567.000;  360.533; 3087.000
925.275;  608.933;  408.000; 3093.400
925.833;  521.800;  320.600; 3182.400
926.391;  637.900;  433.233; 3397.900
926.949;  585.467;  379.300; 3575.400
927.506;  613.267;  416.333; 3713.400
928.064;  589.400;  385.633; 3871.300
928.622;  598.733;  392.033; 4092.800
929.180;  555.433;  340.433; 4499.300
929.737;  548.300;  333.567; 4813.200
930.295;  634.300;  421.833; 5084.100
930.853;  576.933;  358.500; 5185.000
931.410;  558.033;  340.700; 5313.100
931.968;  644.100;  432.900; 5339.600
932.525;  617.733;  402.267; 5399.900
933.082;  544.000;  335.967; 5457.500
933.640;  627.800;  411.667; 5692.900
934.197;  600.567;  378.467; 5821.200
934.754;  605.067;  380.133; 5617.900
935.312;  578.633;  358.033; 5512.400
935.869;  701.467;  472.967; 5582.400
936.426;  593.067;  369.467; 5650.100
936.983;  596.667;  381.833; 5657.400
937.540;  560.633;  340.200; 5564.300
938.097;  635.600;  415.000; 5574.000
938.654;  607.700;  376.900; 5665.900
939.211;  639.333;  410.433; 5931.600
939.768;  623.533;  391.667; 6153.600
940.324;  610.233;  379.133; 6397.600
940.881;  596.400;  358.067; 6454.200
941.438;  691.300;  456.500; 6206.900
941.995;  674.433;  433.467; 6003.900
942.551;  587.167;  343.800; 6228.300
943.108;  631.700;  400.467; 6603.500
943.664;  583.333;  346.000; 7188.100
944.221;  736.800;  501.467; 7579.900
944.777;  580.733;  338.500; 7658.100
945.334;  581.433;  350.667; 7670.400
945.890;  633.500;  394.300; 7525.100
946.446;  637.500;  394.533; 7261.500
947.003;  643.733;  408.767; 6949.200
947.559;  718.833;  485.033; 6773.100
948.115;  687.033;  448.033; 6668.400
948.671;  652.133;  409.933; 6488.400
949.227;  569.233;  328.733; 6236.600
949.783;  559.433;  320.900; 6008.900
950.339;  654.667;  421.133; 5934.100
950.895;  671.567;  442.667; 5933.500
951.451;  613.100;  376.367; 6074.700
952.007;  667.067;  423.667; 6066.400
952.563;  621.400;  379.633; 5884.100
953.118;  600.333;  368.967; 5733.800
953.674;  624.367;  387.100; 5734.300
954.230;  628.267;  397.600; 6039.700
954.785;  618.167;  390.133; 6383.500
955.341;  660.933;  431.767; 6568.200
955.897;  549.300;  318.533; 6488.600
956.452;  631.033;  408.600; 6239.200
957.008;  731.233;  506.300; 5954.600
957.563;  672.967;  453.800; 5816.700
958.118;  575.233;  362.033; 5828.200
958.674;  626.700;  402.500; 5717.400
959.229;  674.900;  458.500; 5506.800
959.784;  551.467;  329.600; 5292.200
960.339;  678.067;  456.900; 5101.900
960.894;  654.333;  430.767; 5093.200
961.449;  578.000;  350.767; 5227.900
962.004;  836.733;  612.867; 5349.300
962.559;  581.067;  362.333; 5514.900
963.114;  493.200;  277.600; 5717.300
963.669;  609.733;  400.667; 5841.400
964.224;  580.067;  362.667; 5805.900
964.779;  553.300;  339.700; 5723.400
965.334;  690.167;  478.467; 5779.500
965.888;  575.300;  366.033; 5948.500
966.443;  645.667;  437.900; 6344.200
966.998;  540.033;  320.033; 6666.300
967.552;  604.300;  397.733; 6710.100
968.107;  567.567;  362.067; 6593.500
968.661;  618.667;  406.600; 6344.100
969.216;  573.967;  365.067; 6062.400
969.770;  614.733;  408.800; 5785.500
970.324;  612.267;  409.633; 5426.800
970.879;  635.733;  438.733; 5016.800
971.433;  637.333;  436.900; 4904.500
971.987;  598.967;  399.100; 4991.000
972.541;  613.033;  417.867; 4978.500
973.095;  679.567;  486.000; 4832.000
973.649;  535.200;  332.100; 4767.900
974.203;  553.067;  356.433; 4881.200
974.757;  561.667;  367.767; 4969.500
975.311;  578.933;  386.967; 4953.000
975.865;  581.800;  394.600; 4884.300
976.419;  568.867;  376.067; 4739.800
976.973;  561.833;  369.367; 4698.100
977.526;  630.033;  451.800; 4631.100
978.080;  525.633;  331.567; 4621.600
978.634;  603.167;  432.200; 4650.200
979.187;  599.267;  417.767; 4669.200
979.741;  679.333;  509.633; 4658.000
980.294;  519.033;  340.700; 4579.100
980.848;  473.633;  296.033; 4452.800
981.401;  539.467;  368.200; 4271.900
981.955;  567.633;  391.333; 4087.800
982.508;  495.667;  325.633; 3973.900
983.061;  615.567;  446.067; 3928.600
983.615;  520.533;  360.967; 3851.200
984.168;  495.500;  340.200; 3734.800
984.721;  572.900;  422.800; 3628.300
985.274;  568.833;  412.633; 3564.300
985.827;  545.367;  393.067; 3558.100
986.380;  465.567;  314.167; 3559.900
986.933;  570.700;  423.833; 3688.700
987.486;  567.733;  415.267; 3778.500
988.039;  555.800;  414.167; 3559.900
988.591;  583.467;  437.767; 3219.300
989.144;  476.033;  339.533; 2902.900
989.697;  493.700;  357.067; 2722.600
990.250;  560.500;  424.167; 2618.000
990.802;  488.800;  353.700; 2523.900
991.355;  646.767;  521.233; 2436.500
991.907;  566.983;  441.467; 2412.200
992.460;  487.200;  361.700; 2387.900
993.012;  489.833;  366.333; 2365.800
993.565;  462.333;  341.900; 2311.100
994.117;  634.733;  524.100; 2308.700
994.669;  456.167;  343.333; 2249.300
995.221;  518.633;  413.333; 2158.100
995.774;  530.633;  410.167; 2085.600
996.326;  497.767;  384.967; 2068.100
996.878;  553.600;  454.533; 1975.300
997.430;  466.967;  351.200; 1929.500
997.982;  500.600;  390.800; 1861.900
998.534;  498.000;  385.033; 1830.200
999.086;  492.067;  384.467; 1823.200
999.638;  437.300;  335.667; 1815.000
1000.190;  472.433;  366.200; 1796.600
1000.741;  501.300;  393.600; 1738.800
1001.293;  455.967;  357.200; 1666.200
1001.845;  454.167;  355.033; 1566.500
1002.396;  504.300;  399.333; 1471.900
1002.948;  496.233;  402.167; 1398.000
1003.500;  482.067;  388.033; 1356.500
1004.051;  628.600;  532.300; 1294.200
1004.603;  547.533;  451.533; 1190.000
1005.154;  411.267;  320.100; 1063.900
1005.705;  489.433;  405.700;  968.300
1006.257;  492.400;  395.333;  889.800
1006.808;  471.533;  384.400;  801.500
1007.359;  538.300;  460.567;  716.400
1007.910;  444.833;  362.067;  639.100
1008.461;  505.067;  429.700;  561.600
1009.013;  407.833;  329.067;  500.400
1009.564;  553.600;  478.833;  476.100
1010.115;  407.833;  330.767;  431.600
1010.665;  418.200;  346.767;  409.300
1011.216;  466.433;  394.800;  399.700
1011.767;  483.433;  407.800;  388.100
1012.318;  507.767;  435.767;  381.400
1012.869;  468.167;  398.267;  375.400
1013.419;  417.867;  340.933;  357.600
1013.970;  469.400;  394.100;  358.300
1014.521;  424.533;  354.733;  344.100
1015.071;  464.800;  395.700;  322.800
1015.622;  440.300;  367.733;  320.600
1016.172;  409.167;  347.033;  301.700
1016.723;  427.967;  350.367;  289.800
1017.273;  416.200;  344.400;  287.600
1017.823;  452.967;  376.933;  278.700
1018.374;  427.800;  351.667;  274.400
1018.924;  501.200;  424.033;  283.200
1019.474;  500.533;  425.667;  278.500
1020.024;  456.767;  389.867;  274.700
1020.574;  503.200;  438.233;  272.700
1021.124;  460.000;  400.767;  278.400
1021.674;  383.833;  315.367;  269.200
1022.224;  490.633;  423.400;  267.800
1022.774;  467.900;  400.700;  258.100
1023.324;  524.300;  456.967;  260.000
1023.874;  616.000;  549.633;  260.700
1024.423;  425.433;  363.267;  252.700
1024.973;  422.733;  358.933;  234.700
1025.523;  428.033;  365.800;  226.500
1026.072;  416.633;  355.467;  225.500
1026.622;  474.033;  399.133;  210.100
1027.172;  500.267;  435.167;  213.000
1027.721;  413.900;  351.433;  207.700
1028.270;  466.700;  401.900;  205.400
1028.820;  447.900;  380.533;  201.000
1029.369;  423.433;  367.467;  201.000
1029.918;  449.133;  385.900;  198.400
1030.468;  389.967;  325.833;  199.200
1031.017;  442.467;  381.633;  192.600
1031.566;  423.900;  363.400;  197.400
1032.115;  483.567;  425.267;  188.300
1032.664;  413.733;  354.600;  193.700
1033.213;  506.067;  446.433;  191.900
1033.762;  444.533;  377.967;  184.500
1034.311;  471.967;  412.700;  194.300
1034.860;  483.833;  421.533;  192.300
1035.408;  505.800;  447.733;  182.600
1035.957;  500.967;  440.967;  173.900
1036.506;  360.600;  304.100;  185.200
1037.055;  596.233;  532.100;  182.500
1037.603;  464.700;  402.633;  167.600
1038.152;  369.400;  309.400;  168.200
1038.700;  404.833;  340.400;  169.600
1039.249;  469.500;  417.500;  164.300
1039.797;  438.933;  387.233;  169.600
1040.345;  489.667;  433.367;  167.100
1040.894;  435.233;  371.300;  164.400
1041.442;  437.333;  384.767;  158.300
1041.990;  390.033;  331.267;  160.000
1042.538;  372.733;  312.367;  156.800
1043.087;  394.233;  336.367;  146.600
1043.635;  474.233;  412.967;  162.400
1044.183;  407.000;  353.500;  156.300
1044.731;  399.333;  342.567;  158.100
1045.279;  470.433;  413.567;  154.500
1045.827;  633.167;  573.967;  146.200
1046.374;  356.100;  299.167;  154.000
1046.922;  412.767;  358.967;  149.000
1047.470;  484.133;  427.433;  154.900
1048.018;  449.867;  394.800;  148.400
1048.565;  496.300;  444.500;  146.300
1049.113;  381.967;  329.500;  156.100
1049.660;  429.867;  375.867;  154.300
1050.208;  472.267;  413.500;  149.400
1050.755;  424.000;  364.900;  157.500
1051.303;  479.267;  426.667;  157.700
1051.850;  437.933;  390.100;  152.800
1052.397;  323.833;  271.900;  146.300
1052.945;  428.133;  375.400;  149.500
1053.492;  521.400;  471.667;  149.300
1054.039;  499.700;  457.767;  163.100
1054.586;  379.167;  347.000;  150.400
1055.133;  487.100;  428.800;  153.500
1055.680;  447.133;  395.833;  155.600
1056.227;  371.600;  317.867;  148.700
1056.774;  555.300;  503.267;  151.500
1057.321;  358.600;  309.267;  143.700
1057.868;  451.567;  399.467;  145.300
1058.415;  451.033;  401.933;  153.500
1058.961;  474.267;  417.933;  149.900
1059.508;  445.900;  392.800;  147.300
1060.055;  402.967;  351.033;  151.000
1060.601;  428.000;  379.200;  148.700
1061.148;  436.900;  380.600;  153.800
1061.694;  409.133;  364.667;  150.500
1062.241;  413.500;  360.333;  149.100
1062.787;  463.967;  410.800;  153.000
1063.334;  570.067;  513.867;  153.200
1063.880;  471.800;  420.267;  148.400
1064.426;  498.433;  451.600;  149.200
1064.972;  418.133;  366.667;  156.400
1065.518;  393.400;  345.300;  144.700
1066.065;  437.667;  386.267;  139.400
1066.611;  414.367;  371.200;  139.300
1067.157;  443.967;  397.733;  138.400
1067.703;  462.900;  417.400;  142.700
1068.249;  421.100;  378.867;  136.700
1068.794;  443.400;  394.133;  139.400
1069.340;  399.067;  354.500;  142.700
1069.886;  410.433;  364.600;  135.600
1070.432;  368.200;  328.600;  133.400
1070.977;  420.733;  371.933;  138.200
1071.523;  390.000;  346.267;  132.400
1072.068;  396.600;  358.633;  132.700
1072.614;  359.133;  317.667;  127.000
1073.160;  480.400;  435.933;  131.300
1073.705;  398.633;  351.367;  135.700
1074.250;  385.167;  339.467;  133.000
1074.796;  456.800;  412.067;  138.000
1075.341;  470.000;  420.333;  137.300
1075.886;  409.033;  363.200;  134.300
1076.431;  452.067;  408.600;  138.200
1076.976;  448.267;  404.467;  132.200
1077.521;  399.800;  359.500;  138.900
1078.067;  404.500;  356.133;  128.600
1078.612;  470.833;  422.200;  138.900
1079.156;  416.367;  369.767;  128.900
1079.701;  483.100;  437.200;  129.700
1080.246;  486.200;  442.000;  128.600
1080.791;  435.300;  392.800;  122.600
1081.336;  461.033;  418.900;  122.000
1081.880;  450.467;  408.800;  123.900
1082.425;  394.600;  351.200;  120.600
1082.970;  500.800;  452.833;  124.500
1083.514;  412.367;  369.400;  112.000
1084.059;  407.133;  365.167;  120.700
1084.603;  396.267;  349.000;  116.000
1085.147;  456.000;  407.600;  116.300
1085.692;  500.967;  458.200;  108.200
1086.236;  349.300;  306.800;  114.600
1086.780;  522.600;  479.933;  118.900
1087.325;  453.367;  411.767;  120.400
1087.869;  425.333;  384.667;  110.500
1088.413;  491.533;  450.600;  114.000
1088.957;  365.933;  330.000;  114.300
1089.501;  538.900;  488.833;  114.600
1090.045;  513.167;  461.333;  114.200
1090.589;  392.500;  354.333;  105.500
1091.133;  471.367;  428.267;  111.800
1091.676;  405.533;  371.467;  110.900
1092.220;  418.033;  375.600;  110.100
1092.764;  496.667;  459.100;  108.100
1093.307;  470.533;  423.833;  109.900
1093.851;  383.000;  335.600;  107.500
1094.395;  478.700;  438.200;   96.200
1094.938;  437.033;  398.667;   99.300
1095.482;  388.767;  343.733;   97.700
1096.025;  493.333;  459.767;   84.900
1096.568;  552.400;  513.500;   88.500
1097.112;  352.833;  310.867;   95.700
1097.655;  415.567;  372.633;   97.300
1098.198;  408.633;  373.400;   92.600
1098.741;  420.867;  392.000;   91.800
1099.285;  455.867;  417.433;   88.000
1099.828;  299.433;  260.733;   91.700
1100.371;  418.400;  387.200;   89.900
1100.914;  473.700;  434.033;   91.500
1101.457;  479.500;  436.300;   88.100
1101.999;  398.767;  356.733;   86.400
1102.542;  446.033;  412.200;   90.800
1103.085;  461.933;  422.433;   95.400
1103.628;  528.700;  497.733;   97.700
1104.170;  408.867;  370.933;   84.000
1104.713;  449.233;  406.567;   93.900
1105.256;  384.000;  349.367;   93.000
1105.798;  348.500;  308.400;   85.600
1106.341;  511.033;  472.167;   87.100
1106.883;  356.233;  320.500;   85.200
1107.425;  472.700;  426.200;   85.000
1107.968;  424.767;  390.500;   84.300
1108.510;  480.300;  443.500;   88.200
1109.052;  424.333;  397.067;   86.600
1109.594;  392.633;  351.400;   79.400
1110.136;  447.633;  413.033;   81.700
1110.679;  441.967;  397.800;   75.500
1111.221;  423.567;  380.933;   88.500
1111.763;  386.467;  348.200;   87.700
1112.304;  379.200;  342.800;   89.700
1112.846;  467.033;  427.133;   81.900
1113.388;  663.867;  629.167;   86.400
1113.930;  486.633;  444.067;   84.700
1114.472;  428.200;  385.833;   78.900
1115.013;  381.833;  341.267;   78.100
1115.555;  407.067;  380.600;   84.900
1116.097;  396.567;  359.133;   79.200
1116.638;  481.167;  441.733;   83.700
1117.180;  462.300;  428.567;   85.500
1117.721;  396.833;  362.733;   78.800
1118.262;  472.200;  438.667;   77.400
1118.804;  443.367;  405.200;   81.400
1119.345;  395.867;  368.600;   77.800
1119.886;  494.667;  455.000;   81.200
1120.427;  407.133;  372.933;   77.200
1120.969;  417.233;  385.600;   75.200
1121.510;  391.667;  353.567;   80.900
1122.051;  505.467;  473.000;   77.300
1122.592;  455.767;  425.333;   73.300
1123.133;  377.533;  347.133;   90.100
1123.673;  487.900;  463.567;   75.000
1124.214;  423.567;  391.600;   80.600
1124.755;  448.933;  415.133;   78.000
1125.296;  432.267;  397.300;   77.500
1125.836;  481.433;  446.667;   80.400
1126.377;  417.500;  380.900;   75.600
1126.918;  427.233;  397.167;   78.900
1127.458;  436.167;  399.333;   78.000
1127.999;  452.633;  424.367;   76.100
1128.539;  481.000;  445.933;   81.400
1129.079;  436.300;  407.767;   77.400
1129.620;  385.400;  355.933;   68.000
1130.160;  366.833;  341.400;   77.500
1130.700;  441.200;  414.767;   76.300
1131.240;  444.767;  413.600;   66.800
1131.781;  430.800;  400.667;   70.600
1132.321;  419.433;  380.733;   77.200
1132.861;  387.433;  357.267;   70.400
1133.401;  413.867;  378.367;   68.700
1133.941;  439.533;  405.533;   68.500
1134.481;  417.200;  385.733;   75.900
1135.020;  418.000;  392.900;   66.600
1135.560;  469.700;  439.233;   68.100
1136.100;  343.333;  315.133;   64.900
1136.640;  352.600;  322.667;   72.500
1137.179;  372.900;  342.733;   69.700
1137.719;  419.933;  389.533;   68.400
1138.258;  405.367;  377.700;   67.000
1138.798;  456.900;  429.133;   69.600
1139.337;  326.000;  300.733;   64.000
1139.877;  447.800;  418.133;   64.500
1140.416;  614.167;  588.033;   74.900
1140.955;  364.000;  331.367;   67.200
1141.494;  468.900;  434.300;   69.900
1142.034;  404.633;  377.467;   59.100
1142.573;  450.500;  422.867;   65.900
1143.112;  379.033;  349.200;   70.600
1143.651;  374.233;  343.267;   67.100
1144.190;  481.367;  454.700;   56.700
1144.729;  411.533;  389.333;   61.800
1145.267;  401.867;  367.233;   62.500
1145.806;  435.633;  409.133;   68.500
1146.345;  442.833;  409.467;   58.300
1146.884;  432.600;  406.600;   63.100
1147.422;  360.500;  334.233;   54.800
1147.961;  494.667;  467.400;   67.600
1148.500;  468.000;  441.033;   64.700
1149.038;  441.133;  412.300;   61.000
1149.577;  486.533;  457.667;   65.100
1150.115;  305.700;  279.100;   58.100
1150.653;  424.200;  391.267;   60.500
1151.192;  383.067;  355.000;   56.600
1151.730;  447.700;  429.700;   62.300
1152.268;  401.667;  377.700;   55.500
1152.806;  397.733;  370.033;   58.200
1153.344;  395.633;  372.433;   55.000
1153.882;  418.533;  389.233;   64.200
1154.421;  319.967;  292.567;   60.300
1154.958;  413.200;  387.233;   58.100
1155.496;  446.800;  426.200;   55.800
1156.034;  500.600;  476.100;   61.000
1156.572;  467.833;  434.467;   56.200
1157.110;  325.567;  300.300;   53.200
1157.647;  473.867;  448.900;   57.400
1158.185;  396.367;  369.133;   55.500
1158.723;  346.267;  326.500;   58.000
1159.260;  479.667;  460.033;   53.700
1159.798;  462.033;  434.733;   51.700
1160.335;  435.467;  406.900;   59.600

