
Integration time [ms]:   3.276
Averaging Nr. [scans]: 1000
Smoothing Nr. [pixels]: 0
Data measured with spectrometer [name]: 7414430SP
Wave   ;Sample   ;Dark     ;Reference
[nm]   ;[counts] ;[counts] ;[counts] 

288.544;  157.151;    7.793;  793.890
289.143;  161.546;    7.462;  681.602
289.742;  162.582;    8.602;  828.814
290.341;  149.800;    1.321;  789.841
290.940;  138.596;   -0.709;  730.702
291.538;  139.138;    0.881;  881.108
292.137;  138.614;    0.122;  792.581
292.736;  142.100;   -1.929;  975.101
293.335;  138.885;   -8.229;  735.086
293.934;  138.608;   -5.279;  781.677
294.532;  137.693;   -1.369; 1031.958
295.131;  124.238;   -7.641;  834.394
295.730;  124.449;   -8.420;  809.588
296.328;  122.165;   -5.611;  783.442
296.927;  122.880;   -5.781;  779.652
297.525;  123.437;   -6.361;  781.236
298.124;  113.247;  -11.382;  654.009
298.722;  117.796;   -7.641;  761.933
299.321;  116.500;   -6.811;  708.597
299.919;  113.548;   -6.991;  751.918
300.518;  110.304;  -10.362;  689.338
301.116;  111.406;   -9.581;  691.381
301.715;  111.235;   -4.891;  730.222
302.313;  111.299;   -8.801;  704.943
302.911;  105.639;   -8.522;  733.830
303.509;  110.408;   -6.171;  925.627
304.108;  108.158;   -7.311;  760.383
304.706;  108.307;   -8.321;  801.664
305.304;  101.829;  -10.222;  796.707
305.902;  107.358;   -6.021;  784.484
306.500;  103.532;   -4.971;  728.200
307.098;  101.784;   -7.061;  746.560
307.696;   99.387;   -8.801;  780.432
308.294;   99.783;   -6.411;  731.359
308.892;  101.862;   -2.901;  759.769
309.490;   97.576;   -5.041;  712.161
310.088;   94.934;   -5.002;  788.444
310.686;  100.031;   -2.041;  821.749
311.284;   95.979;   -2.351;  766.040
311.882;   93.756;   -4.422;  731.225
312.480;   90.228;   -4.192;  697.167
313.078;   91.781;   -1.172;  808.331
313.675;   93.105;   -2.601;  691.600
314.273;   87.753;   -1.312;  797.837
314.871;   86.306;   -3.942;  589.829
315.468;   84.824;   -2.802;  652.090
316.066;   87.207;   -0.701;  694.427
316.664;   80.579;   -4.362;  656.351
317.261;   83.867;   -2.872;  910.128
317.859;   79.155;   -2.022;  768.735
318.456;   80.690;   -0.531;  830.096
319.054;   76.458;   -3.912;  787.828
319.651;   75.398;   -4.752;  759.928
320.249;   73.711;   -2.602;  810.188
320.846;   71.421;   -0.821;  714.286
321.443;   69.088;   -4.642;  832.135
322.041;   65.611;   -5.002;  812.315
322.638;   63.415;   -3.982;  701.456
323.235;   64.844;   -3.411;  665.683
323.833;   61.457;   -7.361;  740.354
324.430;   56.243;   -8.611;  615.900
325.027;   57.411;   -4.061;  876.855
325.624;   57.600;   -4.031;  644.532
326.221;   55.647;   -7.481;  689.717
326.818;   53.282;   -5.281;  818.332
327.415;   56.810;   -7.460;  748.828
328.012;   56.711;   -5.510;  690.585
328.609;   54.856;   -7.880;  731.389
329.206;   52.206;   -8.331;  778.621
329.803;   52.111;   -5.121;  737.841
330.400;   55.256;   -4.510;  704.260
330.997;   57.071;   -6.441;  817.147
331.594;   55.705;   -8.831;  788.185
332.191;   59.809;   -7.621;  728.722
332.787;   64.178;   -4.591;  844.463
333.384;   63.860;   -7.412;  763.093
333.981;   61.453;   -8.293;  815.687
334.578;   64.340;   -7.052;  708.378
335.174;   66.956;   -3.102;  731.469
335.771;   66.185;   -5.943;  836.456
336.367;   63.824;   -7.393;  710.631
336.964;   67.353;   -4.063;  793.266
337.561;   66.118;   -3.813;  731.112
338.157;   61.434;   -4.654;  911.916
338.754;   60.515;   -7.934;  796.589
339.350;   58.019;   -4.414;  722.493
339.946;   59.280;   -4.664;  773.135
340.543;   52.460;   -6.375;  846.136
341.139;   46.534;   -9.815;  720.836
341.735;   42.505;   -4.526;  772.593
342.332;   42.598;   -4.895;  691.472
342.928;   42.740;   -4.295;  795.394
343.524;   35.419;   -5.476;  761.684
344.120;   31.266;   -5.856;  738.562
344.716;   35.452;   -2.155;  723.717
345.313;   33.022;   -6.275;  795.342
345.909;   26.297;   -8.815;  627.336
346.505;   28.317;   -5.305;  740.247
347.101;   29.513;   -2.674;  827.864
347.697;   29.604;   -4.344;  785.398
348.293;   23.879;   -9.975;  627.244
348.889;   24.691;   -5.774;  745.914
349.485;   24.465;   -5.004;  688.205
350.081;   24.252;   -4.704;  772.592
350.676;   19.055;   -6.635;  691.606
351.272;   23.939;   -4.504;  809.530
351.868;   23.859;   -3.914;  780.497
352.464;   21.866;   -9.044;  723.932
353.059;   17.336;   -8.314;  646.017
353.655;   20.263;   -7.024;  777.063
354.251;   21.586;   -5.343;  759.845
354.846;   16.322;   -8.604;  740.646
355.442;   13.338;   -6.945;  753.071
356.038;   16.083;   -7.564;  751.708
356.633;   15.576;   -5.814;  728.594
357.229;   13.987;   -7.364;  724.757
357.824;   12.511;   -8.024;  703.600
358.420;   11.031;   -9.384;  679.726
359.015;   12.025;   -5.104;  695.357
359.610;   12.611;   -6.854;  763.920
360.206;    6.741;  -10.185;  603.240
360.801;    9.444;   -7.054;  646.503
361.396;   11.718;   -5.034;  725.975
361.992;    7.074;   -8.284;  668.220
362.587;    4.080;   -8.625;  670.160
363.182;    6.109;   -7.674;  689.631
363.777;    6.981;   -5.164;  738.242
364.372;    6.784;   -8.604;  737.314
364.967;    2.431;   -9.055;  680.744
365.563;    7.612;   -6.114;  815.567
366.158;    4.384;   -5.814;  685.161
366.753;    4.573;   -7.854;  649.263
367.348;    2.537;   -7.804;  746.056
367.942;    2.297;   -7.954;  697.298
368.537;    1.553;   -4.984;  754.245
369.132;    1.968;   -8.564;  703.428
369.727;   -2.162;   -8.855;  638.079
370.322;   -1.418;   -6.245;  580.186
370.917;   -1.299;   -6.425;  710.646
371.511;    2.030;   -6.294;  861.834
372.106;   -2.539;   -7.685;  776.964
372.701;   -5.056;   -7.335;  585.988
373.296;    0.702;   -4.564;  863.135
373.890;   -4.340;  -10.235;  647.840
374.485;   -7.071;   -7.885;  691.199
375.079;   -2.393;   -7.324;  738.685
375.674;   -0.764;   -3.494;  812.970
376.268;   -5.781;   -8.525;  691.759
376.863;  -11.289;  -10.086;  580.327
377.457;   -5.473;   -7.025;  662.490
378.052;   -6.958;   -3.585;  764.884
378.646;   -8.297;   -7.595;  741.167
379.240;   -8.500;   -8.335;  721.176
379.835;   -8.273;   -5.785;  636.978
380.429;   -9.872;   -4.335;  562.557
381.023;   -8.910;   -6.805;  779.205
381.617;  -12.335;   -9.195;  680.106
382.212;   -8.667;   -6.905;  685.303
382.806;   -7.703;   -3.745;  760.690
383.400;  -12.008;   -7.745;  672.281
383.994;  -13.011;   -9.765;  664.870
384.588;   -9.306;   -6.564;  697.701
385.182;   -7.774;   -5.344;  726.624
385.776;   -9.377;   -8.514;  706.875
386.370;  -13.101;   -9.555;  681.968
386.964;  -11.337;   -8.715;  684.155
387.558;   -9.770;   -6.174;  598.360
388.152;  -13.126;   -8.725;  681.959
388.745;  -11.808;   -7.965;  814.707
389.339;   -9.734;   -5.924;  747.642
389.933;   -9.023;   -5.524;  695.370
390.527;  -10.431;   -7.114;  859.029
391.120;  -16.727;  -10.725;  595.318
391.714;  -13.583;   -8.035;  711.633
392.308;  -10.237;   -3.574;  780.253
392.901;  -13.935;   -7.245;  642.460
393.495;  -15.980;   -9.285;  595.414
394.089;  -13.716;   -5.895;  760.452
394.682;  -14.068;   -4.295;  697.188
395.275;  -14.305;   -9.875;  719.927
395.869;  -15.990;   -8.485;  667.314
396.462;  -14.784;   -7.455;  616.609
397.056;  -10.948;   -5.424;  776.621
397.649;  -16.195;   -6.605;  731.575
398.242;  -13.059;   -8.224;  712.645
398.836;  -12.577;   -7.474;  766.408
399.429;  -12.901;   -7.094;  631.041
400.022;  -16.742;   -9.475;  665.902
400.615;  -14.305;   -7.145;  805.609
401.208;  -12.548;   -7.174;  691.451
401.802;  -15.224;   -5.515;  699.329
402.395;  -15.349;   -9.875;  683.502
402.988;  -16.797;   -8.845;  696.627
403.581;  -13.894;   -8.874;  646.878
404.174;  -11.115;   -5.324;  686.568
404.767;  -14.562;   -9.575;  638.583
405.360;  -17.375;  -10.965;  621.445
405.953;  -11.854;   -8.764;  759.034
406.545;  -10.938;   -7.514;  725.342
407.138;  -14.997;  -10.025;  618.350
407.731;  -13.741;  -10.034;  613.303
408.324;  -10.010;   -9.374;  660.554
408.917;  -10.707;   -6.534;  681.864
409.509;  -12.078;   -8.004;  740.396
410.102;  -14.779;   -9.875;  643.948
410.695;   -9.067;   -8.604;  665.758
411.287;   -9.766;   -6.794;  599.821
411.880;  -10.520;   -9.334;  585.421
412.472;  -14.083;  -10.254;  613.092
413.065;  -11.667;   -6.714;  629.408
413.657;   -9.108;   -7.234;  576.678
414.250;   -9.412;  -10.544;  646.681
414.842;  -10.799;   -9.744;  676.353
415.434;   -8.746;   -6.994;  570.463
416.027;   -4.865;   -5.893;  652.196
416.619;   -6.601;   -7.264;  713.400
417.211;   -7.205;  -10.374;  599.352
417.804;   -3.999;   -7.993;  628.499
418.396;   -7.538;   -7.234;  607.643
418.988;   -5.895;   -9.443;  659.238
419.580;   -9.238;  -10.724;  568.276
420.172;   -6.928;  -10.323;  536.196
420.764;   -2.218;   -8.793;  672.482
421.356;   -3.786;  -11.143;  636.898
421.948;   -4.184;   -8.293;  677.661
422.540;    0.161;   -7.893;  680.027
423.132;   -0.779;   -7.082;  600.641
423.724;   -3.928;   -8.653;  561.267
424.316;   -1.483;  -10.213;  621.345
424.908;    1.898;   -9.762;  591.517
425.500;    3.150;   -5.572;  647.978
426.092;    2.804;   -8.422;  648.268
426.683;    1.686;   -9.283;  684.836
427.275;    4.800;   -7.852;  641.471
427.867;    6.563;   -5.272;  668.948
428.458;    6.990;   -7.682;  732.344
429.050;    4.933;  -10.612;  680.749
429.642;    7.230;   -9.882;  743.124
430.233;    8.035;   -6.962;  569.356
430.825;    9.398;   -6.842;  724.809
431.416;    6.671;   -9.672;  698.241
432.008;    9.943;   -6.552;  651.723
432.599;   10.105;   -6.891;  656.073
433.190;    8.004;  -10.912;  637.670
433.782;    6.949;  -11.172;  590.395
434.373;   14.443;   -6.061;  884.765
434.964;   13.651;   -8.251;  602.920
435.556;   10.936;   -9.722;  634.537
436.147;   13.508;   -9.082;  758.490
436.738;   13.693;   -8.041;  701.099
437.329;   17.852;   -7.341;  721.723
437.920;   11.916;   -8.162;  666.688
438.511;   10.941;  -11.802;  564.526
439.103;   18.071;  -10.191;  623.998
439.694;   19.700;   -7.601;  681.583
440.285;   20.813;   -8.541;  764.432
440.876;   18.578;   -9.751;  845.738
441.466;   18.803;   -9.401;  575.162
442.057;   24.035;   -7.760;  665.814
442.648;   22.453;   -9.971;  746.255
443.239;   20.732;  -11.001;  620.477
443.830;   25.402;   -7.990;  704.958
444.421;   27.417;   -7.910;  655.474
445.011;   23.863;   -8.131;  693.619
445.602;   23.159;   -7.111;  743.126
446.193;   24.767;  -10.920;  488.117
446.783;   30.279;   -6.500;  640.397
447.374;   25.473;   -8.671;  692.759
447.964;   26.539;  -10.781;  713.770
448.555;   34.236;   -9.650;  822.742
449.145;   31.019;   -8.660;  662.853
449.736;   32.693;   -8.990;  803.179
450.326;   31.222;   -9.500;  713.626
450.917;   35.528;   -8.680;  675.324
451.507;   35.472;   -7.520;  600.661
452.097;   36.632;   -8.590;  746.267
452.688;   36.788;  -11.340;  742.160
453.278;   36.919;  -10.100;  566.840
453.868;   41.415;   -6.019;  793.550
454.458;   39.101;   -9.440;  651.141
455.048;   39.051;  -10.560;  711.783
455.639;   41.304;  -11.799;  567.096
456.229;   44.641;   -6.899;  710.694
456.819;   46.567;   -7.389;  751.158
457.409;   46.937;  -11.119;  773.993
457.999;   49.542;   -9.289;  737.505
458.589;   48.960;   -6.139;  686.606
459.179;   49.109;   -8.729;  717.658
459.769;   46.413;   -9.789;  627.099
460.358;   51.889;  -10.259;  797.262
460.948;   52.201;   -7.299;  689.503
461.538;   53.824;  -10.289;  660.677
462.128;   51.317;  -11.269;  664.934
462.717;   58.407;   -9.368;  710.326
463.307;   61.705;   -7.908;  705.846
463.897;   56.987;   -9.599;  656.942
464.486;   55.919;   -9.769;  837.128
465.076;   60.404;   -8.048;  733.776
465.666;   64.431;   -9.358;  652.900
466.255;   61.691;   -7.919;  785.651
466.845;   61.163;  -11.689;  666.749
467.434;   64.059;   -7.818;  725.873
468.023;   65.234;   -7.678;  658.357
468.613;   62.719;  -10.939;  713.946
469.202;   67.593;  -10.118;  646.507
469.791;   71.320;   -9.108;  737.811
470.381;   73.069;   -6.058;  742.813
470.970;   72.707;  -10.428;  711.099
471.559;   71.876;  -10.268;  733.291
472.148;   76.351;   -8.448;  675.737
472.738;   77.830;   -6.917;  765.466
473.327;   77.968;  -11.978;  637.529
473.916;   77.087;  -11.888;  737.446
474.505;   80.824;   -9.437;  751.703
475.094;   84.719;   -6.747;  806.570
475.683;   84.207;   -9.367;  797.699
476.272;   84.375;  -12.637;  730.632
476.861;   87.263;  -10.027;  706.754
477.449;   93.916;   -8.716;  728.487
478.038;   88.219;   -9.577;  692.513
478.627;   90.084;   -9.718;  714.852
479.216;   95.013;   -8.947;  769.441
479.805;   98.599;   -6.256;  783.375
480.393;   98.615;   -7.937; 1008.945
480.982;   98.338;   -7.717;  874.501
481.571;  104.138;   -9.266;  858.333
482.159;  105.742;   -7.636;  705.386
482.748;  105.252;   -9.667;  821.385
483.336;  110.774;  -10.376;  858.209
483.925;  110.547;   -7.147;  774.373
484.513;  117.211;   -7.996;  758.962
485.102;  114.730;  -10.027;  810.965
485.690;  121.758;  -10.446; 1011.050
486.278;  123.666;   -8.446;  979.329
486.867;  125.205;   -6.356;  809.662
487.455;  127.154;   -9.136;  898.229
488.043;  129.169;  -10.646;  748.361
488.631;  137.482;   -7.456; 1005.079
489.220;  141.300;   -6.636;  908.626
489.808;  142.536;  -11.036;  741.415
490.396;  150.437;  -10.246;  914.645
490.984;  156.261;   -8.556;  830.161
491.572;  168.479;   -5.886;  940.315
492.160;  175.889;   -9.486;  919.081
492.748;  186.619;  -10.976;  884.341
493.336;  209.466;   -8.776; 1019.693
493.924;  240.757;   -5.465;  958.077
494.512;  280.369;   -9.986; 1066.638
495.100;  325.716;  -10.636; 1103.280
495.687;  395.482;  -10.885; 1206.373
496.275;  480.311;   -8.126; 1150.796
496.863;  562.453;  -10.586; 1281.171
497.451;  674.564;  -11.926; 1386.805
498.038;  784.481;  -10.885; 1556.729
498.626;  918.685;   -6.315; 1741.407
499.214; 1133.011;   -7.326; 2016.609
499.801; 1379.447;  -11.906; 2220.633
500.389; 1698.612;  -10.466; 2312.494
500.976; 1993.034;   -5.236; 2744.849
501.564; 2482.457;   -8.936; 3148.565
502.151; 3133.964;  -13.176; 3515.999
502.738; 3538.784;  -10.646; 3971.274
503.326; 3941.982;   -9.525; 4403.796
503.913; 4357.796;  -10.856; 5161.749
504.500; 4835.947;  -11.586; 5986.420
505.088; 5408.934;  -10.336; 6381.201
505.675; 6254.205;   -6.355; 6925.547
506.262; 6801.688;   -9.046; 7619.060
506.849; 7197.278;  -10.416; 8733.969
507.436; 7766.711;  -10.305; 9790.121
508.023; 8177.574;   -5.496; 9985.472
508.610; 8217.060;   -7.856;10434.618
509.197; 9086.844;  -10.097;11198.435
509.784;10470.602;  -10.886;12391.194
510.371;11970.171;   -9.315;13603.713
510.958;13192.257;   -9.936;14426.586
511.545;13766.390;   -9.326;15243.775
512.132;13836.676;  -10.075;15945.876
512.719;14270.281;   -7.796;16340.369
513.305;15539.011;  -10.606;18011.766
513.892;17047.795;  -11.486;19754.971
514.479;18166.232;   -9.126;20967.805
515.066;19476.523;   -6.026;22299.793
515.652;19566.838;   -8.466;22908.660
516.239;20096.738;  -10.886;23798.875
516.825;21827.934;  -11.496;25567.275
517.412;23485.959;   -5.796;28154.959
517.998;24586.617;  -10.506;28344.111
518.585;25209.828;  -10.076;27134.219
519.171;24638.549;   -8.315;27268.576
519.758;25409.486;   -8.596;28964.129
520.344;27855.662;   -8.466;30664.494
520.930;26881.068;  -11.006;32550.605
521.516;25298.072;  -10.495;35422.895
522.103;27051.969;   -5.526;38280.004
522.689;29162.119;   -8.746;37835.117
523.275;29948.734;  -11.376;37288.613
523.861;31599.271;  -11.156;37281.395
524.447;30850.010;   -8.135;37846.949
525.033;29912.039;   -7.896;38321.949
525.619;28310.412;  -12.476;38579.285
526.205;26947.332;   -9.516;40622.875
526.791;28837.303;   -6.926;42258.836
527.377;31529.717;   -8.346;42966.902
527.963;34863.363;   -8.717;42018.949
528.549;37374.906;  -11.016;42476.828
529.135;36015.328;   -8.536;41854.852
529.721;35719.285;   -9.666;41237.711
530.306;34691.875;  -10.066;41259.445
530.892;35601.406;  -11.356;41506.047
531.478;37418.879;   -6.596;43559.613
532.063;39080.113;   -8.836;47695.563
532.649;37386.785;  -10.047;50808.324
533.235;37334.758;   -9.746;51787.500
533.820;39755.668;   -6.566;52145.035
534.406;41549.223;  -10.817;51133.488
534.991;43254.059;   -9.416;49996.805
535.576;41818.789;   -9.036;48882.852
536.162;39069.387;   -6.156;46942.285
536.747;39495.926;  -11.607;45711.746
537.333;42289.242;  -11.787;48510.180
537.918;42589.293;  -12.437;50439.891
538.503;41531.000;   -7.196;50863.711
539.088;41411.387;  -10.556;50906.922
539.673;41345.789;   -8.767;52621.965
540.259;36695.621;  -10.026;52368.094
540.844;33358.613;   -7.416;50879.109
541.429;31863.041;   -9.467;52077.777
542.014;32968.480;   -9.527;52716.695
542.599;39485.160;   -9.946;52363.281
543.184;44088.855;   -7.927;53187.137
543.769;45924.906;   -9.297;54697.605
544.354;46533.762;  -10.127;53913.914
544.938;44127.922;   -9.267;49680.164
545.523;42216.148;   -6.506;47386.277
546.108;44253.637;   -9.787;49151.949
546.693;44736.508;  -11.587;51384.637
547.278;45238.910;  -10.986;51853.254
547.862;46002.473;   -8.206;51173.750
548.447;44129.918;  -10.067;51691.395
549.031;43798.633;   -9.637;52456.703
549.616;44186.723;   -9.926;52714.516
550.201;43183.883;   -6.347;52414.598
550.785;43819.984;   -7.917;52355.059
551.370;44832.309;  -10.867;54589.453
551.954;47677.430;   -9.047;58267.348
552.538;46842.020;   -7.827;59062.176
553.123;44485.000;  -10.287;58115.285
553.707;43402.102;  -12.178;56556.285
554.291;40814.492;   -8.717;56201.668
554.876;41771.652;   -7.457;55335.762
555.460;44245.844;  -10.387;54155.703
556.044;46223.105;   -9.618;53721.484
556.628;46825.918;  -11.567;53731.016
557.212;47606.133;   -8.097;54312.531
557.796;49542.965;  -11.077;53797.773
558.380;47200.688;  -11.108;56145.984
558.964;44893.008;   -9.057;57277.930
559.548;42501.539;   -6.977;56459.641
560.132;39423.777;  -11.457;54434.543
560.716;40956.035;  -11.378;54800.617
561.300;42944.613;   -9.577;57606.945
561.884;41696.953;   -7.127;58972.445
562.467;40379.492;   -7.118;57327.570
563.051;39008.438;  -13.358;54962.434
563.635;37202.492;  -10.178;52594.473
564.219;38751.836;   -7.837;50610.410
564.802;42174.973;  -11.398;49551.180
565.386;42841.219;  -12.788;48370.953
565.969;43954.203;   -9.077;48178.871
566.553;42859.332;   -6.207;49957.305
567.136;41200.285;   -8.568;50369.594
567.720;42080.973;  -11.868;49492.004
568.303;43034.910;   -8.268;50616.352
568.887;42613.109;   -8.698;50727.148
569.470;40592.297;   -6.808;51698.379
570.053;38609.793;  -13.188;52122.078
570.637;36090.801;  -12.037;52536.438
571.220;35833.895;   -8.577;51186.098
571.803;36004.051;   -8.498;51032.762
572.386;38274.742;  -10.498;49609.887
572.969;39225.852;   -9.388;48285.926
573.552;39762.328;   -8.338;47624.285
574.135;39124.230;   -8.518;45498.641
574.718;36101.313;  -13.628;41970.434
575.301;36106.398;  -10.893;41447.137
575.884;36111.484;   -8.158;40923.836
576.467;40030.949;  -10.328;45267.723
577.050;40222.715;  -13.058;48175.543
577.633;38999.805;   -9.458;47729.328
578.216;35663.523;   -8.928;47579.793
578.799;33191.918;   -9.358;47820.996
579.381;34239.293;  -11.388;48115.551
579.964;34333.008;  -11.718;47333.766
580.547;33205.254;   -8.588;46668.969
581.129;33808.750;   -8.859;44466.141
581.712;35292.414;  -10.729;44164.922
582.294;34858.945;  -11.118;46477.855
582.877;35657.867;   -5.218;48244.254
583.459;36111.496;   -8.679;47437.895
584.042;37359.395;  -10.709;46943.219
584.624;35698.086;  -11.669;46792.227
585.206;34492.305;   -8.218;46557.250
585.789;35567.160;  -10.569;45793.773
586.371;36081.551;  -11.859;43836.391
586.953;37095.539;  -10.719;42972.492
587.536;38489.691;   -7.198;42487.211
588.118;37508.469;   -8.720;42086.414
588.700;36422.203;  -10.439;43389.930
589.282;33718.039;   -9.198;43646.039
589.864;31623.732;   -9.199;43438.109
590.446;31680.344;  -11.319;43151.926
591.028;31295.785;  -11.159;42781.867
591.610;31534.660;  -11.779;42839.098
592.192;32791.785;   -7.668;42820.402
592.774;32121.943;  -11.949;40724.277
593.356;29985.004;  -12.129;39874.789
593.937;29946.230;  -10.669;39980.648
594.519;32483.734;   -6.509;42069.633
595.101;32486.621;  -10.849;42976.031
595.683;31330.523;  -11.679;44084.441
596.264;30297.645;   -9.049;43478.797
596.846;29779.350;   -8.849;43803.672
597.427;29827.406;   -9.570;42986.934
598.009;31804.080;  -12.620;42832.219
598.591;31776.131;  -10.039;42580.086
599.172;33635.047;  -10.369;43061.805
599.753;35866.289;   -9.140;41691.469
600.335;35288.285;  -11.430;40692.520
600.916;33042.703;   -9.939;39982.422
601.498;30339.221;   -8.479;40318.617
602.079;29960.887;  -10.920;40670.609
602.660;29459.047;  -11.480;41450.898
603.241;30020.641;  -11.699;41137.738
603.823;30393.063;   -9.579;38868.797
604.404;30178.027;  -10.620;38182.785
604.985;32869.734;  -10.450;38078.047
605.566;33610.211;   -9.129;38056.633
606.147;34489.477;   -7.510;37020.418
606.728;33294.367;  -10.660;37883.359
607.309;31527.127;  -11.740;38748.273
607.890;31518.584;   -9.759;38850.230
608.471;30146.857;   -8.250;37457.918
609.051;30294.047;   -9.240;36066.457
609.632;30076.061;  -12.120;35991.074
610.213;29758.523;   -9.110;37402.641
610.794;30969.746;   -8.030;38383.363
611.374;29847.900;   -8.110;40562.387
611.955;29852.379;  -13.560;38533.727
612.536;30901.900;  -11.400;36951.789
613.116;30229.021;   -8.070;37197.891
613.697;30642.391;  -10.830;38411.125
614.277;30306.682;  -11.641;38673.938
614.858;30022.660;  -13.310;37075.863
615.438;30002.455;   -7.460;35092.906
616.019;28235.715;   -7.601;33666.301
616.599;28936.637;  -12.020;34189.023
617.179;28841.408;  -11.780;36952.047
617.760;28036.381;   -8.570;39582.574
618.340;28391.273;  -11.471;38943.977
618.920;28644.244;  -11.170;37594.156
619.500;29552.592;  -11.071;37866.938
620.080;30023.666;   -7.750;37869.043
620.660;30257.094;  -12.711;36868.617
621.241;31181.934;  -10.211;36352.309
621.821;30877.051;  -10.961;35459.520
622.401;31224.666;   -7.720;35207.414
622.980;33169.359;   -8.981;35980.422
623.560;31582.732;   -9.331;37351.328
624.140;27312.586;   -9.850;34388.582
624.720;23364.137;   -7.451;32368.764
625.300;22981.973;   -9.070;32638.629
625.880;27222.066;  -12.601;34599.035
626.459;30528.605;  -11.751;36831.738
627.039;30617.158;   -9.281;38299.098
627.619;29751.563;   -8.801;38289.574
628.198;30124.707;  -12.071;37220.695
628.778;31120.725;   -9.461;37632.563
629.357;31864.297;   -8.491;38003.012
629.937;31373.227;   -9.721;38402.039
630.516;32001.471;   -9.951;37868.801
631.096;33111.395;  -11.731;35760.410
631.675;35275.875;   -8.572;35225.219
632.254;35125.813;  -11.282;35130.289
632.834;34142.219;  -13.322;35794.570
633.413;34983.043;  -10.301;35788.922
633.992;34677.891;   -8.582;34532.863
634.571;35300.895;   -8.352;33590.113
635.151;34485.723;  -11.912;34943.863
635.730;32429.377;  -10.511;35352.523
636.309;32462.025;   -7.731;35366.605
636.888;32429.053;   -9.952;36165.637
637.467;31372.527;  -11.672;37515.902
638.046;29641.934;   -8.901;39288.695
638.625;28894.984;   -7.912;38279.699
639.204;28399.840;  -10.022;37741.598
639.782;29757.498;  -12.252;38364.551
640.361;31824.957;  -10.041;36740.621
640.940;31756.109;  -11.161;34950.082
641.519;31154.719;   -9.701;34137.398
642.097;32157.824;  -11.271;35654.258
642.676;32349.006;   -8.651;35637.957
643.255;31378.295;   -8.711;36567.074
643.833;30827.146;   -9.581;37809.434
644.412;31370.584;  -13.711;37337.293
644.990;32808.598;  -11.811;37018.531
645.569;35815.637;   -9.411;36518.469
646.147;36445.531;  -10.291;36186.430
646.726;34478.734;  -12.401;36267.688
647.304;32940.008;  -10.411;36647.625
647.882;33529.223;   -9.651;39286.742
648.461;33474.617;   -9.631;39157.703
649.039;31191.064;  -11.881;35412.883
649.617;31016.580;   -9.661;34744.918
650.195;31482.383;   -9.301;35403.098
650.773;30744.389;  -10.511;35053.797
651.352;30598.195;  -11.521;33756.816
651.930;29351.717;  -12.211;31868.773
652.508;28302.119;   -9.171;33121.551
653.086;29882.449;   -9.371;33564.793
653.663;32165.688;  -13.161;34054.668
654.241;30895.498;  -13.031;35693.309
654.819;28966.266;   -9.371;36422.906
655.397;29575.438;  -10.511;38213.484
655.975;29912.367;  -10.371;39507.625
656.553;30766.367;  -10.051;39498.223
657.130;31148.498;  -10.061;40395.480
657.708;28072.535;   -9.561;39242.020
658.286;25423.820;  -11.511;38920.020
658.863;25961.871;  -10.261;40202.898
659.441;28779.082;   -7.531;39677.938
660.018;31245.742;   -9.501;40413.355
660.596;31804.346;  -13.301;39931.414
661.173;34511.953;  -11.211;39604.531
661.750;33749.895;   -9.951;39700.070
662.328;31123.330;   -9.390;39292.809
662.905;29723.260;  -11.330;38235.648
663.482;26906.729;   -9.050;36212.305
664.060;24543.408;   -8.240;35944.945
664.637;28505.133;  -10.050;35170.785
665.214;33273.691;  -11.760;34197.523
665.791;32222.850;  -10.530;34549.520
666.368;31765.164;   -9.690;35118.578
666.945;31989.471;   -9.320;36019.418
667.522;32770.535;  -11.860;36048.438
668.099;31932.797;  -10.770;36243.914
668.676;32234.285;   -6.260;35958.875
669.253;34482.551;   -7.000;37384.730
669.830;34732.250;  -10.190;36779.629
670.407;33442.547;   -9.550;35231.289
670.984;32821.832;   -9.260;35544.270
671.560;31301.262;   -9.280;35466.867
672.137;29600.641;  -11.810;34280.863
672.714;29579.863;  -11.490;34632.863
673.290;30347.656;   -7.740;35135.422
673.867;30943.504;  -10.660;36114.480
674.443;30261.857;  -12.230;36152.859
675.020;28717.857;  -10.450;35327.238
675.596;27190.701;   -9.260;35795.176
676.173;28032.340;  -10.780;35430.355
676.749;28887.219;  -13.690;33549.516
677.326;29995.076;  -11.980;32210.012
677.902;28099.828;   -8.630;32068.871
678.478;26271.639;  -10.730;32583.891
679.054;27854.133;  -10.520;32088.928
679.631;29410.646;  -11.920;30978.848
680.207;30820.268;   -7.490;33160.887
680.783;31844.025;   -9.860;35570.363
681.359;32433.848;  -13.380;36125.184
681.935;31515.787;  -12.480;35240.922
682.511;32040.096;   -7.900;34429.961
683.087;32280.785;   -7.710;34463.680
683.663;32631.525;  -11.480;34648.898
684.239;32407.980;  -14.090;34546.457
684.815;33379.570;   -7.560;35586.375
685.390;33604.680;   -9.910;35821.895
685.966;33434.066;  -11.159;35085.871
686.542;33717.633;  -11.169;34198.230
687.118;32015.936;   -5.959;32847.707
687.693;31988.779;  -10.329;32794.027
688.269;31215.766;  -12.059;33072.367
688.844;31745.582;  -10.909;33141.664
689.420;33077.598;   -8.019;33965.742
689.995;30209.201;   -8.399;34655.523
690.571;29562.082;  -10.949;33576.742
691.146;28857.006;   -9.619;32657.219
691.722;26716.619;   -8.999;32526.979
692.297;25798.303;  -11.589;33014.617
692.872;26510.305;  -11.739;34012.254
693.448;26728.424;  -11.059;34237.434
694.023;28494.484;  -10.139;34142.672
694.598;30639.254;   -9.029;34132.031
695.173;30336.498;  -13.319;34205.250
695.748;27670.850;  -10.169;32882.488
696.323;25391.703;   -8.339;32864.906
696.898;25164.121;   -8.169;33170.004
697.473;28393.707;  -12.309;32432.984
698.048;28380.982;  -10.989;31649.303
698.623;27403.881;   -9.329;30778.141
699.198;28820.555;   -9.849;31140.119
699.773;30080.133;  -12.329;31764.299
700.348;29916.441;  -10.389;31780.816
700.922;28186.348;   -9.269;32046.375
701.497;26707.873;   -9.329;32603.574
702.072;28460.227;  -10.789;34799.871
702.646;28221.768;  -10.839;35793.172
703.221;28646.498;   -9.099;35201.590
703.795;29310.752;  -10.939;34764.527
704.370;27877.277;  -12.859;34307.367
704.944;29102.672;  -11.559;33509.887
705.519;30288.500;   -7.939;31388.584
706.093;32318.715;  -10.499;31340.104
706.668;33416.180;  -11.289;32630.281
707.242;32272.975;  -11.509;32728.779
707.816;30928.742;   -9.639;32947.238
708.390;30762.604;  -11.429;33277.855
708.965;31870.607;  -11.869;33834.336
709.539;31861.725;  -11.689;33709.273
710.113;31122.287;  -10.478;33044.313
710.687;28253.779;  -10.228;31953.992
711.261;27313.857;  -13.698;30505.949
711.835;26931.156;  -13.378;30262.369
712.409;26556.412;   -9.698;31254.447
712.983;26313.844;  -11.898;32754.986
713.557;25553.957;  -15.138;34018.824
714.131;27000.137;  -14.098;34579.625
714.704;26852.248;   -9.958;33890.262
715.278;25873.094;  -10.028;33531.102
715.852;24837.457;  -11.148;33601.660
716.425;24375.486;   -9.068;33515.117
716.999;25946.094;  -10.038;33185.555
717.573;26717.037;   -9.798;33905.996
718.146;27842.090;  -12.378;35199.293
718.720;28367.275;  -11.918;35060.551
719.293;27342.539;   -8.088;34973.230
719.867;26408.119;  -10.888;36394.449
720.440;27381.408;  -11.938;36663.008
721.013;29279.611;  -12.818;35102.426
721.587;30735.965;  -10.298;33985.266
722.160;30407.750;  -10.048;33524.965
722.733;28324.191;  -12.108;32987.043
723.306;26250.695;  -10.818;33066.301
723.880;26933.326;   -8.908;33399.500
724.453;26119.916;   -9.878;33468.297
725.026;25990.572;  -11.188;33816.637
725.599;26191.395;  -11.678;32797.996
726.172;25631.055;   -9.618;33187.434
726.745;26310.592;   -8.258;35136.613
727.318;28977.156;  -12.978;35751.730
727.891;31184.180;  -12.148;35890.430
728.463;32725.648;   -8.968;34822.090
729.036;33003.887;  -10.188;32895.086
729.609;30557.016;  -11.788;31823.225
730.182;28899.420;  -11.788;31445.283
730.754;28075.439;  -10.268;32373.223
731.327;27541.949;   -9.998;33676.820
731.900;26551.691;  -12.228;33417.000
732.472;25717.797;  -13.848;31978.498
733.045;25606.840;   -8.698;30368.777
733.617;25004.711;  -10.607;30574.215
734.190;23535.061;  -11.507;31280.975
734.762;23859.061;  -13.647;31674.412
735.334;25281.461;   -9.767;31247.291
735.907;25476.986;   -9.897;29876.211
736.479;23344.148;  -11.637;29808.488
737.051;22860.627;   -9.567;30233.547
737.623;23960.670;   -8.187;31469.086
738.195;25964.723;  -11.187;31784.225
738.768;26207.939;  -12.337;32120.523
739.340;25331.895;  -12.227;32094.342
739.912;24724.836;  -11.057;31312.680
740.484;25616.756;  -10.207;31946.238
741.056;26709.713;  -10.047;32984.059
741.628;26375.023;  -13.627;33897.715
742.199;27118.484;   -7.177;33213.016
742.771;25691.965;  -10.797;31369.113
743.343;24189.246;  -11.997;31865.473
743.915;24267.275;  -12.867;32388.631
744.487;24929.279;   -7.617;31079.568
745.058;26264.908;   -9.557;30570.107
745.630;25950.557;   -9.877;29970.127
746.201;24545.492;  -14.177;29186.766
746.773;24202.928;   -9.237;28805.723
747.344;24423.873;   -9.847;29591.223
747.916;24391.094;  -11.657;31412.201
748.487;23946.098;  -10.587;32194.898
749.059;23914.492;   -8.707;32533.719
749.630;23135.330;  -10.537;32158.518
750.201;23445.195;  -11.687;30855.395
750.773;23421.277;  -11.647;28622.555
751.344;24679.650;   -7.147;28405.732
751.915;24698.057;   -9.757;28461.551
752.486;24389.480;  -12.427;27842.850
753.057;22868.150;  -12.227;27845.008
753.628;22243.770;  -10.417;27728.107
754.199;22249.189;  -11.767;27381.086
754.770;21691.459;  -11.187;25882.203
755.341;21341.021;  -10.507;25886.184
755.912;21711.193;   -9.387;26050.861
756.483;21993.387;  -10.647;26798.779
757.054;21608.094;  -11.837;27048.238
757.625;19897.330;  -12.716;26294.838
758.195;19231.152;   -9.666;26142.076
758.766;20243.732;   -8.656;26392.234
759.337;20061.955;  -12.856;26334.594
759.907;19270.027;  -13.366;27579.652
760.478;18381.041;   -8.576;28352.770
761.048;18966.615;  -10.526;27325.088
761.619;19608.949;  -11.116;26460.428
762.189;19177.473;  -12.136;26029.826
762.760;19065.688;   -9.456;26430.145
763.330;19400.803;   -7.136;26670.902
763.900;19614.146;  -11.786;26603.021
764.471;19047.049;  -11.546;25542.740
765.041;18791.820;   -8.096;24358.459
765.611;18815.074;   -8.876;23991.297
766.181;18788.291;  -12.196;24470.236
766.751;19465.031;  -11.636;24845.975
767.321;19558.258;  -10.156;24533.633
767.891;19324.176;  -11.766;24916.492
768.461;18931.922;  -14.936;24776.771
769.031;18012.709;  -12.356;24757.988
769.601;17750.156;   -7.526;24181.088
770.171;18117.328;  -10.766;23670.387
770.741;18684.365;  -13.176;22960.045
771.311;18399.527;  -10.616;22917.523
771.880;17196.289;   -9.576;23562.941
772.450;16630.547;  -10.336;24216.500
773.020;16894.781;  -13.516;24140.398
773.589;16791.344;  -13.466;24414.857
774.159;16137.788;   -8.686;23858.717
774.729;15447.546;   -9.476;22942.135
775.298;15390.288;  -13.666;22324.033
775.867;15368.310;  -11.716;21140.313
776.437;14860.166;   -9.906;20838.092
777.006;14737.791;  -12.166;20599.510
777.576;15994.494;  -12.356;20508.809
778.145;15286.616;  -11.646;20732.947
778.714;14000.223;   -8.226;21062.465
779.283;13618.239;   -9.556;20949.664
779.853;13509.150;  -14.116;20508.623
780.422;13731.248;  -11.506;20649.082
780.991;14097.196;   -9.556;21527.520
781.560;14680.681;   -9.095;22632.658
782.129;13586.947;  -12.135;23048.277
782.698;12307.777;  -10.865;23438.555
783.267;11667.234;   -9.335;23267.734
783.836;11962.933;  -11.045;22415.133
784.404;12665.712;  -13.865;20443.152
784.973;12885.899;  -13.095;19699.150
785.542;12793.399;  -11.575;19763.828
786.111;12641.898;   -9.705;20341.408
786.679;12487.887;  -12.105;20207.967
787.248;12121.177;  -12.455;19516.465
787.817;11846.647;  -11.535;18900.363
788.385;11704.929;   -9.765;17879.121
788.954;11588.567;  -14.005;17658.301
789.522;11385.962;  -11.955;17788.879
790.090;10468.093;  -10.135;18118.277
790.659; 9587.516;  -10.975;18338.736
791.227; 9608.875;  -13.375;18508.615
791.795; 9982.594;  -12.375;17898.254
792.364;10238.891;  -10.725;17295.133
792.932;10602.984;   -9.715;16822.051
793.500;10440.229;  -12.675;17040.148
794.068;10738.977;  -13.495;17179.787
794.636;10816.677;  -10.885;16664.246
795.204;10498.950;  -11.045;16524.545
795.772;10437.468;  -13.175;17274.564
796.340;10177.181;  -12.445;17891.002
796.908;10378.672;   -9.735;17648.561
797.476;10756.526;   -9.815;17064.080
798.044;10430.522;  -13.985;16672.777
798.612; 9967.355;  -13.115;17023.996
799.180; 9171.671;  -10.185;16561.615
799.747; 8804.561;   -9.055;15962.773
800.315; 9015.202;  -12.385;15296.992
800.883; 8496.230;  -15.035;14801.771
801.450; 7821.332;  -10.365;14534.430
802.018; 7517.406;   -9.855;14173.248
802.585; 7424.397;  -11.905;14029.547
803.153; 7581.134;  -11.585;13836.846
803.720; 7413.852;   -9.095;13567.324
804.287; 7365.127;   -9.135;13360.622
804.855; 7542.162;  -11.604;13681.981
805.422; 7890.434;  -11.794;13536.560
805.989; 8117.533;  -10.734;13355.958
806.556; 8087.037;  -10.444;13747.896
807.124; 8411.563;  -12.764;13987.376
807.691; 8888.087;  -12.964;14038.674
808.258; 8934.545;  -11.134;14120.152
808.825; 8935.099;   -9.854;13860.111
809.392; 8592.463;  -10.504;13268.790
809.959; 7929.816;  -13.054;12680.389
810.526; 7239.849;   -8.294;12427.308
811.093; 6592.493;   -8.394;12030.105
811.659; 6423.186;  -12.304;11653.664
812.226; 6620.526;  -13.944;11637.183
812.793; 6981.087;  -10.484;11611.521
813.360; 7105.985;  -10.144;11885.181
813.926; 7131.717;  -11.684;12770.539
814.493; 7066.306;  -13.644;12677.638
815.060; 6945.217;   -9.724;11974.336
815.626; 7104.063;   -9.854;11594.715
816.193; 7173.961;  -13.254;11579.474
816.759; 6602.910;  -13.204;11666.972
817.325; 6182.913;   -9.434;11325.530
817.892; 6042.626;  -10.134;11105.369
818.458; 6185.222;  -13.474;10843.928
819.024; 6654.512;  -11.854;10714.406
819.591; 6792.001;  -10.244;10469.165
820.157; 6617.937;  -10.704;10235.523
820.723; 6626.944;  -12.324;10847.563
821.289; 6561.733;   -9.444;11040.980
821.855; 6594.879;   -8.374;10357.100
822.421; 6892.810;  -10.234; 9978.918
822.987; 6883.159;  -13.294; 9754.177
823.553; 6598.935;  -10.884;10065.755
824.119; 6335.203;   -8.884;10036.294
824.685; 5832.819;   -6.784;10029.192
825.251; 5718.500;  -12.004;10199.230
825.816; 5430.826;  -11.474; 9820.189
826.382; 5223.052;   -9.174; 9297.248
826.948; 5533.893;   -9.214; 9381.347
827.513; 5969.268;  -10.774; 9450.726
828.079; 6072.005;  -11.924; 9472.444
828.645; 5885.954;  -10.543; 9292.643
829.210; 5744.515;  -10.533; 9065.341
829.776; 5624.287;  -10.753; 9132.620
830.341; 5764.061;  -10.173; 9092.878
830.906; 5805.014;  -10.743; 9078.557
831.472; 5575.665;  -11.113; 8534.535
832.037; 5218.244;  -10.603; 8677.874
832.602; 5104.927;  -13.323; 8628.692
833.167; 4899.646;  -10.823; 8879.031
833.733; 4773.528;  -10.113; 9189.790
834.298; 4650.132;  -13.583; 9052.608
834.863; 4826.634;  -12.703; 8895.087
835.428; 5044.074;  -10.523; 8824.266
835.993; 4983.221;   -6.963; 8845.385
836.558; 4940.317;  -10.763; 8888.563
837.123; 5081.220;   -9.903; 8966.582
837.688; 5474.486;   -9.913; 8617.860
838.253; 5522.382;  -10.283; 8590.699
838.817; 5129.803;  -12.963; 8443.797
839.382; 5002.952;  -14.243; 8799.356
839.947; 5167.069;  -10.733; 8810.595
840.511; 5200.743;   -9.383; 8796.394
841.076; 5046.857;  -12.563; 8347.231
841.641; 4881.225;  -12.953; 8224.330
842.205; 4742.887;   -7.043; 8223.349
842.770; 4528.099;   -8.163; 8622.107
843.334; 4676.631;  -12.503; 8410.386
843.898; 4786.741;  -11.693; 8337.465
844.463; 4326.465;  -10.203; 8506.283
845.027; 4015.489;   -9.533; 8280.962
845.591; 4049.482;  -13.443; 8231.141
846.156; 4113.097;  -13.143; 7969.179
846.720; 3922.953;   -9.433; 7768.278
847.284; 3817.808;  -11.033; 7630.957
847.848; 3816.664;  -10.403; 7472.395
848.412; 3670.372;  -11.553; 7437.394
848.976; 3596.698;   -8.393; 7674.592
849.540; 3572.674;   -8.713; 7836.011
850.104; 3545.250;  -12.463; 7913.669
850.668; 3594.058;  -12.973; 7694.508
851.232; 3541.657;  -10.793; 7756.887
851.796; 3558.381;  -10.662; 7926.545
852.359; 3664.776;  -13.082; 7827.844
852.923; 3628.351;  -12.192; 7641.163
853.487; 3607.523;  -11.912; 7342.501
854.050; 3450.041;  -10.892; 7042.820
854.614; 3487.925;  -13.992; 7151.338
855.177; 3554.532;  -11.732; 7105.077
855.741; 3428.909;   -8.962; 6989.675
856.304; 3293.701;   -9.442; 6596.634
856.868; 3163.354;  -14.192; 6356.272
857.431; 3105.378;  -12.702; 6468.571
857.995; 3102.532;   -9.942; 6373.210
858.558; 3171.377;   -9.112; 6324.448
859.121; 3086.411;  -12.932; 6408.327
859.684; 2979.226;  -13.442; 6347.886
860.247; 2938.538;  -10.632; 6321.264
860.810; 2883.006;  -11.272; 6301.903
861.374; 2789.376;   -9.832; 6607.881
861.937; 2691.183;  -11.762; 6408.200
862.500; 2689.683;   -9.722; 6572.639
863.062; 2688.782;  -10.512; 6387.297
863.625; 2687.971;  -11.232; 6190.836
864.188; 2729.077;  -14.112; 5807.254
864.751; 2755.125;  -11.302; 5682.413
865.314; 2646.966;  -10.112; 5547.492
865.876; 2470.682;  -12.182; 5500.150
866.439; 2309.890;  -10.722; 5415.909
867.002; 2219.686;   -9.252; 5501.567
867.564; 2274.255;   -9.572; 5413.946
868.127; 2317.322;  -13.142; 5160.325
868.689; 2423.637;  -12.902; 5133.183
869.252; 2553.953;   -9.732; 5252.382
869.814; 2491.489;   -9.432; 5297.141
870.377; 2392.149;  -11.552; 5390.919
870.939; 2383.792;   -9.052; 5599.898
871.501; 2336.279;  -10.982; 5248.336
872.063; 2244.088;  -12.292; 4854.235
872.626; 2184.500;  -14.912; 4817.074
873.188; 2085.795;  -13.112; 4987.732
873.750; 2051.174;  -13.442; 4868.651
874.312; 2008.475;   -9.402; 4779.330
874.874; 1965.148;  -11.062; 4866.348
875.436; 1877.013;  -13.931; 4718.887
875.998; 1821.576;   -9.561; 4660.005
876.560; 1921.511;  -11.321; 4462.964
877.122; 2116.758;  -12.221; 4145.042
877.683; 2277.587;  -12.191; 4056.481
878.245; 2135.620;  -12.101; 3950.740
878.807; 1814.910;   -8.971; 4058.958
879.369; 1385.693;  -12.071; 3954.677
879.930; 1056.443;  -14.621; 3941.495
880.492;  969.003;  -10.311; 4067.014
881.053; 1044.648;  -10.901; 3859.633
881.615; 1128.648;  -14.411; 3776.071
882.176; 1150.820;  -13.761; 3734.750
882.738; 1148.867;   -9.181; 3678.489
883.299; 1192.131;  -11.791; 3405.407
883.860; 1249.118;  -13.121; 3351.106
884.422; 1239.091;  -11.211; 3394.044
884.983; 1189.413;  -10.091; 3166.443
885.544; 1166.213;   -8.461; 3189.802
886.105; 1122.520;  -12.361; 3160.360
886.666; 1079.372;  -14.141; 3093.059
887.227; 1060.366;  -11.361; 2941.957
887.788; 1015.477;  -11.401; 2974.836
888.349;  927.490;  -13.791; 2721.214
888.910;  893.068;  -13.191; 2696.493
889.471;  860.408;   -9.881; 2560.172
890.032;  872.719;   -9.881; 2558.190
890.593;  873.075;  -10.371; 2567.669
891.153;  793.665;  -13.301; 2460.307
891.714;  690.456;  -11.431; 2372.046
892.275;  648.289;  -11.291; 2309.505
892.835;  659.280;  -11.471; 2382.543
893.396;  651.291;  -11.541; 2295.502
893.956;  625.427;  -11.181; 2162.420
894.517;  588.117;  -11.741; 2125.439
895.077;  537.440;  -11.671; 2086.978
895.638;  498.606;  -11.311; 2126.316
896.198;  487.318;   -9.831; 1838.275
896.758;  473.081;   -8.421; 1892.813
897.319;  450.709;  -12.351; 1792.232
897.879;  432.201;  -13.511; 1762.751
898.439;  402.154;  -12.001; 1661.149
898.999;  381.902;  -10.180; 1781.468
899.559;  375.809;  -12.030; 1703.347
900.119;  368.553;  -15.710; 1537.525
900.679;  354.322;   -8.900; 1638.384
901.239;  334.135;   -8.340; 1527.902
901.799;  305.963;  -13.910; 1456.441
902.359;  283.589;  -13.460; 1357.140
902.919;  275.548;  -11.490; 1331.118
903.479;  276.591;  -12.110; 1317.257
904.038;  270.519;  -11.720; 1262.595
904.598;  261.499;  -13.610; 1152.034
905.158;  251.638;  -11.040; 1240.893
905.717;  235.252;  -10.900; 1233.691
906.277;  226.410;  -15.080; 1217.330
906.836;  223.992;  -13.380; 1222.408
907.396;  220.170;  -10.780; 1193.047
907.955;  213.829;   -8.500; 1182.526
908.515;  208.054;  -12.760; 1099.364
909.074;  207.966;  -11.900; 1092.863
909.633;  208.123;   -8.950; 1069.121
910.192;  206.499;   -8.770; 1196.460
910.752;  194.742;  -12.390; 1029.960
911.311;  184.879;  -13.680; 1009.780
911.870;  175.377;  -12.370;  971.460
912.429;  170.477;  -10.900; 1094.080
912.988;  168.320;  -11.690; 1081.060
913.547;  164.962;  -13.240;  940.380
914.106;  161.358;  -11.990;  999.420
914.665;  158.502;   -9.990;  984.020
915.224;  154.265;  -12.880; 1035.760
915.782;  149.827;  -12.350;  922.560
916.341;  149.868;   -9.110; 1049.840
916.900;  149.162;   -9.270;  925.260
917.458;  148.223;  -13.240;  884.220
918.017;  146.605;  -13.550;  942.600
918.576;  145.369;  -12.320;  904.440
919.134;  144.198;  -11.490;  837.980
919.693;  142.657;  -13.670;  893.060
920.251;  142.667;  -15.470;  876.500
920.809;  142.331;  -11.290;  839.580
921.368;  142.824;  -10.210;  885.360
921.926;  140.181;  -12.140;  842.940
922.484;  137.057;  -13.080;  903.360
923.042;  137.097;  -11.720;  880.340
923.601;  137.061;   -7.480;  998.680
924.159;  135.100;  -11.570;  935.560
924.717;  132.701;  -13.840;  841.080
925.275;  133.495;  -10.640;  903.240
925.833;  132.121;  -11.540;  779.320
926.391;  133.741;  -12.960;  938.380
926.949;  133.248;  -14.130;  857.680
927.506;  132.779;  -11.750;  903.500
928.064;  132.531;  -10.250;  877.580
928.622;  133.862;  -13.030;  880.100
929.180;  135.237;  -13.400;  814.180
929.737;  137.396;  -10.700;  808.540
930.295;  139.531;  -10.070;  928.480
930.853;  139.289;  -11.960;  849.100
931.410;  140.207;  -13.120;  821.120
931.968;  141.436;  -10.770;  940.660
932.525;  142.484;  -10.680;  909.380
933.082;  142.019;  -13.130;  811.440
933.640;  142.371;  -13.210;  925.900
934.197;  141.362;  -11.060;  886.360
934.754;  142.972;   -9.580;  897.780
935.312;  143.999;  -14.000;  863.340
935.869;  144.416;  -10.710; 1012.980
936.426;  143.055;   -9.860;  872.800
936.983;  144.160;   -9.710;  889.020
937.540;  145.036;  -13.990;  838.280
938.097;  148.873;  -14.040;  940.120
938.654;  152.192;  -10.310;  898.860
939.211;  153.019;  -10.560;  952.480
939.768;  153.314;  -13.900;  915.420
940.324;  155.194;  -14.760;  904.200
940.881;  159.028;  -10.370;  878.500
941.438;  163.576;   -8.260; 1021.200
941.995;  161.925;  -12.540;  992.560
942.551;  161.473;  -14.670;  875.620
943.108;  162.802;  -10.450;  937.920
943.664;  163.157;  -10.750;  869.340
944.221;  167.951;  -11.550; 1088.140
944.777;  166.571;  -14.770;  869.680
945.334;  164.802;  -12.820;  884.840
945.890;  160.423;  -10.130;  946.480
946.446;  157.340;  -13.470;  947.020
947.003;  159.033;  -12.120;  964.940
947.559;  159.130;   -9.980; 1063.040
948.115;  154.666;   -9.080; 1026.540
948.671;  152.819;  -10.830;  967.300
949.227;  151.757;  -12.440;  859.560
949.783;  152.124;  -12.910;  858.900
950.339;  156.290;  -10.270;  991.000
950.895;  158.046;  -13.630; 1023.840
951.451;  156.027;  -15.100;  925.280
952.007;  154.581;  -11.330;  998.540
952.563;  151.650;  -10.580;  937.780
953.118;  149.193;  -13.440;  904.940
953.674;  148.410;  -12.710;  935.780
954.230;  150.765;  -10.350;  949.640
954.785;  153.961;   -9.190;  936.640
955.341;  155.688;  -11.200;  998.160
955.897;  149.832;  -16.560;  834.660
956.452;  147.300;  -12.570;  953.840
957.008;  146.173;   -7.970; 1083.640
957.563;  141.745;  -11.940; 1009.540
958.118;  137.938;  -13.450;  877.700
958.674;  135.807;  -12.030;  946.780
959.229;  137.707;   -9.410; 1013.980
959.784;  137.049;  -12.000;  832.400
960.339;  137.672;  -14.780; 1001.280
960.894;  134.914;   -9.860;  963.760
961.449;  132.219;   -9.970;  859.960
962.004;  133.280;  -10.900; 1212.840
962.559;  129.489;  -13.150;  860.140
963.114;  128.049;  -13.740;  742.480
963.669;  127.955;   -9.820;  915.500
964.224;  124.769;  -13.890;  874.340
964.779;  124.688;  -12.600;  828.420
965.334;  126.994;  -10.950; 1017.860
965.888;  125.223;  -11.170;  875.360
966.443;  125.649;  -12.540;  972.380
966.998;  122.856;  -15.780;  819.460
967.552;  121.522;   -9.760;  908.380
968.107;  118.499;   -9.060;  868.300
968.661;  119.217;  -11.950;  922.440
969.216;  117.151;  -12.800;  856.280
969.770;  114.293;  -11.210;  917.200
970.324;  114.242;  -11.610;  923.140
970.879;  115.266;  -11.370;  947.180
971.433;  116.050;  -12.540;  952.720
971.987;  115.329;  -11.320;  895.340
972.541;  113.547;  -10.720;  917.100
973.095;  113.445;   -9.680; 1009.460
973.649;  109.246;  -11.440;  809.480
974.203;  107.454;  -11.210;  829.040
974.757;  106.673;  -10.240;  855.220
975.311;  106.756;  -13.720;  872.600
975.865;  106.073;  -13.770;  881.820
976.419;  103.276;  -11.690;  857.400
976.973;  101.535;   -9.510;  849.620
977.526;  100.511;  -12.620;  949.920
978.080;   97.384;  -12.010;  796.780
978.634;   97.267;  -10.170;  921.320
979.187;   96.916;   -9.020;  905.400
979.741;   98.571;   -9.820; 1018.380
980.294;   96.122;  -14.870;  789.160
980.848;   95.251;  -12.380;  717.220
981.401;   95.865;  -10.350;  816.540
981.955;   93.782;  -13.720;  844.300
982.508;   89.453;  -11.490;  746.340
983.061;   89.659;  -10.000;  915.260
983.615;   87.851;  -11.480;  798.800
984.168;   86.219;  -13.220;  770.080
984.721;   84.799;  -13.960;  880.760
985.274;   83.505;  -10.870;  867.500
985.827;   82.073;   -9.790;  834.220
986.380;   79.033;  -13.120;  721.340
986.933;   78.700;  -12.450;  864.800
987.486;   78.162;  -10.210;  861.920
988.039;   78.295;   -8.430;  863.100
988.591;   77.629;  -10.520;  893.260
989.144;   75.067;  -14.860;  737.260
989.697;   73.434;  -13.080;  758.740
990.250;   72.774;  -10.150;  858.100
990.802;   71.052;  -13.430;  755.860
991.355;   70.929;  -12.750;  974.880
991.907;   69.028;  -12.040;  864.320
992.460;   67.127;  -11.330;  753.760
993.012;   66.135;  -13.610;  749.540
993.565;   64.250;  -13.460;  711.360
994.117;   65.256;   -9.360;  950.780
994.669;   62.774;  -11.300;  701.320
995.221;   61.444;  -13.540;  791.920
995.774;   60.873;  -13.430;  787.580
996.326;   58.698;  -12.520;  740.220
996.878;   58.642;  -10.950;  838.420
997.430;   56.584;  -14.300;  699.860
997.982;   55.046;  -13.760;  750.140
998.534;   53.998;  -11.530;  739.060
999.086;   54.203;  -10.310;  738.220
999.638;   53.109;  -12.530;  661.380
1000.190;   52.064;  -11.840;  699.320
1000.741;   51.719;  -10.260;  742.700
1001.293;   51.099;   -8.860;  686.020
1001.845;   50.157;  -13.700;  676.640
1002.396;   49.697;  -12.100;  743.400
1002.948;   48.687;  -12.760;  737.400
1003.500;   47.159;  -10.380;  723.780
1004.051;   47.639;  -11.900;  907.580
1004.603;   46.623;  -12.250;  791.820
1005.154;   43.178;  -13.210;  608.980
1005.705;   42.707;  -10.950;  723.960
1006.257;   41.891;  -13.880;  707.220
1006.808;   41.293;  -12.840;  685.460
1007.359;   40.756;  -10.570;  763.240
1007.910;   40.167;   -9.620;  646.640
1008.461;   39.742;  -13.630;  732.940
1009.013;   38.682;  -17.200;  588.340
1009.564;   40.159;  -10.200;  793.520
1010.115;   38.194;  -12.570;  597.040
1010.665;   38.026;  -15.150;  602.160
1011.216;   37.653;  -14.480;  667.920
1011.767;   37.045;  -11.340;  697.920
1012.318;   37.832;   -9.780;  736.980
1012.869;   37.384;  -12.380;  679.000
1013.419;   35.662;  -15.560;  603.120
1013.970;   36.411;  -11.010;  666.640
1014.521;   35.364;  -11.610;  620.620
1015.071;   35.274;  -13.450;  670.380
1015.622;   34.626;  -13.870;  635.460
1016.172;   34.346;  -11.610;  596.820
1016.723;   34.578;  -12.120;  614.380
1017.273;   33.739;  -13.620;  604.160
1017.823;   33.664;  -14.140;  650.340
1018.374;   33.236;  -12.800;  611.760
1018.924;   34.055;  -12.340;  716.880
1019.474;   34.133;  -11.410;  718.880
1020.024;   32.478;  -14.770;  657.580
1020.574;   33.031;   -9.780;  726.160
1021.124;   33.174;   -8.560;  673.580
1021.674;   32.338;  -15.190;  559.120
1022.224;   33.296;  -13.530;  708.940
1022.774;   31.980;  -13.280;  668.820
1023.324;   32.634;  -10.690;  753.520
1023.874;   33.977;  -10.240;  875.760
1024.423;   31.478;  -12.540;  613.700
1024.973;   30.987;  -10.010;  610.760
1025.523;   30.409;  -10.550;  620.960
1026.072;   30.033;  -13.560;  606.420
1026.622;   29.928;  -15.120;  675.740
1027.172;   31.708;  -11.260;  715.660
1027.721;   29.661;  -11.410;  601.220
1028.270;   30.718;  -13.530;  663.400
1028.820;   30.060;  -13.680;  638.080
1029.369;   29.133;  -13.520;  612.700
1029.918;   28.596;  -10.980;  649.840
1030.468;   29.516;  -13.530;  564.780
1031.017;   29.072;  -13.170;  634.800
1031.566;   27.885;  -12.200;  608.900
1032.115;   28.798;   -9.960;  694.500
1032.664;   28.068;  -13.210;  596.480
1033.213;   28.625;  -12.500;  735.420
1033.762;   27.528;  -11.910;  635.620
1034.311;   27.625;   -9.640;  677.220
1034.860;   28.144;  -13.310;  691.000
1035.408;   27.392;  -11.830;  722.720
1035.957;   27.315;  -12.000;  719.540
1036.506;   25.406;  -11.690;  530.800
1037.055;   28.009;  -10.990;  844.320
1037.603;   25.916;  -15.120;  664.000
1038.152;   25.721;  -12.450;  534.760
1038.700;   25.841;  -10.560;  585.740
1039.249;   26.069;  -11.080;  681.220
1039.797;   26.224;  -12.540;  633.360
1040.345;   25.466;  -11.920;  705.420
1040.894;   26.160;  -11.410;  625.300
1041.442;   25.384;  -14.320;  632.200
1041.990;   24.604;  -16.240;  559.160
1042.538;   24.580;  -11.680;  536.180
1043.087;   25.075;  -10.760;  570.860
1043.635;   25.465;  -11.850;  670.500
1044.183;   24.156;  -15.480;  586.400
1044.731;   23.714;  -11.770;  576.000
1045.279;   24.388;  -13.090;  674.920
1045.827;   26.330;  -12.440;  892.400
1046.374;   23.099;  -13.840;  515.420
1046.922;   21.961;  -13.220;  590.580
1047.470;   24.586;  -10.230;  691.300
1048.018;   23.730;  -14.590;  647.960
1048.565;   23.714;  -12.050;  708.600
1049.113;   22.235;  -11.650;  557.000
1049.660;   22.033;  -10.510;  629.660
1050.208;   22.579;  -13.310;  675.640
1050.755;   21.564;  -15.900;  606.580
1051.303;   22.553;  -11.430;  686.820
1051.850;   22.087;   -8.480;  635.120
1052.397;   19.769;  -15.010;  473.960
1052.945;   21.679;  -13.960;  617.760
1053.492;   22.678;  -13.150;  741.840
1054.039;   22.664;   -9.630;  720.180
1054.586;   20.772;  -13.680;  557.240
1055.133;   21.415;  -14.570;  693.140
1055.680;   21.895;  -13.820;  646.620
1056.227;   20.118;  -11.730;  542.780
1056.774;   22.003;  -12.480;  794.980
1057.321;   20.167;  -13.930;  523.260
1057.868;   20.430;  -11.690;  651.320
1058.415;   19.933;   -9.520;  651.980
1058.961;   21.053;  -13.160;  678.940
1059.508;   19.480;  -12.920;  643.820
1060.055;   19.847;  -11.920;  581.780
1060.601;   20.031;  -11.500;  624.300
1061.148;   19.855;  -14.330;  616.820
1061.694;   19.253;  -16.870;  592.580
1062.241;   18.523;  -10.330;  596.320
1062.787;   19.265;  -10.620;  663.140
1063.334;   20.998;  -10.110;  808.560
1063.880;   19.576;  -13.400;  668.360
1064.426;   19.005;  -10.680;  706.820
1064.972;   18.196;   -9.920;  601.340
1065.518;   17.747;  -10.980;  566.640
1066.065;   17.855;  -14.890;  624.460
1066.611;   17.071;  -12.870;  598.800
1067.157;   18.731;  -12.950;  641.860
1067.703;   18.133;  -13.540;  668.480
1068.249;   17.834;  -13.540;  605.220
1068.794;   17.698;  -12.600;  626.880
1069.340;   16.880;  -10.620;  578.960
1069.886;   17.784;  -12.830;  590.700
1070.432;   16.256;  -14.870;  541.720
1070.977;   17.026;  -11.980;  601.080
1071.523;   17.040;   -8.200;  573.060
1072.068;   16.894;  -12.330;  582.000
1072.614;   16.136;  -16.370;  527.760
1073.160;   17.249;  -11.100;  687.040
1073.705;   15.652;  -10.480;  572.520
1074.250;   15.976;  -14.520;  559.900
1074.796;   16.346;  -11.460;  655.160
1075.341;   16.559;  -11.950;  664.100
1075.886;   16.241;  -11.460;  594.240
1076.431;   15.250;  -13.770;  649.880
1076.976;   14.992;  -12.680;  639.220
1077.521;   14.659;  -13.170;  583.080
1078.067;   14.602;  -10.860;  579.400
1078.612;   15.595;  -13.920;  661.620
1079.156;   14.918;  -13.880;  601.540
1079.701;   15.470;  -13.120;  693.260
1080.246;   15.471;   -9.940;  696.300
1080.791;   14.895;  -14.740;  625.020
1081.336;   14.851;  -13.750;  659.320
1081.880;   14.230;  -13.400;  649.680
1082.425;   14.116;  -12.220;  573.480
1082.970;   14.902;  -11.610;  717.040
1083.514;   14.226;  -13.580;  597.000
1084.059;   13.242;  -12.810;  586.720
1084.603;   13.980;  -12.320;  565.840
1085.147;   13.633;  -13.190;  645.220
1085.692;   14.258;  -12.480;  716.800
1086.236;   12.696;  -13.020;  503.140
1086.780;   14.685;   -9.190;  751.440
1087.325;   13.741;  -12.480;  654.620
1087.869;   13.101;  -12.450;  610.700
1088.413;   13.772;  -12.240;  705.040
1088.957;   12.041;   -9.020;  543.400
1089.501;   14.114;  -10.320;  766.640
1090.045;   12.974;  -12.720;  726.480
1090.589;   11.013;  -13.690;  569.920
1091.133;   12.709;  -10.020;  673.340
1091.676;   12.714;  -12.330;  591.940
1092.220;   12.014;  -14.970;  600.920
1092.764;   13.449;  -12.430;  706.960
1093.307;   11.943;   -9.800;  673.780
1093.851;   11.525;  -14.970;  556.540
1094.395;   11.573;  -15.310;  683.140
1094.938;   11.001;  -10.370;  632.520
1095.482;   11.376;  -11.050;  559.800
1096.025;   12.404;  -11.840;  710.880
1096.568;   12.420;  -12.840;  779.280
1097.112;    9.799;  -14.700;  508.180
1097.655;   12.158;   -8.720;  603.000
1098.198;    9.950;  -13.610;  600.180
1098.741;    9.860;  -13.350;  612.860
1099.285;   11.037;  -11.230;  657.300
1099.828;    9.241;  -11.840;  439.400
1100.371;   10.413;  -10.840;  608.160
1100.914;   10.300;  -14.190;  682.660
1101.457;    9.839;  -11.240;  679.900
1101.999;    9.238;  -11.270;  584.680
1102.542;   10.196;  -11.480;  641.440
1103.085;    9.633;  -11.750;  658.500
1103.628;   10.190;  -11.400;  762.060
1104.170;    8.885;  -10.490;  588.280
1104.713;    9.212;  -10.600;  646.700
1105.256;    8.879;  -14.360;  557.440
1105.798;    8.121;  -13.210;  499.980
1106.341;   10.546;  -10.270;  728.900
1106.883;    8.848;  -12.200;  521.340
1107.425;    9.105;  -13.110;  668.180
1107.968;    9.119;  -12.840;  612.380
1108.510;    9.207;   -6.480;  684.960
1109.052;    7.625;  -13.940;  612.620
1109.594;    7.948;  -13.690;  554.440
1110.136;    9.086;  -11.880;  643.220
1110.679;    8.205;   -9.500;  633.080
1111.221;    8.887;  -14.160;  604.460
1111.763;    7.195;  -13.980;  559.220
1112.304;    7.117;  -13.880;  547.140
1112.846;    8.671;  -12.210;  666.240
1113.388;   10.564;  -11.390;  942.180
1113.930;    7.255;  -14.540;  694.200
1114.472;    6.874;  -12.640;  606.540
1115.013;    6.486;  -11.620;  551.280
1115.555;    7.292;  -13.640;  587.100
1116.097;    5.669;  -15.380;  579.480
1116.638;    7.381;  -12.640;  684.600
1117.180;    7.701;   -9.850;  667.740
1117.721;    7.170;  -13.690;  568.580
1118.262;    7.720;  -12.680;  677.960
1118.804;    7.257;  -12.530;  637.340
1119.345;    6.532;  -11.690;  578.400
1119.886;    7.021;  -13.380;  704.040
1120.427;    5.857;  -14.070;  589.020
1120.969;    5.360;  -13.500;  597.920
1121.510;    5.687;  -11.480;  563.060
1122.051;    6.699;  -12.830;  723.580
1122.592;    5.466;  -14.290;  655.420
1123.133;    4.287;  -12.400;  547.940
1123.673;    6.177;  -10.130;  706.480
1124.214;    5.790;  -12.930;  612.460
1124.755;    6.050;  -14.380;  639.460
1125.296;    5.433;  -14.000;  627.320
1125.836;    6.342;  -10.070;  691.500
1126.377;    4.853;  -12.640;  599.660
1126.918;    5.088;  -12.960;  614.980
1127.458;    4.531;  -13.350;  622.220
1127.999;    5.553;  -10.750;  656.980
1128.539;    5.831;  -12.350;  694.240
1129.079;    5.123;  -14.860;  632.720
1129.620;    3.925;  -13.840;  558.100
1130.160;    4.489;  -12.330;  539.480
1130.700;    4.724;  -14.530;  640.840
1131.240;    4.596;  -12.530;  643.700
1131.781;    4.593;  -14.450;  619.680
1132.321;    4.152;   -9.790;  599.120
1132.861;    3.934;  -14.860;  564.200
1133.401;    3.364;  -14.290;  593.940
1133.941;    3.624;  -11.750;  626.280
1134.481;    3.396;   -9.920;  597.580
1135.020;    3.608;  -12.290;  609.160
1135.560;    4.176;  -11.650;  674.940
1136.100;    3.016;  -16.270;  501.160
1136.640;    2.959;  -10.890;  510.480
1137.179;    2.812;  -14.180;  537.960
1137.719;    3.300;  -16.250;  605.400
1138.258;    3.073;  -14.230;  587.360
1138.798;    4.039;   -9.090;  663.780
1139.337;    2.485;  -15.130;  482.840
1139.877;    3.172;  -13.680;  642.360
1140.416;    4.899;  -11.320;  878.060
1140.955;    2.860;  -10.860;  535.380
1141.494;    2.948;  -12.920;  669.280
1142.034;    2.634;  -13.930;  583.520
1142.573;    4.211;  -11.440;  646.280
1143.112;    1.981;  -12.000;  553.480
1143.651;    2.362;  -13.670;  536.480
1144.190;    3.458;  -12.730;  691.640
1144.729;    2.800;  -14.560;  607.420
1145.267;    2.415;  -11.830;  584.900
1145.806;    3.080;  -12.230;  637.040
1146.345;    2.016;  -14.130;  635.020
1146.884;    1.584;  -11.590;  622.500
1147.422;    1.476;  -12.550;  533.060
1147.961;    2.680;  -11.180;  708.460
1148.500;    2.091;  -11.510;  669.720
1149.038;    1.890;  -11.640;  632.500
1149.577;    2.450;  -10.130;  698.640
1150.115;    0.720;  -13.970;  452.280
1150.653;    0.997;  -14.520;  607.340
1151.192;    1.371;  -12.810;  552.920
1151.730;    1.239;   -9.100;  652.560
1152.268;    1.298;  -12.220;  589.520
1152.806;    0.585;  -14.140;  571.180
1153.344;    0.138;  -12.350;  577.640
1153.882;    0.933;   -8.980;  600.060
1154.421;    0.193;  -15.190;  470.620
1154.958;   -0.103;  -15.210;  595.240
1155.496;    1.772;  -12.850;  645.280
1156.034;    1.847;   -9.940;  721.880
1156.572;    1.821;  -13.570;  667.060
1157.110;   -0.721;  -14.590;  473.940
1157.647;    0.364;  -13.030;  676.960
1158.185;    0.102;  -12.140;  564.320
1158.723;   -0.537;  -14.390;  509.200
1159.260;    0.014;  -14.090;  701.700
1159.798;    0.672;  -11.920;  658.160
1160.335;   -0.005;  -11.110;  631.820

