
Integration time [ms]:   3.276
Averaging Nr. [scans]: 1000
Smoothing Nr. [pixels]: 0
Data measured with spectrometer [name]: 7414430SP
Wave   ;Sample   ;Dark     ;Reference
[nm]   ;[counts] ;[counts] ;[counts] 

288.544;  150.325;    7.793;  793.890
289.143;  153.874;    7.462;  681.602
289.742;  154.747;    8.602;  828.814
290.341;  140.097;    1.321;  789.841
290.940;  129.242;   -0.709;  730.702
291.538;  129.795;    0.881;  881.108
292.137;  130.963;    0.122;  792.581
292.736;  135.722;   -1.929;  975.101
293.335;  131.493;   -8.229;  735.086
293.934;  131.859;   -5.279;  781.677
294.532;  130.781;   -1.369; 1031.958
295.131;  116.644;   -7.641;  834.394
295.730;  115.689;   -8.420;  809.588
296.328;  115.411;   -5.611;  783.442
296.927;  116.357;   -5.781;  779.652
297.525;  117.742;   -6.361;  781.236
298.124;  107.957;  -11.382;  654.009
298.722;  110.984;   -7.641;  761.933
299.321;  109.747;   -6.811;  708.597
299.919;  107.545;   -6.991;  751.918
300.518;  104.216;  -10.362;  689.338
301.116;  105.602;   -9.581;  691.381
301.715;  105.775;   -4.891;  730.222
302.313;  105.339;   -8.801;  704.943
302.911;  100.258;   -8.522;  733.830
303.509;  104.618;   -6.171;  925.627
304.108;  103.484;   -7.311;  760.383
304.706;  102.817;   -8.321;  801.664
305.304;   97.362;  -10.222;  796.707
305.902;  101.598;   -6.021;  784.484
306.500;   97.265;   -4.971;  728.200
307.098;   95.500;   -7.061;  746.560
307.696;   94.000;   -8.801;  780.432
308.294;   94.404;   -6.411;  731.359
308.892;   96.530;   -2.901;  759.769
309.490;   93.054;   -5.041;  712.161
310.088;   91.743;   -5.002;  788.444
310.686;   95.177;   -2.041;  821.749
311.284;   90.884;   -2.351;  766.040
311.882;   88.802;   -4.422;  731.225
312.480;   86.113;   -4.192;  697.167
313.078;   87.451;   -1.172;  808.331
313.675;   87.510;   -2.601;  691.600
314.273;   83.561;   -1.312;  797.837
314.871;   82.483;   -3.942;  589.829
315.468;   80.601;   -2.802;  652.090
316.066;   82.931;   -0.701;  694.427
316.664;   75.930;   -4.362;  656.351
317.261;   80.132;   -2.872;  910.128
317.859;   75.373;   -2.022;  768.735
318.456;   76.276;   -0.531;  830.096
319.054;   71.593;   -3.912;  787.828
319.651;   70.730;   -4.752;  759.928
320.249;   69.237;   -2.602;  810.188
320.846;   67.562;   -0.821;  714.286
321.443;   65.651;   -4.642;  832.135
322.041;   62.105;   -5.002;  812.315
322.638;   59.860;   -3.982;  701.456
323.235;   61.662;   -3.411;  665.683
323.833;   58.672;   -7.361;  740.354
324.430;   53.337;   -8.611;  615.900
325.027;   54.375;   -4.061;  876.855
325.624;   54.869;   -4.031;  644.532
326.221;   51.467;   -7.481;  689.717
326.818;   50.625;   -5.281;  818.332
327.415;   54.617;   -7.460;  748.828
328.012;   52.853;   -5.510;  690.585
328.609;   52.112;   -7.880;  731.389
329.206;   50.153;   -8.331;  778.621
329.803;   50.446;   -5.121;  737.841
330.400;   53.279;   -4.510;  704.260
330.997;   54.316;   -6.441;  817.147
331.594;   53.108;   -8.831;  788.185
332.191;   57.971;   -7.621;  728.722
332.787;   60.318;   -4.591;  844.463
333.384;   60.594;   -7.412;  763.093
333.981;   58.670;   -8.293;  815.687
334.578;   61.272;   -7.052;  708.378
335.174;   64.439;   -3.102;  731.469
335.771;   63.803;   -5.943;  836.456
336.367;   60.358;   -7.393;  710.631
336.964;   64.571;   -4.063;  793.266
337.561;   62.222;   -3.813;  731.112
338.157;   58.649;   -4.654;  911.916
338.754;   55.634;   -7.934;  796.589
339.350;   53.256;   -4.414;  722.493
339.946;   56.155;   -4.664;  773.135
340.543;   47.471;   -6.375;  846.136
341.139;   42.078;   -9.815;  720.836
341.735;   39.857;   -4.526;  772.593
342.332;   39.111;   -4.895;  691.472
342.928;   38.809;   -4.295;  795.394
343.524;   33.142;   -5.476;  761.684
344.120;   29.382;   -5.856;  738.562
344.716;   33.356;   -2.155;  723.717
345.313;   30.244;   -6.275;  795.342
345.909;   25.096;   -8.815;  627.336
346.505;   27.660;   -5.305;  740.247
347.101;   27.414;   -2.674;  827.864
347.697;   27.928;   -4.344;  785.398
348.293;   23.004;   -9.975;  627.244
348.889;   23.099;   -5.774;  745.914
349.485;   22.789;   -5.004;  688.205
350.081;   23.417;   -4.704;  772.592
350.676;   18.214;   -6.635;  691.606
351.272;   22.767;   -4.504;  809.530
351.868;   22.400;   -3.914;  780.497
352.464;   19.726;   -9.044;  723.932
353.059;   15.772;   -8.314;  646.017
353.655;   18.819;   -7.024;  777.063
354.251;   20.190;   -5.343;  759.845
354.846;   14.913;   -8.604;  740.646
355.442;   12.701;   -6.945;  753.071
356.038;   14.547;   -7.564;  751.708
356.633;   14.528;   -5.814;  728.594
357.229;   12.274;   -7.364;  724.757
357.824;   11.367;   -8.024;  703.600
358.420;    9.525;   -9.384;  679.726
359.015;   10.497;   -5.104;  695.357
359.610;   11.809;   -6.854;  763.920
360.206;    5.738;  -10.185;  603.240
360.801;    7.605;   -7.054;  646.503
361.396;   11.107;   -5.034;  725.975
361.992;    5.817;   -8.284;  668.220
362.587;    3.260;   -8.625;  670.160
363.182;    5.860;   -7.674;  689.631
363.777;    6.154;   -5.164;  738.242
364.372;    5.789;   -8.604;  737.314
364.967;    1.602;   -9.055;  680.744
365.563;    5.485;   -6.114;  815.567
366.158;    3.729;   -5.814;  685.161
366.753;    3.489;   -7.854;  649.263
367.348;    1.480;   -7.804;  746.056
367.942;    1.582;   -7.954;  697.298
368.537;    1.056;   -4.984;  754.245
369.132;    0.992;   -8.564;  703.428
369.727;   -2.413;   -8.855;  638.079
370.322;   -1.782;   -6.245;  580.186
370.917;   -2.001;   -6.425;  710.646
371.511;    0.577;   -6.294;  861.834
372.106;   -2.262;   -7.685;  776.964
372.701;   -5.339;   -7.335;  585.988
373.296;   -0.577;   -4.564;  863.135
373.890;   -4.330;  -10.235;  647.840
374.485;   -7.466;   -7.885;  691.199
375.079;   -3.390;   -7.324;  738.685
375.674;   -1.472;   -3.494;  812.970
376.268;   -6.365;   -8.525;  691.759
376.863;  -11.708;  -10.086;  580.327
377.457;   -6.053;   -7.025;  662.490
378.052;   -7.679;   -3.585;  764.884
378.646;   -8.002;   -7.595;  741.167
379.240;   -8.239;   -8.335;  721.176
379.835;   -7.996;   -5.785;  636.978
380.429;   -9.503;   -4.335;  562.557
381.023;   -9.360;   -6.805;  779.205
381.617;  -12.564;   -9.195;  680.106
382.212;   -9.185;   -6.905;  685.303
382.806;   -8.183;   -3.745;  760.690
383.400;  -11.785;   -7.745;  672.281
383.994;  -13.067;   -9.765;  664.870
384.588;   -9.576;   -6.564;  697.701
385.182;   -7.848;   -5.344;  726.624
385.776;   -9.737;   -8.514;  706.875
386.370;  -12.402;   -9.555;  681.968
386.964;  -12.141;   -8.715;  684.155
387.558;  -10.567;   -6.174;  598.360
388.152;  -14.155;   -8.725;  681.959
388.745;  -11.483;   -7.965;  814.707
389.339;  -10.138;   -5.924;  747.642
389.933;   -8.137;   -5.524;  695.370
390.527;  -10.249;   -7.114;  859.029
391.120;  -16.159;  -10.725;  595.318
391.714;  -14.072;   -8.035;  711.633
392.308;  -10.694;   -3.574;  780.253
392.901;  -13.665;   -7.245;  642.460
393.495;  -16.156;   -9.285;  595.414
394.089;  -14.810;   -5.895;  760.452
394.682;  -13.912;   -4.295;  697.188
395.275;  -14.783;   -9.875;  719.927
395.869;  -16.227;   -8.485;  667.314
396.462;  -14.852;   -7.455;  616.609
397.056;  -10.114;   -5.424;  776.621
397.649;  -15.211;   -6.605;  731.575
398.242;  -13.183;   -8.224;  712.645
398.836;  -12.421;   -7.474;  766.408
399.429;  -13.240;   -7.094;  631.041
400.022;  -16.129;   -9.475;  665.902
400.615;  -14.214;   -7.145;  805.609
401.208;  -12.119;   -7.174;  691.451
401.802;  -14.457;   -5.515;  699.329
402.395;  -15.011;   -9.875;  683.502
402.988;  -17.331;   -8.845;  696.627
403.581;  -13.385;   -8.874;  646.878
404.174;  -10.403;   -5.324;  686.568
404.767;  -12.914;   -9.575;  638.583
405.360;  -16.423;  -10.965;  621.445
405.953;  -10.845;   -8.764;  759.034
406.545;  -10.714;   -7.514;  725.342
407.138;  -14.743;  -10.025;  618.350
407.731;  -14.046;  -10.034;  613.303
408.324;   -9.238;   -9.374;  660.554
408.917;  -10.950;   -6.534;  681.864
409.509;  -12.533;   -8.004;  740.396
410.102;  -14.285;   -9.875;  643.948
410.695;   -8.324;   -8.604;  665.758
411.287;   -9.615;   -6.794;  599.821
411.880;  -11.103;   -9.334;  585.421
412.472;  -13.471;  -10.254;  613.092
413.065;  -10.491;   -6.714;  629.408
413.657;   -7.988;   -7.234;  576.678
414.250;   -8.752;  -10.544;  646.681
414.842;  -10.237;   -9.744;  676.353
415.434;   -7.711;   -6.994;  570.463
416.027;   -3.911;   -5.893;  652.196
416.619;   -5.888;   -7.264;  713.400
417.211;   -6.671;  -10.374;  599.352
417.804;   -3.093;   -7.993;  628.499
418.396;   -6.978;   -7.234;  607.643
418.988;   -4.643;   -9.443;  659.238
419.580;   -7.993;  -10.724;  568.276
420.172;   -6.283;  -10.323;  536.196
420.764;   -1.372;   -8.793;  672.482
421.356;   -2.801;  -11.143;  636.898
421.948;   -3.653;   -8.293;  677.661
422.540;    0.701;   -7.893;  680.027
423.132;    1.092;   -7.082;  600.641
423.724;   -3.017;   -8.653;  561.267
424.316;   -0.827;  -10.213;  621.345
424.908;    2.411;   -9.762;  591.517
425.500;    3.679;   -5.572;  647.978
426.092;    4.300;   -8.422;  648.268
426.683;    2.584;   -9.283;  684.836
427.275;    4.842;   -7.852;  641.471
427.867;    7.330;   -5.272;  668.948
428.458;    7.325;   -7.682;  732.344
429.050;    6.009;  -10.612;  680.749
429.642;    7.787;   -9.882;  743.124
430.233;    8.991;   -6.962;  569.356
430.825;   10.103;   -6.842;  724.809
431.416;    7.087;   -9.672;  698.241
432.008;   10.893;   -6.552;  651.723
432.599;   11.937;   -6.891;  656.073
433.190;    8.151;  -10.912;  637.670
433.782;    7.014;  -11.172;  590.395
434.373;   14.911;   -6.061;  884.765
434.964;   14.000;   -8.251;  602.920
435.556;   11.842;   -9.722;  634.537
436.147;   14.574;   -9.082;  758.490
436.738;   14.812;   -8.041;  701.099
437.329;   19.691;   -7.341;  721.723
437.920;   12.238;   -8.162;  666.688
438.511;   13.242;  -11.802;  564.526
439.103;   19.286;  -10.191;  623.998
439.694;   20.819;   -7.601;  681.583
440.285;   21.850;   -8.541;  764.432
440.876;   20.167;   -9.751;  845.738
441.466;   19.609;   -9.401;  575.162
442.057;   24.279;   -7.760;  665.814
442.648;   23.126;   -9.971;  746.255
443.239;   20.542;  -11.001;  620.477
443.830;   26.180;   -7.990;  704.958
444.421;   28.652;   -7.910;  655.474
445.011;   25.345;   -8.131;  693.619
445.602;   24.610;   -7.111;  743.126
446.193;   25.987;  -10.920;  488.117
446.783;   30.566;   -6.500;  640.397
447.374;   26.718;   -8.671;  692.759
447.964;   26.514;  -10.781;  713.770
448.555;   34.731;   -9.650;  822.742
449.145;   32.018;   -8.660;  662.853
449.736;   32.595;   -8.990;  803.179
450.326;   32.023;   -9.500;  713.626
450.917;   37.298;   -8.680;  675.324
451.507;   35.952;   -7.520;  600.661
452.097;   37.247;   -8.590;  746.267
452.688;   38.449;  -11.340;  742.160
453.278;   37.650;  -10.100;  566.840
453.868;   42.729;   -6.019;  793.550
454.458;   40.483;   -9.440;  651.141
455.048;   39.923;  -10.560;  711.783
455.639;   42.769;  -11.799;  567.096
456.229;   45.672;   -6.899;  710.694
456.819;   47.329;   -7.389;  751.158
457.409;   47.885;  -11.119;  773.993
457.999;   50.653;   -9.289;  737.505
458.589;   50.038;   -6.139;  686.606
459.179;   50.114;   -8.729;  717.658
459.769;   48.052;   -9.789;  627.099
460.358;   53.836;  -10.259;  797.262
460.948;   53.298;   -7.299;  689.503
461.538;   54.102;  -10.289;  660.677
462.128;   53.116;  -11.269;  664.934
462.717;   59.888;   -9.368;  710.326
463.307;   62.486;   -7.908;  705.846
463.897;   58.018;   -9.599;  656.942
464.486;   57.839;   -9.769;  837.128
465.076;   61.358;   -8.048;  733.776
465.666;   66.049;   -9.358;  652.900
466.255;   62.624;   -7.919;  785.651
466.845;   62.040;  -11.689;  666.749
467.434;   65.086;   -7.818;  725.873
468.023;   66.351;   -7.678;  658.357
468.613;   63.415;  -10.939;  713.946
469.202;   68.464;  -10.118;  646.507
469.791;   71.629;   -9.108;  737.811
470.381;   73.674;   -6.058;  742.813
470.970;   73.484;  -10.428;  711.099
471.559;   73.110;  -10.268;  733.291
472.148;   76.076;   -8.448;  675.737
472.738;   79.020;   -6.917;  765.466
473.327;   79.237;  -11.978;  637.529
473.916;   78.244;  -11.888;  737.446
474.505;   81.840;   -9.437;  751.703
475.094;   85.929;   -6.747;  806.570
475.683;   85.441;   -9.367;  797.699
476.272;   85.763;  -12.637;  730.632
476.861;   89.327;  -10.027;  706.754
477.449;   95.358;   -8.716;  728.487
478.038;   88.928;   -9.577;  692.513
478.627;   90.350;   -9.718;  714.852
479.216;   97.031;   -8.947;  769.441
479.805;  100.439;   -6.256;  783.375
480.393;   99.989;   -7.937; 1008.945
480.982;   98.260;   -7.717;  874.501
481.571;  103.988;   -9.266;  858.333
482.159;  104.707;   -7.636;  705.386
482.748;  105.328;   -9.667;  821.385
483.336;  109.465;  -10.376;  858.209
483.925;  110.022;   -7.147;  774.373
484.513;  116.704;   -7.996;  758.962
485.102;  113.595;  -10.027;  810.965
485.690;  122.707;  -10.446; 1011.050
486.278;  123.997;   -8.446;  979.329
486.867;  124.516;   -6.356;  809.662
487.455;  126.673;   -9.136;  898.229
488.043;  128.261;  -10.646;  748.361
488.631;  136.010;   -7.456; 1005.079
489.220;  140.855;   -6.636;  908.626
489.808;  140.325;  -11.036;  741.415
490.396;  149.158;  -10.246;  914.645
490.984;  154.681;   -8.556;  830.161
491.572;  164.460;   -5.886;  940.315
492.160;  169.795;   -9.486;  919.081
492.748;  181.699;  -10.976;  884.341
493.336;  204.099;   -8.776; 1019.693
493.924;  229.816;   -5.465;  958.077
494.512;  256.846;   -9.986; 1066.638
495.100;  292.003;  -10.636; 1103.280
495.687;  343.636;  -10.885; 1206.373
496.275;  403.879;   -8.126; 1150.796
496.863;  466.477;  -10.586; 1281.171
497.451;  560.381;  -11.926; 1386.805
498.038;  690.602;  -10.885; 1556.729
498.626;  793.119;   -6.315; 1741.407
499.214;  931.213;   -7.326; 2016.609
499.801; 1110.448;  -11.906; 2220.633
500.389; 1341.434;  -10.466; 2312.494
500.976; 1637.428;   -5.236; 2744.849
501.564; 2041.878;   -8.936; 3148.565
502.151; 2392.312;  -13.176; 3515.999
502.738; 2801.740;  -10.646; 3971.274
503.326; 3157.570;   -9.525; 4403.796
503.913; 3512.460;  -10.856; 5161.749
504.500; 3819.556;  -11.586; 5986.420
505.088; 4217.271;  -10.336; 6381.201
505.675; 4717.527;   -6.355; 6925.547
506.262; 5323.860;   -9.046; 7619.060
506.849; 5990.405;  -10.416; 8733.969
507.436; 6476.509;  -10.305; 9790.121
508.023; 7042.181;   -5.496; 9985.472
508.610; 7259.707;   -7.856;10434.618
509.197; 7848.559;  -10.097;11198.435
509.784; 9135.470;  -10.886;12391.194
510.371;10154.045;   -9.315;13603.713
510.958;10863.761;   -9.936;14426.586
511.545;11562.791;   -9.326;15243.775
512.132;12452.893;  -10.075;15945.876
512.719;13008.761;   -7.796;16340.369
513.305;13921.898;  -10.606;18011.766
513.892;14623.453;  -11.486;19754.971
514.479;15819.728;   -9.126;20967.805
515.066;17256.963;   -6.026;22299.793
515.652;18411.432;   -8.466;22908.660
516.239;19568.453;  -10.886;23798.875
516.825;20631.697;  -11.496;25567.275
517.412;21621.631;   -5.796;28154.959
517.998;22435.867;  -10.506;28344.111
518.585;22574.512;  -10.076;27134.219
519.171;22981.781;   -8.315;27268.576
519.758;24262.811;   -8.596;28964.129
520.344;26133.328;   -8.466;30664.494
520.930;26366.395;  -11.006;32550.605
521.516;27602.105;  -10.495;35422.895
522.103;29989.320;   -5.526;38280.004
522.689;30819.412;   -8.746;37835.117
523.275;30548.871;  -11.376;37288.613
523.861;31656.424;  -11.156;37281.395
524.447;32977.555;   -8.135;37846.949
525.033;32396.906;   -7.896;38321.949
525.619;32531.469;  -12.476;38579.285
526.205;34029.191;   -9.516;40622.875
526.791;36942.723;   -6.926;42258.836
527.377;37024.152;   -8.346;42966.902
527.963;38559.113;   -8.717;42018.949
528.549;37596.156;  -11.016;42476.828
529.135;36226.871;   -8.536;41854.852
529.721;35600.266;   -9.666;41237.711
530.306;35282.270;  -10.066;41259.445
530.892;35248.055;  -11.356;41506.047
531.478;36486.410;   -6.596;43559.613
532.063;39042.551;   -8.836;47695.563
532.649;39590.344;  -10.047;50808.324
533.235;40508.164;   -9.746;51787.500
533.820;41511.367;   -6.566;52145.035
534.406;42710.719;  -10.817;51133.488
534.991;42501.008;   -9.416;49996.805
535.576;41123.797;   -9.036;48882.852
536.162;41752.699;   -6.156;46942.285
536.747;42952.645;  -11.607;45711.746
537.333;46284.832;  -11.787;48510.180
537.918;49620.797;  -12.437;50439.891
538.503;48291.418;   -7.196;50863.711
539.088;44974.359;  -10.556;50906.922
539.673;45089.398;   -8.767;52621.965
540.259;44747.879;  -10.026;52368.094
540.844;42124.090;   -7.416;50879.109
541.429;43202.602;   -9.467;52077.777
542.014;46460.676;   -9.527;52716.695
542.599;46342.965;   -9.946;52363.281
543.184;43604.227;   -7.927;53187.137
543.769;44711.117;   -9.297;54697.605
544.354;44435.441;  -10.127;53913.914
544.938;43384.324;   -9.267;49680.164
545.523;45308.801;   -6.506;47386.277
546.108;47430.320;   -9.787;49151.949
546.693;49581.156;  -11.587;51384.637
547.278;49726.230;  -10.986;51853.254
547.862;46807.297;   -8.206;51173.750
548.447;42506.156;  -10.067;51691.395
549.031;41734.602;   -9.637;52456.703
549.616;46238.895;   -9.926;52714.516
550.201;45529.758;   -6.347;52414.598
550.785;46411.336;   -7.917;52355.059
551.370;45817.777;  -10.867;54589.453
551.954;45807.824;   -9.047;58267.348
552.538;47037.320;   -7.827;59062.176
553.123;45415.730;  -10.287;58115.285
553.707;42979.793;  -12.178;56556.285
554.291;43669.164;   -8.717;56201.668
554.876;45698.688;   -7.457;55335.762
555.460;46399.707;  -10.387;54155.703
556.044;48151.688;   -9.618;53721.484
556.628;46310.941;  -11.567;53731.016
557.212;44869.738;   -8.097;54312.531
557.796;42849.973;  -11.077;53797.773
558.380;43071.621;  -11.108;56145.984
558.964;43958.602;   -9.057;57277.930
559.548;45020.785;   -6.977;56459.641
560.132;42935.379;  -11.457;54434.543
560.716;41784.035;  -11.378;54800.617
561.300;42727.844;   -9.577;57606.945
561.884;43606.582;   -7.127;58972.445
562.467;42132.820;   -7.118;57327.570
563.051;41721.012;  -13.358;54962.434
563.635;42711.398;  -10.178;52594.473
564.219;42869.340;   -7.837;50610.410
564.802;43369.660;  -11.398;49551.180
565.386;43582.801;  -12.788;48370.953
565.969;43544.613;   -9.077;48178.871
566.553;42258.023;   -6.207;49957.305
567.136;42473.949;   -8.568;50369.594
567.720;38934.324;  -11.868;49492.004
568.303;37114.383;   -8.268;50616.352
568.887;37020.645;   -8.698;50727.148
569.470;37279.715;   -6.808;51698.379
570.053;36650.367;  -13.188;52122.078
570.637;34920.535;  -12.037;52536.438
571.220;34228.477;   -8.577;51186.098
571.803;34497.570;   -8.498;51032.762
572.386;36538.852;  -10.498;49609.887
572.969;39051.125;   -9.388;48285.926
573.552;37488.859;   -8.338;47624.285
574.135;36232.598;   -8.518;45498.641
574.718;33818.145;  -13.628;41970.434
575.301;32474.006;  -10.893;41447.137
575.884;31129.865;   -8.158;40923.836
576.467;31569.674;  -10.328;45267.723
577.050;32666.660;  -13.058;48175.543
577.633;34215.734;   -9.458;47729.328
578.216;34248.453;   -8.928;47579.793
578.799;34203.785;   -9.358;47820.996
579.381;33553.832;  -11.388;48115.551
579.964;32005.686;  -11.718;47333.766
580.547;33387.656;   -8.588;46668.969
581.129;34191.563;   -8.859;44466.141
581.712;34817.313;  -10.729;44164.922
582.294;35566.141;  -11.118;46477.855
582.877;35764.902;   -5.218;48244.254
583.459;33670.875;   -8.679;47437.895
584.042;31667.570;  -10.709;46943.219
584.624;31786.076;  -11.669;46792.227
585.206;31294.262;   -8.218;46557.250
585.789;31397.127;  -10.569;45793.773
586.371;33996.008;  -11.859;43836.391
586.953;34716.176;  -10.719;42972.492
587.536;35348.391;   -7.198;42487.211
588.118;35307.984;   -8.720;42086.414
588.700;31437.523;  -10.439;43389.930
589.282;29677.047;   -9.198;43646.039
589.864;28557.262;   -9.199;43438.109
590.446;27838.906;  -11.319;43151.926
591.028;27920.947;  -11.159;42781.867
591.610;29208.316;  -11.779;42839.098
592.192;28791.248;   -7.668;42820.402
592.774;28334.484;  -11.949;40724.277
593.356;27695.172;  -12.129;39874.789
593.937;27266.564;  -10.669;39980.648
594.519;29294.701;   -6.509;42069.633
595.101;31485.643;  -10.849;42976.031
595.683;31621.838;  -11.679;44084.441
596.264;32564.098;   -9.049;43478.797
596.846;31944.979;   -8.849;43803.672
597.427;31453.129;   -9.570;42986.934
598.009;33075.313;  -12.620;42832.219
598.591;33485.328;  -10.039;42580.086
599.172;32655.260;  -10.369;43061.805
599.753;32668.516;   -9.140;41691.469
600.335;34108.668;  -11.430;40692.520
600.916;32649.906;   -9.939;39982.422
601.498;30389.510;   -8.479;40318.617
602.079;29008.096;  -10.920;40670.609
602.660;28815.652;  -11.480;41450.898
603.241;30287.867;  -11.699;41137.738
603.823;29144.539;   -9.579;38868.797
604.404;28676.049;  -10.620;38182.785
604.985;30090.604;  -10.450;38078.047
605.566;29696.445;   -9.129;38056.633
606.147;29589.279;   -7.510;37020.418
606.728;31608.289;  -10.660;37883.359
607.309;30645.848;  -11.740;38748.273
607.890;29918.186;   -9.759;38850.230
608.471;29408.416;   -8.250;37457.918
609.051;28770.066;   -9.240;36066.457
609.632;27732.695;  -12.120;35991.074
610.213;28443.703;   -9.110;37402.641
610.794;29291.746;   -8.030;38383.363
611.374;28683.746;   -8.110;40562.387
611.955;29029.891;  -13.560;38533.727
612.536;30541.275;  -11.400;36951.789
613.116;30251.396;   -8.070;37197.891
613.697;30543.008;  -10.830;38411.125
614.277;28867.531;  -11.641;38673.938
614.858;29821.430;  -13.310;37075.863
615.438;29380.279;   -7.460;35092.906
616.019;26725.793;   -7.601;33666.301
616.599;27232.531;  -12.020;34189.023
617.179;29136.023;  -11.780;36952.047
617.760;29823.336;   -8.570;39582.574
618.340;30810.531;  -11.471;38943.977
618.920;32433.926;  -11.170;37594.156
619.500;32356.377;  -11.071;37866.938
620.080;31473.117;   -7.750;37869.043
620.660;32407.457;  -12.711;36868.617
621.241;33636.660;  -10.211;36352.309
621.821;33740.129;  -10.961;35459.520
622.401;33017.910;   -7.720;35207.414
622.980;32040.229;   -8.981;35980.422
623.560;30578.660;   -9.331;37351.328
624.140;29675.471;   -9.850;34388.582
624.720;24887.307;   -7.451;32368.764
625.300;21242.715;   -9.070;32638.629
625.880;24540.400;  -12.601;34599.035
626.459;28381.838;  -11.751;36831.738
627.039;31420.713;   -9.281;38299.098
627.619;31656.525;   -8.801;38289.574
628.198;29902.961;  -12.071;37220.695
628.778;28851.385;   -9.461;37632.563
629.357;29526.295;   -8.491;38003.012
629.937;29573.014;   -9.721;38402.039
630.516;29018.402;   -9.951;37868.801
631.096;28924.797;  -11.731;35760.410
631.675;31583.986;   -8.572;35225.219
632.254;36924.871;  -11.282;35130.289
632.834;36328.777;  -13.322;35794.570
633.413;34418.852;  -10.301;35788.922
633.992;31701.027;   -8.582;34532.863
634.571;32627.010;   -8.352;33590.113
635.151;35485.684;  -11.912;34943.863
635.730;34128.813;  -10.511;35352.523
636.309;30629.236;   -7.731;35366.605
636.888;27829.973;   -9.952;36165.637
637.467;28406.949;  -11.672;37515.902
638.046;30234.258;   -8.901;39288.695
638.625;33309.145;   -7.912;38279.699
639.204;33160.008;  -10.022;37741.598
639.782;31609.537;  -12.252;38364.551
640.361;27978.170;  -10.041;36740.621
640.940;25146.314;  -11.161;34950.082
641.519;25496.232;   -9.701;34137.398
642.097;27963.715;  -11.271;35654.258
642.676;31022.990;   -8.651;35637.957
643.255;32086.102;   -8.711;36567.074
643.833;31262.705;   -9.581;37809.434
644.412;31656.795;  -13.711;37337.293
644.990;30906.566;  -11.811;37018.531
645.569;30590.313;   -9.411;36518.469
646.147;29792.490;  -10.291;36186.430
646.726;29266.906;  -12.401;36267.688
647.304;30184.814;  -10.411;36647.625
647.882;32100.359;   -9.651;39286.742
648.461;33985.563;   -9.631;39157.703
649.039;32360.018;  -11.881;35412.883
649.617;31508.463;   -9.661;34744.918
650.195;31089.246;   -9.301;35403.098
650.773;29987.023;  -10.511;35053.797
651.352;27390.080;  -11.521;33756.816
651.930;25012.477;  -12.211;31868.773
652.508;23479.164;   -9.171;33121.551
653.086;27462.611;   -9.371;33564.793
653.663;30444.525;  -13.161;34054.668
654.241;29155.637;  -13.031;35693.309
654.819;30557.561;   -9.371;36422.906
655.397;30489.920;  -10.511;38213.484
655.975;30266.186;  -10.371;39507.625
656.553;30338.830;  -10.051;39498.223
657.130;28715.740;  -10.061;40395.480
657.708;27996.488;   -9.561;39242.020
658.286;28181.182;  -11.511;38920.020
658.863;29322.871;  -10.261;40202.898
659.441;32098.861;   -7.531;39677.938
660.018;31553.252;   -9.501;40413.355
660.596;30370.842;  -13.301;39931.414
661.173;32184.625;  -11.211;39604.531
661.750;32487.814;   -9.951;39700.070
662.328;31595.078;   -9.390;39292.809
662.905;30759.744;  -11.330;38235.648
663.482;26332.234;   -9.050;36212.305
664.060;24232.863;   -8.240;35944.945
664.637;26943.455;  -10.050;35170.785
665.214;28793.275;  -11.760;34197.523
665.791;30727.080;  -10.530;34549.520
666.368;29576.125;   -9.690;35118.578
666.945;30045.811;   -9.320;36019.418
667.522;31604.766;  -11.860;36048.438
668.099;31627.727;  -10.770;36243.914
668.676;30778.549;   -6.260;35958.875
669.253;29108.924;   -7.000;37384.730
669.830;29496.240;  -10.190;36779.629
670.407;29379.160;   -9.550;35231.289
670.984;29449.506;   -9.260;35544.270
671.560;30073.438;   -9.280;35466.867
672.137;28799.264;  -11.810;34280.863
672.714;29423.152;  -11.490;34632.863
673.290;30084.184;   -7.740;35135.422
673.867;30073.857;  -10.660;36114.480
674.443;30470.203;  -12.230;36152.859
675.020;28946.668;  -10.450;35327.238
675.596;29755.928;   -9.260;35795.176
676.173;30277.568;  -10.780;35430.355
676.749;30001.383;  -13.690;33549.516
677.326;30020.818;  -11.980;32210.012
677.902;30085.334;   -8.630;32068.871
678.478;29231.645;  -10.730;32583.891
679.054;28593.529;  -10.520;32088.928
679.631;29375.844;  -11.920;30978.848
680.207;30640.389;   -7.490;33160.887
680.783;32022.980;   -9.860;35570.363
681.359;31183.180;  -13.380;36125.184
681.935;30464.492;  -12.480;35240.922
682.511;29636.658;   -7.900;34429.961
683.087;29678.314;   -7.710;34463.680
683.663;29241.730;  -11.480;34648.898
684.239;28352.209;  -14.090;34546.457
684.815;27992.738;   -7.560;35586.375
685.390;28334.145;   -9.910;35821.895
685.966;28833.631;  -11.159;35085.871
686.542;31609.162;  -11.169;34198.230
687.118;33694.027;   -5.959;32847.707
687.693;33882.371;  -10.329;32794.027
688.269;33225.453;  -12.059;33072.367
688.844;31234.221;  -10.909;33141.664
689.420;29240.152;   -8.019;33965.742
689.995;26985.992;   -8.399;34655.523
690.571;25704.971;  -10.949;33576.742
691.146;26203.244;   -9.619;32657.219
691.722;25762.057;   -8.999;32526.979
692.297;25419.260;  -11.589;33014.617
692.872;27322.477;  -11.739;34012.254
693.448;26954.363;  -11.059;34237.434
694.023;26096.529;  -10.139;34142.672
694.598;28273.193;   -9.029;34132.031
695.173;28802.486;  -13.319;34205.250
695.748;28236.320;  -10.169;32882.488
696.323;28115.848;   -8.339;32864.906
696.898;28150.451;   -8.169;33170.004
697.473;27995.342;  -12.309;32432.984
698.048;27549.730;  -10.989;31649.303
698.623;27674.590;   -9.329;30778.141
699.198;29381.131;   -9.849;31140.119
699.773;30392.297;  -12.329;31764.299
700.348;29028.572;  -10.389;31780.816
700.922;29038.227;   -9.269;32046.375
701.497;29495.227;   -9.329;32603.574
702.072;29599.123;  -10.789;34799.871
702.646;28610.555;  -10.839;35793.172
703.221;26406.076;   -9.099;35201.590
703.795;28531.426;  -10.939;34764.527
704.370;29122.803;  -12.859;34307.367
704.944;29225.100;  -11.559;33509.887
705.519;30269.014;   -7.939;31388.584
706.093;31569.229;  -10.499;31340.104
706.668;32016.451;  -11.289;32630.281
707.242;30600.416;  -11.509;32728.779
707.816;28916.506;   -9.639;32947.238
708.390;27468.002;  -11.429;33277.855
708.965;28350.402;  -11.869;33834.336
709.539;28763.617;  -11.689;33709.273
710.113;29184.910;  -10.478;33044.313
710.687;28774.508;  -10.228;31953.992
711.261;26799.715;  -13.698;30505.949
711.835;26397.035;  -13.378;30262.369
712.409;27026.627;   -9.698;31254.447
712.983;28787.670;  -11.898;32754.986
713.557;29865.879;  -15.138;34018.824
714.131;29515.037;  -14.098;34579.625
714.704;28679.461;   -9.958;33890.262
715.278;26331.631;  -10.028;33531.102
715.852;25491.350;  -11.148;33601.660
716.425;26393.969;   -9.068;33515.117
716.999;27071.285;  -10.038;33185.555
717.573;28160.172;   -9.798;33905.996
718.146;29557.672;  -12.378;35199.293
718.720;29311.639;  -11.918;35060.551
719.293;28604.539;   -8.088;34973.230
719.867;31467.738;  -10.888;36394.449
720.440;31406.602;  -11.938;36663.008
721.013;29687.391;  -12.818;35102.426
721.587;28305.467;  -10.298;33985.266
722.160;26951.420;  -10.048;33524.965
722.733;25967.557;  -12.108;32987.043
723.306;26610.193;  -10.818;33066.301
723.880;28696.104;   -8.908;33399.500
724.453;30502.459;   -9.878;33468.297
725.026;29477.279;  -11.188;33816.637
725.599;26813.813;  -11.678;32797.996
726.172;27032.602;   -9.618;33187.434
726.745;28295.461;   -8.258;35136.613
727.318;29880.115;  -12.978;35751.730
727.891;30614.340;  -12.148;35890.430
728.463;30383.262;   -8.968;34822.090
729.036;29280.861;  -10.188;32895.086
729.609;29537.256;  -11.788;31823.225
730.182;26434.463;  -11.788;31445.283
730.754;23917.756;  -10.268;32373.223
731.327;23922.865;   -9.998;33676.820
731.900;24040.354;  -12.228;33417.000
732.472;25297.152;  -13.848;31978.498
733.045;27413.426;   -8.698;30368.777
733.617;27363.049;  -10.607;30574.215
734.190;26936.994;  -11.507;31280.975
734.762;24226.418;  -13.647;31674.412
735.334;22586.740;   -9.767;31247.291
735.907;22929.414;   -9.897;29876.211
736.479;22881.486;  -11.637;29808.488
737.051;22581.955;   -9.567;30233.547
737.623;23785.711;   -8.187;31469.086
738.195;24715.451;  -11.187;31784.225
738.768;26646.959;  -12.337;32120.523
739.340;26704.906;  -12.227;32094.342
739.912;25469.904;  -11.057;31312.680
740.484;24305.086;  -10.207;31946.238
741.056;23114.934;  -10.047;32984.059
741.628;24745.506;  -13.627;33897.715
742.199;27081.250;   -7.177;33213.016
742.771;25434.416;  -10.797;31369.113
743.343;23058.207;  -11.997;31865.473
743.915;21997.951;  -12.867;32388.631
744.487;22178.035;   -7.617;31079.568
745.058;22339.375;   -9.557;30570.107
745.630;23022.717;   -9.877;29970.127
746.201;24066.770;  -14.177;29186.766
746.773;24368.691;   -9.237;28805.723
747.344;24231.732;   -9.847;29591.223
747.916;22658.625;  -11.657;31412.201
748.487;22530.336;  -10.587;32194.898
749.059;23744.729;   -8.707;32533.719
749.630;24801.188;  -10.537;32158.518
750.201;23951.779;  -11.687;30855.395
750.773;22161.652;  -11.647;28622.555
751.344;22102.178;   -7.147;28405.732
751.915;23042.064;   -9.757;28461.551
752.486;22533.213;  -12.427;27842.850
753.057;20298.559;  -12.227;27845.008
753.628;19146.217;  -10.417;27728.107
754.199;20247.607;  -11.767;27381.086
754.770;21439.264;  -11.187;25882.203
755.341;21552.910;  -10.507;25886.184
755.912;21745.143;   -9.387;26050.861
756.483;21044.828;  -10.647;26798.779
757.054;19119.381;  -11.837;27048.238
757.625;17862.141;  -12.716;26294.838
758.195;17803.053;   -9.666;26142.076
758.766;17523.391;   -8.656;26392.234
759.337;18212.266;  -12.856;26334.594
759.907;19949.445;  -13.366;27579.652
760.478;20805.688;   -8.576;28352.770
761.048;20174.416;  -10.526;27325.088
761.619;19329.656;  -11.116;26460.428
762.189;19321.295;  -12.136;26029.826
762.760;20314.055;   -9.456;26430.145
763.330;21578.170;   -7.136;26670.902
763.900;21086.262;  -11.786;26603.021
764.471;18350.525;  -11.546;25542.740
765.041;17034.908;   -8.096;24358.459
765.611;17129.570;   -8.876;23991.297
766.181;17569.475;  -12.196;24470.236
766.751;18419.320;  -11.636;24845.975
767.321;18386.848;  -10.156;24533.633
767.891;16473.270;  -11.766;24916.492
768.461;15835.828;  -14.936;24776.771
769.031;16318.137;  -12.356;24757.988
769.601;17946.160;   -7.526;24181.088
770.171;17906.557;  -10.766;23670.387
770.741;16916.916;  -13.176;22960.045
771.311;17149.477;  -10.616;22917.523
771.880;17637.654;   -9.576;23562.941
772.450;17170.982;  -10.336;24216.500
773.020;17111.844;  -13.516;24140.398
773.589;16762.133;  -13.466;24414.857
774.159;16242.266;   -8.686;23858.717
774.729;15693.601;   -9.476;22942.135
775.298;15224.716;  -13.666;22324.033
775.867;14834.273;  -11.716;21140.313
776.437;14908.368;   -9.906;20838.092
777.006;14576.581;  -12.166;20599.510
777.576;14524.759;  -12.356;20508.809
778.145;14720.484;  -11.646;20732.947
778.714;14634.608;   -8.226;21062.465
779.283;13829.903;   -9.556;20949.664
779.853;13278.141;  -14.116;20508.623
780.422;13641.700;  -11.506;20649.082
780.991;13218.003;   -9.556;21527.520
781.560;12151.907;   -9.095;22632.658
782.129;11932.563;  -12.135;23048.277
782.698;11969.731;  -10.865;23438.555
783.267;11637.280;   -9.335;23267.734
783.836;11611.140;  -11.045;22415.133
784.404;12677.957;  -13.865;20443.152
784.973;13178.018;  -13.095;19699.150
785.542;13034.646;  -11.575;19763.828
786.111;12890.805;   -9.705;20341.408
786.679;12458.392;  -12.105;20207.967
787.248;12230.654;  -12.455;19516.465
787.817;12062.440;  -11.535;18900.363
788.385;11667.160;   -9.765;17879.121
788.954;11111.149;  -14.005;17658.301
789.522;10608.577;  -11.955;17788.879
790.090;11142.407;  -10.135;18118.277
790.659;11614.126;  -10.975;18338.736
791.227;11003.104;  -13.375;18508.615
791.795;11355.235;  -12.375;17898.254
792.364;11727.832;  -10.725;17295.133
792.932;12097.946;   -9.715;16822.051
793.500;12369.970;  -12.675;17040.148
794.068;12608.373;  -13.495;17179.787
794.636;12728.906;  -10.885;16664.246
795.204;12184.168;  -11.045;16524.545
795.772;12255.682;  -13.175;17274.564
796.340;11775.959;  -12.445;17891.002
796.908;11558.167;   -9.735;17648.561
797.476;11494.916;   -9.815;17064.080
798.044;11070.897;  -13.985;16672.777
798.612;10272.387;  -13.115;17023.996
799.180; 9931.271;  -10.185;16561.615
799.747; 9823.162;   -9.055;15962.773
800.315; 9504.550;  -12.385;15296.992
800.883; 9194.557;  -15.035;14801.771
801.450; 9229.120;  -10.365;14534.430
802.018; 9288.580;   -9.855;14173.248
802.585; 9338.722;  -11.905;14029.547
803.153; 9387.894;  -11.585;13836.846
803.720; 9291.656;   -9.095;13567.324
804.287; 8953.545;   -9.135;13360.622
804.855; 8524.772;  -11.604;13681.981
805.422; 8353.729;  -11.794;13536.560
805.989; 8328.551;  -10.734;13355.958
806.556; 8491.770;  -10.444;13747.896
807.124; 8787.258;  -12.764;13987.376
807.691; 8722.586;  -12.964;14038.674
808.258; 8515.186;  -11.134;14120.152
808.825; 8192.010;   -9.854;13860.111
809.392; 8274.171;  -10.504;13268.790
809.959; 7778.581;  -13.054;12680.389
810.526; 7353.727;   -8.294;12427.308
811.093; 7432.489;   -8.394;12030.105
811.659; 8076.573;  -12.304;11653.664
812.226; 8527.317;  -13.944;11637.183
812.793; 8142.072;  -10.484;11611.521
813.360; 7447.143;  -10.144;11885.181
813.926; 7059.019;  -11.684;12770.539
814.493; 6796.364;  -13.644;12677.638
815.060; 6441.798;   -9.724;11974.336
815.626; 6492.728;   -9.854;11594.715
816.193; 6918.715;  -13.254;11579.474
816.759; 6999.590;  -13.204;11666.972
817.325; 7113.264;   -9.434;11325.530
817.892; 7437.553;  -10.134;11105.369
818.458; 7839.501;  -13.474;10843.928
819.024; 7520.256;  -11.854;10714.406
819.591; 7172.540;  -10.244;10469.165
820.157; 6936.345;  -10.704;10235.523
820.723; 6408.777;  -12.324;10847.563
821.289; 6092.924;   -9.444;11040.980
821.855; 6017.708;   -8.374;10357.100
822.421; 5999.534;  -10.234; 9978.918
822.987; 5931.746;  -13.294; 9754.177
823.553; 5622.817;  -10.884;10065.755
824.119; 5463.209;   -8.884;10036.294
824.685; 5584.550;   -6.784;10029.192
825.251; 5684.971;  -12.004;10199.230
825.816; 5605.622;  -11.474; 9820.189
826.382; 5332.575;   -9.174; 9297.248
826.948; 5520.212;   -9.214; 9381.347
827.513; 5961.220;  -10.774; 9450.726
828.079; 5806.240;  -11.924; 9472.444
828.645; 5220.052;  -10.543; 9292.643
829.210; 5084.904;  -10.533; 9065.341
829.776; 5063.115;  -10.753; 9132.620
830.341; 4915.336;  -10.173; 9092.878
830.906; 5063.489;  -10.743; 9078.557
831.472; 5439.938;  -11.113; 8534.535
832.037; 5227.147;  -10.603; 8677.874
832.602; 4680.792;  -13.323; 8628.692
833.167; 4386.460;  -10.823; 8879.031
833.733; 4327.005;  -10.113; 9189.790
834.298; 4440.154;  -13.583; 9052.608
834.863; 4490.989;  -12.703; 8895.087
835.428; 4461.633;  -10.523; 8824.266
835.993; 4362.781;   -6.963; 8845.385
836.558; 4224.255;  -10.763; 8888.563
837.123; 4331.478;   -9.903; 8966.582
837.688; 4533.493;   -9.913; 8617.860
838.253; 4722.574;  -10.283; 8590.699
838.817; 4917.023;  -12.963; 8443.797
839.382; 4871.962;  -14.243; 8799.356
839.947; 4557.125;  -10.733; 8810.595
840.511; 4236.906;   -9.383; 8796.394
841.076; 3864.625;  -12.563; 8347.231
841.641; 3918.293;  -12.953; 8224.330
842.205; 4024.215;   -7.043; 8223.349
842.770; 4090.636;   -8.163; 8622.107
843.334; 4267.425;  -12.503; 8410.386
843.898; 4255.862;  -11.693; 8337.465
844.463; 4299.442;  -10.203; 8506.283
845.027; 4086.528;   -9.533; 8280.962
845.591; 3881.397;  -13.443; 8231.141
846.156; 3886.630;  -13.143; 7969.179
846.720; 3760.280;   -9.433; 7768.278
847.284; 3627.551;  -11.033; 7630.957
847.848; 3462.032;  -10.403; 7472.395
848.412; 3369.043;  -11.553; 7437.394
848.976; 3407.886;   -8.393; 7674.592
849.540; 3347.450;   -8.713; 7836.011
850.104; 3421.220;  -12.463; 7913.669
850.668; 3776.137;  -12.973; 7694.508
851.232; 3912.522;  -10.793; 7756.887
851.796; 3736.816;  -10.662; 7926.545
852.359; 3420.972;  -13.082; 7827.844
852.923; 3250.854;  -12.192; 7641.163
853.487; 3072.019;  -11.912; 7342.501
854.050; 2999.224;  -10.892; 7042.820
854.614; 3133.485;  -13.992; 7151.338
855.177; 3236.114;  -11.732; 7105.077
855.741; 3289.443;   -8.962; 6989.675
856.304; 3208.673;   -9.442; 6596.634
856.868; 3147.697;  -14.192; 6356.272
857.431; 3254.104;  -12.702; 6468.571
857.995; 3379.480;   -9.942; 6373.210
858.558; 3394.708;   -9.112; 6324.448
859.121; 3134.933;  -12.932; 6408.327
859.684; 2999.039;  -13.442; 6347.886
860.247; 3111.678;  -10.632; 6321.264
860.810; 3110.077;  -11.272; 6301.903
861.374; 2883.045;   -9.832; 6607.881
861.937; 2625.331;  -11.762; 6408.200
862.500; 2594.290;   -9.722; 6572.639
863.062; 2757.964;  -10.512; 6387.297
863.625; 2938.093;  -11.232; 6190.836
864.188; 3107.118;  -14.112; 5807.254
864.751; 3159.524;  -11.302; 5682.413
865.314; 3047.362;  -10.112; 5547.492
865.876; 2862.115;  -12.182; 5500.150
866.439; 2860.880;  -10.722; 5415.909
867.002; 2835.818;   -9.252; 5501.567
867.564; 2623.397;   -9.572; 5413.946
868.127; 2400.029;  -13.142; 5160.325
868.689; 2298.651;  -12.902; 5133.183
869.252; 2224.918;   -9.732; 5252.382
869.814; 2135.874;   -9.432; 5297.141
870.377; 2154.985;  -11.552; 5390.919
870.939; 2234.564;   -9.052; 5599.898
871.501; 2297.107;  -10.982; 5248.336
872.063; 2303.135;  -12.292; 4854.235
872.626; 2260.844;  -14.912; 4817.074
873.188; 2265.731;  -13.112; 4987.732
873.750; 2230.645;  -13.442; 4868.651
874.312; 2138.695;   -9.402; 4779.330
874.874; 2049.324;  -11.062; 4866.348
875.436; 1971.784;  -13.931; 4718.887
875.998; 1970.579;   -9.561; 4660.005
876.560; 1992.108;  -11.321; 4462.964
877.122; 1932.630;  -12.221; 4145.042
877.683; 1833.801;  -12.191; 4056.481
878.245; 1757.491;  -12.101; 3950.740
878.807; 1796.851;   -8.971; 4058.958
879.369; 1824.035;  -12.071; 3954.677
879.930; 1735.809;  -14.621; 3941.495
880.492; 1676.564;  -10.311; 4067.014
881.053; 1647.322;  -10.901; 3859.633
881.615; 1527.567;  -14.411; 3776.071
882.176; 1433.471;  -13.761; 3734.750
882.738; 1395.927;   -9.181; 3678.489
883.299; 1371.980;  -11.791; 3405.407
883.860; 1371.853;  -13.121; 3351.106
884.422; 1377.220;  -11.211; 3394.044
884.983; 1334.205;  -10.091; 3166.443
885.544; 1238.558;   -8.461; 3189.802
886.105; 1158.634;  -12.361; 3160.360
886.666; 1089.042;  -14.141; 3093.059
887.227; 1025.420;  -11.361; 2941.957
887.788;  959.410;  -11.401; 2974.836
888.349;  894.169;  -13.791; 2721.214
888.910;  886.743;  -13.191; 2696.493
889.471;  897.228;   -9.881; 2560.172
890.032;  882.638;   -9.881; 2558.190
890.593;  855.041;  -10.371; 2567.669
891.153;  825.872;  -13.301; 2460.307
891.714;  776.602;  -11.431; 2372.046
892.275;  739.665;  -11.291; 2309.505
892.835;  703.412;  -11.471; 2382.543
893.396;  643.530;  -11.541; 2295.502
893.956;  583.908;  -11.181; 2162.420
894.517;  544.260;  -11.741; 2125.439
895.077;  536.973;  -11.671; 2086.978
895.638;  537.459;  -11.311; 2126.316
896.198;  507.966;   -9.831; 1838.275
896.758;  464.582;   -8.421; 1892.813
897.319;  430.817;  -12.351; 1792.232
897.879;  413.080;  -13.511; 1762.751
898.439;  387.171;  -12.001; 1661.149
898.999;  361.456;  -10.180; 1781.468
899.559;  351.252;  -12.030; 1703.347
900.119;  345.819;  -15.710; 1537.525
900.679;  342.923;   -8.900; 1638.384
901.239;  328.911;   -8.340; 1527.902
901.799;  318.514;  -13.910; 1456.441
902.359;  312.256;  -13.460; 1357.140
902.919;  305.137;  -11.490; 1331.118
903.479;  291.364;  -12.110; 1317.257
904.038;  268.823;  -11.720; 1262.595
904.598;  251.631;  -13.610; 1152.034
905.158;  246.345;  -11.040; 1240.893
905.717;  240.430;  -10.900; 1233.691
906.277;  228.938;  -15.080; 1217.330
906.836;  219.750;  -13.380; 1222.408
907.396;  212.207;  -10.780; 1193.047
907.955;  203.439;   -8.500; 1182.526
908.515;  197.717;  -12.760; 1099.364
909.074;  191.227;  -11.900; 1092.863
909.633;  185.265;   -8.950; 1069.121
910.192;  180.661;   -8.770; 1196.460
910.752;  175.288;  -12.390; 1029.960
911.311;  170.469;  -13.680; 1009.780
911.870;  168.778;  -12.370;  971.460
912.429;  168.381;  -10.900; 1094.080
912.988;  168.086;  -11.690; 1081.060
913.547;  161.810;  -13.240;  940.380
914.106;  157.337;  -11.990;  999.420
914.665;  154.481;   -9.990;  984.020
915.224;  153.516;  -12.880; 1035.760
915.782;  152.665;  -12.350;  922.560
916.341;  152.476;   -9.110; 1049.840
916.900;  148.769;   -9.270;  925.260
917.458;  146.151;  -13.240;  884.220
918.017;  146.349;  -13.550;  942.600
918.576;  145.918;  -12.320;  904.440
919.134;  144.018;  -11.490;  837.980
919.693;  142.218;  -13.670;  893.060
920.251;  139.987;  -15.470;  876.500
920.809;  139.341;  -11.290;  839.580
921.368;  138.653;  -10.210;  885.360
921.926;  138.037;  -12.140;  842.940
922.484;  136.243;  -13.080;  903.360
923.042;  136.019;  -11.720;  880.340
923.601;  138.400;   -7.480;  998.680
924.159;  136.779;  -11.570;  935.560
924.717;  133.899;  -13.840;  841.080
925.275;  134.581;  -10.640;  903.240
925.833;  133.096;  -11.540;  779.320
926.391;  134.846;  -12.960;  938.380
926.949;  132.803;  -14.130;  857.680
927.506;  133.926;  -11.750;  903.500
928.064;  133.362;  -10.250;  877.580
928.622;  132.643;  -13.030;  880.100
929.180;  132.071;  -13.400;  814.180
929.737;  133.470;  -10.700;  808.540
930.295;  136.549;  -10.070;  928.480
930.853;  138.557;  -11.960;  849.100
931.410;  139.129;  -13.120;  821.120
931.968;  138.665;  -10.770;  940.660
932.525;  137.983;  -10.680;  909.380
933.082;  139.029;  -13.130;  811.440
933.640;  139.189;  -13.210;  925.900
934.197;  138.038;  -11.060;  886.360
934.754;  139.286;   -9.580;  897.780
935.312;  141.738;  -14.000;  863.340
935.869;  146.459;  -10.710; 1012.980
936.426;  146.190;   -9.860;  872.800
936.983;  147.588;   -9.710;  889.020
937.540;  147.773;  -13.990;  838.280
938.097;  146.067;  -14.040;  940.120
938.654;  146.981;  -10.310;  898.860
939.211;  149.852;  -10.560;  952.480
939.768;  153.154;  -13.900;  915.420
940.324;  156.014;  -14.760;  904.200
940.881;  156.550;  -10.370;  878.500
941.438;  157.211;   -8.260; 1021.200
941.995;  154.312;  -12.540;  992.560
942.551;  151.260;  -14.670;  875.620
943.108;  152.702;  -10.450;  937.920
943.664;  154.793;  -10.750;  869.340
944.221;  156.928;  -11.550; 1088.140
944.777;  155.348;  -14.770;  869.680
945.334;  156.578;  -12.820;  884.840
945.890;  158.858;  -10.130;  946.480
946.446;  159.543;  -13.470;  947.020
947.003;  160.801;  -12.120;  964.940
947.559;  162.933;   -9.980; 1063.040
948.115;  162.633;   -9.080; 1026.540
948.671;  159.800;  -10.830;  967.300
949.227;  156.706;  -12.440;  859.560
949.783;  154.160;  -12.910;  858.900
950.339;  156.275;  -10.270;  991.000
950.895;  157.063;  -13.630; 1023.840
951.451;  155.897;  -15.100;  925.280
952.007;  157.309;  -11.330;  998.540
952.563;  158.199;  -10.580;  937.780
953.118;  158.274;  -13.440;  904.940
953.674;  156.985;  -12.710;  935.780
954.230;  157.478;  -10.350;  949.640
954.785;  154.864;   -9.190;  936.640
955.341;  151.731;  -11.200;  998.160
955.897;  150.535;  -16.560;  834.660
956.452;  152.374;  -12.570;  953.840
957.008;  151.918;   -7.970; 1083.640
957.563;  149.479;  -11.940; 1009.540
958.118;  143.926;  -13.450;  877.700
958.674;  145.709;  -12.030;  946.780
959.229;  146.111;   -9.410; 1013.980
959.784;  145.593;  -12.000;  832.400
960.339;  143.736;  -14.780; 1001.280
960.894;  140.237;   -9.860;  963.760
961.449;  136.873;   -9.970;  859.960
962.004;  136.895;  -10.900; 1212.840
962.559;  131.037;  -13.150;  860.140
963.114;  129.219;  -13.740;  742.480
963.669;  128.689;   -9.820;  915.500
964.224;  127.120;  -13.890;  874.340
964.779;  127.208;  -12.600;  828.420
965.334;  128.309;  -10.950; 1017.860
965.888;  127.756;  -11.170;  875.360
966.443;  130.635;  -12.540;  972.380
966.998;  129.194;  -15.780;  819.460
967.552;  128.918;   -9.760;  908.380
968.107;  126.285;   -9.060;  868.300
968.661;  130.102;  -11.950;  922.440
969.216;  132.537;  -12.800;  856.280
969.770;  132.962;  -11.210;  917.200
970.324;  128.030;  -11.610;  923.140
970.879;  117.571;  -11.370;  947.180
971.433;  105.218;  -12.540;  952.720
971.987;   94.107;  -11.320;  895.340
972.541;   87.739;  -10.720;  917.100
973.095;   85.678;   -9.680; 1009.460
973.649;   84.602;  -11.440;  809.480
974.203;   86.749;  -11.210;  829.040
974.757;   89.900;  -10.240;  855.220
975.311;   91.274;  -13.720;  872.600
975.865;   91.518;  -13.770;  881.820
976.419;   91.355;  -11.690;  857.400
976.973;   92.753;   -9.510;  849.620
977.526;   95.004;  -12.620;  949.920
978.080;   94.042;  -12.010;  796.780
978.634;   96.955;  -10.170;  921.320
979.187;   95.273;   -9.020;  905.400
979.741;   93.428;   -9.820; 1018.380
980.294;   87.950;  -14.870;  789.160
980.848;   86.482;  -12.380;  717.220
981.401;   88.461;  -10.350;  816.540
981.955;   91.285;  -13.720;  844.300
982.508;   90.488;  -11.490;  746.340
983.061;   90.316;  -10.000;  915.260
983.615;   87.376;  -11.480;  798.800
984.168;   84.903;  -13.220;  770.080
984.721;   83.722;  -13.960;  880.760
985.274;   83.498;  -10.870;  867.500
985.827;   82.701;   -9.790;  834.220
986.380;   80.462;  -13.120;  721.340
986.933;   79.996;  -12.450;  864.800
987.486;   78.472;  -10.210;  861.920
988.039;   77.213;   -8.430;  863.100
988.591;   76.027;  -10.520;  893.260
989.144;   72.167;  -14.860;  737.260
989.697;   72.148;  -13.080;  758.740
990.250;   73.333;  -10.150;  858.100
990.802;   72.038;  -13.430;  755.860
991.355;   72.825;  -12.750;  974.880
991.907;   70.764;  -12.040;  864.320
992.460;   68.703;  -11.330;  753.760
993.012;   68.591;  -13.610;  749.540
993.565;   66.933;  -13.460;  711.360
994.117;   69.039;   -9.360;  950.780
994.669;   64.582;  -11.300;  701.320
995.221;   62.945;  -13.540;  791.920
995.774;   61.301;  -13.430;  787.580
996.326;   60.243;  -12.520;  740.220
996.878;   59.808;  -10.950;  838.420
997.430;   57.964;  -14.300;  699.860
997.982;   56.914;  -13.760;  750.140
998.534;   56.404;  -11.530;  739.060
999.086;   54.788;  -10.310;  738.220
999.638;   53.585;  -12.530;  661.380
1000.190;   51.861;  -11.840;  699.320
1000.741;   50.557;  -10.260;  742.700
1001.293;   50.185;   -8.860;  686.020
1001.845;   48.047;  -13.700;  676.640
1002.396;   48.350;  -12.100;  743.400
1002.948;   48.773;  -12.760;  737.400
1003.500;   47.947;  -10.380;  723.780
1004.051;   49.149;  -11.900;  907.580
1004.603;   46.593;  -12.250;  791.820
1005.154;   43.050;  -13.210;  608.980
1005.705;   42.113;  -10.950;  723.960
1006.257;   42.072;  -13.880;  707.220
1006.808;   40.819;  -12.840;  685.460
1007.359;   41.446;  -10.570;  763.240
1007.910;   39.630;   -9.620;  646.640
1008.461;   40.017;  -13.630;  732.940
1009.013;   38.369;  -17.200;  588.340
1009.564;   39.851;  -10.200;  793.520
1010.115;   37.763;  -12.570;  597.040
1010.665;   37.990;  -15.150;  602.160
1011.216;   37.596;  -14.480;  667.920
1011.767;   37.039;  -11.340;  697.920
1012.318;   37.355;   -9.780;  736.980
1012.869;   36.075;  -12.380;  679.000
1013.419;   35.610;  -15.560;  603.120
1013.970;   36.048;  -11.010;  666.640
1014.521;   35.855;  -11.610;  620.620
1015.071;   36.054;  -13.450;  670.380
1015.622;   35.116;  -13.870;  635.460
1016.172;   34.343;  -11.610;  596.820
1016.723;   34.594;  -12.120;  614.380
1017.273;   33.999;  -13.620;  604.160
1017.823;   34.060;  -14.140;  650.340
1018.374;   33.565;  -12.800;  611.760
1018.924;   33.235;  -12.340;  716.880
1019.474;   34.645;  -11.410;  718.880
1020.024;   32.434;  -14.770;  657.580
1020.574;   33.638;   -9.780;  726.160
1021.124;   33.125;   -8.560;  673.580
1021.674;   31.375;  -15.190;  559.120
1022.224;   32.460;  -13.530;  708.940
1022.774;   32.085;  -13.280;  668.820
1023.324;   32.655;  -10.690;  753.520
1023.874;   33.662;  -10.240;  875.760
1024.423;   31.299;  -12.540;  613.700
1024.973;   31.095;  -10.010;  610.760
1025.523;   30.849;  -10.550;  620.960
1026.072;   30.763;  -13.560;  606.420
1026.622;   29.782;  -15.120;  675.740
1027.172;   30.702;  -11.260;  715.660
1027.721;   29.612;  -11.410;  601.220
1028.270;   30.178;  -13.530;  663.400
1028.820;   29.720;  -13.680;  638.080
1029.369;   28.933;  -13.520;  612.700
1029.918;   29.913;  -10.980;  649.840
1030.468;   29.041;  -13.530;  564.780
1031.017;   29.184;  -13.170;  634.800
1031.566;   28.951;  -12.200;  608.900
1032.115;   28.591;   -9.960;  694.500
1032.664;   27.871;  -13.210;  596.480
1033.213;   28.572;  -12.500;  735.420
1033.762;   27.683;  -11.910;  635.620
1034.311;   27.762;   -9.640;  677.220
1034.860;   28.038;  -13.310;  691.000
1035.408;   27.922;  -11.830;  722.720
1035.957;   29.170;  -12.000;  719.540
1036.506;   26.152;  -11.690;  530.800
1037.055;   29.348;  -10.990;  844.320
1037.603;   26.667;  -15.120;  664.000
1038.152;   25.506;  -12.450;  534.760
1038.700;   26.185;  -10.560;  585.740
1039.249;   25.713;  -11.080;  681.220
1039.797;   25.413;  -12.540;  633.360
1040.345;   25.944;  -11.920;  705.420
1040.894;   25.256;  -11.410;  625.300
1041.442;   25.501;  -14.320;  632.200
1041.990;   24.161;  -16.240;  559.160
1042.538;   24.311;  -11.680;  536.180
1043.087;   23.513;  -10.760;  570.860
1043.635;   25.638;  -11.850;  670.500
1044.183;   23.902;  -15.480;  586.400
1044.731;   24.397;  -11.770;  576.000
1045.279;   24.055;  -13.090;  674.920
1045.827;   25.742;  -12.440;  892.400
1046.374;   22.943;  -13.840;  515.420
1046.922;   22.586;  -13.220;  590.580
1047.470;   24.125;  -10.230;  691.300
1048.018;   23.308;  -14.590;  647.960
1048.565;   23.830;  -12.050;  708.600
1049.113;   22.536;  -11.650;  557.000
1049.660;   22.585;  -10.510;  629.660
1050.208;   22.436;  -13.310;  675.640
1050.755;   21.985;  -15.900;  606.580
1051.303;   22.442;  -11.430;  686.820
1051.850;   22.105;   -8.480;  635.120
1052.397;   19.965;  -15.010;  473.960
1052.945;   20.305;  -13.960;  617.760
1053.492;   22.882;  -13.150;  741.840
1054.039;   22.805;   -9.630;  720.180
1054.586;   21.087;  -13.680;  557.240
1055.133;   21.326;  -14.570;  693.140
1055.680;   21.107;  -13.820;  646.620
1056.227;   20.305;  -11.730;  542.780
1056.774;   22.562;  -12.480;  794.980
1057.321;   20.551;  -13.930;  523.260
1057.868;   20.310;  -11.690;  651.320
1058.415;   20.244;   -9.520;  651.980
1058.961;   20.905;  -13.160;  678.940
1059.508;   20.363;  -12.920;  643.820
1060.055;   20.651;  -11.920;  581.780
1060.601;   20.346;  -11.500;  624.300
1061.148;   20.457;  -14.330;  616.820
1061.694;   18.993;  -16.870;  592.580
1062.241;   19.668;  -10.330;  596.320
1062.787;   19.551;  -10.620;  663.140
1063.334;   21.431;  -10.110;  808.560
1063.880;   19.405;  -13.400;  668.360
1064.426;   19.690;  -10.680;  706.820
1064.972;   18.685;   -9.920;  601.340
1065.518;   16.709;  -10.980;  566.640
1066.065;   18.462;  -14.890;  624.460
1066.611;   18.002;  -12.870;  598.800
1067.157;   19.056;  -12.950;  641.860
1067.703;   18.170;  -13.540;  668.480
1068.249;   17.848;  -13.540;  605.220
1068.794;   17.858;  -12.600;  626.880
1069.340;   17.106;  -10.620;  578.960
1069.886;   18.381;  -12.830;  590.700
1070.432;   16.554;  -14.870;  541.720
1070.977;   16.896;  -11.980;  601.080
1071.523;   17.305;   -8.200;  573.060
1072.068;   17.165;  -12.330;  582.000
1072.614;   16.529;  -16.370;  527.760
1073.160;   18.056;  -11.100;  687.040
1073.705;   16.132;  -10.480;  572.520
1074.250;   16.716;  -14.520;  559.900
1074.796;   16.722;  -11.460;  655.160
1075.341;   17.766;  -11.950;  664.100
1075.886;   16.867;  -11.460;  594.240
1076.431;   16.267;  -13.770;  649.880
1076.976;   15.108;  -12.680;  639.220
1077.521;   15.512;  -13.170;  583.080
1078.067;   15.802;  -10.860;  579.400
1078.612;   15.663;  -13.920;  661.620
1079.156;   15.281;  -13.880;  601.540
1079.701;   16.124;  -13.120;  693.260
1080.246;   16.400;   -9.940;  696.300
1080.791;   15.840;  -14.740;  625.020
1081.336;   15.036;  -13.750;  659.320
1081.880;   15.861;  -13.400;  649.680
1082.425;   14.090;  -12.220;  573.480
1082.970;   15.886;  -11.610;  717.040
1083.514;   13.936;  -13.580;  597.000
1084.059;   13.101;  -12.810;  586.720
1084.603;   13.843;  -12.320;  565.840
1085.147;   15.175;  -13.190;  645.220
1085.692;   13.909;  -12.480;  716.800
1086.236;   13.331;  -13.020;  503.140
1086.780;   15.066;   -9.190;  751.440
1087.325;   14.016;  -12.480;  654.620
1087.869;   14.539;  -12.450;  610.700
1088.413;   14.573;  -12.240;  705.040
1088.957;   11.996;   -9.020;  543.400
1089.501;   14.015;  -10.320;  766.640
1090.045;   13.231;  -12.720;  726.480
1090.589;   12.025;  -13.690;  569.920
1091.133;   13.097;  -10.020;  673.340
1091.676;   12.864;  -12.330;  591.940
1092.220;   11.825;  -14.970;  600.920
1092.764;   13.105;  -12.430;  706.960
1093.307;   13.722;   -9.800;  673.780
1093.851;   12.219;  -14.970;  556.540
1094.395;   12.562;  -15.310;  683.140
1094.938;   12.200;  -10.370;  632.520
1095.482;   11.991;  -11.050;  559.800
1096.025;   12.789;  -11.840;  710.880
1096.568;   12.295;  -12.840;  779.280
1097.112;   10.493;  -14.700;  508.180
1097.655;   12.116;   -8.720;  603.000
1098.198;   10.714;  -13.610;  600.180
1098.741;   10.365;  -13.350;  612.860
1099.285;   11.455;  -11.230;  657.300
1099.828;    9.720;  -11.840;  439.400
1100.371;   11.061;  -10.840;  608.160
1100.914;   11.194;  -14.190;  682.660
1101.457;   11.320;  -11.240;  679.900
1101.999;    9.260;  -11.270;  584.680
1102.542;   11.311;  -11.480;  641.440
1103.085;    9.808;  -11.750;  658.500
1103.628;   11.587;  -11.400;  762.060
1104.170;   10.450;  -10.490;  588.280
1104.713;   10.832;  -10.600;  646.700
1105.256;    9.284;  -14.360;  557.440
1105.798;    9.040;  -13.210;  499.980
1106.341;   10.549;  -10.270;  728.900
1106.883;    9.068;  -12.200;  521.340
1107.425;    9.254;  -13.110;  668.180
1107.968;    9.373;  -12.840;  612.380
1108.510;    9.815;   -6.480;  684.960
1109.052;    8.552;  -13.940;  612.620
1109.594;    8.861;  -13.690;  554.440
1110.136;   10.069;  -11.880;  643.220
1110.679;    8.638;   -9.500;  633.080
1111.221;    9.377;  -14.160;  604.460
1111.763;    8.632;  -13.980;  559.220
1112.304;    7.468;  -13.880;  547.140
1112.846;    8.843;  -12.210;  666.240
1113.388;   12.124;  -11.390;  942.180
1113.930;    8.531;  -14.540;  694.200
1114.472;    8.083;  -12.640;  606.540
1115.013;    6.988;  -11.620;  551.280
1115.555;    7.383;  -13.640;  587.100
1116.097;    6.805;  -15.380;  579.480
1116.638;    8.248;  -12.640;  684.600
1117.180;    7.989;   -9.850;  667.740
1117.721;    8.022;  -13.690;  568.580
1118.262;    7.665;  -12.680;  677.960
1118.804;    8.474;  -12.530;  637.340
1119.345;    6.408;  -11.690;  578.400
1119.886;    8.012;  -13.380;  704.040
1120.427;    6.591;  -14.070;  589.020
1120.969;    6.578;  -13.500;  597.920
1121.510;    6.192;  -11.480;  563.060
1122.051;    6.796;  -12.830;  723.580
1122.592;    6.076;  -14.290;  655.420
1123.133;    5.074;  -12.400;  547.940
1123.673;    6.959;  -10.130;  706.480
1124.214;    6.342;  -12.930;  612.460
1124.755;    6.808;  -14.380;  639.460
1125.296;    6.534;  -14.000;  627.320
1125.836;    6.755;  -10.070;  691.500
1126.377;    6.322;  -12.640;  599.660
1126.918;    6.638;  -12.960;  614.980
1127.458;    5.684;  -13.350;  622.220
1127.999;    6.426;  -10.750;  656.980
1128.539;    6.152;  -12.350;  694.240
1129.079;    5.116;  -14.860;  632.720
1129.620;    4.875;  -13.840;  558.100
1130.160;    5.001;  -12.330;  539.480
1130.700;    5.713;  -14.530;  640.840
1131.240;    5.560;  -12.530;  643.700
1131.781;    5.101;  -14.450;  619.680
1132.321;    5.293;   -9.790;  599.120
1132.861;    4.160;  -14.860;  564.200
1133.401;    3.690;  -14.290;  593.940
1133.941;    4.471;  -11.750;  626.280
1134.481;    3.876;   -9.920;  597.580
1135.020;    4.264;  -12.290;  609.160
1135.560;    4.419;  -11.650;  674.940
1136.100;    3.524;  -16.270;  501.160
1136.640;    3.310;  -10.890;  510.480
1137.179;    3.977;  -14.180;  537.960
1137.719;    4.223;  -16.250;  605.400
1138.258;    4.138;  -14.230;  587.360
1138.798;    4.532;   -9.090;  663.780
1139.337;    3.247;  -15.130;  482.840
1139.877;    3.148;  -13.680;  642.360
1140.416;    6.462;  -11.320;  878.060
1140.955;    3.504;  -10.860;  535.380
1141.494;    3.567;  -12.920;  669.280
1142.034;    3.149;  -13.930;  583.520
1142.573;    3.649;  -11.440;  646.280
1143.112;    3.303;  -12.000;  553.480
1143.651;    3.244;  -13.670;  536.480
1144.190;    3.194;  -12.730;  691.640
1144.729;    3.280;  -14.560;  607.420
1145.267;    3.101;  -11.830;  584.900
1145.806;    3.678;  -12.230;  637.040
1146.345;    2.272;  -14.130;  635.020
1146.884;    1.850;  -11.590;  622.500
1147.422;    2.132;  -12.550;  533.060
1147.961;    4.022;  -11.180;  708.460
1148.500;    3.314;  -11.510;  669.720
1149.038;    2.764;  -11.640;  632.500
1149.577;    3.539;  -10.130;  698.640
1150.115;    0.852;  -13.970;  452.280
1150.653;    2.371;  -14.520;  607.340
1151.192;    2.386;  -12.810;  552.920
1151.730;    2.476;   -9.100;  652.560
1152.268;    1.454;  -12.220;  589.520
1152.806;    1.259;  -14.140;  571.180
1153.344;    0.343;  -12.350;  577.640
1153.882;    1.529;   -8.980;  600.060
1154.421;    0.917;  -15.190;  470.620
1154.958;    0.624;  -15.210;  595.240
1155.496;    2.455;  -12.850;  645.280
1156.034;    2.447;   -9.940;  721.880
1156.572;    2.721;  -13.570;  667.060
1157.110;   -0.033;  -14.590;  473.940
1157.647;    2.124;  -13.030;  676.960
1158.185;    1.176;  -12.140;  564.320
1158.723;   -0.229;  -14.390;  509.200
1159.260;    1.586;  -14.090;  701.700
1159.798;    1.938;  -11.920;  658.160
1160.335;    1.146;  -11.110;  631.820

