
Integration time [ms]:   3.276
Averaging Nr. [scans]: 1000
Smoothing Nr. [pixels]: 0
Data measured with spectrometer [name]: 7414430SP
Wave   ;Sample   ;Dark     ;Reference
[nm]   ;[counts] ;[counts] ;[counts] 

288.544;  149.208;    7.793;  793.890
289.143;  152.861;    7.462;  681.602
289.742;  153.494;    8.602;  828.814
290.341;  138.719;    1.321;  789.841
290.940;  128.911;   -0.709;  730.702
291.538;  128.206;    0.881;  881.108
292.137;  128.933;    0.122;  792.581
292.736;  133.725;   -1.929;  975.101
293.335;  129.668;   -8.229;  735.086
293.934;  130.358;   -5.279;  781.677
294.532;  127.956;   -1.369; 1031.958
295.131;  114.497;   -7.641;  834.394
295.730;  115.034;   -8.420;  809.588
296.328;  113.822;   -5.611;  783.442
296.927;  114.613;   -5.781;  779.652
297.525;  116.100;   -6.361;  781.236
298.124;  105.885;  -11.382;  654.009
298.722;  110.135;   -7.641;  761.933
299.321;  107.618;   -6.811;  708.597
299.919;  105.577;   -6.991;  751.918
300.518;  104.065;  -10.362;  689.338
301.116;  104.385;   -9.581;  691.381
301.715;  103.626;   -4.891;  730.222
302.313;  103.834;   -8.801;  704.943
302.911;   99.270;   -8.522;  733.830
303.509;  104.276;   -6.171;  925.627
304.108;  101.709;   -7.311;  760.383
304.706;  101.295;   -8.321;  801.664
305.304;   95.808;  -10.222;  796.707
305.902;  100.704;   -6.021;  784.484
306.500;   96.511;   -4.971;  728.200
307.098;   94.918;   -7.061;  746.560
307.696;   93.303;   -8.801;  780.432
308.294;   93.027;   -6.411;  731.359
308.892;   94.394;   -2.901;  759.769
309.490;   92.621;   -5.041;  712.161
310.088;   90.140;   -5.002;  788.444
310.686;   93.800;   -2.041;  821.749
311.284;   89.860;   -2.351;  766.040
311.882;   87.472;   -4.422;  731.225
312.480;   84.787;   -4.192;  697.167
313.078;   85.926;   -1.172;  808.331
313.675;   86.646;   -2.601;  691.600
314.273;   81.868;   -1.312;  797.837
314.871;   81.834;   -3.942;  589.829
315.468;   78.812;   -2.802;  652.090
316.066;   82.491;   -0.701;  694.427
316.664;   75.171;   -4.362;  656.351
317.261;   79.158;   -2.872;  910.128
317.859;   74.509;   -2.022;  768.735
318.456;   75.156;   -0.531;  830.096
319.054;   70.928;   -3.912;  787.828
319.651;   69.694;   -4.752;  759.928
320.249;   67.984;   -2.602;  810.188
320.846;   66.585;   -0.821;  714.286
321.443;   64.050;   -4.642;  832.135
322.041;   61.298;   -5.002;  812.315
322.638;   58.272;   -3.982;  701.456
323.235;   60.228;   -3.411;  665.683
323.833;   57.279;   -7.361;  740.354
324.430;   52.994;   -8.611;  615.900
325.027;   53.552;   -4.061;  876.855
325.624;   52.988;   -4.031;  644.532
326.221;   51.141;   -7.481;  689.717
326.818;   50.712;   -5.281;  818.332
327.415;   52.756;   -7.460;  748.828
328.012;   52.618;   -5.510;  690.585
328.609;   51.750;   -7.880;  731.389
329.206;   50.181;   -8.331;  778.621
329.803;   49.300;   -5.121;  737.841
330.400;   52.232;   -4.510;  704.260
330.997;   53.305;   -6.441;  817.147
331.594;   52.562;   -8.831;  788.185
332.191;   56.853;   -7.621;  728.722
332.787;   60.628;   -4.591;  844.463
333.384;   58.305;   -7.412;  763.093
333.981;   57.810;   -8.293;  815.687
334.578;   59.892;   -7.052;  708.378
335.174;   63.153;   -3.102;  731.469
335.771;   62.244;   -5.943;  836.456
336.367;   59.537;   -7.393;  710.631
336.964;   63.057;   -4.063;  793.266
337.561;   61.037;   -3.813;  731.112
338.157;   56.757;   -4.654;  911.916
338.754;   54.210;   -7.934;  796.589
339.350;   52.374;   -4.414;  722.493
339.946;   55.034;   -4.664;  773.135
340.543;   46.571;   -6.375;  846.136
341.139;   42.137;   -9.815;  720.836
341.735;   39.359;   -4.526;  772.593
342.332;   37.386;   -4.895;  691.472
342.928;   38.761;   -4.295;  795.394
343.524;   32.387;   -5.476;  761.684
344.120;   28.994;   -5.856;  738.562
344.716;   31.893;   -2.155;  723.717
345.313;   29.656;   -6.275;  795.342
345.909;   24.579;   -8.815;  627.336
346.505;   26.535;   -5.305;  740.247
347.101;   26.761;   -2.674;  827.864
347.697;   27.381;   -4.344;  785.398
348.293;   22.281;   -9.975;  627.244
348.889;   22.130;   -5.774;  745.914
349.485;   21.445;   -5.004;  688.205
350.081;   22.878;   -4.704;  772.592
350.676;   17.750;   -6.635;  691.606
351.272;   21.120;   -4.504;  809.530
351.868;   21.698;   -3.914;  780.497
352.464;   18.803;   -9.044;  723.932
353.059;   15.618;   -8.314;  646.017
353.655;   18.317;   -7.024;  777.063
354.251;   19.550;   -5.343;  759.845
354.846;   14.156;   -8.604;  740.646
355.442;   12.084;   -6.945;  753.071
356.038;   13.953;   -7.564;  751.708
356.633;   13.696;   -5.814;  728.594
357.229;   11.760;   -7.364;  724.757
357.824;   10.233;   -8.024;  703.600
358.420;    8.601;   -9.384;  679.726
359.015;    9.443;   -5.104;  695.357
359.610;   11.580;   -6.854;  763.920
360.206;    4.822;  -10.185;  603.240
360.801;    7.766;   -7.054;  646.503
361.396;    9.409;   -5.034;  725.975
361.992;    5.472;   -8.284;  668.220
362.587;    2.733;   -8.625;  670.160
363.182;    4.722;   -7.674;  689.631
363.777;    5.500;   -5.164;  738.242
364.372;    5.544;   -8.604;  737.314
364.967;    1.120;   -9.055;  680.744
365.563;    5.238;   -6.114;  815.567
366.158;    2.378;   -5.814;  685.161
366.753;    3.014;   -7.854;  649.263
367.348;    1.387;   -7.804;  746.056
367.942;    1.359;   -7.954;  697.298
368.537;   -0.112;   -4.984;  754.245
369.132;    0.834;   -8.564;  703.428
369.727;   -3.884;   -8.855;  638.079
370.322;   -1.945;   -6.245;  580.186
370.917;   -2.994;   -6.425;  710.646
371.511;    0.360;   -6.294;  861.834
372.106;   -3.361;   -7.685;  776.964
372.701;   -6.487;   -7.335;  585.988
373.296;   -0.913;   -4.564;  863.135
373.890;   -5.145;  -10.235;  647.840
374.485;   -7.341;   -7.885;  691.199
375.079;   -3.436;   -7.324;  738.685
375.674;   -1.785;   -3.494;  812.970
376.268;   -6.514;   -8.525;  691.759
376.863;  -12.511;  -10.086;  580.327
377.457;   -6.295;   -7.025;  662.490
378.052;   -7.999;   -3.585;  764.884
378.646;   -8.904;   -7.595;  741.167
379.240;   -8.466;   -8.335;  721.176
379.835;   -8.667;   -5.785;  636.978
380.429;  -10.165;   -4.335;  562.557
381.023;  -10.119;   -6.805;  779.205
381.617;  -12.502;   -9.195;  680.106
382.212;   -9.203;   -6.905;  685.303
382.806;   -8.459;   -3.745;  760.690
383.400;  -12.561;   -7.745;  672.281
383.994;  -13.100;   -9.765;  664.870
384.588;   -9.574;   -6.564;  697.701
385.182;   -8.140;   -5.344;  726.624
385.776;   -9.639;   -8.514;  706.875
386.370;  -13.039;   -9.555;  681.968
386.964;  -12.440;   -8.715;  684.155
387.558;  -10.409;   -6.174;  598.360
388.152;  -14.097;   -8.725;  681.959
388.745;  -11.969;   -7.965;  814.707
389.339;  -10.399;   -5.924;  747.642
389.933;   -9.558;   -5.524;  695.370
390.527;   -9.733;   -7.114;  859.029
391.120;  -16.715;  -10.725;  595.318
391.714;  -14.181;   -8.035;  711.633
392.308;  -11.203;   -3.574;  780.253
392.901;  -13.722;   -7.245;  642.460
393.495;  -15.932;   -9.285;  595.414
394.089;  -14.100;   -5.895;  760.452
394.682;  -14.265;   -4.295;  697.188
395.275;  -14.667;   -9.875;  719.927
395.869;  -15.975;   -8.485;  667.314
396.462;  -14.488;   -7.455;  616.609
397.056;  -11.079;   -5.424;  776.621
397.649;  -15.902;   -6.605;  731.575
398.242;  -13.051;   -8.224;  712.645
398.836;  -12.603;   -7.474;  766.408
399.429;  -13.259;   -7.094;  631.041
400.022;  -17.499;   -9.475;  665.902
400.615;  -14.285;   -7.145;  805.609
401.208;  -13.048;   -7.174;  691.451
401.802;  -14.738;   -5.515;  699.329
402.395;  -15.734;   -9.875;  683.502
402.988;  -16.724;   -8.845;  696.627
403.581;  -13.295;   -8.874;  646.878
404.174;  -12.094;   -5.324;  686.568
404.767;  -15.330;   -9.575;  638.583
405.360;  -16.729;  -10.965;  621.445
405.953;  -11.089;   -8.764;  759.034
406.545;  -11.127;   -7.514;  725.342
407.138;  -15.070;  -10.025;  618.350
407.731;  -13.964;  -10.034;  613.303
408.324;  -10.013;   -9.374;  660.554
408.917;  -10.804;   -6.534;  681.864
409.509;  -12.713;   -8.004;  740.396
410.102;  -14.947;   -9.875;  643.948
410.695;   -8.842;   -8.604;  665.758
411.287;   -9.441;   -6.794;  599.821
411.880;  -10.812;   -9.334;  585.421
412.472;  -14.435;  -10.254;  613.092
413.065;  -11.318;   -6.714;  629.408
413.657;   -9.164;   -7.234;  576.678
414.250;   -8.752;  -10.544;  646.681
414.842;  -10.554;   -9.744;  676.353
415.434;   -9.258;   -6.994;  570.463
416.027;   -4.940;   -5.893;  652.196
416.619;   -6.329;   -7.264;  713.400
417.211;   -6.705;  -10.374;  599.352
417.804;   -3.419;   -7.993;  628.499
418.396;   -8.133;   -7.234;  607.643
418.988;   -4.150;   -9.443;  659.238
419.580;   -8.519;  -10.724;  568.276
420.172;   -6.540;  -10.323;  536.196
420.764;   -2.895;   -8.793;  672.482
421.356;   -3.171;  -11.143;  636.898
421.948;   -4.389;   -8.293;  677.661
422.540;    0.941;   -7.893;  680.027
423.132;   -0.272;   -7.082;  600.641
423.724;   -2.926;   -8.653;  561.267
424.316;   -1.787;  -10.213;  621.345
424.908;    2.321;   -9.762;  591.517
425.500;    2.647;   -5.572;  647.978
426.092;    3.566;   -8.422;  648.268
426.683;    2.476;   -9.283;  684.836
427.275;    4.994;   -7.852;  641.471
427.867;    6.709;   -5.272;  668.948
428.458;    6.674;   -7.682;  732.344
429.050;    5.575;  -10.612;  680.749
429.642;    7.962;   -9.882;  743.124
430.233;    7.716;   -6.962;  569.356
430.825;    9.838;   -6.842;  724.809
431.416;    6.659;   -9.672;  698.241
432.008;   10.277;   -6.552;  651.723
432.599;   11.044;   -6.891;  656.073
433.190;    7.998;  -10.912;  637.670
433.782;    7.763;  -11.172;  590.395
434.373;   14.876;   -6.061;  884.765
434.964;   13.192;   -8.251;  602.920
435.556;   11.805;   -9.722;  634.537
436.147;   14.313;   -9.082;  758.490
436.738;   13.768;   -8.041;  701.099
437.329;   19.306;   -7.341;  721.723
437.920;   12.182;   -8.162;  666.688
438.511;   12.617;  -11.802;  564.526
439.103;   18.209;  -10.191;  623.998
439.694;   19.892;   -7.601;  681.583
440.285;   21.197;   -8.541;  764.432
440.876;   18.921;   -9.751;  845.738
441.466;   18.291;   -9.401;  575.162
442.057;   23.487;   -7.760;  665.814
442.648;   22.453;   -9.971;  746.255
443.239;   21.362;  -11.001;  620.477
443.830;   25.465;   -7.990;  704.958
444.421;   26.881;   -7.910;  655.474
445.011;   24.366;   -8.131;  693.619
445.602;   23.770;   -7.111;  743.126
446.193;   25.607;  -10.920;  488.117
446.783;   29.291;   -6.500;  640.397
447.374;   26.071;   -8.671;  692.759
447.964;   26.632;  -10.781;  713.770
448.555;   34.249;   -9.650;  822.742
449.145;   31.438;   -8.660;  662.853
449.736;   32.448;   -8.990;  803.179
450.326;   31.359;   -9.500;  713.626
450.917;   35.861;   -8.680;  675.324
451.507;   35.998;   -7.520;  600.661
452.097;   37.063;   -8.590;  746.267
452.688;   37.708;  -11.340;  742.160
453.278;   37.526;  -10.100;  566.840
453.868;   41.686;   -6.019;  793.550
454.458;   39.593;   -9.440;  651.141
455.048;   40.517;  -10.560;  711.783
455.639;   41.129;  -11.799;  567.096
456.229;   44.847;   -6.899;  710.694
456.819;   47.343;   -7.389;  751.158
457.409;   46.989;  -11.119;  773.993
457.999;   49.836;   -9.289;  737.505
458.589;   50.033;   -6.139;  686.606
459.179;   50.093;   -8.729;  717.658
459.769;   48.005;   -9.789;  627.099
460.358;   52.117;  -10.259;  797.262
460.948;   52.156;   -7.299;  689.503
461.538;   53.807;  -10.289;  660.677
462.128;   51.623;  -11.269;  664.934
462.717;   58.714;   -9.368;  710.326
463.307;   61.358;   -7.908;  705.846
463.897;   57.746;   -9.599;  656.942
464.486;   56.693;   -9.769;  837.128
465.076;   61.351;   -8.048;  733.776
465.666;   64.455;   -9.358;  652.900
466.255;   62.591;   -7.919;  785.651
466.845;   61.529;  -11.689;  666.749
467.434;   64.915;   -7.818;  725.873
468.023;   64.837;   -7.678;  658.357
468.613;   64.214;  -10.939;  713.946
469.202;   67.410;  -10.118;  646.507
469.791;   71.101;   -9.108;  737.811
470.381;   73.610;   -6.058;  742.813
470.970;   73.426;  -10.428;  711.099
471.559;   73.620;  -10.268;  733.291
472.148;   75.347;   -8.448;  675.737
472.738;   77.802;   -6.917;  765.466
473.327;   78.516;  -11.978;  637.529
473.916;   77.896;  -11.888;  737.446
474.505;   81.787;   -9.437;  751.703
475.094;   84.501;   -6.747;  806.570
475.683;   84.725;   -9.367;  797.699
476.272;   85.009;  -12.637;  730.632
476.861;   88.133;  -10.027;  706.754
477.449;   94.167;   -8.716;  728.487
478.038;   88.526;   -9.577;  692.513
478.627;   89.923;   -9.718;  714.852
479.216;   96.389;   -8.947;  769.441
479.805;   99.361;   -6.256;  783.375
480.393;   99.436;   -7.937; 1008.945
480.982;   98.369;   -7.717;  874.501
481.571;  104.519;   -9.266;  858.333
482.159;  105.001;   -7.636;  705.386
482.748;  105.182;   -9.667;  821.385
483.336;  109.868;  -10.376;  858.209
483.925;  109.998;   -7.147;  774.373
484.513;  117.135;   -7.996;  758.962
485.102;  113.378;  -10.027;  810.965
485.690;  121.516;  -10.446; 1011.050
486.278;  123.780;   -8.446;  979.329
486.867;  124.180;   -6.356;  809.662
487.455;  126.315;   -9.136;  898.229
488.043;  127.539;  -10.646;  748.361
488.631;  136.467;   -7.456; 1005.079
489.220;  140.302;   -6.636;  908.626
489.808;  140.481;  -11.036;  741.415
490.396;  148.802;  -10.246;  914.645
490.984;  153.510;   -8.556;  830.161
491.572;  164.084;   -5.886;  940.315
492.160;  169.493;   -9.486;  919.081
492.748;  181.805;  -10.976;  884.341
493.336;  205.462;   -8.776; 1019.693
493.924;  231.955;   -5.465;  958.077
494.512;  259.514;   -9.986; 1066.638
495.100;  296.695;  -10.636; 1103.280
495.687;  351.560;  -10.885; 1206.373
496.275;  415.459;   -8.126; 1150.796
496.863;  489.969;  -10.586; 1281.171
497.451;  592.822;  -11.926; 1386.805
498.038;  722.444;  -10.885; 1556.729
498.626;  832.668;   -6.315; 1741.407
499.214;  986.360;   -7.326; 2016.609
499.801; 1181.093;  -11.906; 2220.633
500.389; 1436.998;  -10.466; 2312.494
500.976; 1741.845;   -5.236; 2744.849
501.564; 2182.393;   -8.936; 3148.565
502.151; 2550.848;  -13.176; 3515.999
502.738; 2997.914;  -10.646; 3971.274
503.326; 3390.262;   -9.525; 4403.796
503.913; 3774.481;  -10.856; 5161.749
504.500; 4140.604;  -11.586; 5986.420
505.088; 4575.509;  -10.336; 6381.201
505.675; 5098.080;   -6.355; 6925.547
506.262; 5823.499;   -9.046; 7619.060
506.849; 6544.029;  -10.416; 8733.969
507.436; 7020.208;  -10.305; 9790.121
508.023; 7602.828;   -5.496; 9985.472
508.610; 7860.545;   -7.856;10434.618
509.197; 8484.384;  -10.097;11198.435
509.784; 9843.163;  -10.886;12391.194
510.371;10914.653;   -9.315;13603.713
510.958;11678.065;   -9.936;14426.586
511.545;12437.996;   -9.326;15243.775
512.132;13198.971;  -10.075;15945.876
512.719;13697.229;   -7.796;16340.369
513.305;14592.386;  -10.606;18011.766
513.892;15332.142;  -11.486;19754.971
514.479;16679.467;   -9.126;20967.805
515.066;18233.707;   -6.026;22299.793
515.652;19642.006;   -8.466;22908.660
516.239;20797.217;  -10.886;23798.875
516.825;21613.980;  -11.496;25567.275
517.412;22525.439;   -5.796;28154.959
517.998;23128.631;  -10.506;28344.111
518.585;23283.184;  -10.076;27134.219
519.171;23787.209;   -8.315;27268.576
519.758;25189.418;   -8.596;28964.129
520.344;26984.150;   -8.466;30664.494
520.930;26947.037;  -11.006;32550.605
521.516;28043.125;  -10.495;35422.895
522.103;30231.941;   -5.526;38280.004
522.689;30593.408;   -8.746;37835.117
523.275;30192.264;  -11.376;37288.613
523.861;31652.393;  -11.156;37281.395
524.447;33092.070;   -8.135;37846.949
525.033;33009.227;   -7.896;38321.949
525.619;33182.090;  -12.476;38579.285
526.205;34684.555;   -9.516;40622.875
526.791;36839.465;   -6.926;42258.836
527.377;37059.848;   -8.346;42966.902
527.963;38455.953;   -8.717;42018.949
528.549;37129.984;  -11.016;42476.828
529.135;35755.328;   -8.536;41854.852
529.721;34879.074;   -9.666;41237.711
530.306;34114.320;  -10.066;41259.445
530.892;34000.836;  -11.356;41506.047
531.478;35543.871;   -6.596;43559.613
532.063;38464.887;   -8.836;47695.563
532.649;39143.844;  -10.047;50808.324
533.235;39796.543;   -9.746;51787.500
533.820;40137.473;   -6.566;52145.035
534.406;41612.621;  -10.817;51133.488
534.991;41421.148;   -9.416;49996.805
535.576;39989.074;   -9.036;48882.852
536.162;40478.523;   -6.156;46942.285
536.747;41282.332;  -11.607;45711.746
537.333;44606.594;  -11.787;48510.180
537.918;47746.848;  -12.437;50439.891
538.503;46626.426;   -7.196;50863.711
539.088;42986.957;  -10.556;50906.922
539.673;42688.813;   -8.767;52621.965
540.259;43128.375;  -10.026;52368.094
540.844;40920.332;   -7.416;50879.109
541.429;42314.086;   -9.467;52077.777
542.014;44848.555;   -9.527;52716.695
542.599;44035.867;   -9.946;52363.281
543.184;41753.234;   -7.927;53187.137
543.769;43036.609;   -9.297;54697.605
544.354;42720.340;  -10.127;53913.914
544.938;41628.020;   -9.267;49680.164
545.523;43499.148;   -6.506;47386.277
546.108;46345.945;   -9.787;49151.949
546.693;48285.293;  -11.587;51384.637
547.278;48030.734;  -10.986;51853.254
547.862;45293.805;   -8.206;51173.750
548.447;41083.953;  -10.067;51691.395
549.031;40778.402;   -9.637;52456.703
549.616;45479.305;   -9.926;52714.516
550.201;44771.531;   -6.347;52414.598
550.785;45800.109;   -7.917;52355.059
551.370;44891.293;  -10.867;54589.453
551.954;44365.555;   -9.047;58267.348
552.538;45156.828;   -7.827;59062.176
553.123;43691.590;  -10.287;58115.285
553.707;41469.105;  -12.178;56556.285
554.291;42975.297;   -8.717;56201.668
554.876;45510.645;   -7.457;55335.762
555.460;45613.230;  -10.387;54155.703
556.044;46339.234;   -9.618;53721.484
556.628;45284.816;  -11.567;53731.016
557.212;44392.324;   -8.097;54312.531
557.796;42862.309;  -11.077;53797.773
558.380;42900.430;  -11.108;56145.984
558.964;43224.160;   -9.057;57277.930
559.548;44571.949;   -6.977;56459.641
560.132;43129.293;  -11.457;54434.543
560.716;41461.746;  -11.378;54800.617
561.300;42278.922;   -9.577;57606.945
561.884;43457.383;   -7.127;58972.445
562.467;41731.520;   -7.118;57327.570
563.051;41204.215;  -13.358;54962.434
563.635;42362.145;  -10.178;52594.473
564.219;42579.391;   -7.837;50610.410
564.802;43507.043;  -11.398;49551.180
565.386;43381.188;  -12.788;48370.953
565.969;42516.004;   -9.077;48178.871
566.553;41568.086;   -6.207;49957.305
567.136;42349.387;   -8.568;50369.594
567.720;39123.969;  -11.868;49492.004
568.303;37149.219;   -8.268;50616.352
568.887;37202.250;   -8.698;50727.148
569.470;37569.074;   -6.808;51698.379
570.053;36217.406;  -13.188;52122.078
570.637;34673.133;  -12.037;52536.438
571.220;34683.316;   -8.577;51186.098
571.803;35395.793;   -8.498;51032.762
572.386;37197.184;  -10.498;49609.887
572.969;39482.820;   -9.388;48285.926
573.552;38000.465;   -8.338;47624.285
574.135;36749.605;   -8.518;45498.641
574.718;34445.910;  -13.628;41970.434
575.301;33387.000;  -10.893;41447.137
575.884;32328.090;   -8.158;40923.836
576.467;33246.426;  -10.328;45267.723
577.050;34366.449;  -13.058;48175.543
577.633;34888.813;   -9.458;47729.328
578.216;33870.074;   -8.928;47579.793
578.799;33738.648;   -9.358;47820.996
579.381;33527.848;  -11.388;48115.551
579.964;32217.025;  -11.718;47333.766
580.547;34076.922;   -8.588;46668.969
581.129;35435.754;   -8.859;44466.141
581.712;36485.547;  -10.729;44164.922
582.294;37047.988;  -11.118;46477.855
582.877;36585.301;   -5.218;48244.254
583.459;34287.887;   -8.679;47437.895
584.042;32372.955;  -10.709;46943.219
584.624;32684.199;  -11.669;46792.227
585.206;32168.443;   -8.218;46557.250
585.789;31911.598;  -10.569;45793.773
586.371;34516.445;  -11.859;43836.391
586.953;34928.629;  -10.719;42972.492
587.536;35801.570;   -7.198;42487.211
588.118;35558.027;   -8.720;42086.414
588.700;30884.686;  -10.439;43389.930
589.282;28232.912;   -9.198;43646.039
589.864;27612.582;   -9.199;43438.109
590.446;29364.721;  -11.319;43151.926
591.028;31978.721;  -11.159;42781.867
591.610;32934.734;  -11.779;42839.098
592.192;31095.340;   -7.668;42820.402
592.774;29802.867;  -11.949;40724.277
593.356;28572.383;  -12.129;39874.789
593.937;27522.146;  -10.669;39980.648
594.519;29647.748;   -6.509;42069.633
595.101;31713.842;  -10.849;42976.031
595.683;31843.904;  -11.679;44084.441
596.264;32872.336;   -9.049;43478.797
596.846;32433.035;   -8.849;43803.672
597.427;32580.092;   -9.570;42986.934
598.009;34272.902;  -12.620;42832.219
598.591;34610.109;  -10.039;42580.086
599.172;33871.602;  -10.369;43061.805
599.753;34159.492;   -9.140;41691.469
600.335;35754.691;  -11.430;40692.520
600.916;33826.387;   -9.939;39982.422
601.498;31083.059;   -8.479;40318.617
602.079;29570.443;  -10.920;40670.609
602.660;29317.184;  -11.480;41450.898
603.241;30885.063;  -11.699;41137.738
603.823;29661.305;   -9.579;38868.797
604.404;28836.881;  -10.620;38182.785
604.985;30532.795;  -10.450;38078.047
605.566;30719.912;   -9.129;38056.633
606.147;31002.277;   -7.510;37020.418
606.728;32350.756;  -10.660;37883.359
607.309;30827.260;  -11.740;38748.273
607.890;30398.814;   -9.759;38850.230
608.471;29891.111;   -8.250;37457.918
609.051;29093.074;   -9.240;36066.457
609.632;27991.012;  -12.120;35991.074
610.213;28607.613;   -9.110;37402.641
610.794;29316.977;   -8.030;38383.363
611.374;28974.373;   -8.110;40562.387
611.955;29687.680;  -13.560;38533.727
612.536;30965.039;  -11.400;36951.789
613.116;30743.787;   -8.070;37197.891
613.697;31091.635;  -10.830;38411.125
614.277;29429.094;  -11.641;38673.938
614.858;30333.223;  -13.310;37075.863
615.438;29543.881;   -7.460;35092.906
616.019;27027.521;   -7.601;33666.301
616.599;27642.855;  -12.020;34189.023
617.179;29513.523;  -11.780;36952.047
617.760;30555.834;   -8.570;39582.574
618.340;31549.273;  -11.471;38943.977
618.920;32738.424;  -11.170;37594.156
619.500;32507.115;  -11.071;37866.938
620.080;31439.436;   -7.750;37869.043
620.660;32561.398;  -12.711;36868.617
621.241;33867.516;  -10.211;36352.309
621.821;34318.188;  -10.961;35459.520
622.401;33414.164;   -7.720;35207.414
622.980;32726.691;   -8.981;35980.422
623.560;31219.570;   -9.331;37351.328
624.140;29816.828;   -9.850;34388.582
624.720;24862.928;   -7.451;32368.764
625.300;21562.986;   -9.070;32638.629
625.880;24908.928;  -12.601;34599.035
626.459;28664.535;  -11.751;36831.738
627.039;31627.686;   -9.281;38299.098
627.619;31466.268;   -8.801;38289.574
628.198;30033.080;  -12.071;37220.695
628.778;29286.080;   -9.461;37632.563
629.357;29927.771;   -8.491;38003.012
629.937;29899.412;   -9.721;38402.039
630.516;29659.834;   -9.951;37868.801
631.096;29583.063;  -11.731;35760.410
631.675;31725.463;   -8.572;35225.219
632.254;36652.484;  -11.282;35130.289
632.834;36109.711;  -13.322;35794.570
633.413;34306.879;  -10.301;35788.922
633.992;31792.125;   -8.582;34532.863
634.571;32671.186;   -8.352;33590.113
635.151;35810.008;  -11.912;34943.863
635.730;34134.281;  -10.511;35352.523
636.309;30389.777;   -7.731;35366.605
636.888;27722.643;   -9.952;36165.637
637.467;28313.877;  -11.672;37515.902
638.046;30010.535;   -8.901;39288.695
638.625;33218.805;   -7.912;38279.699
639.204;32930.863;  -10.022;37741.598
639.782;31451.535;  -12.252;38364.551
640.361;28029.969;  -10.041;36740.621
640.940;25358.213;  -11.161;34950.082
641.519;26169.301;   -9.701;34137.398
642.097;28856.170;  -11.271;35654.258
642.676;31420.986;   -8.651;35637.957
643.255;32174.320;   -8.711;36567.074
643.833;31366.975;   -9.581;37809.434
644.412;31218.570;  -13.711;37337.293
644.990;30147.584;  -11.811;37018.531
645.569;29954.330;   -9.411;36518.469
646.147;29016.676;  -10.291;36186.430
646.726;29139.555;  -12.401;36267.688
647.304;30526.746;  -10.411;36647.625
647.882;32162.369;   -9.651;39286.742
648.461;33590.883;   -9.631;39157.703
649.039;31965.381;  -11.881;35412.883
649.617;31355.313;   -9.661;34744.918
650.195;30938.557;   -9.301;35403.098
650.773;29452.285;  -10.511;35053.797
651.352;26878.049;  -11.521;33756.816
651.930;24623.758;  -12.211;31868.773
652.508;23362.000;   -9.171;33121.551
653.086;27336.906;   -9.371;33564.793
653.663;30150.094;  -13.161;34054.668
654.241;28791.166;  -13.031;35693.309
654.819;30311.268;   -9.371;36422.906
655.397;30432.400;  -10.511;38213.484
655.975;29979.730;  -10.371;39507.625
656.553;29890.529;  -10.051;39498.223
657.130;28321.119;  -10.061;40395.480
657.708;27538.752;   -9.561;39242.020
658.286;27676.656;  -11.511;38920.020
658.863;29157.795;  -10.261;40202.898
659.441;32313.232;   -7.531;39677.938
660.018;31834.535;   -9.501;40413.355
660.596;30540.430;  -13.301;39931.414
661.173;32184.008;  -11.211;39604.531
661.750;32113.594;   -9.951;39700.070
662.328;30775.174;   -9.390;39292.809
662.905;30107.377;  -11.330;38235.648
663.482;26196.287;   -9.050;36212.305
664.060;24406.139;   -8.240;35944.945
664.637;27041.135;  -10.050;35170.785
665.214;28854.578;  -11.760;34197.523
665.791;30593.902;  -10.530;34549.520
666.368;29395.361;   -9.690;35118.578
666.945;29784.672;   -9.320;36019.418
667.522;31302.961;  -11.860;36048.438
668.099;30981.076;  -10.770;36243.914
668.676;29737.389;   -6.260;35958.875
669.253;28529.102;   -7.000;37384.730
669.830;29301.658;  -10.190;36779.629
670.407;29067.016;   -9.550;35231.289
670.984;28757.553;   -9.260;35544.270
671.560;29371.387;   -9.280;35466.867
672.137;28907.258;  -11.810;34280.863
672.714;29791.729;  -11.490;34632.863
673.290;30280.773;   -7.740;35135.422
673.867;30421.980;  -10.660;36114.480
674.443;30405.762;  -12.230;36152.859
675.020;28628.516;  -10.450;35327.238
675.596;29570.336;   -9.260;35795.176
676.173;29898.027;  -10.780;35430.355
676.749;29670.496;  -13.690;33549.516
677.326;29766.354;  -11.980;32210.012
677.902;29788.551;   -8.630;32068.871
678.478;29207.930;  -10.730;32583.891
679.054;28545.719;  -10.520;32088.928
679.631;28774.871;  -11.920;30978.848
680.207;30391.299;   -7.490;33160.887
680.783;31964.877;   -9.860;35570.363
681.359;31045.650;  -13.380;36125.184
681.935;30512.396;  -12.480;35240.922
682.511;29954.025;   -7.900;34429.961
683.087;30166.914;   -7.710;34463.680
683.663;29631.096;  -11.480;34648.898
684.239;28312.143;  -14.090;34546.457
684.815;27917.674;   -7.560;35586.375
685.390;28265.666;   -9.910;35821.895
685.966;28749.227;  -11.159;35085.871
686.542;31041.691;  -11.169;34198.230
687.118;33463.395;   -5.959;32847.707
687.693;33922.316;  -10.329;32794.027
688.269;33553.289;  -12.059;33072.367
688.844;31621.793;  -10.909;33141.664
689.420;29446.141;   -8.019;33965.742
689.995;27244.641;   -8.399;34655.523
690.571;25848.451;  -10.949;33576.742
691.146;26212.508;   -9.619;32657.219
691.722;25762.490;   -8.999;32526.979
692.297;25429.891;  -11.589;33014.617
692.872;27169.291;  -11.739;34012.254
693.448;26929.291;  -11.059;34237.434
694.023;26172.912;  -10.139;34142.672
694.598;28018.188;   -9.029;34132.031
695.173;28338.000;  -13.319;34205.250
695.748;27531.109;  -10.169;32882.488
696.323;27800.701;   -8.339;32864.906
696.898;28128.170;   -8.169;33170.004
697.473;28104.379;  -12.309;32432.984
698.048;27590.541;  -10.989;31649.303
698.623;27330.859;   -9.329;30778.141
699.198;29161.869;   -9.849;31140.119
699.773;30198.281;  -12.329;31764.299
700.348;28516.209;  -10.389;31780.816
700.922;28584.148;   -9.269;32046.375
701.497;29687.408;   -9.329;32603.574
702.072;29981.559;  -10.789;34799.871
702.646;28403.488;  -10.839;35793.172
703.221;26154.322;   -9.099;35201.590
703.795;28318.383;  -10.939;34764.527
704.370;28773.311;  -12.859;34307.367
704.944;29183.826;  -11.559;33509.887
705.519;30002.635;   -7.939;31388.584
706.093;31356.494;  -10.499;31340.104
706.668;31800.139;  -11.289;32630.281
707.242;30769.330;  -11.509;32728.779
707.816;29171.555;   -9.639;32947.238
708.390;27699.500;  -11.429;33277.855
708.965;28045.438;  -11.869;33834.336
709.539;27818.934;  -11.689;33709.273
710.113;28310.703;  -10.478;33044.313
710.687;28012.684;  -10.228;31953.992
711.261;26440.801;  -13.698;30505.949
711.835;26084.072;  -13.378;30262.369
712.409;26722.357;   -9.698;31254.447
712.983;28770.156;  -11.898;32754.986
713.557;29851.178;  -15.138;34018.824
714.131;29513.764;  -14.098;34579.625
714.704;28529.041;   -9.958;33890.262
715.278;26195.904;  -10.028;33531.102
715.852;25012.566;  -11.148;33601.660
716.425;25765.172;   -9.068;33515.117
716.999;26619.119;  -10.038;33185.555
717.573;27701.195;   -9.798;33905.996
718.146;28807.002;  -12.378;35199.293
718.720;29014.168;  -11.918;35060.551
719.293;28439.883;   -8.088;34973.230
719.867;31220.195;  -10.888;36394.449
720.440;30964.387;  -11.938;36663.008
721.013;29419.340;  -12.818;35102.426
721.587;28003.580;  -10.298;33985.266
722.160;26858.285;  -10.048;33524.965
722.733;25758.232;  -12.108;32987.043
723.306;25985.715;  -10.818;33066.301
723.880;28629.549;   -8.908;33399.500
724.453;31006.760;   -9.878;33468.297
725.026;30175.463;  -11.188;33816.637
725.599;27199.076;  -11.678;32797.996
726.172;27177.209;   -9.618;33187.434
726.745;28093.000;   -8.258;35136.613
727.318;29347.279;  -12.978;35751.730
727.891;30118.561;  -12.148;35890.430
728.463;29918.104;   -8.968;34822.090
729.036;28873.791;  -10.188;32895.086
729.609;29283.229;  -11.788;31823.225
730.182;26239.594;  -11.788;31445.283
730.754;23820.271;  -10.268;32373.223
731.327;23900.818;   -9.998;33676.820
731.900;24053.012;  -12.228;33417.000
732.472;25294.139;  -13.848;31978.498
733.045;27277.258;   -8.698;30368.777
733.617;27307.602;  -10.607;30574.215
734.190;27060.254;  -11.507;31280.975
734.762;24370.652;  -13.647;31674.412
735.334;22513.482;   -9.767;31247.291
735.907;23092.564;   -9.897;29876.211
736.479;23276.549;  -11.637;29808.488
737.051;23024.752;   -9.567;30233.547
737.623;23954.916;   -8.187;31469.086
738.195;24486.137;  -11.187;31784.225
738.768;26176.465;  -12.337;32120.523
739.340;26692.227;  -12.227;32094.342
739.912;25777.756;  -11.057;31312.680
740.484;24281.379;  -10.207;31946.238
741.056;22949.289;  -10.047;32984.059
741.628;24692.426;  -13.627;33897.715
742.199;26879.793;   -7.177;33213.016
742.771;25155.328;  -10.797;31369.113
743.343;22831.348;  -11.997;31865.473
743.915;21854.018;  -12.867;32388.631
744.487;21953.730;   -7.617;31079.568
745.058;22273.018;   -9.557;30570.107
745.630;22767.830;   -9.877;29970.127
746.201;23654.293;  -14.177;29186.766
746.773;24240.709;   -9.237;28805.723
747.344;24063.906;   -9.847;29591.223
747.916;22573.313;  -11.657;31412.201
748.487;22713.346;  -10.587;32194.898
749.059;23794.563;   -8.707;32533.719
749.630;24319.436;  -10.537;32158.518
750.201;23179.307;  -11.687;30855.395
750.773;21441.273;  -11.647;28622.555
751.344;21359.479;   -7.147;28405.732
751.915;22690.785;   -9.757;28461.551
752.486;22898.594;  -12.427;27842.850
753.057;20633.621;  -12.227;27845.008
753.628;19346.338;  -10.417;27728.107
754.199;20432.650;  -11.767;27381.086
754.770;21440.908;  -11.187;25882.203
755.341;21400.412;  -10.507;25886.184
755.912;21520.295;   -9.387;26050.861
756.483;21116.180;  -10.647;26798.779
757.054;19406.209;  -11.837;27048.238
757.625;18103.166;  -12.716;26294.838
758.195;17659.115;   -9.666;26142.076
758.766;17313.289;   -8.656;26392.234
759.337;18143.098;  -12.856;26334.594
759.907;19762.975;  -13.366;27579.652
760.478;20685.082;   -8.576;28352.770
761.048;20161.219;  -10.526;27325.088
761.619;19375.859;  -11.116;26460.428
762.189;19359.998;  -12.136;26029.826
762.760;20314.986;   -9.456;26430.145
763.330;21481.256;   -7.136;26670.902
763.900;21035.646;  -11.786;26603.021
764.471;18520.107;  -11.546;25542.740
765.041;17278.041;   -8.096;24358.459
765.611;17305.092;   -8.876;23991.297
766.181;17641.590;  -12.196;24470.236
766.751;18619.982;  -11.636;24845.975
767.321;18467.852;  -10.156;24533.633
767.891;16629.785;  -11.766;24916.492
768.461;16041.694;  -14.936;24776.771
769.031;16475.369;  -12.356;24757.988
769.601;18057.689;   -7.526;24181.088
770.171;17938.666;  -10.766;23670.387
770.741;17106.725;  -13.176;22960.045
771.311;17186.918;  -10.616;22917.523
771.880;17618.443;   -9.576;23562.941
772.450;17361.594;  -10.336;24216.500
773.020;17198.592;  -13.516;24140.398
773.589;16358.704;  -13.466;24414.857
774.159;15668.760;   -8.686;23858.717
774.729;15402.367;   -9.476;22942.135
775.298;15063.407;  -13.666;22324.033
775.867;14719.313;  -11.716;21140.313
776.437;14823.229;   -9.906;20838.092
777.006;14657.261;  -12.166;20599.510
777.576;14482.408;  -12.356;20508.809
778.145;14485.014;  -11.646;20732.947
778.714;14366.586;   -8.226;21062.465
779.283;13658.443;   -9.556;20949.664
779.853;13130.302;  -14.116;20508.623
780.422;13593.543;  -11.506;20649.082
780.991;13155.593;   -9.556;21527.520
781.560;12009.196;   -9.095;22632.658
782.129;11903.017;  -12.135;23048.277
782.698;11976.117;  -10.865;23438.555
783.267;11580.054;   -9.335;23267.734
783.836;11496.581;  -11.045;22415.133
784.404;12485.566;  -13.865;20443.152
784.973;13094.771;  -13.095;19699.150
785.542;12973.254;  -11.575;19763.828
786.111;12771.319;   -9.705;20341.408
786.679;12285.773;  -12.105;20207.967
787.248;11993.292;  -12.455;19516.465
787.817;11808.680;  -11.535;18900.363
788.385;11470.669;   -9.765;17879.121
788.954;10936.535;  -14.005;17658.301
789.522;10414.838;  -11.955;17788.879
790.090;10983.668;  -10.135;18118.277
790.659;11414.322;  -10.975;18338.736
791.227;10933.997;  -13.375;18508.615
791.795;11351.638;  -12.375;17898.254
792.364;11755.171;  -10.725;17295.133
792.932;12113.001;   -9.715;16822.051
793.500;12222.188;  -12.675;17040.148
794.068;12392.480;  -13.495;17179.787
794.636;12517.269;  -10.885;16664.246
795.204;11878.566;  -11.045;16524.545
795.772;11893.137;  -13.175;17274.564
796.340;11432.159;  -12.445;17891.002
796.908;11264.209;   -9.735;17648.561
797.476;11181.122;   -9.815;17064.080
798.044;10736.767;  -13.985;16672.777
798.612; 9889.514;  -13.115;17023.996
799.180; 9507.666;  -10.185;16561.615
799.747; 9466.830;   -9.055;15962.773
800.315; 9198.931;  -12.385;15296.992
800.883; 8875.675;  -15.035;14801.771
801.450; 8928.441;  -10.365;14534.430
802.018; 9005.198;   -9.855;14173.248
802.585; 9123.326;  -11.905;14029.547
803.153; 9126.602;  -11.585;13836.846
803.720; 8938.517;   -9.095;13567.324
804.287; 8544.882;   -9.135;13360.622
804.855; 8133.418;  -11.604;13681.981
805.422; 8012.482;  -11.794;13536.560
805.989; 8044.371;  -10.734;13355.958
806.556; 8176.827;  -10.444;13747.896
807.124; 8388.766;  -12.764;13987.376
807.691; 8354.716;  -12.964;14038.674
808.258; 8195.071;  -11.134;14120.152
808.825; 7945.167;   -9.854;13860.111
809.392; 7999.217;  -10.504;13268.790
809.959; 7482.410;  -13.054;12680.389
810.526; 7027.535;   -8.294;12427.308
811.093; 7102.725;   -8.394;12030.105
811.659; 7792.755;  -12.304;11653.664
812.226; 8334.624;  -13.944;11637.183
812.793; 8047.646;  -10.484;11611.521
813.360; 7440.940;  -10.144;11885.181
813.926; 7143.602;  -11.684;12770.539
814.493; 6909.101;  -13.644;12677.638
815.060; 6470.350;   -9.724;11974.336
815.626; 6435.706;   -9.854;11594.715
816.193; 6816.929;  -13.254;11579.474
816.759; 6822.556;  -13.204;11666.972
817.325; 6919.956;   -9.434;11325.530
817.892; 7345.994;  -10.134;11105.369
818.458; 7827.016;  -13.474;10843.928
819.024; 7490.069;  -11.854;10714.406
819.591; 7196.354;  -10.244;10469.165
820.157; 6948.409;  -10.704;10235.523
820.723; 6382.987;  -12.324;10847.563
821.289; 6046.888;   -9.444;11040.980
821.855; 5976.532;   -8.374;10357.100
822.421; 6015.228;  -10.234; 9978.918
822.987; 6060.821;  -13.294; 9754.177
823.553; 5725.083;  -10.884;10065.755
824.119; 5519.187;   -8.884;10036.294
824.685; 5623.088;   -6.784;10029.192
825.251; 5745.050;  -12.004;10199.230
825.816; 5710.100;  -11.474; 9820.189
826.382; 5468.673;   -9.174; 9297.248
826.948; 5662.152;   -9.214; 9381.347
827.513; 6067.722;  -10.774; 9450.726
828.079; 5885.330;  -11.924; 9472.444
828.645; 5274.733;  -10.543; 9292.643
829.210; 5154.027;  -10.533; 9065.341
829.776; 5139.770;  -10.753; 9132.620
830.341; 5034.019;  -10.173; 9092.878
830.906; 5240.490;  -10.743; 9078.557
831.472; 5619.340;  -11.113; 8534.535
832.037; 5378.843;  -10.603; 8677.874
832.602; 4820.547;  -13.323; 8628.692
833.167; 4547.843;  -10.823; 8879.031
833.733; 4489.235;  -10.113; 9189.790
834.298; 4643.410;  -13.583; 9052.608
834.863; 4732.168;  -12.703; 8895.087
835.428; 4712.990;  -10.523; 8824.266
835.993; 4544.229;   -6.963; 8845.385
836.558; 4353.395;  -10.763; 8888.563
837.123; 4471.768;   -9.903; 8966.582
837.688; 4720.016;   -9.913; 8617.860
838.253; 4997.206;  -10.283; 8590.699
838.817; 5227.613;  -12.963; 8443.797
839.382; 5137.281;  -14.243; 8799.356
839.947; 4809.771;  -10.733; 8810.595
840.511; 4507.009;   -9.383; 8796.394
841.076; 4109.630;  -12.563; 8347.231
841.641; 4139.849;  -12.953; 8224.330
842.205; 4218.522;   -7.043; 8223.349
842.770; 4300.429;   -8.163; 8622.107
843.334; 4443.731;  -12.503; 8410.386
843.898; 4361.731;  -11.693; 8337.465
844.463; 4371.357;  -10.203; 8506.283
845.027; 4148.666;   -9.533; 8280.962
845.591; 3972.573;  -13.443; 8231.141
846.156; 3979.979;  -13.143; 7969.179
846.720; 3871.812;   -9.433; 7768.278
847.284; 3739.166;  -11.033; 7630.957
847.848; 3610.732;  -10.403; 7472.395
848.412; 3531.427;  -11.553; 7437.394
848.976; 3586.241;   -8.393; 7674.592
849.540; 3499.236;   -8.713; 7836.011
850.104; 3609.883;  -12.463; 7913.669
850.668; 3979.852;  -12.973; 7694.508
851.232; 4078.823;  -10.793; 7756.887
851.796; 3900.547;  -10.662; 7926.545
852.359; 3603.500;  -13.082; 7827.844
852.923; 3426.771;  -12.192; 7641.163
853.487; 3234.627;  -11.912; 7342.501
854.050; 3200.972;  -10.892; 7042.820
854.614; 3354.781;  -13.992; 7151.338
855.177; 3488.941;  -11.732; 7105.077
855.741; 3514.378;   -8.962; 6989.675
856.304; 3368.338;   -9.442; 6596.634
856.868; 3306.479;  -14.192; 6356.272
857.431; 3388.018;  -12.702; 6468.571
857.995; 3485.330;   -9.942; 6373.210
858.558; 3476.649;   -9.112; 6324.448
859.121; 3197.261;  -12.932; 6408.327
859.684; 3077.804;  -13.442; 6347.886
860.247; 3200.801;  -10.632; 6321.264
860.810; 3216.057;  -11.272; 6301.903
861.374; 2957.670;   -9.832; 6607.881
861.937; 2693.920;  -11.762; 6408.200
862.500; 2690.558;   -9.722; 6572.639
863.062; 2871.552;  -10.512; 6387.297
863.625; 3056.552;  -11.232; 6190.836
864.188; 3215.054;  -14.112; 5807.254
864.751; 3259.945;  -11.302; 5682.413
865.314; 3134.283;  -10.112; 5547.492
865.876; 2905.768;  -12.182; 5500.150
866.439; 2878.244;  -10.722; 5415.909
867.002; 2828.710;   -9.252; 5501.567
867.564; 2639.095;   -9.572; 5413.946
868.127; 2428.666;  -13.142; 5160.325
868.689; 2328.017;  -12.902; 5133.183
869.252; 2232.665;   -9.732; 5252.382
869.814; 2135.927;   -9.432; 5297.141
870.377; 2133.639;  -11.552; 5390.919
870.939; 2190.946;   -9.052; 5599.898
871.501; 2249.664;  -10.982; 5248.336
872.063; 2254.217;  -12.292; 4854.235
872.626; 2214.874;  -14.912; 4817.074
873.188; 2237.005;  -13.112; 4987.732
873.750; 2203.064;  -13.442; 4868.651
874.312; 2095.654;   -9.402; 4779.330
874.874; 2009.563;  -11.062; 4866.348
875.436; 1923.545;  -13.931; 4718.887
875.998; 1913.691;   -9.561; 4660.005
876.560; 1938.796;  -11.321; 4462.964
877.122; 1881.901;  -12.221; 4145.042
877.683; 1789.023;  -12.191; 4056.481
878.245; 1721.843;  -12.101; 3950.740
878.807; 1771.750;   -8.971; 4058.958
879.369; 1801.147;  -12.071; 3954.677
879.930; 1698.780;  -14.621; 3941.495
880.492; 1630.646;  -10.311; 4067.014
881.053; 1596.482;  -10.901; 3859.633
881.615; 1494.756;  -14.411; 3776.071
882.176; 1394.379;  -13.761; 3734.750
882.738; 1341.019;   -9.181; 3678.489
883.299; 1318.019;  -11.791; 3405.407
883.860; 1320.625;  -13.121; 3351.106
884.422; 1320.448;  -11.211; 3394.044
884.983; 1278.147;  -10.091; 3166.443
885.544; 1203.715;   -8.461; 3189.802
886.105; 1124.291;  -12.361; 3160.360
886.666; 1051.077;  -14.141; 3093.059
887.227;  991.858;  -11.361; 2941.957
887.788;  928.296;  -11.401; 2974.836
888.349;  867.195;  -13.791; 2721.214
888.910;  864.556;  -13.191; 2696.493
889.471;  869.159;   -9.881; 2560.172
890.032;  853.624;   -9.881; 2558.190
890.593;  834.648;  -10.371; 2567.669
891.153;  805.561;  -13.301; 2460.307
891.714;  753.715;  -11.431; 2372.046
892.275;  716.793;  -11.291; 2309.505
892.835;  679.664;  -11.471; 2382.543
893.396;  629.392;  -11.541; 2295.502
893.956;  573.196;  -11.181; 2162.420
894.517;  534.082;  -11.741; 2125.439
895.077;  527.131;  -11.671; 2086.978
895.638;  526.496;  -11.311; 2126.316
896.198;  497.224;   -9.831; 1838.275
896.758;  453.863;   -8.421; 1892.813
897.319;  423.375;  -12.351; 1792.232
897.879;  405.940;  -13.511; 1762.751
898.439;  380.108;  -12.001; 1661.149
898.999;  356.200;  -10.180; 1781.468
899.559;  348.672;  -12.030; 1703.347
900.119;  344.590;  -15.710; 1537.525
900.679;  339.060;   -8.900; 1638.384
901.239;  324.401;   -8.340; 1527.902
901.799;  313.355;  -13.910; 1456.441
902.359;  307.766;  -13.460; 1357.140
902.919;  301.906;  -11.490; 1331.118
903.479;  288.442;  -12.110; 1317.257
904.038;  267.516;  -11.720; 1262.595
904.598;  251.609;  -13.610; 1152.034
905.158;  246.558;  -11.040; 1240.893
905.717;  240.025;  -10.900; 1233.691
906.277;  229.688;  -15.080; 1217.330
906.836;  218.861;  -13.380; 1222.408
907.396;  209.783;  -10.780; 1193.047
907.955;  202.759;   -8.500; 1182.526
908.515;  196.276;  -12.760; 1099.364
909.074;  189.615;  -11.900; 1092.863
909.633;  184.223;   -8.950; 1069.121
910.192;  180.195;   -8.770; 1196.460
910.752;  174.199;  -12.390; 1029.960
911.311;  170.017;  -13.680; 1009.780
911.870;  167.506;  -12.370;  971.460
912.429;  168.079;  -10.900; 1094.080
912.988;  167.243;  -11.690; 1081.060
913.547;  162.870;  -13.240;  940.380
914.106;  157.097;  -11.990;  999.420
914.665;  154.800;   -9.990;  984.020
915.224;  153.115;  -12.880; 1035.760
915.782;  154.214;  -12.350;  922.560
916.341;  152.335;   -9.110; 1049.840
916.900;  148.670;   -9.270;  925.260
917.458;  147.102;  -13.240;  884.220
918.017;  147.083;  -13.550;  942.600
918.576;  146.235;  -12.320;  904.440
919.134;  144.302;  -11.490;  837.980
919.693;  142.371;  -13.670;  893.060
920.251;  140.496;  -15.470;  876.500
920.809;  138.905;  -11.290;  839.580
921.368;  139.252;  -10.210;  885.360
921.926;  138.320;  -12.140;  842.940
922.484;  137.090;  -13.080;  903.360
923.042;  135.804;  -11.720;  880.340
923.601;  138.977;   -7.480;  998.680
924.159;  137.769;  -11.570;  935.560
924.717;  134.462;  -13.840;  841.080
925.275;  134.156;  -10.640;  903.240
925.833;  134.282;  -11.540;  779.320
926.391;  134.188;  -12.960;  938.380
926.949;  133.247;  -14.130;  857.680
927.506;  133.651;  -11.750;  903.500
928.064;  133.659;  -10.250;  877.580
928.622;  133.917;  -13.030;  880.100
929.180;  132.847;  -13.400;  814.180
929.737;  133.730;  -10.700;  808.540
930.295;  137.048;  -10.070;  928.480
930.853;  139.345;  -11.960;  849.100
931.410;  139.636;  -13.120;  821.120
931.968;  138.804;  -10.770;  940.660
932.525;  139.035;  -10.680;  909.380
933.082;  139.291;  -13.130;  811.440
933.640;  140.277;  -13.210;  925.900
934.197;  138.066;  -11.060;  886.360
934.754;  139.843;   -9.580;  897.780
935.312;  143.280;  -14.000;  863.340
935.869;  146.627;  -10.710; 1012.980
936.426;  147.113;   -9.860;  872.800
936.983;  147.844;   -9.710;  889.020
937.540;  147.897;  -13.990;  838.280
938.097;  146.865;  -14.040;  940.120
938.654;  147.244;  -10.310;  898.860
939.211;  150.033;  -10.560;  952.480
939.768;  153.681;  -13.900;  915.420
940.324;  156.707;  -14.760;  904.200
940.881;  157.558;  -10.370;  878.500
941.438;  158.222;   -8.260; 1021.200
941.995;  154.317;  -12.540;  992.560
942.551;  153.133;  -14.670;  875.620
943.108;  152.884;  -10.450;  937.920
943.664;  155.410;  -10.750;  869.340
944.221;  159.404;  -11.550; 1088.140
944.777;  155.126;  -14.770;  869.680
945.334;  155.905;  -12.820;  884.840
945.890;  158.283;  -10.130;  946.480
946.446;  158.657;  -13.470;  947.020
947.003;  160.670;  -12.120;  964.940
947.559;  162.933;   -9.980; 1063.040
948.115;  161.795;   -9.080; 1026.540
948.671;  161.024;  -10.830;  967.300
949.227;  157.590;  -12.440;  859.560
949.783;  155.038;  -12.910;  858.900
950.339;  157.872;  -10.270;  991.000
950.895;  157.050;  -13.630; 1023.840
951.451;  156.502;  -15.100;  925.280
952.007;  156.864;  -11.330;  998.540
952.563;  157.941;  -10.580;  937.780
953.118;  157.061;  -13.440;  904.940
953.674;  157.017;  -12.710;  935.780
954.230;  156.574;  -10.350;  949.640
954.785;  152.971;   -9.190;  936.640
955.341;  151.300;  -11.200;  998.160
955.897;  149.941;  -16.560;  834.660
956.452;  151.187;  -12.570;  953.840
957.008;  150.184;   -7.970; 1083.640
957.563;  148.101;  -11.940; 1009.540
958.118;  142.189;  -13.450;  877.700
958.674;  142.413;  -12.030;  946.780
959.229;  143.569;   -9.410; 1013.980
959.784;  142.126;  -12.000;  832.400
960.339;  141.092;  -14.780; 1001.280
960.894;  138.200;   -9.860;  963.760
961.449;  134.449;   -9.970;  859.960
962.004;  134.895;  -10.900; 1212.840
962.559;  129.492;  -13.150;  860.140
963.114;  126.340;  -13.740;  742.480
963.669;  126.594;   -9.820;  915.500
964.224;  126.080;  -13.890;  874.340
964.779;  124.091;  -12.600;  828.420
965.334;  125.391;  -10.950; 1017.860
965.888;  126.091;  -11.170;  875.360
966.443;  129.003;  -12.540;  972.380
966.998;  129.312;  -15.780;  819.460
967.552;  127.613;   -9.760;  908.380
968.107;  123.233;   -9.060;  868.300
968.661;  124.704;  -11.950;  922.440
969.216;  124.896;  -12.800;  856.280
969.770;  125.900;  -11.210;  917.200
970.324;  126.648;  -11.610;  923.140
970.879;  126.461;  -11.370;  947.180
971.433;  120.914;  -12.540;  952.720
971.987;  112.729;  -11.320;  895.340
972.541;  103.169;  -10.720;  917.100
973.095;   95.881;   -9.680; 1009.460
973.649;   86.291;  -11.440;  809.480
974.203;   82.549;  -11.210;  829.040
974.757;   81.758;  -10.240;  855.220
975.311;   84.067;  -13.720;  872.600
975.865;   85.591;  -13.770;  881.820
976.419;   86.736;  -11.690;  857.400
976.973;   87.773;   -9.510;  849.620
977.526;   91.011;  -12.620;  949.920
978.080;   90.625;  -12.010;  796.780
978.634;   92.896;  -10.170;  921.320
979.187;   92.081;   -9.020;  905.400
979.741;   90.558;   -9.820; 1018.380
980.294;   86.226;  -14.870;  789.160
980.848;   84.486;  -12.380;  717.220
981.401;   86.925;  -10.350;  816.540
981.955;   89.381;  -13.720;  844.300
982.508;   88.140;  -11.490;  746.340
983.061;   89.143;  -10.000;  915.260
983.615;   84.950;  -11.480;  798.800
984.168;   82.955;  -13.220;  770.080
984.721;   81.886;  -13.960;  880.760
985.274;   81.185;  -10.870;  867.500
985.827;   80.340;   -9.790;  834.220
986.380;   78.614;  -13.120;  721.340
986.933;   78.031;  -12.450;  864.800
987.486;   76.572;  -10.210;  861.920
988.039;   75.752;   -8.430;  863.100
988.591;   73.954;  -10.520;  893.260
989.144;   72.356;  -14.860;  737.260
989.697;   71.416;  -13.080;  758.740
990.250;   71.249;  -10.150;  858.100
990.802;   70.481;  -13.430;  755.860
991.355;   71.320;  -12.750;  974.880
991.907;   69.438;  -12.040;  864.320
992.460;   67.556;  -11.330;  753.760
993.012;   66.453;  -13.610;  749.540
993.565;   66.047;  -13.460;  711.360
994.117;   66.809;   -9.360;  950.780
994.669;   63.886;  -11.300;  701.320
995.221;   61.458;  -13.540;  791.920
995.774;   60.111;  -13.430;  787.580
996.326;   59.083;  -12.520;  740.220
996.878;   59.239;  -10.950;  838.420
997.430;   56.695;  -14.300;  699.860
997.982;   55.545;  -13.760;  750.140
998.534;   54.748;  -11.530;  739.060
999.086;   51.826;  -10.310;  738.220
999.638;   49.738;  -12.530;  661.380
1000.190;   48.932;  -11.840;  699.320
1000.741;   48.771;  -10.260;  742.700
1001.293;   48.282;   -8.860;  686.020
1001.845;   48.258;  -13.700;  676.640
1002.396;   48.839;  -12.100;  743.400
1002.948;   48.311;  -12.760;  737.400
1003.500;   46.570;  -10.380;  723.780
1004.051;   47.462;  -11.900;  907.580
1004.603;   45.423;  -12.250;  791.820
1005.154;   42.217;  -13.210;  608.980
1005.705;   42.488;  -10.950;  723.960
1006.257;   42.279;  -13.880;  707.220
1006.808;   40.777;  -12.840;  685.460
1007.359;   40.603;  -10.570;  763.240
1007.910;   39.366;   -9.620;  646.640
1008.461;   39.147;  -13.630;  732.940
1009.013;   38.067;  -17.200;  588.340
1009.564;   38.954;  -10.200;  793.520
1010.115;   36.978;  -12.570;  597.040
1010.665;   37.239;  -15.150;  602.160
1011.216;   36.629;  -14.480;  667.920
1011.767;   36.283;  -11.340;  697.920
1012.318;   36.944;   -9.780;  736.980
1012.869;   35.461;  -12.380;  679.000
1013.419;   34.586;  -15.560;  603.120
1013.970;   35.326;  -11.010;  666.640
1014.521;   34.402;  -11.610;  620.620
1015.071;   34.883;  -13.450;  670.380
1015.622;   34.142;  -13.870;  635.460
1016.172;   33.837;  -11.610;  596.820
1016.723;   33.080;  -12.120;  614.380
1017.273;   33.017;  -13.620;  604.160
1017.823;   33.574;  -14.140;  650.340
1018.374;   32.104;  -12.800;  611.760
1018.924;   32.484;  -12.340;  716.880
1019.474;   33.637;  -11.410;  718.880
1020.024;   31.809;  -14.770;  657.580
1020.574;   32.370;   -9.780;  726.160
1021.124;   32.634;   -8.560;  673.580
1021.674;   31.194;  -15.190;  559.120
1022.224;   32.861;  -13.530;  708.940
1022.774;   31.794;  -13.280;  668.820
1023.324;   31.663;  -10.690;  753.520
1023.874;   33.507;  -10.240;  875.760
1024.423;   29.945;  -12.540;  613.700
1024.973;   30.272;  -10.010;  610.760
1025.523;   29.611;  -10.550;  620.960
1026.072;   29.388;  -13.560;  606.420
1026.622;   29.211;  -15.120;  675.740
1027.172;   29.987;  -11.260;  715.660
1027.721;   29.182;  -11.410;  601.220
1028.270;   29.807;  -13.530;  663.400
1028.820;   29.109;  -13.680;  638.080
1029.369;   28.567;  -13.520;  612.700
1029.918;   28.803;  -10.980;  649.840
1030.468;   28.444;  -13.530;  564.780
1031.017;   28.579;  -13.170;  634.800
1031.566;   27.741;  -12.200;  608.900
1032.115;   27.691;   -9.960;  694.500
1032.664;   26.988;  -13.210;  596.480
1033.213;   27.953;  -12.500;  735.420
1033.762;   26.711;  -11.910;  635.620
1034.311;   26.633;   -9.640;  677.220
1034.860;   27.804;  -13.310;  691.000
1035.408;   27.855;  -11.830;  722.720
1035.957;   27.344;  -12.000;  719.540
1036.506;   25.521;  -11.690;  530.800
1037.055;   27.837;  -10.990;  844.320
1037.603;   26.486;  -15.120;  664.000
1038.152;   24.325;  -12.450;  534.760
1038.700;   24.767;  -10.560;  585.740
1039.249;   25.524;  -11.080;  681.220
1039.797;   25.486;  -12.540;  633.360
1040.345;   24.820;  -11.920;  705.420
1040.894;   25.272;  -11.410;  625.300
1041.442;   24.493;  -14.320;  632.200
1041.990;   23.718;  -16.240;  559.160
1042.538;   23.237;  -11.680;  536.180
1043.087;   23.872;  -10.760;  570.860
1043.635;   25.440;  -11.850;  670.500
1044.183;   23.337;  -15.480;  586.400
1044.731;   23.137;  -11.770;  576.000
1045.279;   22.984;  -13.090;  674.920
1045.827;   24.590;  -12.440;  892.400
1046.374;   21.935;  -13.840;  515.420
1046.922;   21.331;  -13.220;  590.580
1047.470;   23.310;  -10.230;  691.300
1048.018;   22.889;  -14.590;  647.960
1048.565;   23.433;  -12.050;  708.600
1049.113;   21.630;  -11.650;  557.000
1049.660;   21.672;  -10.510;  629.660
1050.208;   21.902;  -13.310;  675.640
1050.755;   21.392;  -15.900;  606.580
1051.303;   22.234;  -11.430;  686.820
1051.850;   21.035;   -8.480;  635.120
1052.397;   20.331;  -15.010;  473.960
1052.945;   20.550;  -13.960;  617.760
1053.492;   22.025;  -13.150;  741.840
1054.039;   21.246;   -9.630;  720.180
1054.586;   19.903;  -13.680;  557.240
1055.133;   20.803;  -14.570;  693.140
1055.680;   20.184;  -13.820;  646.620
1056.227;   19.720;  -11.730;  542.780
1056.774;   21.689;  -12.480;  794.980
1057.321;   19.154;  -13.930;  523.260
1057.868;   19.025;  -11.690;  651.320
1058.415;   18.932;   -9.520;  651.980
1058.961;   20.321;  -13.160;  678.940
1059.508;   19.704;  -12.920;  643.820
1060.055;   19.444;  -11.920;  581.780
1060.601;   19.558;  -11.500;  624.300
1061.148;   19.342;  -14.330;  616.820
1061.694;   18.473;  -16.870;  592.580
1062.241;   17.809;  -10.330;  596.320
1062.787;   18.780;  -10.620;  663.140
1063.334;   20.018;  -10.110;  808.560
1063.880;   18.513;  -13.400;  668.360
1064.426;   18.243;  -10.680;  706.820
1064.972;   17.688;   -9.920;  601.340
1065.518;   16.592;  -10.980;  566.640
1066.065;   17.809;  -14.890;  624.460
1066.611;   17.259;  -12.870;  598.800
1067.157;   17.616;  -12.950;  641.860
1067.703;   18.018;  -13.540;  668.480
1068.249;   17.879;  -13.540;  605.220
1068.794;   16.728;  -12.600;  626.880
1069.340;   16.174;  -10.620;  578.960
1069.886;   17.525;  -12.830;  590.700
1070.432;   15.857;  -14.870;  541.720
1070.977;   15.661;  -11.980;  601.080
1071.523;   16.537;   -8.200;  573.060
1072.068;   17.096;  -12.330;  582.000
1072.614;   16.091;  -16.370;  527.760
1073.160;   16.866;  -11.100;  687.040
1073.705;   14.875;  -10.480;  572.520
1074.250;   15.609;  -14.520;  559.900
1074.796;   16.100;  -11.460;  655.160
1075.341;   15.389;  -11.950;  664.100
1075.886;   15.338;  -11.460;  594.240
1076.431;   15.647;  -13.770;  649.880
1076.976;   14.728;  -12.680;  639.220
1077.521;   14.731;  -13.170;  583.080
1078.067;   14.020;  -10.860;  579.400
1078.612;   15.373;  -13.920;  661.620
1079.156;   15.096;  -13.880;  601.540
1079.701;   15.727;  -13.120;  693.260
1080.246;   15.190;   -9.940;  696.300
1080.791;   14.244;  -14.740;  625.020
1081.336;   14.634;  -13.750;  659.320
1081.880;   13.750;  -13.400;  649.680
1082.425;   12.981;  -12.220;  573.480
1082.970;   14.683;  -11.610;  717.040
1083.514;   14.108;  -13.580;  597.000
1084.059;   12.391;  -12.810;  586.720
1084.603;   12.634;  -12.320;  565.840
1085.147;   13.739;  -13.190;  645.220
1085.692;   14.517;  -12.480;  716.800
1086.236;   11.886;  -13.020;  503.140
1086.780;   13.906;   -9.190;  751.440
1087.325;   14.066;  -12.480;  654.620
1087.869;   13.603;  -12.450;  610.700
1088.413;   13.667;  -12.240;  705.040
1088.957;   11.457;   -9.020;  543.400
1089.501;   13.571;  -10.320;  766.640
1090.045;   13.161;  -12.720;  726.480
1090.589;   11.063;  -13.690;  569.920
1091.133;   12.439;  -10.020;  673.340
1091.676;   12.521;  -12.330;  591.940
1092.220;   11.883;  -14.970;  600.920
1092.764;   12.492;  -12.430;  706.960
1093.307;   11.851;   -9.800;  673.780
1093.851;    9.738;  -14.970;  556.540
1094.395;   11.699;  -15.310;  683.140
1094.938;   10.391;  -10.370;  632.520
1095.482;   10.718;  -11.050;  559.800
1096.025;   11.972;  -11.840;  710.880
1096.568;   12.611;  -12.840;  779.280
1097.112;    9.283;  -14.700;  508.180
1097.655;   11.322;   -8.720;  603.000
1098.198;    9.474;  -13.610;  600.180
1098.741;    9.925;  -13.350;  612.860
1099.285;   11.375;  -11.230;  657.300
1099.828;    8.577;  -11.840;  439.400
1100.371;   10.509;  -10.840;  608.160
1100.914;   10.551;  -14.190;  682.660
1101.457;   10.178;  -11.240;  679.900
1101.999;    8.728;  -11.270;  584.680
1102.542;    9.976;  -11.480;  641.440
1103.085;    9.312;  -11.750;  658.500
1103.628;    9.874;  -11.400;  762.060
1104.170;    9.186;  -10.490;  588.280
1104.713;    9.587;  -10.600;  646.700
1105.256;    9.472;  -14.360;  557.440
1105.798;    7.833;  -13.210;  499.980
1106.341;    9.971;  -10.270;  728.900
1106.883;    8.198;  -12.200;  521.340
1107.425;    8.922;  -13.110;  668.180
1107.968;    7.933;  -12.840;  612.380
1108.510;    8.976;   -6.480;  684.960
1109.052;    8.035;  -13.940;  612.620
1109.594;    8.074;  -13.690;  554.440
1110.136;    9.329;  -11.880;  643.220
1110.679;    8.054;   -9.500;  633.080
1111.221;    8.445;  -14.160;  604.460
1111.763;    7.625;  -13.980;  559.220
1112.304;    7.012;  -13.880;  547.140
1112.846;    7.542;  -12.210;  666.240
1113.388;   10.693;  -11.390;  942.180
1113.930;    7.521;  -14.540;  694.200
1114.472;    6.483;  -12.640;  606.540
1115.013;    6.354;  -11.620;  551.280
1115.555;    6.190;  -13.640;  587.100
1116.097;    6.364;  -15.380;  579.480
1116.638;    7.133;  -12.640;  684.600
1117.180;    6.818;   -9.850;  667.740
1117.721;    7.135;  -13.690;  568.580
1118.262;    7.240;  -12.680;  677.960
1118.804;    6.662;  -12.530;  637.340
1119.345;    5.549;  -11.690;  578.400
1119.886;    7.238;  -13.380;  704.040
1120.427;    5.616;  -14.070;  589.020
1120.969;    5.275;  -13.500;  597.920
1121.510;    5.097;  -11.480;  563.060
1122.051;    5.761;  -12.830;  723.580
1122.592;    5.005;  -14.290;  655.420
1123.133;    5.157;  -12.400;  547.940
1123.673;    6.528;  -10.130;  706.480
1124.214;    5.620;  -12.930;  612.460
1124.755;    6.163;  -14.380;  639.460
1125.296;    5.382;  -14.000;  627.320
1125.836;    6.105;  -10.070;  691.500
1126.377;    5.161;  -12.640;  599.660
1126.918;    6.149;  -12.960;  614.980
1127.458;    3.891;  -13.350;  622.220
1127.999;    5.093;  -10.750;  656.980
1128.539;    5.157;  -12.350;  694.240
1129.079;    4.464;  -14.860;  632.720
1129.620;    3.883;  -13.840;  558.100
1130.160;    3.883;  -12.330;  539.480
1130.700;    5.154;  -14.530;  640.840
1131.240;    4.856;  -12.530;  643.700
1131.781;    3.642;  -14.450;  619.680
1132.321;    3.834;   -9.790;  599.120
1132.861;    3.284;  -14.860;  564.200
1133.401;    3.083;  -14.290;  593.940
1133.941;    3.901;  -11.750;  626.280
1134.481;    2.986;   -9.920;  597.580
1135.020;    4.030;  -12.290;  609.160
1135.560;    4.381;  -11.650;  674.940
1136.100;    3.315;  -16.270;  501.160
1136.640;    2.540;  -10.890;  510.480
1137.179;    3.486;  -14.180;  537.960
1137.719;    2.743;  -16.250;  605.400
1138.258;    2.754;  -14.230;  587.360
1138.798;    3.531;   -9.090;  663.780
1139.337;    2.268;  -15.130;  482.840
1139.877;    3.262;  -13.680;  642.360
1140.416;    4.764;  -11.320;  878.060
1140.955;    2.033;  -10.860;  535.380
1141.494;    2.614;  -12.920;  669.280
1142.034;    2.440;  -13.930;  583.520
1142.573;    3.380;  -11.440;  646.280
1143.112;    1.673;  -12.000;  553.480
1143.651;    2.261;  -13.670;  536.480
1144.190;    2.886;  -12.730;  691.640
1144.729;    2.064;  -14.560;  607.420
1145.267;    1.461;  -11.830;  584.900
1145.806;    3.311;  -12.230;  637.040
1146.345;    1.286;  -14.130;  635.020
1146.884;    1.579;  -11.590;  622.500
1147.422;    0.516;  -12.550;  533.060
1147.961;    3.093;  -11.180;  708.460
1148.500;    2.844;  -11.510;  669.720
1149.038;    2.103;  -11.640;  632.500
1149.577;    2.522;  -10.130;  698.640
1150.115;    0.658;  -13.970;  452.280
1150.653;    2.033;  -14.520;  607.340
1151.192;    1.337;  -12.810;  552.920
1151.730;    0.906;   -9.100;  652.560
1152.268;    1.153;  -12.220;  589.520
1152.806;    0.695;  -14.140;  571.180
1153.344;   -0.374;  -12.350;  577.640
1153.882;    0.832;   -8.980;  600.060
1154.421;   -0.879;  -15.190;  470.620
1154.958;    0.481;  -15.210;  595.240
1155.496;    0.859;  -12.850;  645.280
1156.034;    1.002;   -9.940;  721.880
1156.572;    1.551;  -13.570;  667.060
1157.110;   -0.672;  -14.590;  473.940
1157.647;    1.079;  -13.030;  676.960
1158.185;   -0.200;  -12.140;  564.320
1158.723;   -0.564;  -14.390;  509.200
1159.260;    0.641;  -14.090;  701.700
1159.798;    0.287;  -11.920;  658.160
1160.335;   -0.303;  -11.110;  631.820

