
Integration time [ms]:   3.276
Averaging Nr. [scans]: 1000
Smoothing Nr. [pixels]: 0
Data measured with spectrometer [name]: 7414430SP
Wave   ;Sample   ;Dark     ;Reference
[nm]   ;[counts] ;[counts] ;[counts] 

288.544;  149.010;    7.793;  793.890
289.143;  154.110;    7.462;  681.602
289.742;  153.037;    8.602;  828.814
290.341;  138.097;    1.321;  789.841
290.940;  128.193;   -0.709;  730.702
291.538;  128.909;    0.881;  881.108
292.137;  129.014;    0.122;  792.581
292.736;  133.741;   -1.929;  975.101
293.335;  130.035;   -8.229;  735.086
293.934;  129.523;   -5.279;  781.677
294.532;  128.365;   -1.369; 1031.958
295.131;  114.900;   -7.641;  834.394
295.730;  115.452;   -8.420;  809.588
296.328;  113.724;   -5.611;  783.442
296.927;  115.457;   -5.781;  779.652
297.525;  115.476;   -6.361;  781.236
298.124;  105.730;  -11.382;  654.009
298.722;  110.351;   -7.641;  761.933
299.321;  109.079;   -6.811;  708.597
299.919;  106.158;   -6.991;  751.918
300.518;  103.183;  -10.362;  689.338
301.116;  104.441;   -9.581;  691.381
301.715;  104.980;   -4.891;  730.222
302.313;  104.034;   -8.801;  704.943
302.911;   98.780;   -8.522;  733.830
303.509;  104.100;   -6.171;  925.627
304.108;  101.842;   -7.311;  760.383
304.706;  101.944;   -8.321;  801.664
305.304;   95.833;  -10.222;  796.707
305.902;   99.937;   -6.021;  784.484
306.500;   97.756;   -4.971;  728.200
307.098;   95.574;   -7.061;  746.560
307.696;   92.906;   -8.801;  780.432
308.294;   94.323;   -6.411;  731.359
308.892;   96.441;   -2.901;  759.769
309.490;   93.033;   -5.041;  712.161
310.088;   90.008;   -5.002;  788.444
310.686;   94.220;   -2.041;  821.749
311.284;   90.347;   -2.351;  766.040
311.882;   88.411;   -4.422;  731.225
312.480;   85.806;   -4.192;  697.167
313.078;   85.323;   -1.172;  808.331
313.675;   87.299;   -2.601;  691.600
314.273;   82.317;   -1.312;  797.837
314.871;   82.372;   -3.942;  589.829
315.468;   80.166;   -2.802;  652.090
316.066;   82.654;   -0.701;  694.427
316.664;   75.689;   -4.362;  656.351
317.261;   80.169;   -2.872;  910.128
317.859;   74.351;   -2.022;  768.735
318.456;   75.644;   -0.531;  830.096
319.054;   71.528;   -3.912;  787.828
319.651;   70.524;   -4.752;  759.928
320.249;   69.354;   -2.602;  810.188
320.846;   67.315;   -0.821;  714.286
321.443;   65.609;   -4.642;  832.135
322.041;   62.260;   -5.002;  812.315
322.638;   59.410;   -3.982;  701.456
323.235;   60.881;   -3.411;  665.683
323.833;   58.244;   -7.361;  740.354
324.430;   54.528;   -8.611;  615.900
325.027;   54.275;   -4.061;  876.855
325.624;   54.671;   -4.031;  644.532
326.221;   51.182;   -7.481;  689.717
326.818;   50.719;   -5.281;  818.332
327.415;   53.865;   -7.460;  748.828
328.012;   53.832;   -5.510;  690.585
328.609;   52.891;   -7.880;  731.389
329.206;   50.730;   -8.331;  778.621
329.803;   50.445;   -5.121;  737.841
330.400;   53.474;   -4.510;  704.260
330.997;   55.213;   -6.441;  817.147
331.594;   53.624;   -8.831;  788.185
332.191;   58.212;   -7.621;  728.722
332.787;   61.844;   -4.591;  844.463
333.384;   59.664;   -7.412;  763.093
333.981;   58.845;   -8.293;  815.687
334.578;   61.276;   -7.052;  708.378
335.174;   64.324;   -3.102;  731.469
335.771;   63.955;   -5.943;  836.456
336.367;   60.934;   -7.393;  710.631
336.964;   63.271;   -4.063;  793.266
337.561;   62.093;   -3.813;  731.112
338.157;   58.448;   -4.654;  911.916
338.754;   55.352;   -7.934;  796.589
339.350;   53.339;   -4.414;  722.493
339.946;   56.229;   -4.664;  773.135
340.543;   47.574;   -6.375;  846.136
341.139;   42.624;   -9.815;  720.836
341.735;   39.792;   -4.526;  772.593
342.332;   39.385;   -4.895;  691.472
342.928;   39.386;   -4.295;  795.394
343.524;   33.491;   -5.476;  761.684
344.120;   29.313;   -5.856;  738.562
344.716;   33.168;   -2.155;  723.717
345.313;   30.873;   -6.275;  795.342
345.909;   26.313;   -8.815;  627.336
346.505;   27.552;   -5.305;  740.247
347.101;   28.180;   -2.674;  827.864
347.697;   28.751;   -4.344;  785.398
348.293;   23.048;   -9.975;  627.244
348.889;   24.223;   -5.774;  745.914
349.485;   24.695;   -5.004;  688.205
350.081;   24.210;   -4.704;  772.592
350.676;   18.851;   -6.635;  691.606
351.272;   23.469;   -4.504;  809.530
351.868;   23.413;   -3.914;  780.497
352.464;   20.645;   -9.044;  723.932
353.059;   16.606;   -8.314;  646.017
353.655;   19.643;   -7.024;  777.063
354.251;   21.284;   -5.343;  759.845
354.846;   15.766;   -8.604;  740.646
355.442;   14.120;   -6.945;  753.071
356.038;   15.396;   -7.564;  751.708
356.633;   15.575;   -5.814;  728.594
357.229;   13.656;   -7.364;  724.757
357.824;   11.635;   -8.024;  703.600
358.420;   11.085;   -9.384;  679.726
359.015;   11.653;   -5.104;  695.357
359.610;   13.049;   -6.854;  763.920
360.206;    6.894;  -10.185;  603.240
360.801;    9.539;   -7.054;  646.503
361.396;   11.358;   -5.034;  725.975
361.992;    7.590;   -8.284;  668.220
362.587;    3.884;   -8.625;  670.160
363.182;    6.050;   -7.674;  689.631
363.777;    7.700;   -5.164;  738.242
364.372;    7.470;   -8.604;  737.314
364.967;    3.908;   -9.055;  680.744
365.563;    7.422;   -6.114;  815.567
366.158;    4.661;   -5.814;  685.161
366.753;    5.346;   -7.854;  649.263
367.348;    3.655;   -7.804;  746.056
367.942;    3.306;   -7.954;  697.298
368.537;    2.947;   -4.984;  754.245
369.132;    3.072;   -8.564;  703.428
369.727;   -0.740;   -8.855;  638.079
370.322;   -0.167;   -6.245;  580.186
370.917;    0.061;   -6.425;  710.646
371.511;    2.835;   -6.294;  861.834
372.106;   -0.623;   -7.685;  776.964
372.701;   -4.215;   -7.335;  585.988
373.296;    1.719;   -4.564;  863.135
373.890;   -2.744;  -10.235;  647.840
374.485;   -5.125;   -7.885;  691.199
375.079;   -1.952;   -7.324;  738.685
375.674;    0.373;   -3.494;  812.970
376.268;   -3.974;   -8.525;  691.759
376.863;  -10.010;  -10.086;  580.327
377.457;   -4.276;   -7.025;  662.490
378.052;   -4.971;   -3.585;  764.884
378.646;   -5.730;   -7.595;  741.167
379.240;   -7.117;   -8.335;  721.176
379.835;   -5.610;   -5.785;  636.978
380.429;   -7.809;   -4.335;  562.557
381.023;   -7.253;   -6.805;  779.205
381.617;   -9.731;   -9.195;  680.106
382.212;   -6.880;   -6.905;  685.303
382.806;   -5.766;   -3.745;  760.690
383.400;   -9.492;   -7.745;  672.281
383.994;  -10.890;   -9.765;  664.870
384.588;   -7.314;   -6.564;  697.701
385.182;   -5.723;   -5.344;  726.624
385.776;   -7.385;   -8.514;  706.875
386.370;  -10.819;   -9.555;  681.968
386.964;   -9.257;   -8.715;  684.155
387.558;   -7.280;   -6.174;  598.360
388.152;  -10.966;   -8.725;  681.959
388.745;   -8.836;   -7.965;  814.707
389.339;   -7.553;   -5.924;  747.642
389.933;   -6.310;   -5.524;  695.370
390.527;   -7.873;   -7.114;  859.029
391.120;  -13.845;  -10.725;  595.318
391.714;  -10.749;   -8.035;  711.633
392.308;   -6.964;   -3.574;  780.253
392.901;  -11.630;   -7.245;  642.460
393.495;  -12.185;   -9.285;  595.414
394.089;  -11.099;   -5.895;  760.452
394.682;  -10.778;   -4.295;  697.188
395.275;  -12.347;   -9.875;  719.927
395.869;  -13.283;   -8.485;  667.314
396.462;  -11.569;   -7.455;  616.609
397.056;   -8.521;   -5.424;  776.621
397.649;  -12.614;   -6.605;  731.575
398.242;   -9.870;   -8.224;  712.645
398.836;   -8.637;   -7.474;  766.408
399.429;  -10.303;   -7.094;  631.041
400.022;  -13.874;   -9.475;  665.902
400.615;  -11.029;   -7.145;  805.609
401.208;   -9.525;   -7.174;  691.451
401.802;  -11.685;   -5.515;  699.329
402.395;  -12.067;   -9.875;  683.502
402.988;  -14.552;   -8.845;  696.627
403.581;  -10.375;   -8.874;  646.878
404.174;   -8.153;   -5.324;  686.568
404.767;  -10.157;   -9.575;  638.583
405.360;  -13.595;  -10.965;  621.445
405.953;   -7.743;   -8.764;  759.034
406.545;   -7.405;   -7.514;  725.342
407.138;  -10.838;  -10.025;  618.350
407.731;  -10.262;  -10.034;  613.303
408.324;   -6.548;   -9.374;  660.554
408.917;   -7.113;   -6.534;  681.864
409.509;   -9.308;   -8.004;  740.396
410.102;  -11.391;   -9.875;  643.948
410.695;   -6.160;   -8.604;  665.758
411.287;   -5.804;   -6.794;  599.821
411.880;   -7.104;   -9.334;  585.421
412.472;  -10.124;  -10.254;  613.092
413.065;   -7.678;   -6.714;  629.408
413.657;   -4.963;   -7.234;  576.678
414.250;   -5.369;  -10.544;  646.681
414.842;   -6.377;   -9.744;  676.353
415.434;   -5.169;   -6.994;  570.463
416.027;   -0.542;   -5.893;  652.196
416.619;   -2.394;   -7.264;  713.400
417.211;   -3.649;  -10.374;  599.352
417.804;    0.541;   -7.993;  628.499
418.396;   -3.407;   -7.234;  607.643
418.988;   -1.494;   -9.443;  659.238
419.580;   -4.852;  -10.724;  568.276
420.172;   -2.481;  -10.323;  536.196
420.764;    1.587;   -8.793;  672.482
421.356;    1.315;  -11.143;  636.898
421.948;    0.205;   -8.293;  677.661
422.540;    4.551;   -7.893;  680.027
423.132;    4.101;   -7.082;  600.641
423.724;    0.483;   -8.653;  561.267
424.316;    3.245;  -10.213;  621.345
424.908;    6.540;   -9.762;  591.517
425.500;    7.552;   -5.572;  647.978
426.092;    6.950;   -8.422;  648.268
426.683;    5.902;   -9.283;  684.836
427.275;    9.506;   -7.852;  641.471
427.867;   10.471;   -5.272;  668.948
428.458;   11.745;   -7.682;  732.344
429.050;    9.514;  -10.612;  680.749
429.642;   11.473;   -9.882;  743.124
430.233;   12.768;   -6.962;  569.356
430.825;   14.184;   -6.842;  724.809
431.416;   11.626;   -9.672;  698.241
432.008;   14.451;   -6.552;  651.723
432.599;   15.077;   -6.891;  656.073
433.190;   13.044;  -10.912;  637.670
433.782;   12.523;  -11.172;  590.395
434.373;   18.475;   -6.061;  884.765
434.964;   18.798;   -8.251;  602.920
435.556;   16.395;   -9.722;  634.537
436.147;   19.151;   -9.082;  758.490
436.738;   18.789;   -8.041;  701.099
437.329;   23.882;   -7.341;  721.723
437.920;   16.877;   -8.162;  666.688
438.511;   17.023;  -11.802;  564.526
439.103;   23.368;  -10.191;  623.998
439.694;   25.297;   -7.601;  681.583
440.285;   26.633;   -8.541;  764.432
440.876;   23.734;   -9.751;  845.738
441.466;   23.268;   -9.401;  575.162
442.057;   29.161;   -7.760;  665.814
442.648;   28.173;   -9.971;  746.255
443.239;   26.488;  -11.001;  620.477
443.830;   31.177;   -7.990;  704.958
444.421;   33.005;   -7.910;  655.474
445.011;   29.695;   -8.131;  693.619
445.602;   29.047;   -7.111;  743.126
446.193;   30.825;  -10.920;  488.117
446.783;   35.795;   -6.500;  640.397
447.374;   31.056;   -8.671;  692.759
447.964;   31.850;  -10.781;  713.770
448.555;   39.943;   -9.650;  822.742
449.145;   36.758;   -8.660;  662.853
449.736;   37.592;   -8.990;  803.179
450.326;   36.899;   -9.500;  713.626
450.917;   41.590;   -8.680;  675.324
451.507;   40.854;   -7.520;  600.661
452.097;   42.934;   -8.590;  746.267
452.688;   42.882;  -11.340;  742.160
453.278;   42.306;  -10.100;  566.840
453.868;   47.466;   -6.019;  793.550
454.458;   45.788;   -9.440;  651.141
455.048;   45.457;  -10.560;  711.783
455.639;   47.385;  -11.799;  567.096
456.229;   51.297;   -6.899;  710.694
456.819;   52.580;   -7.389;  751.158
457.409;   52.966;  -11.119;  773.993
457.999;   55.339;   -9.289;  737.505
458.589;   56.145;   -6.139;  686.606
459.179;   56.199;   -8.729;  717.658
459.769;   53.921;   -9.789;  627.099
460.358;   58.892;  -10.259;  797.262
460.948;   59.046;   -7.299;  689.503
461.538;   60.465;  -10.289;  660.677
462.128;   58.127;  -11.269;  664.934
462.717;   64.818;   -9.368;  710.326
463.307;   68.371;   -7.908;  705.846
463.897;   63.837;   -9.599;  656.942
464.486;   63.653;   -9.769;  837.128
465.076;   67.441;   -8.048;  733.776
465.666;   71.484;   -9.358;  652.900
466.255;   68.753;   -7.919;  785.651
466.845;   68.838;  -11.689;  666.749
467.434;   71.437;   -7.818;  725.873
468.023;   72.794;   -7.678;  658.357
468.613;   70.193;  -10.939;  713.946
469.202;   73.895;  -10.118;  646.507
469.791;   78.209;   -9.108;  737.811
470.381;   80.852;   -6.058;  742.813
470.970;   80.302;  -10.428;  711.099
471.559;   80.538;  -10.268;  733.291
472.148;   82.719;   -8.448;  675.737
472.738;   85.956;   -6.917;  765.466
473.327;   85.257;  -11.978;  637.529
473.916;   84.908;  -11.888;  737.446
474.505;   89.701;   -9.437;  751.703
475.094;   91.952;   -6.747;  806.570
475.683;   91.927;   -9.367;  797.699
476.272;   92.672;  -12.637;  730.632
476.861;   95.610;  -10.027;  706.754
477.449;  102.770;   -8.716;  728.487
478.038;   97.305;   -9.577;  692.513
478.627;   98.057;   -9.718;  714.852
479.216;  104.415;   -8.947;  769.441
479.805;  108.217;   -6.256;  783.375
480.393;  107.883;   -7.937; 1008.945
480.982;  107.802;   -7.717;  874.501
481.571;  112.611;   -9.266;  858.333
482.159;  113.950;   -7.636;  705.386
482.748;  114.452;   -9.667;  821.385
483.336;  118.308;  -10.376;  858.209
483.925;  118.533;   -7.147;  774.373
484.513;  126.065;   -7.996;  758.962
485.102;  122.411;  -10.027;  810.965
485.690;  131.277;  -10.446; 1011.050
486.278;  133.418;   -8.446;  979.329
486.867;  134.300;   -6.356;  809.662
487.455;  136.517;   -9.136;  898.229
488.043;  138.251;  -10.646;  748.361
488.631;  147.340;   -7.456; 1005.079
489.220;  151.253;   -6.636;  908.626
489.808;  152.318;  -11.036;  741.415
490.396;  159.753;  -10.246;  914.645
490.984;  166.127;   -8.556;  830.161
491.572;  176.931;   -5.886;  940.315
492.160;  183.529;   -9.486;  919.081
492.748;  196.555;  -10.976;  884.341
493.336;  221.539;   -8.776; 1019.693
493.924;  249.807;   -5.465;  958.077
494.512;  280.142;   -9.986; 1066.638
495.100;  321.094;  -10.636; 1103.280
495.687;  379.343;  -10.885; 1206.373
496.275;  449.356;   -8.126; 1150.796
496.863;  528.592;  -10.586; 1281.171
497.451;  644.212;  -11.926; 1386.805
498.038;  783.161;  -10.885; 1556.729
498.626;  902.373;   -6.315; 1741.407
499.214; 1069.026;   -7.326; 2016.609
499.801; 1283.653;  -11.906; 2220.633
500.389; 1563.553;  -10.466; 2312.494
500.976; 1896.399;   -5.236; 2744.849
501.564; 2373.578;   -8.936; 3148.565
502.151; 2776.557;  -13.176; 3515.999
502.738; 3267.361;  -10.646; 3971.274
503.326; 3690.821;   -9.525; 4403.796
503.913; 4099.659;  -10.856; 5161.749
504.500; 4495.924;  -11.586; 5986.420
505.088; 4976.027;  -10.336; 6381.201
505.675; 5553.916;   -6.355; 6925.547
506.262; 6341.276;   -9.046; 7619.060
506.849; 7126.082;  -10.416; 8733.969
507.436; 7667.730;  -10.305; 9790.121
508.023; 8312.591;   -5.496; 9985.472
508.610; 8590.092;   -7.856;10434.618
509.197; 9271.929;  -10.097;11198.435
509.784;10786.074;  -10.886;12391.194
510.371;11950.254;   -9.315;13603.713
510.958;12783.396;   -9.936;14426.586
511.545;13635.769;   -9.326;15243.775
512.132;14506.926;  -10.075;15945.876
512.719;15060.261;   -7.796;16340.369
513.305;15996.949;  -10.606;18011.766
513.892;16774.133;  -11.486;19754.971
514.479;18227.799;   -9.126;20967.805
515.066;19949.430;   -6.026;22299.793
515.652;21492.980;   -8.466;22908.660
516.239;22753.377;  -10.886;23798.875
516.825;23654.574;  -11.496;25567.275
517.412;24632.984;   -5.796;28154.959
517.998;25285.693;  -10.506;28344.111
518.585;25445.861;  -10.076;27134.219
519.171;25931.092;   -8.315;27268.576
519.758;27435.656;   -8.596;28964.129
520.344;29373.498;   -8.466;30664.494
520.930;29333.230;  -11.006;32550.605
521.516;30558.699;  -10.495;35422.895
522.103;32820.688;   -5.526;38280.004
522.689;33120.023;   -8.746;37835.117
523.275;32630.752;  -11.376;37288.613
523.861;34194.602;  -11.156;37281.395
524.447;35768.020;   -8.135;37846.949
525.033;35685.191;   -7.896;38321.949
525.619;35908.414;  -12.476;38579.285
526.205;37546.957;   -9.516;40622.875
526.791;39774.473;   -6.926;42258.836
527.377;40061.199;   -8.346;42966.902
527.963;41564.320;   -8.717;42018.949
528.549;40048.527;  -11.016;42476.828
529.135;38596.313;   -8.536;41854.852
529.721;37708.902;   -9.666;41237.711
530.306;37009.246;  -10.066;41259.445
530.892;36945.793;  -11.356;41506.047
531.478;38573.176;   -6.596;43559.613
532.063;41680.613;   -8.836;47695.563
532.649;42240.930;  -10.047;50808.324
533.235;43054.387;   -9.746;51787.500
533.820;43491.680;   -6.566;52145.035
534.406;45063.152;  -10.817;51133.488
534.991;44750.344;   -9.416;49996.805
535.576;43125.699;   -9.036;48882.852
536.162;43628.324;   -6.156;46942.285
536.747;44579.332;  -11.607;45711.746
537.333;48222.273;  -11.787;48510.180
537.918;51385.313;  -12.437;50439.891
538.503;50029.895;   -7.196;50863.711
539.088;46218.504;  -10.556;50906.922
539.673;46047.426;   -8.767;52621.965
540.259;46420.441;  -10.026;52368.094
540.844;43997.359;   -7.416;50879.109
541.429;45533.953;   -9.467;52077.777
542.014;48293.539;   -9.527;52716.695
542.599;47365.355;   -9.946;52363.281
543.184;44895.516;   -7.927;53187.137
543.769;46319.383;   -9.297;54697.605
544.354;45917.574;  -10.127;53913.914
544.938;44728.660;   -9.267;49680.164
545.523;46730.793;   -6.506;47386.277
546.108;49722.586;   -9.787;49151.949
546.693;51805.063;  -11.587;51384.637
547.278;51527.227;  -10.986;51853.254
547.862;48567.098;   -8.206;51173.750
548.447;44096.090;  -10.067;51691.395
549.031;43817.090;   -9.637;52456.703
549.616;48724.527;   -9.926;52714.516
550.201;47865.781;   -6.347;52414.598
550.785;48970.781;   -7.917;52355.059
551.370;47947.582;  -10.867;54589.453
551.954;47467.008;   -9.047;58267.348
552.538;48256.746;   -7.827;59062.176
553.123;46608.211;  -10.287;58115.285
553.707;44230.008;  -12.178;56556.285
554.291;45902.133;   -8.717;56201.668
554.876;48525.395;   -7.457;55335.762
555.460;48708.137;  -10.387;54155.703
556.044;49472.352;   -9.618;53721.484
556.628;48273.031;  -11.567;53731.016
557.212;47199.828;   -8.097;54312.531
557.796;45622.773;  -11.077;53797.773
558.380;45672.375;  -11.108;56145.984
558.964;45981.352;   -9.057;57277.930
559.548;47320.504;   -6.977;56459.641
560.132;45780.488;  -11.457;54434.543
560.716;44096.711;  -11.378;54800.617
561.300;44986.309;   -9.577;57606.945
561.884;46146.301;   -7.127;58972.445
562.467;44260.512;   -7.118;57327.570
563.051;43714.406;  -13.358;54962.434
563.635;44879.969;  -10.178;52594.473
564.219;45084.445;   -7.837;50610.410
564.802;46093.547;  -11.398;49551.180
565.386;45973.133;  -12.788;48370.953
565.969;45056.703;   -9.077;48178.871
566.553;44210.355;   -6.207;49957.305
567.136;45003.160;   -8.568;50369.594
567.720;41542.922;  -11.868;49492.004
568.303;39424.914;   -8.268;50616.352
568.887;39475.094;   -8.698;50727.148
569.470;39818.867;   -6.808;51698.379
570.053;38384.355;  -13.188;52122.078
570.637;36854.852;  -12.037;52536.438
571.220;36842.352;   -8.577;51186.098
571.803;37588.406;   -8.498;51032.762
572.386;39587.047;  -10.498;49609.887
572.969;42046.086;   -9.388;48285.926
573.552;40403.996;   -8.338;47624.285
574.135;39132.609;   -8.518;45498.641
574.718;36755.051;  -13.628;41970.434
575.301;35744.012;  -10.893;41447.137
575.884;34732.969;   -8.158;40923.836
576.467;36021.715;  -10.328;45267.723
577.050;37910.109;  -13.058;48175.543
577.633;39229.875;   -9.458;47729.328
578.216;38457.273;   -8.928;47579.793
578.799;37656.844;   -9.358;47820.996
579.381;36361.773;  -11.388;48115.551
579.964;34359.176;  -11.718;47333.766
580.547;36096.547;   -8.588;46668.969
581.129;37492.051;   -8.859;44466.141
581.712;38612.816;  -10.729;44164.922
582.294;39284.141;  -11.118;46477.855
582.877;38846.930;   -5.218;48244.254
583.459;36389.164;   -8.679;47437.895
584.042;34433.230;  -10.709;46943.219
584.624;34966.094;  -11.669;46792.227
585.206;34457.289;   -8.218;46557.250
585.789;34284.719;  -10.569;45793.773
586.371;37167.691;  -11.859;43836.391
586.953;37580.898;  -10.719;42972.492
587.536;38952.672;   -7.198;42487.211
588.118;39273.719;   -8.720;42086.414
588.700;35310.328;  -10.439;43389.930
589.282;34243.637;   -9.198;43646.039
589.864;35367.324;   -9.199;43438.109
590.446;36602.895;  -11.319;43151.926
591.028;36559.809;  -11.159;42781.867
591.610;35254.469;  -11.779;42839.098
592.192;32427.646;   -7.668;42820.402
592.774;30829.568;  -11.949;40724.277
593.356;29416.316;  -12.129;39874.789
593.937;28285.998;  -10.669;39980.648
594.519;30528.715;   -6.509;42069.633
595.101;32701.873;  -10.849;42976.031
595.683;32821.828;  -11.679;44084.441
596.264;33901.594;   -9.049;43478.797
596.846;33383.914;   -8.849;43803.672
597.427;33597.855;   -9.570;42986.934
598.009;35383.336;  -12.620;42832.219
598.591;35667.328;  -10.039;42580.086
599.172;34868.297;  -10.369;43061.805
599.753;35135.551;   -9.140;41691.469
600.335;36810.926;  -11.430;40692.520
600.916;34871.613;   -9.939;39982.422
601.498;32084.762;   -8.479;40318.617
602.079;30491.568;  -10.920;40670.609
602.660;30295.600;  -11.480;41450.898
603.241;31913.143;  -11.699;41137.738
603.823;30533.359;   -9.579;38868.797
604.404;29754.199;  -10.620;38182.785
604.985;31462.055;  -10.450;38078.047
605.566;31629.236;   -9.129;38056.633
606.147;31871.037;   -7.510;37020.418
606.728;33187.125;  -10.660;37883.359
607.309;31602.787;  -11.740;38748.273
607.890;31174.646;   -9.759;38850.230
608.471;30587.992;   -8.250;37457.918
609.051;29715.021;   -9.240;36066.457
609.632;28605.633;  -12.120;35991.074
610.213;29318.508;   -9.110;37402.641
610.794;30029.285;   -8.030;38383.363
611.374;29613.016;   -8.110;40562.387
611.955;30297.127;  -13.560;38533.727
612.536;31580.963;  -11.400;36951.789
613.116;31342.713;   -8.070;37197.891
613.697;31613.824;  -10.830;38411.125
614.277;30008.152;  -11.641;38673.938
614.858;31003.713;  -13.310;37075.863
615.438;30190.742;   -7.460;35092.906
616.019;27598.789;   -7.601;33666.301
616.599;28263.768;  -12.020;34189.023
617.179;30114.365;  -11.780;36952.047
617.760;31173.209;   -8.570;39582.574
618.340;32248.160;  -11.471;38943.977
618.920;33480.715;  -11.170;37594.156
619.500;33273.797;  -11.071;37866.938
620.080;32199.768;   -7.750;37869.043
620.660;33381.414;  -12.711;36868.617
621.241;34633.133;  -10.211;36352.309
621.821;35091.727;  -10.961;35459.520
622.401;34127.395;   -7.720;35207.414
622.980;33332.902;   -8.981;35980.422
623.560;31818.152;   -9.331;37351.328
624.140;30483.445;   -9.850;34388.582
624.720;25372.643;   -7.451;32368.764
625.300;21987.295;   -9.070;32638.629
625.880;25383.582;  -12.601;34599.035
626.459;29200.135;  -11.751;36831.738
627.039;32179.111;   -9.281;38299.098
627.619;31908.498;   -8.801;38289.574
628.198;30402.363;  -12.071;37220.695
628.778;29679.402;   -9.461;37632.563
629.357;30373.996;   -8.491;38003.012
629.937;30399.561;   -9.721;38402.039
630.516;30242.111;   -9.951;37868.801
631.096;30164.729;  -11.731;35760.410
631.675;32488.787;   -8.572;35225.219
632.254;37527.582;  -11.282;35130.289
632.834;36896.891;  -13.322;35794.570
633.413;34977.336;  -10.301;35788.922
633.992;32304.576;   -8.582;34532.863
634.571;33197.953;   -8.352;33590.113
635.151;36406.676;  -11.912;34943.863
635.730;34650.672;  -10.511;35352.523
636.309;30903.422;   -7.731;35366.605
636.888;28227.662;   -9.952;36165.637
637.467;28829.713;  -11.672;37515.902
638.046;30496.529;   -8.901;39288.695
638.625;33721.383;   -7.912;38279.699
639.204;33406.887;  -10.022;37741.598
639.782;31998.197;  -12.252;38364.551
640.361;28583.859;  -10.041;36740.621
640.940;25950.256;  -11.161;34950.082
641.519;26702.436;   -9.701;34137.398
642.097;29298.225;  -11.271;35654.258
642.676;31881.820;   -8.651;35637.957
643.255;32616.895;   -8.711;36567.074
643.833;31764.854;   -9.581;37809.434
644.412;31616.842;  -13.711;37337.293
644.990;30528.406;  -11.811;37018.531
645.569;30304.561;   -9.411;36518.469
646.147;29279.045;  -10.291;36186.430
646.726;29364.324;  -12.401;36267.688
647.304;30778.139;  -10.411;36647.625
647.882;32493.063;   -9.651;39286.742
648.461;33875.988;   -9.631;39157.703
649.039;32151.857;  -11.881;35412.883
649.617;31582.506;   -9.661;34744.918
650.195;31199.902;   -9.301;35403.098
650.773;29657.324;  -10.511;35053.797
651.352;27068.164;  -11.521;33756.816
651.930;24854.541;  -12.211;31868.773
652.508;23558.500;   -9.171;33121.551
653.086;27597.037;   -9.371;33564.793
653.663;30373.891;  -13.161;34054.668
654.241;28997.863;  -13.031;35693.309
654.819;30547.387;   -9.371;36422.906
655.397;30658.289;  -10.511;38213.484
655.975;30223.307;  -10.371;39507.625
656.553;30097.732;  -10.051;39498.223
657.130;28472.262;  -10.061;40395.480
657.708;27730.969;   -9.561;39242.020
658.286;27921.652;  -11.511;38920.020
658.863;29433.689;  -10.261;40202.898
659.441;32515.855;   -7.531;39677.938
660.018;31919.930;   -9.501;40413.355
660.596;30639.674;  -13.301;39931.414
661.173;32310.348;  -11.211;39604.531
661.750;32184.834;   -9.951;39700.070
662.328;30887.404;   -9.390;39292.809
662.905;30242.322;  -11.330;38235.648
663.482;26229.238;   -9.050;36212.305
664.060;24404.385;   -8.240;35944.945
664.637;26955.201;  -10.050;35170.785
665.214;28818.500;  -11.760;34197.523
665.791;30563.787;  -10.530;34549.520
666.368;29331.555;   -9.690;35118.578
666.945;29811.424;   -9.320;36019.418
667.522;31283.846;  -11.860;36048.438
668.099;30941.961;  -10.770;36243.914
668.676;29707.920;   -6.260;35958.875
669.253;28496.145;   -7.000;37384.730
669.830;29290.086;  -10.190;36779.629
670.407;28973.611;   -9.550;35231.289
670.984;28727.330;   -9.260;35544.270
671.560;29419.648;   -9.280;35466.867
672.137;29009.068;  -11.810;34280.863
672.714;29924.389;  -11.490;34632.863
673.290;30317.869;   -7.740;35135.422
673.867;30438.834;  -10.660;36114.480
674.443;30292.721;  -12.230;36152.859
675.020;28526.316;  -10.450;35327.238
675.596;29551.873;   -9.260;35795.176
676.173;29857.627;  -10.780;35430.355
676.749;29689.322;  -13.690;33549.516
677.326;29796.285;  -11.980;32210.012
677.902;29770.334;   -8.630;32068.871
678.478;29171.277;  -10.730;32583.891
679.054;28588.076;  -10.520;32088.928
679.631;28846.063;  -11.920;30978.848
680.207;30476.576;   -7.490;33160.887
680.783;32023.719;   -9.860;35570.363
681.359;31029.154;  -13.380;36125.184
681.935;30521.744;  -12.480;35240.922
682.511;29889.178;   -7.900;34429.961
683.087;30106.213;   -7.710;34463.680
683.663;29565.252;  -11.480;34648.898
684.239;28175.262;  -14.090;34546.457
684.815;27782.344;   -7.560;35586.375
685.390;28172.498;   -9.910;35821.895
685.966;28695.373;  -11.159;35085.871
686.542;31058.760;  -11.169;34198.230
687.118;33454.496;   -5.959;32847.707
687.693;33840.395;  -10.329;32794.027
688.269;33452.180;  -12.059;33072.367
688.844;31477.617;  -10.909;33141.664
689.420;29260.648;   -8.019;33965.742
689.995;26975.209;   -8.399;34655.523
690.571;25633.002;  -10.949;33576.742
691.146;26070.016;   -9.619;32657.219
691.722;25602.484;   -8.999;32526.979
692.297;25320.141;  -11.589;33014.617
692.872;27089.785;  -11.739;34012.254
693.448;26800.381;  -11.059;34237.434
694.023;26065.813;  -10.139;34142.672
694.598;27962.057;   -9.029;34132.031
695.173;28210.346;  -13.319;34205.250
695.748;27425.256;  -10.169;32882.488
696.323;27657.135;   -8.339;32864.906
696.898;27971.791;   -8.169;33170.004
697.473;27855.014;  -12.309;32432.984
698.048;27263.434;  -10.989;31649.303
698.623;26985.736;   -9.329;30778.141
699.198;28838.104;   -9.849;31140.119
699.773;29790.549;  -12.329;31764.299
700.348;28152.844;  -10.389;31780.816
700.922;28253.371;   -9.269;32046.375
701.497;29314.578;   -9.329;32603.574
702.072;29568.906;  -10.789;34799.871
702.646;27967.668;  -10.839;35793.172
703.221;25815.229;   -9.099;35201.590
703.795;27961.178;  -10.939;34764.527
704.370;28364.123;  -12.859;34307.367
704.944;28767.383;  -11.559;33509.887
705.519;29557.432;   -7.939;31388.584
706.093;30907.457;  -10.499;31340.104
706.668;31310.836;  -11.289;32630.281
707.242;30344.561;  -11.509;32728.779
707.816;28807.277;   -9.639;32947.238
708.390;27425.850;  -11.429;33277.855
708.965;27803.984;  -11.869;33834.336
709.539;27588.180;  -11.689;33709.273
710.113;28068.639;  -10.478;33044.313
710.687;27718.813;  -10.228;31953.992
711.261;26161.797;  -13.698;30505.949
711.835;25798.689;  -13.378;30262.369
712.409;26410.717;   -9.698;31254.447
712.983;28388.447;  -11.898;32754.986
713.557;29394.492;  -15.138;34018.824
714.131;28992.824;  -14.098;34579.625
714.704;28003.443;   -9.958;33890.262
715.278;25696.711;  -10.028;33531.102
715.852;24585.020;  -11.148;33601.660
716.425;25426.389;   -9.068;33515.117
716.999;26218.027;  -10.038;33185.555
717.573;27278.297;   -9.798;33905.996
718.146;28406.309;  -12.378;35199.293
718.720;28601.619;  -11.918;35060.551
719.293;28110.184;   -8.088;34973.230
719.867;30876.838;  -10.888;36394.449
720.440;30521.436;  -11.938;36663.008
721.013;28984.871;  -12.818;35102.426
721.587;27635.516;  -10.298;33985.266
722.160;26544.645;  -10.048;33524.965
722.733;25467.152;  -12.108;32987.043
723.306;25696.680;  -10.818;33066.301
723.880;28354.848;   -8.908;33399.500
724.453;30624.162;   -9.878;33468.297
725.026;29691.242;  -11.188;33816.637
725.599;26782.105;  -11.678;32797.996
726.172;26876.990;   -9.618;33187.434
726.745;27799.852;   -8.258;35136.613
727.318;29044.285;  -12.978;35751.730
727.891;29778.643;  -12.148;35890.430
728.463;29567.824;   -8.968;34822.090
729.036;28604.270;  -10.188;32895.086
729.609;28990.229;  -11.788;31823.225
730.182;25918.762;  -11.788;31445.283
730.754;23519.104;  -10.268;32373.223
731.327;23588.033;   -9.998;33676.820
731.900;23748.063;  -12.228;33417.000
732.472;25016.881;  -13.848;31978.498
733.045;26924.303;   -8.698;30368.777
733.617;26918.678;  -10.607;30574.215
734.190;26534.564;  -11.507;31280.975
734.762;23817.352;  -13.647;31674.412
735.334;22088.682;   -9.767;31247.291
735.907;22751.252;   -9.897;29876.211
736.479;22922.654;  -11.637;29808.488
737.051;22691.180;   -9.567;30233.547
737.623;23617.082;   -8.187;31469.086
738.195;24169.871;  -11.187;31784.225
738.768;25816.215;  -12.337;32120.523
739.340;26204.123;  -12.227;32094.342
739.912;25267.975;  -11.057;31312.680
740.484;23785.199;  -10.207;31946.238
741.056;22528.820;  -10.047;32984.059
741.628;24246.021;  -13.627;33897.715
742.199;26346.941;   -7.177;33213.016
742.771;24661.736;  -10.797;31369.113
743.343;22389.607;  -11.997;31865.473
743.915;21421.461;  -12.867;32388.631
744.487;21575.459;   -7.617;31079.568
745.058;21904.207;   -9.557;30570.107
745.630;22422.309;   -9.877;29970.127
746.201;23292.414;  -14.177;29186.766
746.773;23816.453;   -9.237;28805.723
747.344;23553.502;   -9.847;29591.223
747.916;22115.828;  -11.657;31412.201
748.487;22333.197;  -10.587;32194.898
749.059;23402.895;   -8.707;32533.719
749.630;23893.195;  -10.537;32158.518
750.201;22721.549;  -11.687;30855.395
750.773;21018.758;  -11.647;28622.555
751.344;20931.402;   -7.147;28405.732
751.915;22168.553;   -9.757;28461.551
752.486;22251.414;  -12.427;27842.850
753.057;20056.314;  -12.227;27845.008
753.628;18883.535;  -10.417;27728.107
754.199;20010.051;  -11.767;27381.086
754.770;20969.834;  -11.187;25882.203
755.341;20920.918;  -10.507;25886.184
755.912;21014.730;   -9.387;26050.861
756.483;20589.971;  -10.647;26798.779
757.054;18908.451;  -11.837;27048.238
757.625;17664.396;  -12.716;26294.838
758.195;17221.301;   -9.666;26142.076
758.766;16870.420;   -8.656;26392.234
759.337;17656.334;  -12.856;26334.594
759.907;19256.430;  -13.366;27579.652
760.478;20121.100;   -8.576;28352.770
761.048;19583.738;  -10.526;27325.088
761.619;18878.057;  -11.116;26460.428
762.189;18898.365;  -12.136;26029.826
762.760;19853.730;   -9.456;26430.145
763.330;20958.318;   -7.136;26670.902
763.900;20453.859;  -11.786;26603.021
764.471;18002.174;  -11.546;25542.740
765.041;16809.830;   -8.096;24358.459
765.611;16817.979;   -8.876;23991.297
766.181;17128.586;  -12.196;24470.236
766.751;18051.670;  -11.636;24845.975
767.321;17889.855;  -10.156;24533.633
767.891;16123.643;  -11.766;24916.492
768.461;15578.970;  -14.936;24776.771
769.031;16037.974;  -12.356;24757.988
769.601;17600.170;   -7.526;24181.088
770.171;17444.369;  -10.766;23670.387
770.741;16640.037;  -13.176;22960.045
771.311;16719.160;  -10.616;22917.523
771.880;17100.932;   -9.576;23562.941
772.450;16850.338;  -10.336;24216.500
773.020;16704.719;  -13.516;24140.398
773.589;15929.116;  -13.466;24414.857
774.159;15270.303;   -8.686;23858.717
774.729;15003.054;   -9.476;22942.135
775.298;14645.256;  -13.666;22324.033
775.867;14308.977;  -11.716;21140.313
776.437;14413.086;   -9.906;20838.092
777.006;14255.249;  -12.166;20599.510
777.576;14089.614;  -12.356;20508.809
778.145;14073.986;  -11.646;20732.947
778.714;13926.693;   -8.226;21062.465
779.283;13205.430;   -9.556;20949.664
779.853;12715.995;  -14.116;20508.623
780.422;13174.962;  -11.506;20649.082
780.991;12706.525;   -9.556;21527.520
781.560;11602.711;   -9.095;22632.658
782.129;11526.675;  -12.135;23048.277
782.698;11632.703;  -10.865;23438.555
783.267;11261.432;   -9.335;23267.734
783.836;11189.925;  -11.045;22415.133
784.404;12166.351;  -13.865;20443.152
784.973;12720.403;  -13.095;19699.150
785.542;12593.662;  -11.575;19763.828
786.111;12394.671;   -9.705;20341.408
786.679;11904.603;  -12.105;20207.967
787.248;11614.604;  -12.455;19516.465
787.817;11419.850;  -11.535;18900.363
788.385;11110.429;   -9.765;17879.121
788.954;10622.652;  -14.005;17658.301
789.522;10143.909;  -11.955;17788.879
790.090;10709.567;  -10.135;18118.277
790.659;11095.966;  -10.975;18338.736
791.227;10629.483;  -13.375;18508.615
791.795;11049.541;  -12.375;17898.254
792.364;11446.204;  -10.725;17295.133
792.932;11793.613;   -9.715;16822.051
793.500;11873.257;  -12.675;17040.148
794.068;12035.050;  -13.495;17179.787
794.636;12136.318;  -10.885;16664.246
795.204;11530.272;  -11.045;16524.545
795.772;11550.211;  -13.175;17274.564
796.340;11097.741;  -12.445;17891.002
796.908;10935.990;   -9.735;17648.561
797.476;10819.453;   -9.815;17064.080
798.044;10365.400;  -13.985;16672.777
798.612; 9552.542;  -13.115;17023.996
799.180; 9212.052;  -10.185;16561.615
799.747; 9191.252;   -9.055;15962.773
800.315; 8938.694;  -12.385;15296.992
800.883; 8620.739;  -15.035;14801.771
801.450; 8658.435;  -10.365;14534.430
802.018; 8729.944;   -9.855;14173.248
802.585; 8854.963;  -11.905;14029.547
803.153; 8847.557;  -11.585;13836.846
803.720; 8668.869;   -9.095;13567.324
804.287; 8276.510;   -9.135;13360.622
804.855; 7876.400;  -11.604;13681.981
805.422; 7772.125;  -11.794;13536.560
805.989; 7805.155;  -10.734;13355.958
806.556; 7941.530;  -10.444;13747.896
807.124; 8151.160;  -12.764;13987.376
807.691; 8120.809;  -12.964;14038.674
808.258; 7969.532;  -11.134;14120.152
808.825; 7732.309;   -9.854;13860.111
809.392; 7773.923;  -10.504;13268.790
809.959; 7263.345;  -13.054;12680.389
810.526; 6838.085;   -8.294;12427.308
811.093; 6942.000;   -8.394;12030.105
811.659; 7625.630;  -12.304;11653.664
812.226; 8125.120;  -13.944;11637.183
812.793; 7794.609;  -10.484;11611.521
813.360; 7186.247;  -10.144;11885.181
813.926; 6908.245;  -11.684;12770.539
814.493; 6689.736;  -13.644;12677.638
815.060; 6286.059;   -9.724;11974.336
815.626; 6297.427;   -9.854;11594.715
816.193; 6683.672;  -13.254;11579.474
816.759; 6700.214;  -13.204;11666.972
817.325; 6800.643;   -9.434;11325.530
817.892; 7200.543;  -10.134;11105.369
818.458; 7626.527;  -13.474;10843.928
819.024; 7267.363;  -11.854;10714.406
819.591; 6974.853;  -10.244;10469.165
820.157; 6728.487;  -10.704;10235.523
820.723; 6173.658;  -12.324;10847.563
821.289; 5855.744;   -9.444;11040.980
821.855; 5773.844;   -8.374;10357.100
822.421; 5804.318;  -10.234; 9978.918
822.987; 5851.114;  -13.294; 9754.177
823.553; 5539.227;  -10.884;10065.755
824.119; 5355.771;   -8.884;10036.294
824.685; 5455.902;   -6.784;10029.192
825.251; 5557.744;  -12.004;10199.230
825.816; 5508.380;  -11.474; 9820.189
826.382; 5274.482;   -9.174; 9297.248
826.948; 5478.132;   -9.214; 9381.347
827.513; 5856.684;  -10.774; 9450.726
828.079; 5655.126;  -11.924; 9472.444
828.645; 5058.157;  -10.543; 9292.643
829.210; 4957.806;  -10.533; 9065.341
829.776; 4941.435;  -10.753; 9132.620
830.341; 4839.947;  -10.173; 9092.878
830.906; 5050.583;  -10.743; 9078.557
831.472; 5402.534;  -11.113; 8534.535
832.037; 5148.527;  -10.603; 8677.874
832.602; 4607.207;  -13.323; 8628.692
833.167; 4356.541;  -10.823; 8879.031
833.733; 4308.327;  -10.113; 9189.790
834.298; 4459.249;  -13.583; 9052.608
834.863; 4538.333;  -12.703; 8895.087
835.428; 4519.839;  -10.523; 8824.266
835.993; 4359.223;   -6.963; 8845.385
836.558; 4181.643;  -10.763; 8888.563
837.123; 4304.118;   -9.903; 8966.582
837.688; 4538.821;   -9.913; 8617.860
838.253; 4794.040;  -10.283; 8590.699
838.817; 5000.021;  -12.963; 8443.797
839.382; 4903.216;  -14.243; 8799.356
839.947; 4599.948;  -10.733; 8810.595
840.511; 4315.314;   -9.383; 8796.394
841.076; 3949.358;  -12.563; 8347.231
841.641; 3997.064;  -12.953; 8224.330
842.205; 4084.348;   -7.043; 8223.349
842.770; 4177.977;   -8.163; 8622.107
843.334; 4314.965;  -12.503; 8410.386
843.898; 4220.837;  -11.693; 8337.465
844.463; 4217.854;  -10.203; 8506.283
845.027; 3993.567;   -9.533; 8280.962
845.591; 3818.541;  -13.443; 8231.141
846.156; 3810.267;  -13.143; 7969.179
846.720; 3697.696;   -9.433; 7768.278
847.284; 3574.836;  -11.033; 7630.957
847.848; 3458.126;  -10.403; 7472.395
848.412; 3376.971;  -11.553; 7437.394
848.976; 3424.139;   -8.393; 7674.592
849.540; 3337.866;   -8.713; 7836.011
850.104; 3451.496;  -12.463; 7913.669
850.668; 3807.379;  -12.973; 7694.508
851.232; 3891.156;  -10.793; 7756.887
851.796; 3714.390;  -10.662; 7926.545
852.359; 3425.657;  -13.082; 7827.844
852.923; 3261.115;  -12.192; 7641.163
853.487; 3076.150;  -11.912; 7342.501
854.050; 3049.551;  -10.892; 7042.820
854.614; 3200.693;  -13.992; 7151.338
855.177; 3327.614;  -11.732; 7105.077
855.741; 3355.423;   -8.962; 6989.675
856.304; 3213.937;   -9.442; 6596.634
856.868; 3157.177;  -14.192; 6356.272
857.431; 3240.072;  -12.702; 6468.571
857.995; 3328.807;   -9.942; 6373.210
858.558; 3321.458;   -9.112; 6324.448
859.121; 3057.138;  -12.932; 6408.327
859.684; 2943.255;  -13.442; 6347.886
860.247; 3056.781;  -10.632; 6321.264
860.810; 3064.637;  -11.272; 6301.903
861.374; 2814.176;   -9.832; 6607.881
861.937; 2571.423;  -11.762; 6408.200
862.500; 2579.586;   -9.722; 6572.639
863.062; 2758.316;  -10.512; 6387.297
863.625; 2936.343;  -11.232; 6190.836
864.188; 3087.341;  -14.112; 5807.254
864.751; 3124.269;  -11.302; 5682.413
865.314; 2997.340;  -10.112; 5547.492
865.876; 2784.607;  -12.182; 5500.150
866.439; 2762.168;  -10.722; 5415.909
867.002; 2711.462;   -9.252; 5501.567
867.564; 2524.025;   -9.572; 5413.946
868.127; 2320.683;  -13.142; 5160.325
868.689; 2230.687;  -12.902; 5133.183
869.252; 2136.354;   -9.732; 5252.382
869.814; 2042.011;   -9.432; 5297.141
870.377; 2043.610;  -11.552; 5390.919
870.939; 2097.718;   -9.052; 5599.898
871.501; 2153.161;  -10.982; 5248.336
872.063; 2158.969;  -12.292; 4854.235
872.626; 2122.285;  -14.912; 4817.074
873.188; 2141.951;  -13.112; 4987.732
873.750; 2108.587;  -13.442; 4868.651
874.312; 2009.925;   -9.402; 4779.330
874.874; 1926.522;  -11.062; 4866.348
875.436; 1843.105;  -13.931; 4718.887
875.998; 1831.550;   -9.561; 4660.005
876.560; 1847.090;  -11.321; 4462.964
877.122; 1787.322;  -12.221; 4145.042
877.683; 1698.480;  -12.191; 4056.481
878.245; 1640.800;  -12.101; 3950.740
878.807; 1692.636;   -8.971; 4058.958
879.369; 1723.894;  -12.071; 3954.677
879.930; 1624.685;  -14.621; 3941.495
880.492; 1559.688;  -10.311; 4067.014
881.053; 1523.102;  -10.901; 3859.633
881.615; 1424.323;  -14.411; 3776.071
882.176; 1332.212;  -13.761; 3734.750
882.738; 1286.925;   -9.181; 3678.489
883.299; 1261.869;  -11.791; 3405.407
883.860; 1265.865;  -13.121; 3351.106
884.422; 1266.246;  -11.211; 3394.044
884.983; 1224.776;  -10.091; 3166.443
885.544; 1152.832;   -8.461; 3189.802
886.105; 1075.490;  -12.361; 3160.360
886.666; 1006.528;  -14.141; 3093.059
887.227;  947.138;  -11.361; 2941.957
887.788;  886.975;  -11.401; 2974.836
888.349;  827.978;  -13.791; 2721.214
888.910;  823.930;  -13.191; 2696.493
889.471;  830.942;   -9.881; 2560.172
890.032;  814.839;   -9.881; 2558.190
890.593;  794.403;  -10.371; 2567.669
891.153;  769.442;  -13.301; 2460.307
891.714;  720.660;  -11.431; 2372.046
892.275;  682.351;  -11.291; 2309.505
892.835;  648.203;  -11.471; 2382.543
893.396;  600.183;  -11.541; 2295.502
893.956;  546.341;  -11.181; 2162.420
894.517;  511.083;  -11.741; 2125.439
895.077;  504.617;  -11.671; 2086.978
895.638;  503.152;  -11.311; 2126.316
896.198;  475.815;   -9.831; 1838.275
896.758;  434.078;   -8.421; 1892.813
897.319;  405.054;  -12.351; 1792.232
897.879;  387.920;  -13.511; 1762.751
898.439;  363.978;  -12.001; 1661.149
898.999;  341.378;  -10.180; 1781.468
899.559;  333.664;  -12.030; 1703.347
900.119;  329.274;  -15.710; 1537.525
900.679;  323.513;   -8.900; 1638.384
901.239;  310.367;   -8.340; 1527.902
901.799;  299.899;  -13.910; 1456.441
902.359;  294.094;  -13.460; 1357.140
902.919;  287.401;  -11.490; 1331.118
903.479;  275.173;  -12.110; 1317.257
904.038;  255.640;  -11.720; 1262.595
904.598;  240.272;  -13.610; 1152.034
905.158;  236.653;  -11.040; 1240.893
905.717;  230.811;  -10.900; 1233.691
906.277;  220.023;  -15.080; 1217.330
906.836;  210.183;  -13.380; 1222.408
907.396;  201.265;  -10.780; 1193.047
907.955;  194.431;   -8.500; 1182.526
908.515;  189.184;  -12.760; 1099.364
909.074;  182.377;  -11.900; 1092.863
909.633;  176.661;   -8.950; 1069.121
910.192;  173.118;   -8.770; 1196.460
910.752;  168.629;  -12.390; 1029.960
911.311;  163.989;  -13.680; 1009.780
911.870;  161.731;  -12.370;  971.460
912.429;  163.031;  -10.900; 1094.080
912.988;  161.454;  -11.690; 1081.060
913.547;  156.708;  -13.240;  940.380
914.106;  152.216;  -11.990;  999.420
914.665;  149.460;   -9.990;  984.020
915.224;  148.783;  -12.880; 1035.760
915.782;  148.459;  -12.350;  922.560
916.341;  147.561;   -9.110; 1049.840
916.900;  143.367;   -9.270;  925.260
917.458;  141.869;  -13.240;  884.220
918.017;  141.820;  -13.550;  942.600
918.576;  141.512;  -12.320;  904.440
919.134;  139.325;  -11.490;  837.980
919.693;  137.429;  -13.670;  893.060
920.251;  135.747;  -15.470;  876.500
920.809;  135.368;  -11.290;  839.580
921.368;  134.539;  -10.210;  885.360
921.926;  133.531;  -12.140;  842.940
922.484;  131.471;  -13.080;  903.360
923.042;  131.117;  -11.720;  880.340
923.601;  134.902;   -7.480;  998.680
924.159;  132.353;  -11.570;  935.560
924.717;  129.392;  -13.840;  841.080
925.275;  129.197;  -10.640;  903.240
925.833;  129.145;  -11.540;  779.320
926.391;  130.369;  -12.960;  938.380
926.949;  127.968;  -14.130;  857.680
927.506;  129.073;  -11.750;  903.500
928.064;  129.435;  -10.250;  877.580
928.622;  128.889;  -13.030;  880.100
929.180;  127.924;  -13.400;  814.180
929.737;  129.248;  -10.700;  808.540
930.295;  132.575;  -10.070;  928.480
930.853;  134.299;  -11.960;  849.100
931.410;  134.526;  -13.120;  821.120
931.968;  134.051;  -10.770;  940.660
932.525;  133.791;  -10.680;  909.380
933.082;  133.811;  -13.130;  811.440
933.640;  134.980;  -13.210;  925.900
934.197;  132.550;  -11.060;  886.360
934.754;  133.365;   -9.580;  897.780
935.312;  136.354;  -14.000;  863.340
935.869;  140.303;  -10.710; 1012.980
936.426;  140.226;   -9.860;  872.800
936.983;  141.197;   -9.710;  889.020
937.540;  141.211;  -13.990;  838.280
938.097;  140.126;  -14.040;  940.120
938.654;  140.039;  -10.310;  898.860
939.211;  143.591;  -10.560;  952.480
939.768;  146.160;  -13.900;  915.420
940.324;  149.180;  -14.760;  904.200
940.881;  149.883;  -10.370;  878.500
941.438;  150.929;   -8.260; 1021.200
941.995;  147.833;  -12.540;  992.560
942.551;  144.580;  -14.670;  875.620
943.108;  144.917;  -10.450;  937.920
943.664;  148.116;  -10.750;  869.340
944.221;  151.144;  -11.550; 1088.140
944.777;  147.946;  -14.770;  869.680
945.334;  148.721;  -12.820;  884.840
945.890;  149.723;  -10.130;  946.480
946.446;  150.171;  -13.470;  947.020
947.003;  151.698;  -12.120;  964.940
947.559;  153.936;   -9.980; 1063.040
948.115;  154.037;   -9.080; 1026.540
948.671;  151.061;  -10.830;  967.300
949.227;  148.589;  -12.440;  859.560
949.783;  146.652;  -12.910;  858.900
950.339;  148.006;  -10.270;  991.000
950.895;  148.572;  -13.630; 1023.840
951.451;  147.984;  -15.100;  925.280
952.007;  147.928;  -11.330;  998.540
952.563;  149.073;  -10.580;  937.780
953.118;  147.930;  -13.440;  904.940
953.674;  148.057;  -12.710;  935.780
954.230;  146.931;  -10.350;  949.640
954.785;  144.045;   -9.190;  936.640
955.341;  142.620;  -11.200;  998.160
955.897;  140.063;  -16.560;  834.660
956.452;  142.940;  -12.570;  953.840
957.008;  141.393;   -7.970; 1083.640
957.563;  138.337;  -11.940; 1009.540
958.118;  133.097;  -13.450;  877.700
958.674;  133.701;  -12.030;  946.780
959.229;  135.149;   -9.410; 1013.980
959.784;  132.363;  -12.000;  832.400
960.339;  131.966;  -14.780; 1001.280
960.894;  128.713;   -9.860;  963.760
961.449;  126.497;   -9.970;  859.960
962.004;  126.481;  -10.900; 1212.840
962.559;  120.169;  -13.150;  860.140
963.114;  118.343;  -13.740;  742.480
963.669;  117.596;   -9.820;  915.500
964.224;  116.364;  -13.890;  874.340
964.779;  115.415;  -12.600;  828.420
965.334;  117.014;  -10.950; 1017.860
965.888;  116.829;  -11.170;  875.360
966.443;  119.184;  -12.540;  972.380
966.998;  117.871;  -15.780;  819.460
967.552;  116.699;   -9.760;  908.380
968.107;  114.238;   -9.060;  868.300
968.661;  114.581;  -11.950;  922.440
969.216;  114.979;  -12.800;  856.280
969.770;  115.488;  -11.210;  917.200
970.324;  114.305;  -11.610;  923.140
970.879;  110.804;  -11.370;  947.180
971.433;  108.620;  -12.540;  952.720
971.987;  102.792;  -11.320;  895.340
972.541;  100.699;  -10.720;  917.100
973.095;  100.338;   -9.680; 1009.460
973.649;   99.488;  -11.440;  809.480
974.203;   98.573;  -11.210;  829.040
974.757;   97.912;  -10.240;  855.220
975.311;   98.182;  -13.720;  872.600
975.865;   97.219;  -13.770;  881.820
976.419;   95.137;  -11.690;  857.400
976.973;   95.932;   -9.510;  849.620
977.526;   97.382;  -12.620;  949.920
978.080;   96.913;  -12.010;  796.780
978.634;   97.731;  -10.170;  921.320
979.187;   95.929;   -9.020;  905.400
979.741;   92.538;   -9.820; 1018.380
980.294;   88.306;  -14.870;  789.160
980.848;   86.032;  -12.380;  717.220
981.401;   88.612;  -10.350;  816.540
981.955;   91.296;  -13.720;  844.300
982.508;   89.266;  -11.490;  746.340
983.061;   91.037;  -10.000;  915.260
983.615;   86.022;  -11.480;  798.800
984.168;   82.873;  -13.220;  770.080
984.721;   81.877;  -13.960;  880.760
985.274;   80.804;  -10.870;  867.500
985.827;   79.966;   -9.790;  834.220
986.380;   78.344;  -13.120;  721.340
986.933;   76.378;  -12.450;  864.800
987.486;   75.274;  -10.210;  861.920
988.039;   75.130;   -8.430;  863.100
988.591;   73.561;  -10.520;  893.260
989.144;   70.420;  -14.860;  737.260
989.697;   69.485;  -13.080;  758.740
990.250;   70.004;  -10.150;  858.100
990.802;   69.981;  -13.430;  755.860
991.355;   69.521;  -12.750;  974.880
991.907;   67.535;  -12.040;  864.320
992.460;   65.549;  -11.330;  753.760
993.012;   64.659;  -13.610;  749.540
993.565;   63.660;  -13.460;  711.360
994.117;   65.510;   -9.360;  950.780
994.669;   62.616;  -11.300;  701.320
995.221;   60.203;  -13.540;  791.920
995.774;   58.526;  -13.430;  787.580
996.326;   56.707;  -12.520;  740.220
996.878;   56.720;  -10.950;  838.420
997.430;   54.512;  -14.300;  699.860
997.982;   53.505;  -13.760;  750.140
998.534;   53.235;  -11.530;  739.060
999.086;   52.520;  -10.310;  738.220
999.638;   51.558;  -12.530;  661.380
1000.190;   49.616;  -11.840;  699.320
1000.741;   49.417;  -10.260;  742.700
1001.293;   49.718;   -8.860;  686.020
1001.845;   48.151;  -13.700;  676.640
1002.396;   48.377;  -12.100;  743.400
1002.948;   47.915;  -12.760;  737.400
1003.500;   46.456;  -10.380;  723.780
1004.051;   46.421;  -11.900;  907.580
1004.603;   44.912;  -12.250;  791.820
1005.154;   41.334;  -13.210;  608.980
1005.705;   40.961;  -10.950;  723.960
1006.257;   40.967;  -13.880;  707.220
1006.808;   39.811;  -12.840;  685.460
1007.359;   39.075;  -10.570;  763.240
1007.910;   38.514;   -9.620;  646.640
1008.461;   37.409;  -13.630;  732.940
1009.013;   36.765;  -17.200;  588.340
1009.564;   37.990;  -10.200;  793.520
1010.115;   35.776;  -12.570;  597.040
1010.665;   35.299;  -15.150;  602.160
1011.216;   35.188;  -14.480;  667.920
1011.767;   35.053;  -11.340;  697.920
1012.318;   35.665;   -9.780;  736.980
1012.869;   34.591;  -12.380;  679.000
1013.419;   33.646;  -15.560;  603.120
1013.970;   34.269;  -11.010;  666.640
1014.521;   33.892;  -11.610;  620.620
1015.071;   34.237;  -13.450;  670.380
1015.622;   33.197;  -13.870;  635.460
1016.172;   32.100;  -11.610;  596.820
1016.723;   32.711;  -12.120;  614.380
1017.273;   32.362;  -13.620;  604.160
1017.823;   32.256;  -14.140;  650.340
1018.374;   31.387;  -12.800;  611.760
1018.924;   31.553;  -12.340;  716.880
1019.474;   31.760;  -11.410;  718.880
1020.024;   30.167;  -14.770;  657.580
1020.574;   32.006;   -9.780;  726.160
1021.124;   31.766;   -8.560;  673.580
1021.674;   29.606;  -15.190;  559.120
1022.224;   31.491;  -13.530;  708.940
1022.774;   30.346;  -13.280;  668.820
1023.324;   31.644;  -10.690;  753.520
1023.874;   32.163;  -10.240;  875.760
1024.423;   29.446;  -12.540;  613.700
1024.973;   29.163;  -10.010;  610.760
1025.523;   29.027;  -10.550;  620.960
1026.072;   28.524;  -13.560;  606.420
1026.622;   28.163;  -15.120;  675.740
1027.172;   29.533;  -11.260;  715.660
1027.721;   28.660;  -11.410;  601.220
1028.270;   28.198;  -13.530;  663.400
1028.820;   27.614;  -13.680;  638.080
1029.369;   27.533;  -13.520;  612.700
1029.918;   27.810;  -10.980;  649.840
1030.468;   26.930;  -13.530;  564.780
1031.017;   27.681;  -13.170;  634.800
1031.566;   26.772;  -12.200;  608.900
1032.115;   27.386;   -9.960;  694.500
1032.664;   25.401;  -13.210;  596.480
1033.213;   26.968;  -12.500;  735.420
1033.762;   26.119;  -11.910;  635.620
1034.311;   25.955;   -9.640;  677.220
1034.860;   25.944;  -13.310;  691.000
1035.408;   25.962;  -11.830;  722.720
1035.957;   26.322;  -12.000;  719.540
1036.506;   24.462;  -11.690;  530.800
1037.055;   26.447;  -10.990;  844.320
1037.603;   24.148;  -15.120;  664.000
1038.152;   23.208;  -12.450;  534.760
1038.700;   24.552;  -10.560;  585.740
1039.249;   24.032;  -11.080;  681.220
1039.797;   24.418;  -12.540;  633.360
1040.345;   24.357;  -11.920;  705.420
1040.894;   24.653;  -11.410;  625.300
1041.442;   23.897;  -14.320;  632.200
1041.990;   22.726;  -16.240;  559.160
1042.538;   22.428;  -11.680;  536.180
1043.087;   22.674;  -10.760;  570.860
1043.635;   24.356;  -11.850;  670.500
1044.183;   22.896;  -15.480;  586.400
1044.731;   22.630;  -11.770;  576.000
1045.279;   21.898;  -13.090;  674.920
1045.827;   23.829;  -12.440;  892.400
1046.374;   21.068;  -13.840;  515.420
1046.922;   20.706;  -13.220;  590.580
1047.470;   22.617;  -10.230;  691.300
1048.018;   22.537;  -14.590;  647.960
1048.565;   22.190;  -12.050;  708.600
1049.113;   21.041;  -11.650;  557.000
1049.660;   20.586;  -10.510;  629.660
1050.208;   21.720;  -13.310;  675.640
1050.755;   20.591;  -15.900;  606.580
1051.303;   21.204;  -11.430;  686.820
1051.850;   20.776;   -8.480;  635.120
1052.397;   19.275;  -15.010;  473.960
1052.945;   19.161;  -13.960;  617.760
1053.492;   21.035;  -13.150;  741.840
1054.039;   21.413;   -9.630;  720.180
1054.586;   19.511;  -13.680;  557.240
1055.133;   21.031;  -14.570;  693.140
1055.680;   19.462;  -13.820;  646.620
1056.227;   19.644;  -11.730;  542.780
1056.774;   20.452;  -12.480;  794.980
1057.321;   18.130;  -13.930;  523.260
1057.868;   18.649;  -11.690;  651.320
1058.415;   18.442;   -9.520;  651.980
1058.961;   19.588;  -13.160;  678.940
1059.508;   18.370;  -12.920;  643.820
1060.055;   18.863;  -11.920;  581.780
1060.601;   19.048;  -11.500;  624.300
1061.148;   18.648;  -14.330;  616.820
1061.694;   17.457;  -16.870;  592.580
1062.241;   17.608;  -10.330;  596.320
1062.787;   17.636;  -10.620;  663.140
1063.334;   19.526;  -10.110;  808.560
1063.880;   17.342;  -13.400;  668.360
1064.426;   17.702;  -10.680;  706.820
1064.972;   16.717;   -9.920;  601.340
1065.518;   15.901;  -10.980;  566.640
1066.065;   17.470;  -14.890;  624.460
1066.611;   16.450;  -12.870;  598.800
1067.157;   17.722;  -12.950;  641.860
1067.703;   16.679;  -13.540;  668.480
1068.249;   16.137;  -13.540;  605.220
1068.794;   15.999;  -12.600;  626.880
1069.340;   15.422;  -10.620;  578.960
1069.886;   16.181;  -12.830;  590.700
1070.432;   14.628;  -14.870;  541.720
1070.977;   15.640;  -11.980;  601.080
1071.523;   15.709;   -8.200;  573.060
1072.068;   15.937;  -12.330;  582.000
1072.614;   14.964;  -16.370;  527.760
1073.160;   15.810;  -11.100;  687.040
1073.705;   14.810;  -10.480;  572.520
1074.250;   14.098;  -14.520;  559.900
1074.796;   15.510;  -11.460;  655.160
1075.341;   14.747;  -11.950;  664.100
1075.886;   14.678;  -11.460;  594.240
1076.431;   14.074;  -13.770;  649.880
1076.976;   13.709;  -12.680;  639.220
1077.521;   13.547;  -13.170;  583.080
1078.067;   12.986;  -10.860;  579.400
1078.612;   14.615;  -13.920;  661.620
1079.156;   13.637;  -13.880;  601.540
1079.701;   14.385;  -13.120;  693.260
1080.246;   14.867;   -9.940;  696.300
1080.791;   14.421;  -14.740;  625.020
1081.336;   13.495;  -13.750;  659.320
1081.880;   13.624;  -13.400;  649.680
1082.425;   12.255;  -12.220;  573.480
1082.970;   14.256;  -11.610;  717.040
1083.514;   12.864;  -13.580;  597.000
1084.059;   11.629;  -12.810;  586.720
1084.603;   12.392;  -12.320;  565.840
1085.147;   12.299;  -13.190;  645.220
1085.692;   13.129;  -12.480;  716.800
1086.236;   11.940;  -13.020;  503.140
1086.780;   13.358;   -9.190;  751.440
1087.325;   13.019;  -12.480;  654.620
1087.869;   12.524;  -12.450;  610.700
1088.413;   12.432;  -12.240;  705.040
1088.957;   11.582;   -9.020;  543.400
1089.501;   13.101;  -10.320;  766.640
1090.045;   12.014;  -12.720;  726.480
1090.589;   10.196;  -13.690;  569.920
1091.133;   11.730;  -10.020;  673.340
1091.676;   11.815;  -12.330;  591.940
1092.220;   11.196;  -14.970;  600.920
1092.764;   11.754;  -12.430;  706.960
1093.307;   12.038;   -9.800;  673.780
1093.851;   10.361;  -14.970;  556.540
1094.395;   11.892;  -15.310;  683.140
1094.938;   10.177;  -10.370;  632.520
1095.482;   10.534;  -11.050;  559.800
1096.025;   10.552;  -11.840;  710.880
1096.568;   11.030;  -12.840;  779.280
1097.112;    9.019;  -14.700;  508.180
1097.655;   10.960;   -8.720;  603.000
1098.198;    9.124;  -13.610;  600.180
1098.741;    9.623;  -13.350;  612.860
1099.285;   10.418;  -11.230;  657.300
1099.828;    8.128;  -11.840;  439.400
1100.371;    9.522;  -10.840;  608.160
1100.914;    9.615;  -14.190;  682.660
1101.457;    9.071;  -11.240;  679.900
1101.999;    8.582;  -11.270;  584.680
1102.542;    8.708;  -11.480;  641.440
1103.085;    8.631;  -11.750;  658.500
1103.628;    9.569;  -11.400;  762.060
1104.170;    8.144;  -10.490;  588.280
1104.713;    9.870;  -10.600;  646.700
1105.256;    8.385;  -14.360;  557.440
1105.798;    7.017;  -13.210;  499.980
1106.341;    8.952;  -10.270;  728.900
1106.883;    7.787;  -12.200;  521.340
1107.425;    7.649;  -13.110;  668.180
1107.968;    7.706;  -12.840;  612.380
1108.510;    8.603;   -6.480;  684.960
1109.052;    7.073;  -13.940;  612.620
1109.594;    7.266;  -13.690;  554.440
1110.136;    8.442;  -11.880;  643.220
1110.679;    7.148;   -9.500;  633.080
1111.221;    7.610;  -14.160;  604.460
1111.763;    7.268;  -13.980;  559.220
1112.304;    6.527;  -13.880;  547.140
1112.846;    7.337;  -12.210;  666.240
1113.388;   10.153;  -11.390;  942.180
1113.930;    7.584;  -14.540;  694.200
1114.472;    5.851;  -12.640;  606.540
1115.013;    5.898;  -11.620;  551.280
1115.555;    6.613;  -13.640;  587.100
1116.097;    4.596;  -15.380;  579.480
1116.638;    6.589;  -12.640;  684.600
1117.180;    6.698;   -9.850;  667.740
1117.721;    6.399;  -13.690;  568.580
1118.262;    7.074;  -12.680;  677.960
1118.804;    6.856;  -12.530;  637.340
1119.345;    5.416;  -11.690;  578.400
1119.886;    6.206;  -13.380;  704.040
1120.427;    5.232;  -14.070;  589.020
1120.969;    4.214;  -13.500;  597.920
1121.510;    5.962;  -11.480;  563.060
1122.051;    5.963;  -12.830;  723.580
1122.592;    4.627;  -14.290;  655.420
1123.133;    3.926;  -12.400;  547.940
1123.673;    5.948;  -10.130;  706.480
1124.214;    5.361;  -12.930;  612.460
1124.755;    5.425;  -14.380;  639.460
1125.296;    4.607;  -14.000;  627.320
1125.836;    5.917;  -10.070;  691.500
1126.377;    4.270;  -12.640;  599.660
1126.918;    5.289;  -12.960;  614.980
1127.458;    4.007;  -13.350;  622.220
1127.999;    4.439;  -10.750;  656.980
1128.539;    5.167;  -12.350;  694.240
1129.079;    4.037;  -14.860;  632.720
1129.620;    3.811;  -13.840;  558.100
1130.160;    4.093;  -12.330;  539.480
1130.700;    4.118;  -14.530;  640.840
1131.240;    4.683;  -12.530;  643.700
1131.781;    3.550;  -14.450;  619.680
1132.321;    3.708;   -9.790;  599.120
1132.861;    3.174;  -14.860;  564.200
1133.401;    2.138;  -14.290;  593.940
1133.941;    3.315;  -11.750;  626.280
1134.481;    2.991;   -9.920;  597.580
1135.020;    3.066;  -12.290;  609.160
1135.560;    3.615;  -11.650;  674.940
1136.100;    2.438;  -16.270;  501.160
1136.640;    2.291;  -10.890;  510.480
1137.179;    2.415;  -14.180;  537.960
1137.719;    2.468;  -16.250;  605.400
1138.258;    2.515;  -14.230;  587.360
1138.798;    2.766;   -9.090;  663.780
1139.337;    1.698;  -15.130;  482.840
1139.877;    2.655;  -13.680;  642.360
1140.416;    4.272;  -11.320;  878.060
1140.955;    1.336;  -10.860;  535.380
1141.494;    2.222;  -12.920;  669.280
1142.034;    2.074;  -13.930;  583.520
1142.573;    2.649;  -11.440;  646.280
1143.112;    1.482;  -12.000;  553.480
1143.651;    1.625;  -13.670;  536.480
1144.190;    2.466;  -12.730;  691.640
1144.729;    1.563;  -14.560;  607.420
1145.267;    1.596;  -11.830;  584.900
1145.806;    2.749;  -12.230;  637.040
1146.345;    1.249;  -14.130;  635.020
1146.884;    1.492;  -11.590;  622.500
1147.422;    1.368;  -12.550;  533.060
1147.961;    2.741;  -11.180;  708.460
1148.500;    2.219;  -11.510;  669.720
1149.038;    2.298;  -11.640;  632.500
1149.577;    1.864;  -10.130;  698.640
1150.115;   -0.732;  -13.970;  452.280
1150.653;    1.099;  -14.520;  607.340
1151.192;    0.388;  -12.810;  552.920
1151.730;    1.614;   -9.100;  652.560
1152.268;    0.354;  -12.220;  589.520
1152.806;    0.190;  -14.140;  571.180
1153.344;   -0.831;  -12.350;  577.640
1153.882;    0.742;   -8.980;  600.060
1154.421;   -0.763;  -15.190;  470.620
1154.958;    0.026;  -15.210;  595.240
1155.496;    1.169;  -12.850;  645.280
1156.034;    0.793;   -9.940;  721.880
1156.572;    1.979;  -13.570;  667.060
1157.110;   -0.693;  -14.590;  473.940
1157.647;    0.659;  -13.030;  676.960
1158.185;   -0.304;  -12.140;  564.320
1158.723;   -1.370;  -14.390;  509.200
1159.260;   -0.213;  -14.090;  701.700
1159.798;   -0.316;  -11.920;  658.160
1160.335;   -0.701;  -11.110;  631.820

