gmr_left
Integration time [ms]: 238.412
Averaging Nr. [scans]: 40
Smoothing Nr. [pixels]: 0
Data measured with spectrometer [name]: 7414430SP
Wave   ;Sample   ;Dark     ;Reference
[nm]   ;[counts] ;[counts] ;[counts] 

288.544;  495.861;  332.182;    6.613
289.143;  431.658;  271.583;   14.216
289.742;  520.348;  358.283;   11.816
290.341;  499.377;  338.184;   -4.936
290.940;  453.852;  301.359;    0.852
291.538;  545.268;  386.909;    1.792
292.137;  494.661;  339.183;    6.262
292.736;  606.477;  448.984;    8.164
293.335;  460.479;  303.109;   -6.418
293.934;  486.135;  331.034;   -2.904
294.532;  633.857;  479.809;   -5.162
295.131;  522.938;  376.861;  -10.283
295.730;  507.250;  361.060;  -16.141
296.328;  487.266;  345.711;  -14.740
296.927;  491.820;  342.761;   -8.768
297.525;  489.020;  342.961;  -15.255
298.124;  413.942;  272.787;  -22.063
298.722;  478.589;  336.861;  -14.796
299.321;  450.341;  303.761;  -10.466
299.919;  469.921;  329.786;  -10.979
300.518;  433.236;  293.262;  -12.077
301.116;  430.878;  297.361;  -13.509
301.715;  459.661;  315.411;  -11.939
302.313;  447.547;  306.661;  -15.424
302.911;  460.489;  329.612;  -19.833
303.509;  568.735;  439.211;   -3.567
304.108;  476.496;  342.436;   -9.553
304.706;  492.344;  367.686;   -8.582
305.304;  498.103;  366.712;  -12.348
305.902;  489.142;  359.286;  -14.411
306.500;  458.014;  325.311;   -7.194
307.098;  467.408;  342.011;   -9.322
307.696;  482.170;  361.986;  -19.192
308.294;  454.667;  331.561;   -9.736
308.892;  473.574;  349.686;  -15.482
309.490;  442.794;  314.911;  -14.107
310.088;  479.407;  372.612;  -15.862
310.686;  502.870;  389.461;  -10.781
311.284;  470.921;  356.336;  -14.878
311.882;  449.448;  336.862;   -9.948
312.480;  425.161;  321.162;  -15.503
313.078;  493.217;  388.612;  -17.262
313.675;  421.089;  320.411;   -3.694
314.273;  486.554;  384.962;  -18.246
314.871;  362.006;  268.837;  -15.190
315.468;  398.264;  299.362;  -12.633
316.066;  423.701;  321.511;   -5.765
316.664;  397.825;  302.362;  -14.317
317.261;  540.926;  448.487;   -8.677
317.859;  464.550;  378.637;  -11.804
318.456;  495.214;  411.961;   -3.107
319.054;  467.762;  378.962;   -3.062
319.651;  453.000;  371.737;   -6.706
320.249;  475.700;  398.562;   -5.206
320.846;  424.355;  345.061;   -4.679
321.443;  492.819;  418.661;   -7.920
322.041;  479.855;  400.187;  -14.105
322.638;  415.452;  339.787;   -6.263
323.235;  386.397;  314.961;   -7.424
323.833;  434.036;  363.186;  -14.765
324.430;  356.452;  280.436;  -10.550
325.027;  513.851;  440.611;   -9.951
325.624;  375.932;  298.761;   -3.712
326.221;  399.800;  318.936;   -9.368
326.818;  475.512;  400.711;   -5.637
327.415;  429.947;  346.260;   -6.699
328.012;  400.031;  319.885;   -5.713
328.609;  422.833;  339.260;   -9.983
329.206;  455.170;  366.561;   -7.154
329.803;  423.914;  339.636;   -1.682
330.400;  412.040;  313.485;   -2.741
330.997;  475.516;  377.636;   -4.339
331.594;  458.751;  363.311;  -10.278
332.191;  422.480;  324.736;   -6.967
332.787;  487.235;  386.261;   -0.480
333.384;  437.419;  342.112;  -10.333
333.981;  466.467;  375.163;  -19.900
334.578;  399.476;  310.587;  -19.816
335.174;  415.184;  319.387;  -15.844
335.771;  480.849;  384.438;  -12.670
336.367;  402.448;  320.113;  -21.124
336.964;  455.702;  369.313;  -18.226
337.561;  416.768;  329.313;  -13.311
338.157;  514.200;  432.764;  -19.006
338.754;  456.895;  371.839;  -19.418
339.350;  404.889;  324.864;  -29.433
339.946;  437.194;  348.714;  -16.622
340.543;  474.310;  399.465;  -16.744
341.139;  395.971;  331.215;  -21.841
341.735;  432.593;  363.566;  -25.012
342.332;  385.580;  316.015;  -19.156
342.928;  445.651;  376.415;  -20.443
343.524;  423.419;  357.341;  -14.397
344.120;  409.456;  353.591;  -20.654
344.716;  401.101;  332.640;   -5.730
345.313;  446.306;  378.515;  -10.929
345.909;  339.905;  276.840;  -19.843
346.505;  416.279;  349.565;  -19.645
347.101;  463.060;  394.639;   -9.618
347.697;  439.950;  377.889;  -10.305
348.293;  342.812;  275.590;  -23.189
348.889;  413.450;  352.389;  -18.418
349.485;  380.462;  316.289;  -10.476
350.081;  428.879;  364.839;  -17.320
350.676;  383.437;  319.940;  -21.088
351.272;  451.884;  385.314;  -12.821
351.868;  432.131;  359.189;  -13.165
352.464;  407.442;  339.314;  -12.464
353.059;  362.378;  297.664;  -22.547
353.655;  439.421;  371.639;   -9.379
354.251;  425.546;  356.313;   -8.266
354.846;  413.410;  350.714;  -17.705
355.442;  417.966;  355.915;   -9.317
356.038;  416.848;  352.164;  -11.049
356.633;  408.825;  340.389;  -10.006
357.229;  402.835;  340.089;  -13.120
357.824;  390.404;  327.589;  -15.647
358.420;  374.006;  310.939;  -19.204
359.015;  388.467;  318.914;  -12.263
359.610;  429.294;  365.289;  -16.421
360.206;  338.518;  270.590;  -20.074
360.801;  360.587;  291.064;  -13.277
361.396;  416.419;  343.139;   -5.822
361.992;  377.429;  306.264;  -11.247
362.587;  373.437;  308.515;  -21.502
363.182;  383.703;  322.764;   -7.461
363.777;  424.465;  351.864;   -8.719
364.372;  421.081;  358.189;  -14.590
364.967;  379.850;  321.715;  -15.145
365.563;  453.856;  388.039;   -7.192
366.158;  390.897;  320.264;   -5.662
366.753;  368.341;  295.314;   -8.378
367.348;  423.307;  357.064;  -14.990
367.942;  391.400;  327.764;   -6.005
368.537;  425.626;  361.689;  -11.504
369.132;  404.512;  329.614;  -10.576
369.727;  362.813;  298.440;  -12.573
370.322;  331.743;  266.940;  -11.560
370.917;  409.137;  339.490;  -10.388
371.511;  494.833;  427.164;   -9.161
372.106;  448.250;  379.790;  -10.245
372.701;  332.984;  272.315;  -10.158
373.296;  496.130;  427.564;   -4.719
373.890;  368.612;  307.915;  -11.802
374.485;  397.952;  337.115;  -13.500
375.079;  428.707;  362.789;   -6.276
375.674;  476.118;  401.664;   -0.447
376.268;  399.771;  332.240;   -6.916
376.863;  330.739;  276.716;  -14.483
377.457;  381.356;  314.690;   -6.903
378.052;  445.420;  374.315;   -9.844
378.646;  433.017;  370.840;  -12.601
379.240;  417.587;  351.240;  -14.715
379.835;  372.960;  308.715;  -12.331
380.429;  327.938;  266.490;   -9.074
381.023;  458.906;  393.115;   -1.729
381.617;  393.867;  332.440;  -13.714
382.212;  400.013;  334.815;   -7.060
382.806;  442.006;  377.590;   -2.303
383.400;  396.742;  331.115;   -0.815
383.994;  380.786;  329.140;   -4.429
384.588;  406.888;  348.039;   -6.261
385.182;  424.801;  362.014;    0.008
385.776;  424.024;  356.039;   -3.247
386.370;  397.465;  341.465;   -1.030
386.964;  401.294;  342.840;   -1.346
387.558;  354.814;  293.714;   -2.020
388.152;  397.819;  343.690;   -5.345
388.745;  476.803;  419.915;   -2.774
389.339;  438.116;  385.039;    3.510
389.933;  412.104;  347.289;    5.280
390.527;  505.572;  452.139;    2.610
391.120;  341.362;  295.940;   -7.914
391.714;  413.681;  363.840;   -1.903
392.308;  459.222;  405.564;    6.023
392.901;  385.441;  324.365;   -4.103
393.495;  348.561;  301.415;    3.284
394.089;  452.634;  399.790;    8.655
394.682;  408.762;  361.290;    2.312
395.275;  430.597;  373.240;   -7.402
395.869;  387.229;  342.490;   -1.072
396.462;  360.734;  315.340;    6.454
397.056;  456.505;  403.889;    8.494
397.649;  429.902;  381.015;    1.599
398.242;  415.109;  373.064;    3.153
398.836;  445.310;  402.914;   11.395
399.429;  371.351;  324.289;   14.695
400.022;  387.514;  345.590;    3.627
400.615;  473.861;  432.340;    8.383
401.208;  399.965;  354.989;   13.295
401.802;  405.492;  365.940;    6.211
402.395;  402.889;  361.290;    7.227
402.988;  400.062;  362.265;    2.700
403.581;  375.122;  336.689;   11.225
404.174;  400.071;  354.064;   18.922
404.767;  371.365;  339.265;   14.169
405.360;  357.012;  326.690;    8.999
405.953;  441.187;  403.039;   13.138
406.545;  429.327;  377.889;   13.937
407.138;  355.775;  313.990;   10.869
407.731;  355.620;  317.039;   12.768
408.324;  383.536;  343.789;   22.921
408.917;  398.776;  359.814;   15.308
409.509;  433.308;  395.314;   12.239
410.102;  366.064;  340.165;   13.741
410.695;  381.472;  347.989;   20.249
411.287;  344.789;  311.239;   21.793
411.880;  339.508;  302.339;   22.965
412.472;  348.770;  318.389;   15.082
413.065;  369.142;  336.289;   23.423
413.657;  337.553;  298.039;   21.077
414.250;  378.202;  336.714;   12.349
414.842;  387.851;  352.064;   20.423
415.434;  324.910;  296.714;   19.906
416.027;  382.842;  339.988;   26.574
416.619;  415.534;  384.414;   15.705
417.211;  341.909;  309.039;   17.791
417.804;  361.520;  325.263;   30.244
418.396;  349.358;  319.364;   24.177
418.988;  382.089;  348.488;   24.904
419.580;  323.259;  292.489;   20.692
420.172;  311.232;  278.713;   22.275
420.764;  389.876;  355.763;   26.773
421.356;  365.275;  338.413;   25.731
421.948;  389.013;  359.838;   24.876
422.540;  391.814;  355.188;   30.042
423.132;  343.968;  313.387;   32.728
423.724;  322.144;  290.788;   21.317
424.316;  357.991;  323.238;   29.359
424.908;  335.691;  304.287;   28.798
425.500;  378.957;  335.712;   30.512
426.092;  375.873;  336.912;   26.741
426.683;  401.859;  362.463;   27.029
427.275;  371.356;  336.387;   32.611
427.867;  388.565;  351.337;   33.796
428.458;  424.043;  385.937;   34.453
429.050;  391.939;  356.687;   34.255
429.642;  424.020;  391.712;   39.082
430.233;  320.647;  287.987;   41.138
430.825;  422.729;  384.287;   31.581
431.416;  399.404;  366.212;   35.755
432.008;  370.438;  337.812;   40.566
432.599;  375.986;  335.336;   46.322
433.190;  371.161;  333.212;   46.897
433.782;  339.114;  302.337;   41.069
434.373;  511.388;  470.836;   48.778
434.964;  347.858;  307.636;   50.078
435.556;  364.489;  329.587;   52.381
436.147;  436.883;  392.887;   38.251
436.738;  400.207;  360.061;   47.237
437.329;  417.878;  372.511;   61.304
437.920;  385.876;  345.062;   48.611
438.511;  322.026;  279.837;   44.910
439.103;  354.719;  315.036;   62.404
439.694;  394.852;  350.436;   63.075
440.285;  442.640;  400.436;   61.033
440.876;  490.077;  444.436;   57.249
441.466;  324.844;  290.086;   61.306
442.057;  383.001;  331.460;   65.773
442.648;  431.737;  386.736;   65.676
443.239;  355.742;  312.761;   55.963
443.830;  406.809;  361.860;   69.631
444.421;  379.479;  328.660;   69.943
445.011;  399.353;  350.386;   72.791
445.602;  430.666;  379.461;   68.848
446.193;  276.174;  228.810;   80.044
446.783;  370.971;  313.585;   82.599
447.374;  398.034;  357.311;   77.419
447.964;  409.334;  362.536;   72.605
448.555;  468.173;  424.460;   82.041
449.145;  387.984;  330.310;   76.230
449.736;  466.950;  414.985;   75.545
450.326;  412.785;  359.935;   67.945
450.917;  386.886;  333.685;   77.598
451.507;  350.757;  290.635;   68.027
452.097;  434.725;  383.935;   67.771
452.688;  426.510;  368.435;   62.884
453.278;  323.467;  275.160;   65.512
453.868;  461.525;  403.809;   71.796
454.458;  375.759;  318.910;   60.956
455.048;  408.284;  353.535;   62.356
455.639;  324.619;  268.759;   58.782
456.229;  412.675;  346.284;   65.209
456.819;  435.788;  368.959;   61.466
457.409;  451.928;  386.634;   59.967
457.999;  423.284;  361.034;   58.093
458.589;  398.151;  333.359;   59.536
459.179;  414.669;  349.659;   55.994
459.769;  361.991;  298.609;   43.624
460.358;  458.118;  390.959;   46.978
460.948;  405.260;  328.684;   49.821
461.538;  388.813;  310.534;   54.678
462.128;  384.125;  315.259;   49.309
462.717;  409.966;  337.158;   52.774
463.307;  414.877;  332.983;   48.101
463.897;  383.374;  311.684;   45.606
464.486;  488.715;  417.409;   45.010
465.076;  425.314;  353.758;   45.519
465.666;  379.829;  297.008;   50.058
466.255;  464.896;  380.084;   44.463
466.845;  387.259;  313.384;   41.206
467.434;  418.015;  343.333;   44.847
468.023;  383.690;  300.133;   46.760
468.613;  421.751;  335.959;   39.736
469.202;  375.426;  295.883;   46.461
469.791;  425.304;  345.133;   47.944
470.381;  436.093;  347.033;   47.529
470.970;  413.090;  332.058;   43.773
471.559;  431.820;  342.008;   41.646
472.148;  391.862;  303.683;   37.914
472.738;  449.210;  356.482;   48.071
473.327;  373.035;  281.358;   47.871
473.916;  434.463;  344.183;   37.716
474.505;  436.869;  347.732;   40.256
475.094;  480.049;  376.407;   43.269
475.683;  471.781;  365.032;   36.499
476.272;  430.688;  330.607;   44.542
476.861;  412.085;  312.082;   42.297
477.449;  431.382;  321.156;   46.878
478.038;  405.429;  303.132;   35.156
478.627;  421.507;  312.283;   42.514
479.216;  449.621;  339.082;   43.937
479.805;  457.053;  342.281;   51.393
480.393;  594.142;  478.332;   53.239
480.982;  519.043;  400.307;   38.955
481.571;  504.620;  389.631;   45.436
482.159;  411.184;  293.706;   51.007
482.748;  485.354;  366.357;   49.695
483.336;  514.153;  381.181;   48.280
483.925;  462.363;  334.082;   47.166
484.513;  453.443;  315.681;   55.404
485.102;  474.097;  343.207;   54.238
485.690;  593.965;  454.581;   55.748
486.278;  581.874;  440.606;   55.934
486.867;  480.008;  333.306;   57.106
487.455;  536.083;  388.156;   56.979
488.043;  444.457;  294.606;   57.564
488.631;  593.744;  434.606;   57.432
489.220;  547.669;  375.931;   63.646
489.808;  447.141;  280.831;   65.449
490.396;  550.087;  376.381;   61.977
490.984;  497.065;  312.181;   68.834
491.572;  568.081;  372.756;   70.775
492.160;  556.607;  353.331;   67.564
492.748;  533.599;  321.856;   66.808
493.336;  610.850;  385.406;   79.747
493.924;  581.556;  328.880;   88.688
494.512;  647.844;  377.506;   84.120
495.100;  666.641;  368.731;   86.250
495.687;  726.060;  385.755;  103.074
496.275;  700.778;  306.906;  108.717
496.863;  781.095;  320.381;  107.035
497.451;  866.468;  318.181;  117.993
498.038;  968.902;  337.580;  120.116
498.626; 1075.840;  323.705;  143.059
499.214; 1223.549;  350.431;  153.434
499.801; 1375.659;  340.156;  175.121
500.389; 1498.278;  273.880;  185.617
500.976; 1781.441;  353.806;  215.789
501.564; 2060.549;  344.506;  240.321
502.151; 2168.399;  238.081;  267.007
502.738; 2454.740;  318.731;  317.961
503.326; 2812.337;  325.180;  361.216
503.913; 3224.529;  343.006;  401.433
504.500; 3639.143;  355.181;  446.492
505.088; 4055.966;  301.106;  512.063
505.675; 4683.846;  330.580;  586.387
506.262; 5277.365;  325.506;  671.021
506.849; 5846.631;  335.756;  759.062
507.436; 6525.611;  380.255;  849.788
508.023; 7141.871;  334.181;  944.288
508.610; 7713.922;  374.231; 1020.690
509.197; 8424.151;  357.257; 1089.052
509.784; 9241.677;  331.206; 1133.776
510.371;10031.597;  273.280; 1165.501
510.958;11107.815;  344.181; 1251.735
511.545;11221.021;  392.581; 1350.248
512.132;11457.688;  338.105; 1525.945
512.719;12180.504;  294.131; 1834.933
513.305;13149.280;  302.831; 1965.349
513.892;14235.492;  390.881; 1963.265
514.479;15350.444;  344.106; 2046.446
515.066;16599.283;  381.056; 2252.803
515.652;17550.084;  342.181; 2567.247
516.239;18467.645;  367.031; 2636.919
516.825;18884.408;  280.781; 2482.304
517.412;19132.748;  440.656; 2427.031
517.998;18921.752;  326.831; 2540.463
518.585;18881.523;  321.031; 2609.007
519.171;20128.330;  344.230; 2842.088
519.758;22132.832;  289.856; 3090.703
520.344;23936.752;  375.481; 3176.076
520.930;24471.381;  299.831; 3295.037
521.516;25217.799;  355.580; 3500.959
522.103;25004.342;  395.056; 3736.704
522.689;25820.436;  322.431; 3971.022
523.275;27056.066;  381.706; 4213.778
523.861;26953.041;  331.131; 4190.361
524.447;26922.961;  380.380; 4070.602
525.033;27785.777;  381.681; 4088.892
525.619;27340.297;  303.906; 4416.851
526.205;28093.850;  288.856; 4836.835
526.791;30052.162;  321.731; 4885.903
527.377;31128.055;  315.431; 4544.907
527.963;31404.064;  343.282; 4321.995
528.549;30533.828;  352.506; 4473.979
529.135;29346.582;  304.081; 4788.663
529.721;28212.992;  338.481; 4888.577
530.306;28902.229;  466.581; 4775.779
530.892;30405.039;  318.656; 4793.906
531.478;31428.520;  312.706; 4956.948
532.063;32935.832;  298.081; 5136.936
532.649;34304.348;  423.182; 5336.867
533.235;35842.262;  301.356; 5748.092
533.820;37298.484;  387.506; 6456.875
534.406;37256.156;  323.132; 6590.167
534.991;36699.496;  297.731; 6179.622
535.576;35840.984;  323.756; 6098.691
536.162;35814.020;  473.231; 6441.234
536.747;36247.781;  284.632; 6816.224
537.333;37430.133;  300.207; 6889.752
537.918;37069.254;  334.732; 7154.280
538.503;37822.715;  313.831; 7150.848
539.088;38064.926;  347.831; 7253.308
539.673;37188.918;  326.957; 7625.180
540.259;35898.180;  310.081; 8226.793
540.844;37022.504;  268.181; 8745.092
541.429;36881.672;  415.182; 8762.553
542.014;36562.961;  283.257; 8871.497
542.599;38147.625;  349.206; 8886.008
543.184;40680.762;  292.582; 9079.139
543.769;40722.090;  299.932; 9076.182
544.354;39568.379;  316.832; 8354.081
544.938;37160.551;  346.957; 8236.809
545.523;35496.594;  408.931; 8222.179
546.108;36446.645;  333.957; 8114.082
546.693;36899.672;  329.582; 8535.912
547.278;36623.727;  329.756; 9238.322
547.862;35845.668;  335.231; 9034.405
548.447;35229.250;  375.007; 7795.011
549.031;35029.063;  323.407; 7485.099
549.616;35230.215;  345.556; 7626.308
550.201;35336.586;  317.957; 7627.909
550.785;36367.973;  360.657; 7859.125
551.370;38294.613;  285.157; 7990.654
551.954;39348.422;  376.732; 8196.468
552.538;40560.070;  363.782; 7959.495
553.123;40163.301;  305.957; 7964.826
553.707;38793.715;  321.858; 8515.957
554.291;37835.313;  389.882; 8724.024
554.876;37568.379;  368.932; 8524.211
555.460;37060.645;  314.232; 8704.456
556.044;37527.121;  312.058; 9141.473
556.628;37088.531;  331.082; 9250.197
557.212;36715.285;  381.732; 9444.237
557.796;35397.789;  322.682; 9379.783
558.380;37149.434;  349.858; 9353.658
558.964;37204.227;  337.832; 9210.310
559.548;36231.879;  285.732; 8475.153
560.132;36128.047;  317.732; 7954.084
560.716;36387.473;  287.633; 7489.529
561.300;38202.387;  293.532; 7211.952
561.884;39041.555;  356.157; 7141.313
562.467;37694.496;  357.083; 7155.386
563.051;37429.125;  332.158; 7323.158
563.635;37765.531;  321.708; 7709.114
564.219;37403.430;  329.757; 7678.855
564.802;37052.207;  354.833; 7376.187
565.386;35897.785;  337.983; 7054.372
565.969;34926.984;  393.007; 6589.196
566.553;33964.711;  431.132; 6279.371
567.136;33950.969;  387.258; 5967.930
567.720;34546.391;  333.033; 5660.703
568.303;34457.453;  350.983; 5648.615
568.887;35236.652;  336.083; 5618.443
569.470;35026.531;  347.808; 5411.875
570.053;34904.258;  362.008; 5149.274
570.637;35280.980;  311.582; 5122.798
571.220;35456.555;  370.182; 4957.369
571.803;34939.223;  431.408; 4933.018
572.386;35381.895;  321.158; 4840.973
572.969;36198.570;  324.383; 4592.886
573.552;36924.492;  327.358; 4348.387
574.135;34171.043;  301.458; 4002.290
574.718;29117.955;  306.533; 3654.773
575.301;28679.469;  305.583; 3502.288
575.884;28240.982;  304.633; 3349.803
576.467;29539.592;  382.608; 3191.403
577.050;30682.629;  344.783; 3062.418
577.633;32007.936;  419.133; 3214.200
578.216;32896.762;  323.983; 3284.889
578.799;32444.518;  325.158; 3189.777
579.381;32566.227;  437.358; 3064.502
579.964;33042.141;  306.433; 2888.357
580.547;33561.926;  343.283; 2905.760
581.129;34276.941;  402.609; 2966.849
581.712;36112.582;  353.784; 2887.292
582.294;36659.039;  340.783; 2771.631
582.877;36533.156;  440.133; 2711.602
583.459;35940.930;  337.109; 2577.049
584.042;34061.293;  331.484; 2454.707
584.624;32520.113;  309.609; 2305.893
585.206;31350.641;  266.683; 2189.546
585.789;29784.338;  312.459; 2112.577
586.371;28362.883;  356.459; 2153.065
586.953;28630.789;  368.459; 2197.806
587.536;29858.912;  400.958; 2105.489
588.118;30143.941;  328.560; 1963.911
588.700;30861.973;  402.784; 1843.179
589.282;30710.904;  356.533; 1813.834
589.864;30167.150;  339.384; 1777.620
590.446;30179.564;  270.159; 1733.780
591.028;30858.346;  335.084; 1676.008
591.610;31965.211;  269.934; 1631.649
592.192;31258.762;  343.883; 1632.362
592.774;29474.090;  296.959; 1569.507
593.356;27918.518;  308.434; 1524.539
593.937;27747.600;  305.209; 1569.720
594.519;28529.205;  385.159; 1569.049
595.101;29877.113;  280.159; 1545.452
595.683;29660.859;  312.384; 1607.568
596.264;29826.844;  329.084; 1615.506
596.846;29658.170;  316.159; 1667.622
597.427;30107.494;  311.585; 1670.469
598.009;31703.371;  306.135; 1640.312
598.591;30446.760;  368.334; 1541.022
599.172;29460.973;  329.159; 1598.665
599.753;29834.139;  287.835; 1619.068
600.335;28496.941;  399.860; 1548.612
600.916;26555.281;  330.059; 1607.510
601.498;27597.273;  352.434; 1745.181
602.079;28820.035;  332.735; 1801.011
602.660;28846.398;  331.085; 1834.640
603.241;28544.527;  266.484; 1787.351
603.823;28714.514;  312.009; 1684.266
604.404;28271.252;  294.460; 1654.241
604.985;28347.479;  311.435; 1758.741
605.566;27777.254;  373.284; 1697.679
606.147;27550.148;  326.810; 1526.728
606.728;28841.377;  287.885; 1484.086
607.309;28999.814;  312.260; 1421.070
607.890;28310.424;  320.084; 1369.867
608.471;28089.457;  305.985; 1277.826
609.051;27825.068;  345.735; 1180.416
609.632;28786.193;  298.910; 1075.816
610.213;29539.717;  327.260; 1053.313
610.794;28676.148;  319.860;  979.442
611.374;28542.592;  353.585;  917.414
611.955;27725.031;  279.385;  819.987
612.536;27574.643;  350.760;  752.627
613.116;28218.561;  314.485;  690.799
613.697;28667.037;  306.310;  674.974
614.277;28042.045;  296.261;  663.846
614.858;26254.432;  315.435;  665.898
615.438;24817.727;  331.435;  660.712
616.019;24676.234;  396.911;  632.732
616.599;24765.475;  257.935;  551.759
617.179;25842.750;  288.785;  512.871
617.760;25935.553;  453.610;  473.655
618.340;25190.494;  327.786;  440.004
618.920;26581.859;  411.910;  429.731
619.500;26431.752;  317.361;  441.361
620.080;26469.662;  299.235;  425.202
620.660;26537.213;  298.436;  408.164
621.241;26498.416;  315.461;  387.161
621.821;27225.770;  335.836;  378.017
622.401;26156.611;  382.235;  379.188
622.980;25804.410;  283.836;  350.019
623.560;25318.406;  316.836;  336.446
624.140;23170.457;  340.235;  336.473
624.720;22193.182;  346.736;  334.974
625.300;21673.084;  297.610;  325.717
625.880;22822.549;  329.611;  308.519
626.459;25077.463;  329.936;  307.117
627.039;27261.027;  273.711;  290.890
627.619;29759.730;  432.161;  286.635
628.198;29465.986;  382.786;  282.535
628.778;27099.631;  359.011;  285.474
629.357;25665.418;  289.461;  284.103
629.937;25607.209;  314.761;  292.178
630.516;26935.406;  404.261;  290.749
631.096;27896.053;  305.311;  285.489
631.675;28753.191;  395.186;  287.022
632.254;28870.838;  305.012;  286.038
632.834;28144.258;  326.362;  276.451
633.413;26582.416;  400.736;  279.447
633.992;25874.455;  375.962;  264.508
634.571;25752.512;  361.012;  271.010
635.151;25683.432;  293.462;  277.338
635.730;25844.049;  321.436;  289.305
636.309;24870.445;  358.911;  285.306
636.888;23861.568;  354.262;  254.051
637.467;23447.287;  269.612;  230.324
638.046;23918.426;  400.486;  253.349
638.625;25782.658;  386.537;  246.866
639.204;25975.652;  345.112;  240.825
639.782;25323.150;  333.362;  261.970
640.361;24721.006;  391.961;  277.780
640.940;23586.789;  308.461;  270.101
641.519;23435.596;  360.011;  248.622
642.097;23302.779;  353.961;  239.843
642.676;23815.588;  338.986;  244.264
643.255;25745.871;  319.311;  234.985
643.833;27877.229;  360.561;  244.406
644.412;27852.637;  314.386;  244.927
644.990;25804.270;  338.211;  249.948
645.569;25840.527;  355.861;  249.569
646.147;25802.887;  372.611;  243.290
646.726;26694.244;  335.211;  249.511
647.304;27396.127;  321.061;  228.032
647.882;27057.361;  270.686;  214.552
648.461;26202.469;  342.686;  214.973
649.039;25072.402;  366.261;  223.394
649.617;24139.109;  357.161;  261.415
650.195;23783.893;  346.036;  298.736
650.773;24730.201;  314.336;  309.557
651.352;24525.535;  258.236;  297.978
651.930;22344.717;  257.711;  289.399
652.508;22285.850;  366.686;  285.620
653.086;22626.559;  350.436;  272.241
653.663;23816.143;  306.061;  265.062
654.241;25388.150;  282.711;  286.083
654.819;26287.533;  288.861;  286.404
655.397;26731.342;  297.536;  291.825
655.975;26950.600;  319.561;  299.145
656.553;26946.057;  400.861;  288.866
657.130;27613.189;  294.961;  304.087
657.708;26962.023;  344.761;  302.908
658.286;26211.156;  337.811;  294.629
658.863;25849.289;  338.536;  293.350
659.441;26048.947;  343.611;  318.671
660.018;25899.906;  327.111;  333.692
660.596;25705.164;  265.536;  335.013
661.173;25981.297;  309.686;  371.534
661.750;25956.930;  294.510;  365.155
662.328;26244.588;  357.635;  349.976
662.905;25577.746;  312.110;  332.997
663.482;24191.904;  325.085;  321.717
664.060;23654.014;  303.885;  314.438
664.637;24339.545;  362.985;  306.259
665.214;25550.354;  343.760;  314.580
665.791;26030.713;  318.410;  334.501
666.368;26216.246;  312.610;  329.222
666.945;26075.004;  360.485;  342.143
667.522;25791.711;  298.035;  370.964
668.099;25289.619;  321.685;  396.885
668.676;25720.354;  327.960;  391.706
669.253;26480.711;  403.010;  369.627
669.830;26965.818;  384.935;  360.348
670.407;26958.977;  321.710;  344.769
670.984;26808.086;  324.710;  322.890
671.560;25909.018;  366.585;  316.910
672.137;24979.826;  316.510;  322.531
672.714;24498.934;  348.160;  318.552
673.290;24615.893;  339.310;  324.473
673.867;24632.900;  305.735;  340.594
674.443;24373.959;  280.660;  319.515
675.020;24446.643;  334.360;  286.336
675.596;26028.449;  325.335;  247.557
676.173;26697.357;  284.685;  227.778
676.749;26940.740;  241.110;  224.399
677.326;26140.049;  276.485;  230.520
677.902;25415.332;  299.535;  241.841
678.478;25779.666;  287.935;  239.762
679.054;25479.449;  496.185;  248.583
679.631;25334.131;  350.035;  237.503
680.207;25958.715;  420.585;  245.924
680.783;25613.674;  257.685;  224.845
681.359;25440.230;  328.635;  209.666
681.935;25463.613;  333.235;  191.687
682.511;25660.547;  334.310;  210.008
683.087;25774.656;  353.460;  213.329
683.663;26078.289;  316.860;  216.850
684.239;25561.896;  282.010;  229.471
684.815;25289.730;  371.410;  248.792
685.390;25371.264;  420.910;  231.813
685.966;25687.820;  330.384;  221.234
686.542;25758.254;  293.884;  214.255
687.118;24673.037;  337.609;  212.276
687.693;24064.295;  354.159;  233.096
688.269;24346.578;  319.759;  246.917
688.844;23985.912;  348.934;  236.938
689.420;23625.695;  332.309;  242.059
689.995;23966.928;  412.309;  245.480
690.571;23895.836;  387.209;  244.701
691.146;23713.619;  318.634;  251.922
691.722;25001.627;  346.309;  284.743
692.297;25500.211;  309.209;  320.664
692.872;25459.893;  292.359;  313.885
693.448;24991.051;  286.509;  290.106
694.023;24467.959;  338.409;  304.327
694.598;24786.393;  330.909;  319.648
695.173;25135.250;  309.734;  323.169
695.748;24570.184;  262.034;  376.389
696.323;23635.768;  322.634;  397.610
696.898;24006.725;  380.859;  430.231
697.473;24534.783;  270.409;  454.952
698.048;23986.467;  315.859;  478.973
698.623;24391.850;  275.434;  477.094
699.198;25039.082;  332.634;  496.915
699.773;25710.316;  296.709;  490.236
700.348;26539.100;  286.534;  519.957
700.922;26140.332;  335.884;  575.678
701.497;26020.766;  329.484;  621.399
702.072;26159.123;  368.459;  664.420
702.646;26343.707;  358.209;  690.541
703.221;25615.164;  345.334;  748.862
703.795;24131.848;  292.784;  774.282
704.370;23839.355;  240.209;  799.803
704.944;24335.463;  308.359;  875.824
705.519;24964.947;  341.384;  902.945
706.093;25423.629;  295.009;  889.266
706.668;25214.838;  352.859;  903.487
707.242;25116.471;  362.059;  881.708
707.816;24396.104;  319.884;  892.329
708.390;24713.412;  325.334;  970.250
708.965;24837.846;  337.084;  984.671
709.539;23853.029;  317.284; 1026.092
710.113;23026.086;  331.783; 1067.913
710.687;23874.869;  359.383; 1166.434
711.261;24715.578;  281.883; 1190.854
711.835;24729.285;  289.733; 1197.275
712.409;25151.318;  268.058; 1308.096
712.983;25876.252;  265.958; 1461.617
713.557;25149.586;  264.508; 1611.838
714.131;25442.619;  313.533; 1554.359
714.704;25182.477;  298.083; 1520.780
715.278;24211.010;  328.983; 1575.101
715.852;23711.867;  353.558; 1689.822
716.425;24916.176;  415.733; 1829.143
716.999;25187.283;  263.658; 2008.664
717.573;24908.268;  348.733; 2000.485
718.146;26015.100;  407.658; 1914.506
718.720;25960.158;  336.808; 1818.026
719.293;25113.041;  347.408; 1734.147
719.867;24625.375;  302.283; 1716.968
720.440;25517.508;  390.233; 1918.589
721.013;26528.441;  307.233; 1975.410
721.587;26701.123;  270.283; 2073.331
722.160;26451.008;  369.008; 2357.852
722.733;26263.391;  340.358; 2657.073
723.306;26451.924;  324.358; 2703.894
723.880;27042.082;  337.958; 2549.415
724.453;27321.514;  381.208; 2414.336
725.026;27593.998;  305.433; 2298.557
725.599;27050.555;  334.183; 2168.778
726.172;26561.613;  349.033; 2106.099
726.745;27594.146;  346.783; 2253.320
727.318;26896.605;  364.533; 2404.740
727.891;26367.389;  335.333; 2680.161
728.463;26272.996;  334.933; 2838.882
729.036;25272.879;  296.258; 2755.103
729.609;24259.738;  294.583; 2731.824
730.182;23667.695;  360.033; 2855.645
730.754;24839.953;  246.233; 2946.866
731.327;25576.537;  351.758; 2840.187
731.900;24700.520;  271.533; 2647.608
732.472;24031.203;  323.433; 2473.929
733.045;23261.111;  313.083; 2445.750
733.617;22903.494;  262.832; 2511.771
734.190;22459.428;  346.907; 2581.592
734.762;23221.561;  316.282; 2710.813
735.334;24176.043;  329.782; 3005.733
735.907;23610.826;  333.132; 3154.954
736.479;22778.334;  370.857; 3171.675
737.051;23275.617;  347.357; 3217.496
737.623;25057.852;  357.882; 3246.217
738.195;25283.584;  299.482; 2985.238
738.768;24275.242;  252.782; 2727.559
739.340;23772.676;  304.857; 2666.880
739.912;23135.359;  357.657; 2769.601
740.484;21880.816;  350.757; 2731.422
741.056;22353.975;  312.057; 2963.043
741.628;24587.732;  289.782; 3361.364
742.199;25909.240;  383.907; 3641.185
742.771;25197.523;  280.457; 3932.005
743.343;24890.182;  292.832; 4319.926
743.915;24833.490;  344.282; 4706.647
744.487;24477.998;  347.457; 4874.968
745.058;24181.506;  353.457; 4616.589
745.630;23944.715;  348.382; 4253.410
746.201;24018.998;  304.807; 4056.131
746.773;23931.881;  349.032; 3772.952
747.344;23559.389;  322.357; 3642.473
747.916;24042.422;  333.257; 3752.294
748.487;24139.805;  359.432; 4106.215
749.059;23064.664;  284.982; 4457.835
749.630;22533.996;  297.432; 4366.457
750.201;22882.330;  320.057; 4600.078
750.773;23202.938;  303.332; 4658.499
751.344;22844.945;  327.382; 4609.319
751.915;22246.529;  322.882; 4526.440
752.486;22673.412;  293.582; 4536.061
753.057;22310.494;  329.332; 4383.282
753.628;21439.504;  295.257; 4296.503
754.199;20763.811;  310.882; 4383.224
754.770;20282.195;  353.057; 4653.545
755.341;19670.203;  360.857; 4831.666
755.912;19622.035;  319.107; 4831.387
756.483;20341.568;  345.682; 4735.808
757.054;21064.227;  311.757; 4685.029
757.625;20989.209;  283.281; 4994.250
758.195;20328.594;  271.456; 5051.471
758.766;20193.252;  334.106; 5317.792
759.337;20201.859;  271.731; 5646.512
759.907;20221.393;  273.281; 5404.133
760.478;20129.076;  301.906; 5090.954
761.048;20062.758;  350.156; 4871.175
761.619;19855.092;  343.981; 4589.396
762.189;19787.625;  323.481; 4171.317
762.760;19398.957;  353.681; 3872.538
763.330;19807.891;  348.956; 3832.259
763.900;20439.799;  336.956; 4150.180
764.471;19891.383;  288.831; 4529.801
765.041;18739.791;  377.656; 4715.922
765.611;18906.549;  345.006; 4681.442
766.181;19971.107;  313.381; 4717.063
766.751;19683.615;  326.356; 4710.285
767.321;19003.498;  281.681; 4450.305
767.891;19318.631;  335.006; 4274.126
768.461;19051.238;  317.181; 4215.047
769.031;18159.172;  319.931; 4173.068
769.601;17398.805;  371.706; 4174.689
770.171;17321.289;  271.681; 4229.310
770.741;17739.121;  308.231; 4352.031
771.311;17399.805;  349.906; 4336.652
771.880;16331.063;  290.606; 4300.873
772.450;16592.496;  293.831; 4387.194
773.020;17611.453;  265.356; 4220.415
773.589;18188.412;  304.181; 4075.835
774.159;18251.895;  303.806; 4105.756
774.729;17731.178;  302.231; 4114.978
775.298;17462.611;  295.981; 3693.298
775.867;17042.244;  299.481; 3343.119
776.437;16240.952;  327.631; 3062.040
777.006;16281.436;  274.856; 2927.161
777.576;16542.943;  344.456; 3046.482
778.145;16456.527;  343.356; 3230.203
778.714;15711.185;  322.006; 3253.324
779.283;15161.769;  348.206; 3129.745
779.853;15108.426;  314.331; 2983.566
780.422;15474.284;  318.631; 2929.887
780.991;15168.468;  342.380; 2863.908
781.560;14797.501;  388.455; 2948.029
782.129;14513.434;  340.005; 3074.149
782.698;14855.542;  380.505; 2893.970
783.267;14727.975;  307.955; 2721.391
783.836;14548.508;  330.805; 2659.712
784.404;14300.666;  279.880; 2622.233
784.973;14345.249;  237.455; 2600.754
785.542;14251.308;  315.855; 2528.475
786.111;14039.940;  374.280; 2404.396
786.679;13505.073;  344.680; 2365.717
787.248;13327.031;  267.330; 2498.438
787.817;13198.939;  303.955; 2645.659
788.385;13340.623;  369.230; 2709.280
788.954;13425.631;  275.655; 2620.500
789.522;13646.964;  355.780; 2625.422
790.090;13636.322;  278.980; 2743.843
790.659;13091.580;  306.080; 2635.163
791.227;12610.988;  311.805; 2495.484
791.795;12583.146;  331.755; 2413.705
792.364;12346.354;  290.980; 2345.326
792.932;12309.888;  340.980; 2350.447
793.500;12104.921;  316.380; 2429.768
794.068;12088.279;  268.080; 2513.589
794.636;12301.637;  295.280; 2664.310
795.204;12091.545;  262.980; 2721.431
795.772;11533.979;  290.305; 2802.052
796.340;11102.312;  299.005; 2847.173
796.908;11336.645;  261.530; 2997.194
797.476;11548.078;  284.905; 3151.615
798.044;11593.386;  253.155; 3110.735
798.612;11229.494;  314.105; 2931.656
799.180;11328.677;  325.680; 2785.777
799.747;11347.410;  319.580; 2899.098
800.315;11175.368;  274.780; 2955.519
800.883;10950.401;  252.155; 2948.940
801.450;10995.135;  315.580; 2965.361
802.018;10896.742;  334.130; 3070.582
802.585;10502.451;  322.055; 3156.103
803.153;10448.884;  289.680; 3199.524
803.720;10264.042;  296.830; 3168.845
804.287;10165.225;  306.930; 3248.366
804.855;10104.408;  359.104; 3406.187
805.422; 9662.166;  307.929; 3430.907
805.989; 9139.675;  290.679; 3453.528
806.556; 9010.957;  291.654; 3612.649
807.124; 9478.565;  357.604; 3736.570
807.691; 9572.924;  281.554; 3770.491
808.258; 9142.782;  319.179; 3705.012
808.825; 8948.189;  355.079; 3828.733
809.392; 8867.398;  385.954; 3986.754
809.959; 8937.831;  332.604; 4410.075
810.526; 8794.439;  389.054; 4774.996
811.093; 8510.848;  368.679; 4754.217
811.659; 8368.830;  315.429; 4661.238
812.226; 8797.889;  314.129; 4672.559
812.793; 9116.472;  327.529; 4822.979
813.360; 8662.205;  317.729; 5189.800
813.926; 8169.188;  328.854; 5310.622
814.493; 7842.821;  271.154; 5414.542
815.060; 7660.379;  255.704; 5548.963
815.626; 7685.813;  275.854; 5452.284
816.193; 7757.896;  325.404; 5339.305
816.759; 7544.653;  287.029; 5544.426
817.325; 7451.836;  257.729; 5706.547
817.892; 7834.870;  353.004; 5623.468
818.458; 7901.928;  337.154; 5586.689
819.024; 7796.961;  363.754; 5647.910
819.591; 7706.594;  321.029; 5762.031
820.157; 7435.327;  276.979; 6284.452
820.723; 7443.085;  336.229; 6906.973
821.289; 7714.318;  506.079; 7086.894
821.855; 7404.051;  346.254; 7054.915
822.421; 7392.160;  299.279; 7112.035
822.987; 7467.093;  280.329; 7256.156
823.553; 7415.176;  308.029; 7538.077
824.119; 7187.609;  357.979; 7594.298
824.685; 7039.242;  375.329; 7613.619
825.251; 6985.100;  349.804; 7644.140
825.816; 6841.133;  394.904; 7720.261
826.382; 6439.642;  353.229; 8014.282
826.948; 6224.375;  360.979; 8281.503
827.513; 6383.933;  312.229; 8289.624
828.079; 6528.116;  284.654; 8587.045
828.645; 6693.799;  331.953; 8821.865
829.210; 6634.632;  280.028; 9054.486
829.776; 6612.765;  341.478; 9054.607
830.341; 6471.448;  348.903; 9415.628
830.906; 6305.581;  366.128; 9932.449
831.472; 6176.464;  292.928;10150.271
832.037; 6334.147;  358.778; 9420.391
832.602; 6102.206;  297.278; 8664.912
833.167; 5995.114;  322.128; 8491.933
833.733; 5932.697;  355.203; 8872.854
834.298; 5578.780;  283.078; 9370.575
834.863; 5452.963;  335.253; 9610.695
835.428; 5355.346;  332.603; 9655.616
835.993; 5490.229;  346.478; 9437.838
836.558; 5538.387;  350.903; 9441.459
837.123; 5765.521;  435.803; 9600.979
837.688; 5611.029;  333.278; 9798.301
838.253; 5451.762;  336.928; 9902.921
838.817; 5664.570;  311.203;10339.742
839.382; 6022.428;  374.978;10548.363
839.947; 5975.236;  323.128;10252.484
840.511; 5702.794;  393.528;10040.005
841.076; 5212.127;  252.078;10099.926
841.641; 5134.186;  344.703;10347.347
842.205; 5115.318;  337.778;10817.368
842.770; 5395.251;  408.353;11435.289
843.334; 5605.635;  312.103;12072.409
843.898; 5674.268;  310.603;12635.431
844.463; 5773.901;  380.278;12537.252
845.027; 5658.709;  308.503;12759.673
845.591; 5655.667;  363.603;12821.993
846.156; 5470.350;  299.378;12520.914
846.720; 5343.559;  354.153;12390.436
847.284; 5384.617;  330.928;12956.456
847.848; 5499.350;  348.053;13240.177
848.412; 5354.683;  323.753;13216.998
848.976; 5365.241;  386.653;13014.619
849.540; 5376.774;  417.803;12355.740
850.104; 5226.632;  383.053;12208.761
850.668; 4986.890;  254.278;12106.882
851.232; 5007.948;  268.203;11862.103
851.796; 5143.881;  320.853;11700.523
852.359; 5183.790;  357.802;12375.944
852.923; 5113.772;  372.677;13087.966
853.487; 4949.981;  354.002;13297.187
854.050; 4652.814;  221.277;13851.207
854.614; 4628.772;  307.352;14854.229
855.177; 4634.455;  338.277;15802.149
855.741; 4518.263;  345.252;16603.570
856.304; 4337.146;  368.077;16359.891
856.868; 4117.779;  285.127;14365.512
857.431; 4191.087;  327.252;13361.333
857.995; 4390.746;  311.852;14130.554
858.558; 4518.929;  344.802;14883.175
859.121; 4394.212;  356.802;15754.195
859.684; 4149.595;  334.527;15995.017
860.247; 4027.678;  330.327;15149.537
860.810; 3980.486;  315.502;14640.358
861.374; 4164.770;  427.327;15551.079
861.937; 4030.902;  281.702;16519.801
862.500; 4249.811;  308.952;16796.521
863.062; 4347.594;  286.727;16538.742
863.625; 4331.252;  336.352;16716.764
864.188; 4168.510;  303.952;17055.084
864.751; 4211.743;  311.477;17197.705
865.314; 4183.051;  328.227;17151.625
865.876; 4111.559;  367.602;17783.547
866.439; 4037.017;  356.927;19283.467
867.002; 3990.425;  418.077;20256.389
867.564; 3843.484;  382.527;20485.410
868.127; 3662.092;  339.677;20789.730
868.689; 3487.400;  337.727;21981.951
869.252; 3359.233;  379.552;23803.771
869.814; 3324.566;  297.202;24974.094
870.377; 3468.074;  333.127;24690.314
870.939; 3621.207;  475.577;23963.436
871.501; 3449.915;  336.752;25167.156
872.063; 3283.773;  240.777;26995.477
872.626; 3305.106;  266.427;27443.098
873.188; 3366.965;  339.102;26718.418
873.750; 3275.348;  318.952;26558.840
874.312; 3251.631;  307.927;26701.561
874.874; 3359.714;  397.902;27970.582
875.436; 3259.197;  355.951;29173.402
875.998; 3271.655;  389.851;30376.623
876.560; 3129.088;  360.801;32507.344
877.122; 2827.721;  294.651;34833.066
877.683; 2759.455;  350.176;36458.285
878.245; 2693.238;  318.351;37248.207
878.807; 2813.496;  347.801;36758.027
879.369; 2799.479;  283.901;35223.551
879.930; 2772.662;  283.676;33824.969
880.492; 2854.145;  383.151;34436.492
881.053; 2715.028;  294.601;37745.313
881.615; 2622.086;  307.076;41184.633
882.176; 2525.044;  324.176;42871.555
882.738; 2561.478;  358.351;41693.074
883.299; 2407.561;  262.026;40289.895
883.860; 2327.069;  266.201;39231.215
884.422; 2318.602;  356.201;38264.039
884.983; 2214.785;  288.701;37171.859
885.544; 2208.218;  334.101;35842.379
886.105; 2155.326;  327.726;34810.000
886.666; 2131.409;  316.601;34519.020
887.227; 2059.067;  267.851;33905.641
887.788; 2047.451;  338.601;34502.965
888.349; 1901.409;  284.426;34241.785
888.910; 1848.542;  352.301;33722.203
889.471; 1708.925;  338.351;32539.625
890.032; 1654.533;  326.526;31528.346
890.593; 1646.466;  353.451;32655.068
891.153; 1605.724;  318.251;33882.289
891.714; 1568.907;  271.876;33318.711
892.275; 1538.640;  279.076;31848.930
892.835; 1552.749;  366.851;30339.752
893.396; 1499.882;  351.251;30074.973
893.956; 1387.290;  321.201;30338.393
894.517; 1357.798;  334.976;30864.113
895.077; 1343.731;  341.851;29766.734
895.638; 1379.489;  397.501;26379.557
896.198; 1211.422;  284.226;24056.277
896.758; 1245.805;  363.351;22961.898
897.319; 1151.038;  322.426;21772.020
897.879; 1116.397;  327.851;20877.539
898.439; 1042.355;  269.326;19509.461
898.999; 1113.838;  347.950;17297.582
899.559; 1094.346;  342.950;14712.002
900.119; 1007.004;  283.975;12790.224
900.679; 1059.062;  392.525;11586.744
901.239;  992.370;  353.950;10776.465
901.799;  933.453;  331.000; 9691.687
902.359;  874.786;  294.300; 8725.907
902.919;  852.970;  289.650; 8305.728
903.479;  839.478;  290.550; 8172.649
904.038;  801.386;  279.900; 7913.870
904.598;  738.119;  237.225; 7262.291
905.158;  775.152;  307.100; 6609.012
905.717;  779.885;  319.925; 6236.133
906.277;  767.143;  329.425; 5829.054
906.836;  762.476;  346.525; 5396.674
907.396;  747.609;  345.100; 4964.195
907.955;  734.293;  344.600; 4528.917
908.515;  691.751;  310.200; 4223.837
909.074;  683.134;  311.450; 4023.958
909.633;  663.242;  317.675; 4065.379
910.192;  739.150;  398.125; 4066.300
910.752;  643.425;  311.025; 3971.600
911.311;  628.275;  302.425; 3839.600
911.870;  607.125;  294.400; 3684.500
912.429;  680.175;  367.100; 3635.600
912.988;  662.400;  360.725; 3689.800
913.547;  582.950;  291.250; 3737.700
914.106;  606.225;  328.775; 3740.300
914.665;  606.600;  328.125; 3604.600
915.224;  629.225;  367.300; 3358.700
915.782;  568.650;  303.450; 3188.400
916.341;  635.325;  375.900; 3091.400
916.900;  568.675;  309.825; 3044.800
917.458;  547.450;  290.900; 2888.600
918.017;  582.975;  323.825; 2818.900
918.576;  556.400;  306.850; 2838.600
919.134;  514.700;  270.925; 2880.100
919.693;  549.850;  303.825; 2996.300
920.251;  532.025;  294.975; 3183.100
920.809;  514.250;  280.075; 3247.000
921.368;  545.900;  306.550; 3156.600
921.926;  520.575;  286.775; 2964.900
922.484;  553.625;  321.075; 2846.300
923.042;  542.050;  309.775; 2890.400
923.601;  605.725;  378.950; 2987.700
924.159;  575.450;  343.425; 3049.800
924.717;  513.475;  283.975; 3087.000
925.275;  549.550;  320.000; 3093.400
925.833;  483.550;  253.450; 3182.400
926.391;  570.925;  344.775; 3397.900
926.949;  523.675;  295.650; 3575.400
927.506;  551.800;  326.450; 3713.400
928.064;  542.300;  311.175; 3871.300
928.622;  543.950;  309.725; 4092.800
929.180;  501.975;  275.125; 4499.300
929.737;  497.275;  266.100; 4813.200
930.295;  567.425;  337.375; 5084.100
930.853;  524.250;  283.675; 5185.000
931.410;  504.875;  273.025; 5313.100
931.968;  572.500;  344.250; 5339.600
932.525;  556.600;  327.375; 5399.900
933.082;  498.475;  265.950; 5457.500
933.640;  565.625;  328.025; 5692.900
934.197;  540.675;  309.200; 5821.200
934.754;  543.100;  305.600; 5617.900
935.312;  527.725;  289.325; 5512.400
935.869;  611.375;  374.375; 5582.400
936.426;  528.150;  289.250; 5650.100
936.983;  540.850;  298.200; 5657.400
937.540;  509.050;  269.650; 5564.300
938.097;  568.975;  327.175; 5574.000
938.654;  547.125;  301.500; 5665.900
939.211;  581.850;  331.500; 5931.600
939.768;  561.425;  310.250; 6153.600
940.324;  547.950;  298.750; 6397.600
940.881;  534.350;  285.525; 6454.200
941.438;  623.000;  365.925; 6206.900
941.995;  611.500;  349.275; 6003.900
942.551;  541.250;  272.650; 6228.300
943.108;  580.450;  313.650; 6603.500
943.664;  543.275;  277.825; 7188.100
944.221;  669.750;  401.575; 7579.900
944.777;  537.325;  269.500; 7658.100
945.334;  544.675;  282.525; 7670.400
945.890;  588.100;  317.025; 7525.100
946.446;  584.950;  313.075; 7261.500
947.003;  586.250;  323.250; 6949.200
947.559;  639.825;  383.950; 6773.100
948.115;  624.525;  358.575; 6668.400
948.671;  592.125;  322.300; 6488.400
949.227;  527.850;  259.975; 6236.600
949.783;  526.600;  255.075; 6008.900
950.339;  598.600;  331.025; 5934.100
950.895;  617.950;  351.200; 5933.500
951.451;  562.475;  295.350; 6074.700
952.007;  598.925;  338.975; 6066.400
952.563;  573.950;  298.450; 5884.100
953.118;  561.925;  287.425; 5733.800
953.674;  577.500;  306.625; 5734.300
954.230;  581.675;  314.075; 6039.700
954.785;  574.625;  312.725; 6383.500
955.341;  612.525;  351.075; 6568.200
955.897;  516.100;  254.200; 6488.600
956.452;  581.725;  328.625; 6239.200
957.008;  659.250;  404.550; 5954.600
957.563;  618.325;  367.550; 5816.700
958.118;  541.425;  282.450; 5828.200
958.674;  568.450;  322.825; 5717.400
959.229;  616.700;  367.175; 5506.800
959.784;  520.700;  267.275; 5292.200
960.339;  616.800;  364.800; 5101.900
960.894;  591.550;  341.450; 5093.200
961.449;  525.350;  280.925; 5227.900
962.004;  733.150;  490.500; 5349.300
962.559;  526.300;  284.775; 5514.900
963.114;  459.125;  222.725; 5717.300
963.669;  562.300;  317.925; 5841.400
964.224;  540.950;  299.750; 5805.900
964.779;  514.675;  267.100; 5723.400
965.334;  625.475;  380.675; 5779.500
965.888;  542.500;  292.650; 5948.500
966.443;  596.900;  350.425; 6344.200
966.998;  499.525;  257.300; 6666.300
967.552;  549.350;  312.450; 6710.100
968.107;  526.350;  293.775; 6593.500
968.661;  559.675;  326.450; 6344.100
969.216;  512.550;  284.875; 6062.400
969.770;  550.150;  322.850; 5785.500
970.324;  557.175;  329.125; 5426.800
970.879;  579.275;  344.225; 5016.800
971.433;  572.700;  343.925; 4904.500
971.987;  539.550;  314.875; 4991.000
972.541;  557.525;  331.825; 4978.500
973.095;  612.775;  388.575; 4832.000
973.649;  492.925;  265.950; 4767.900
974.203;  504.725;  281.000; 4881.200
974.757;  525.175;  301.075; 4969.500
975.311;  533.400;  310.600; 4953.000
975.865;  533.275;  311.625; 4884.300
976.419;  516.475;  300.375; 4739.800
976.973;  513.825;  297.375; 4698.100
977.526;  573.000;  357.650; 4631.100
978.080;  481.875;  267.000; 4621.600
978.634;  552.350;  342.325; 4650.200
979.187;  541.225;  335.325; 4669.200
979.741;  611.475;  401.000; 4658.000
980.294;  478.325;  272.800; 4579.100
980.848;  434.925;  232.750; 4452.800
981.401;  500.525;  297.025; 4271.900
981.955;  524.875;  316.275; 4087.800
982.508;  458.025;  256.725; 3973.900
983.061;  554.400;  358.500; 3928.600
983.615;  483.375;  283.725; 3851.200
984.168;  472.250;  269.550; 3734.800
984.721;  529.675;  334.400; 3628.300
985.274;  511.500;  326.400; 3564.300
985.827;  503.400;  308.675; 3558.100
986.380;  428.725;  247.075; 3559.900
986.933;  515.675;  332.400; 3688.700
987.486;  510.750;  328.700; 3778.500
988.039;  512.125;  335.625; 3559.900
988.591;  532.775;  355.000; 3219.300
989.144;  433.450;  263.175; 2902.900
989.697;  448.500;  282.775; 2722.600
990.250;  511.175;  343.775; 2618.000
990.802;  453.200;  284.350; 2523.900
991.355;  574.650;  416.225; 2436.500
991.907;  510.075;  353.175; 2412.200
992.460;  445.500;  290.125; 2387.900
993.012;  450.225;  292.925; 2365.800
993.565;  426.025;  269.025; 2311.100
994.117;  558.575;  415.075; 2308.700
994.669;  416.725;  272.775; 2249.300
995.221;  471.400;  325.775; 2158.100
995.774;  467.325;  323.950; 2085.600
996.326;  433.800;  302.975; 2068.100
996.878;  491.200;  364.650; 1975.300
997.430;  414.050;  280.975; 1929.500
997.982;  438.575;  314.375; 1861.900
998.534;  435.325;  312.325; 1830.200
999.086;  435.750;  309.400; 1823.200
999.638;  390.075;  264.475; 1815.000
1000.190;  414.125;  289.550; 1796.600
1000.741;  436.825;  315.700; 1738.800
1001.293;  400.375;  285.475; 1666.200
1001.845;  401.100;  282.400; 1566.500
1002.396;  437.825;  323.025; 1471.900
1002.948;  433.775;  319.025; 1398.000
1003.500;  422.875;  311.450; 1356.500
1004.051;  530.075;  427.075; 1294.200
1004.603;  471.225;  355.975; 1190.000
1005.154;  358.400;  256.550; 1063.900
1005.705;  424.375;  327.275;  968.300
1006.257;  417.650;  321.050;  889.800
1006.808;  400.175;  307.300;  801.500
1007.359;  447.400;  357.950;  716.400
1007.910;  378.875;  292.775;  639.100
1008.461;  427.550;  340.400;  561.600
1009.013;  344.725;  260.275;  500.400
1009.564;  460.950;  379.075;  476.100
1010.115;  344.750;  266.650;  431.600
1010.665;  354.250;  276.375;  409.300
1011.216;  390.275;  307.725;  399.700
1011.767;  401.775;  322.300;  388.100
1012.318;  430.425;  346.275;  381.400
1012.869;  398.350;  312.400;  375.400
1013.419;  349.975;  272.200;  357.600
1013.970;  383.650;  308.450;  358.300
1014.521;  358.375;  282.075;  344.100
1015.071;  392.125;  311.900;  322.800
1015.622;  367.250;  293.350;  320.600
1016.172;  343.375;  275.300;  301.700
1016.723;  359.975;  282.900;  289.800
1017.273;  353.000;  277.850;  287.600
1017.823;  377.225;  300.200;  278.700
1018.374;  350.500;  284.275;  274.400
1018.924;  418.650;  341.950;  283.200
1019.474;  417.350;  342.125;  278.500
1020.024;  379.350;  308.475;  274.700
1020.574;  418.250;  347.200;  272.700
1021.124;  391.950;  320.825;  278.400
1021.674;  325.150;  254.500;  269.200
1022.224;  410.825;  338.750;  267.800
1022.774;  382.800;  316.850;  258.100
1023.324;  438.250;  367.150;  260.000
1023.874;  517.150;  441.500;  260.700
1024.423;  351.600;  279.150;  252.700
1024.973;  350.300;  281.275;  234.700
1025.523;  359.175;  289.800;  226.500
1026.072;  352.000;  285.275;  225.500
1026.622;  389.950;  318.725;  210.100
1027.172;  412.725;  346.700;  213.000
1027.721;  344.875;  280.500;  207.700
1028.270;  388.475;  319.175;  205.400
1028.820;  370.325;  302.250;  201.000
1029.369;  351.575;  286.450;  201.000
1029.918;  376.525;  305.700;  198.400
1030.468;  328.850;  259.425;  199.200
1031.017;  370.175;  300.400;  192.600
1031.566;  350.750;  289.275;  197.400
1032.115;  411.175;  337.900;  188.300
1032.664;  348.825;  279.900;  193.700
1033.213;  426.325;  362.050;  191.900
1033.762;  361.425;  302.625;  184.500
1034.311;  393.850;  326.850;  194.300
1034.860;  402.625;  336.175;  192.300
1035.408;  419.825;  355.150;  182.600
1035.957;  412.250;  352.700;  173.900
1036.506;  310.025;  245.850;  185.200
1037.055;  490.275;  423.375;  182.500
1037.603;  386.850;  320.150;  167.600
1038.152;  306.475;  250.525;  168.200
1038.700;  338.725;  274.950;  169.600
1039.249;  395.075;  332.200;  164.300
1039.797;  360.250;  305.675;  169.600
1040.345;  405.750;  345.400;  167.100
1040.894;  364.925;  301.950;  164.400
1041.442;  367.275;  304.750;  158.300
1041.990;  322.875;  259.475;  160.000
1042.538;  304.850;  249.225;  156.800
1043.087;  329.475;  270.350;  146.600
1043.635;  391.250;  327.075;  162.400
1044.183;  338.300;  279.725;  156.300
1044.731;  328.025;  269.300;  158.100
1045.279;  389.950;  328.825;  154.500
1045.827;  520.475;  462.875;  146.200
1046.374;  303.050;  240.950;  154.000
1046.922;  338.725;  281.025;  149.000
1047.470;  398.725;  341.475;  154.900
1048.018;  375.425;  315.450;  148.400
1048.565;  407.325;  353.925;  146.300
1049.113;  316.725;  260.775;  156.100
1049.660;  362.575;  302.650;  154.300
1050.208;  388.825;  324.875;  149.400
1050.755;  346.575;  293.275;  157.500
1051.303;  394.250;  336.200;  157.700
1051.850;  366.550;  310.850;  152.800
1052.397;  270.900;  222.000;  146.300
1052.945;  350.975;  296.750;  149.500
1053.492;  427.850;  369.875;  149.300
1054.039;  410.650;  360.975;  163.100
1054.586;  320.000;  262.725;  150.400
1055.133;  397.725;  338.550;  153.500
1055.680;  370.600;  315.200;  155.600
1056.227;  308.975;  253.400;  148.700
1056.774;  455.525;  404.600;  151.500
1057.321;  297.975;  244.250;  143.700
1057.868;  369.600;  313.950;  145.300
1058.415;  375.700;  324.800;  153.500
1058.961;  396.600;  330.150;  149.900
1059.508;  367.725;  315.850;  147.300
1060.055;  331.750;  281.250;  151.000
1060.601;  355.675;  303.950;  148.700
1061.148;  354.925;  301.600;  153.800
1061.694;  341.575;  287.700;  150.500
1062.241;  340.125;  287.650;  149.100
1062.787;  379.775;  328.450;  153.000
1063.334;  472.650;  410.750;  153.200
1063.880;  383.500;  329.225;  148.400
1064.426;  406.400;  352.025;  149.200
1064.972;  340.650;  292.350;  156.400
1065.518;  331.375;  271.775;  144.700
1066.065;  361.825;  308.625;  139.400
1066.611;  341.700;  293.475;  139.300
1067.157;  361.550;  319.775;  138.400
1067.703;  386.425;  337.575;  142.700
1068.249;  348.050;  296.225;  136.700
1068.794;  357.125;  305.000;  139.400
1069.340;  332.200;  280.900;  142.700
1069.886;  341.650;  290.950;  135.600
1070.432;  304.200;  253.750;  133.400
1070.977;  344.000;  291.550;  138.200
1071.523;  327.550;  279.700;  132.400
1072.068;  332.175;  284.200;  132.700
1072.614;  298.050;  251.100;  127.000
1073.160;  393.525;  348.150;  131.300
1073.705;  328.400;  283.500;  135.700
1074.250;  323.625;  269.250;  133.000
1074.796;  373.225;  324.700;  138.000
1075.341;  380.250;  336.700;  137.300
1075.886;  338.650;  289.575;  134.300
1076.431;  372.750;  329.275;  138.200
1076.976;  361.375;  318.550;  132.200
1077.521;  331.400;  283.600;  138.900
1078.067;  331.600;  282.450;  128.600
1078.612;  379.625;  332.075;  138.900
1079.156;  341.150;  295.750;  128.900
1079.701;  393.925;  343.350;  129.700
1080.246;  397.425;  347.850;  128.600
1080.791;  359.300;  314.325;  122.600
1081.336;  376.550;  326.775;  122.000
1081.880;  370.675;  325.175;  123.900
1082.425;  327.550;  278.750;  120.600
1082.970;  412.475;  366.800;  124.500
1083.514;  338.025;  294.050;  112.000
1084.059;  326.300;  286.600;  120.700
1084.603;  326.025;  274.100;  116.000
1085.147;  373.650;  324.250;  116.300
1085.692;  411.550;  361.250;  108.200
1086.236;  290.700;  241.150;  114.600
1086.780;  431.325;  384.150;  118.900
1087.325;  374.575;  325.450;  120.400
1087.869;  349.500;  304.775;  110.500
1088.413;  400.400;  356.525;  114.000
1088.957;  306.750;  263.950;  114.300
1089.501;  443.125;  396.225;  114.600
1090.045;  414.975;  370.525;  114.200
1090.589;  322.775;  276.525;  105.500
1091.133;  387.375;  345.450;  111.800
1091.676;  341.600;  298.200;  110.900
1092.220;  341.875;  299.475;  110.100
1092.764;  403.025;  361.925;  108.100
1093.307;  381.850;  337.525;  109.900
1093.851;  320.225;  275.925;  107.500
1094.395;  390.325;  345.675;   96.200
1094.938;  359.500;  322.825;   99.300
1095.482;  316.325;  278.475;   97.700
1096.025;  412.075;  364.550;   84.900
1096.568;  443.825;  405.000;   88.500
1097.112;  285.900;  246.200;   95.700
1097.655;  341.125;  296.650;   97.300
1098.198;  342.600;  297.750;   92.600
1098.741;  350.800;  304.700;   91.800
1099.285;  370.950;  328.800;   88.000
1099.828;  250.425;  211.775;   91.700
1100.371;  350.750;  306.475;   89.900
1100.914;  389.400;  345.300;   91.500
1101.457;  384.350;  348.450;   88.100
1101.999;  325.850;  287.650;   86.400
1102.542;  367.650;  326.525;   90.800
1103.085;  373.475;  334.825;   95.400
1103.628;  432.450;  402.425;   97.700
1104.170;  331.425;  294.100;   84.000
1104.713;  370.725;  327.975;   93.900
1105.256;  315.475;  274.375;   93.000
1105.798;  282.125;  242.750;   85.600
1106.341;  420.625;  376.200;   87.100
1106.883;  298.375;  254.050;   85.200
1107.425;  379.125;  336.150;   85.000
1107.968;  344.175;  308.475;   84.300
1108.510;  391.050;  354.625;   88.200
1109.052;  351.650;  312.325;   86.600
1109.594;  316.475;  276.450;   79.400
1110.136;  363.750;  324.750;   81.700
1110.679;  358.425;  320.200;   75.500
1111.221;  346.350;  303.300;   88.500
1111.763;  316.300;  273.725;   87.700
1112.304;  307.575;  269.975;   89.700
1112.846;  376.625;  338.350;   81.900
1113.388;  541.950;  503.625;   86.400
1113.930;  393.925;  350.625;   84.700
1114.472;  345.475;  306.975;   78.900
1115.013;  313.150;  274.675;   78.100
1115.555;  334.825;  300.175;   84.900
1116.097;  325.050;  286.175;   79.200
1116.638;  384.025;  351.800;   83.700
1117.180;  377.000;  340.000;   85.500
1117.721;  325.525;  284.650;   78.800
1118.262;  391.575;  346.125;   77.400
1118.804;  356.725;  323.675;   81.400
1119.345;  325.675;  293.650;   77.800
1119.886;  405.225;  365.925;   81.200
1120.427;  332.000;  298.125;   77.200
1120.969;  333.450;  303.125;   75.200
1121.510;  320.225;  283.075;   80.900
1122.051;  415.325;  375.375;   77.300
1122.592;  370.200;  336.725;   73.300
1123.133;  302.550;  273.850;   90.100
1123.673;  400.875;  369.875;   75.000
1124.214;  345.975;  315.175;   80.600
1124.755;  366.800;  324.350;   78.000
1125.296;  345.825;  318.250;   77.500
1125.836;  391.125;  351.500;   80.400
1126.377;  336.075;  300.875;   75.600
1126.918;  349.475;  309.250;   78.900
1127.458;  353.425;  318.050;   78.000
1127.999;  373.800;  336.250;   76.100
1128.539;  398.650;  364.625;   81.400
1129.079;  356.750;  324.475;   77.400
1129.620;  314.900;  279.875;   68.000
1130.160;  304.525;  272.075;   77.500
1130.700;  362.500;  329.225;   76.300
1131.240;  362.475;  328.450;   66.800
1131.781;  347.125;  314.900;   70.600
1132.321;  340.550;  306.150;   77.200
1132.861;  316.100;  285.675;   70.400
1133.401;  336.875;  300.900;   68.700
1133.941;  350.750;  321.400;   68.500
1134.481;  346.075;  307.900;   75.900
1135.020;  346.550;  309.675;   66.600
1135.560;  387.125;  351.150;   68.100
1136.100;  275.750;  248.900;   64.900
1136.640;  290.125;  255.600;   72.500
1137.179;  305.525;  268.675;   69.700
1137.719;  342.825;  312.975;   68.400
1138.258;  329.900;  301.025;   67.000
1138.798;  376.975;  340.800;   69.600
1139.337;  269.425;  239.200;   64.000
1139.877;  371.300;  332.125;   64.500
1140.416;  496.600;  470.975;   74.900
1140.955;  298.450;  271.575;   67.200
1141.494;  380.675;  350.025;   69.900
1142.034;  328.550;  296.600;   59.100
1142.573;  365.675;  339.400;   65.900
1143.112;  314.700;  283.425;   70.600
1143.651;  303.625;  277.975;   67.100
1144.190;  392.325;  356.875;   56.700
1144.729;  339.950;  310.675;   61.800
1145.267;  325.525;  295.200;   62.500
1145.806;  360.925;  333.350;   68.500
1146.345;  360.350;  329.875;   58.300
1146.884;  350.350;  323.775;   63.100
1147.422;  303.000;  268.350;   54.800
1147.961;  406.350;  375.600;   67.600
1148.500;  382.950;  349.175;   64.700
1149.038;  355.875;  329.975;   61.000
1149.577;  397.450;  366.025;   65.100
1150.115;  255.750;  223.975;   58.100
1150.653;  340.875;  315.175;   60.500
1151.192;  306.975;  282.875;   56.600
1151.730;  373.325;  342.650;   62.300
1152.268;  333.550;  299.225;   55.500
1152.806;  326.100;  289.175;   58.200
1153.344;  323.850;  294.550;   55.000
1153.882;  338.375;  313.275;   64.200
1154.421;  261.200;  238.175;   60.300
1154.958;  340.350;  307.400;   58.100
1155.496;  365.200;  336.925;   55.800
1156.034;  405.725;  380.375;   61.000
1156.572;  380.625;  353.500;   56.200
1157.110;  262.425;  234.675;   53.200
1157.647;  383.625;  356.575;   57.400
1158.185;  316.375;  288.850;   55.500
1158.723;  285.350;  260.925;   58.000
1159.260;  396.400;  364.100;   53.700
1159.798;  370.525;  340.225;   51.700
1160.335;  353.375;  326.400;   59.600

