gmr_right
Integration time [ms]: 238.412
Averaging Nr. [scans]: 40
Smoothing Nr. [pixels]: 0
Data measured with spectrometer [name]: 7414430SP
Wave   ;Sample   ;Dark     ;Reference
[nm]   ;[counts] ;[counts] ;[counts] 

288.544;  512.694;  332.182;    6.613
289.143;  444.893;  271.583;   14.216
289.742;  541.773;  358.283;   11.816
290.341;  513.121;  338.184;   -4.936
290.940;  475.765;  301.359;    0.852
291.538;  558.199;  386.909;    1.792
292.137;  510.287;  339.183;    6.262
292.736;  618.996;  448.984;    8.164
293.335;  472.743;  303.109;   -6.418
293.934;  503.264;  331.034;   -2.904
294.532;  650.489;  479.809;   -5.162
295.131;  536.243;  376.861;  -10.283
295.730;  519.798;  361.060;  -16.141
296.328;  505.380;  345.711;  -14.740
296.927;  501.718;  342.761;   -8.768
297.525;  500.752;  342.961;  -15.255
298.124;  425.745;  272.787;  -22.063
298.722;  493.485;  336.861;  -14.796
299.321;  461.363;  303.761;  -10.466
299.919;  483.415;  329.786;  -10.979
300.518;  443.224;  293.262;  -12.077
301.116;  444.157;  297.361;  -13.509
301.715;  466.022;  315.411;  -11.939
302.313;  458.006;  306.661;  -15.424
302.911;  473.314;  329.612;  -19.833
303.509;  584.800;  439.211;   -3.567
304.108;  487.231;  342.436;   -9.553
304.706;  507.956;  367.686;   -8.582
305.304;  508.153;  366.712;  -12.348
305.902;  497.381;  359.286;  -14.411
306.500;  461.865;  325.311;   -7.194
307.098;  472.482;  342.011;   -9.322
307.696;  490.029;  361.986;  -19.192
308.294;  467.565;  331.561;   -9.736
308.892;  479.517;  349.686;  -15.482
309.490;  448.366;  314.911;  -14.107
310.088;  488.902;  372.612;  -15.862
310.686;  510.559;  389.461;  -10.781
311.284;  480.341;  356.336;  -14.878
311.882;  459.444;  336.862;   -9.948
312.480;  433.880;  321.162;  -15.503
313.078;  500.947;  388.612;  -17.262
313.675;  432.664;  320.411;   -3.694
314.273;  491.784;  384.962;  -18.246
314.871;  371.180;  268.837;  -15.190
315.468;  403.589;  299.362;  -12.633
316.066;  434.209;  321.511;   -5.765
316.664;  408.073;  302.362;  -14.317
317.261;  548.878;  448.487;   -8.677
317.859;  471.257;  378.637;  -11.804
318.456;  506.005;  411.961;   -3.107
319.054;  477.487;  378.962;   -3.062
319.651;  463.303;  371.737;   -6.706
320.249;  488.803;  398.562;   -5.206
320.846;  427.984;  345.061;   -4.679
321.443;  495.106;  418.661;   -7.920
322.041;  486.265;  400.187;  -14.105
322.638;  418.290;  339.787;   -6.263
323.235;  391.781;  314.961;   -7.424
323.833;  439.429;  363.186;  -14.765
324.430;  356.849;  280.436;  -10.550
325.027;  516.871;  440.611;   -9.951
325.624;  383.559;  298.761;   -3.712
326.221;  410.279;  318.936;   -9.368
326.818;  488.703;  400.711;   -5.637
327.415;  444.248;  346.260;   -6.699
328.012;  409.429;  319.885;   -5.713
328.609;  426.157;  339.260;   -9.983
329.206;  462.755;  366.561;   -7.154
329.803;  435.672;  339.636;   -1.682
330.400;  415.178;  313.485;   -2.741
330.997;  475.808;  377.636;   -4.339
331.594;  461.552;  363.311;  -10.278
332.191;  430.914;  324.736;   -6.967
332.787;  492.091;  386.261;   -0.480
333.384;  445.798;  342.112;  -10.333
333.981;  472.699;  375.163;  -19.900
334.578;  414.378;  310.587;  -19.816
335.174;  423.924;  319.387;  -15.844
335.771;  485.112;  384.438;  -12.670
336.367;  412.421;  320.113;  -21.124
336.964;  460.601;  369.313;  -18.226
337.561;  423.345;  329.313;  -13.311
338.157;  529.842;  432.764;  -19.006
338.754;  460.599;  371.839;  -19.418
339.350;  415.525;  324.864;  -29.433
339.946;  442.616;  348.714;  -16.622
340.543;  483.388;  399.465;  -16.744
341.139;  406.640;  331.215;  -21.841
341.735;  444.331;  363.566;  -25.012
342.332;  388.071;  316.015;  -19.156
342.928;  455.846;  376.415;  -20.443
343.524;  434.994;  357.341;  -14.397
344.120;  419.702;  353.591;  -20.654
344.716;  407.980;  332.640;   -5.730
345.313;  457.016;  378.515;  -10.929
345.909;  352.355;  276.840;  -19.843
346.505;  428.149;  349.565;  -19.645
347.101;  471.131;  394.639;   -9.618
347.697;  453.894;  377.889;  -10.305
348.293;  349.431;  275.590;  -23.189
348.889;  423.535;  352.389;  -18.418
349.485;  383.713;  316.289;  -10.476
350.081;  441.616;  364.839;  -17.320
350.676;  392.957;  319.940;  -21.088
351.272;  462.097;  385.314;  -12.821
351.868;  439.508;  359.189;  -13.165
352.464;  411.332;  339.314;  -12.464
353.059;  369.319;  297.664;  -22.547
353.655;  448.478;  371.639;   -9.379
354.251;  431.960;  356.313;   -8.266
354.846;  417.463;  350.714;  -17.705
355.442;  421.218;  355.915;   -9.317
356.038;  426.230;  352.164;  -11.049
356.633;  416.766;  340.389;  -10.006
357.229;  413.452;  340.089;  -13.120
357.824;  403.095;  327.589;  -15.647
358.420;  383.281;  310.939;  -19.204
359.015;  393.909;  318.914;  -12.263
359.610;  438.044;  365.289;  -16.421
360.206;  343.580;  270.590;  -20.074
360.801;  367.637;  291.064;  -13.277
361.396;  422.116;  343.139;   -5.822
361.992;  379.770;  306.264;  -11.247
362.587;  382.947;  308.515;  -21.502
363.182;  391.733;  322.764;   -7.461
363.777;  429.662;  351.864;   -8.719
364.372;  425.943;  358.189;  -14.590
364.967;  390.340;  321.715;  -15.145
365.563;  467.388;  388.039;   -7.192
366.158;  402.845;  320.264;   -5.662
366.753;  374.570;  295.314;   -8.378
367.348;  428.619;  357.064;  -14.990
367.942;  402.119;  327.764;   -6.005
368.537;  434.998;  361.689;  -11.504
369.132;  408.065;  329.614;  -10.576
369.727;  368.922;  298.440;  -12.573
370.322;  338.890;  266.940;  -11.560
370.917;  412.407;  339.490;  -10.388
371.511;  502.968;  427.164;   -9.161
372.106;  454.640;  379.790;  -10.245
372.701;  341.926;  272.315;  -10.158
373.296;  499.117;  427.564;   -4.719
373.890;  377.497;  307.915;  -11.802
374.485;  406.931;  337.115;  -13.500
375.079;  433.231;  362.789;   -6.276
375.674;  480.649;  401.664;   -0.447
376.268;  404.105;  332.240;   -6.916
376.863;  341.320;  276.716;  -14.483
377.457;  388.734;  314.690;   -6.903
378.052;  447.808;  374.315;   -9.844
378.646;  438.859;  370.840;  -12.601
379.240;  422.138;  351.240;  -14.715
379.835;  379.870;  308.715;  -12.331
380.429;  334.521;  266.490;   -9.074
381.023;  456.967;  393.115;   -1.729
381.617;  397.676;  332.440;  -13.714
382.212;  403.481;  334.815;   -7.060
382.806;  444.509;  377.590;   -2.303
383.400;  393.448;  331.115;   -0.815
383.994;  390.227;  329.140;   -4.429
384.588;  417.105;  348.039;   -6.261
385.182;  431.479;  362.014;    0.008
385.776;  416.135;  356.039;   -3.247
386.370;  401.859;  341.465;   -1.030
386.964;  407.502;  342.840;   -1.346
387.558;  355.711;  293.714;   -2.020
388.152;  398.180;  343.690;   -5.345
388.745;  474.074;  419.915;   -2.774
389.339;  444.137;  385.039;    3.510
389.933;  407.915;  347.289;    5.280
390.527;  504.624;  452.139;    2.610
391.120;  348.014;  295.940;   -7.914
391.714;  416.785;  363.840;   -1.903
392.308;  464.283;  405.564;    6.023
392.901;  381.330;  324.365;   -4.103
393.495;  350.736;  301.415;    3.284
394.089;  452.735;  399.790;    8.655
394.682;  411.809;  361.290;    2.312
395.275;  423.267;  373.240;   -7.402
395.869;  394.204;  342.490;   -1.072
396.462;  363.034;  315.340;    6.454
397.056;  454.378;  403.889;    8.494
397.649;  431.779;  381.015;    1.599
398.242;  423.156;  373.064;    3.153
398.836;  449.040;  402.914;   11.395
399.429;  369.520;  324.289;   14.695
400.022;  388.273;  345.590;    3.627
400.615;  473.359;  432.340;    8.383
401.208;  409.524;  354.989;   13.295
401.802;  410.691;  365.940;    6.211
402.395;  400.648;  361.290;    7.227
402.988;  407.626;  362.265;    2.700
403.581;  376.511;  336.689;   11.225
404.174;  395.305;  354.064;   18.922
404.767;  380.831;  339.265;   14.169
405.360;  368.150;  326.690;    8.999
405.953;  446.200;  403.039;   13.138
406.545;  426.878;  377.889;   13.937
407.138;  356.476;  313.990;   10.869
407.731;  358.514;  317.039;   12.768
408.324;  391.656;  343.789;   22.921
408.917;  397.279;  359.814;   15.308
409.509;  435.494;  395.314;   12.239
410.102;  374.084;  340.165;   13.741
410.695;  388.225;  347.989;   20.249
411.287;  342.743;  311.239;   21.793
411.880;  338.686;  302.339;   22.965
412.472;  347.701;  318.389;   15.082
413.065;  364.523;  336.289;   23.423
413.657;  337.208;  298.039;   21.077
414.250;  375.759;  336.714;   12.349
414.842;  387.116;  352.064;   20.423
415.434;  335.868;  296.714;   19.906
416.027;  375.629;  339.988;   26.574
416.619;  415.867;  384.414;   15.705
417.211;  343.755;  309.039;   17.791
417.804;  367.539;  325.263;   30.244
418.396;  349.393;  319.364;   24.177
418.988;  381.673;  348.488;   24.904
419.580;  324.908;  292.489;   20.692
420.172;  314.639;  278.713;   22.275
420.764;  394.073;  355.763;   26.773
421.356;  369.289;  338.413;   25.731
421.948;  390.824;  359.838;   24.876
422.540;  396.324;  355.188;   30.042
423.132;  342.846;  313.387;   32.728
423.724;  320.043;  290.788;   21.317
424.316;  352.441;  323.238;   29.359
424.908;  346.543;  304.287;   28.798
425.500;  376.160;  335.712;   30.512
426.092;  371.114;  336.912;   26.741
426.683;  398.253;  362.463;   27.029
427.275;  372.781;  336.387;   32.611
427.867;  389.413;  351.337;   33.796
428.458;  424.111;  385.937;   34.453
429.050;  393.356;  356.687;   34.255
429.642;  428.786;  391.712;   39.082
430.233;  323.732;  287.987;   41.138
430.825;  424.355;  384.287;   31.581
431.416;  400.012;  366.212;   35.755
432.008;  373.685;  337.812;   40.566
432.599;  372.421;  335.336;   46.322
433.190;  370.031;  333.212;   46.897
433.782;  339.967;  302.337;   41.069
434.373;  513.042;  470.836;   48.778
434.964;  342.057;  307.636;   50.078
435.556;  359.749;  329.587;   52.381
436.147;  432.387;  392.887;   38.251
436.738;  406.524;  360.061;   47.237
437.329;  417.164;  372.511;   61.304
437.920;  382.272;  345.062;   48.611
438.511;  326.195;  279.837;   44.910
439.103;  361.721;  315.036;   62.404
439.694;  392.914;  350.436;   63.075
440.285;  443.560;  400.436;   61.033
440.876;  486.672;  444.436;   57.249
441.466;  324.749;  290.086;   61.306
442.057;  389.408;  331.460;   65.773
442.648;  432.387;  386.736;   65.676
443.239;  358.263;  312.761;   55.963
443.830;  409.469;  361.860;   69.631
444.421;  374.266;  328.660;   69.943
445.011;  400.705;  350.386;   72.791
445.602;  426.725;  379.461;   68.848
446.193;  284.085;  228.810;   80.044
446.783;  368.341;  313.585;   82.599
447.374;  394.963;  357.311;   77.419
447.964;  413.926;  362.536;   72.605
448.555;  475.626;  424.460;   82.041
449.145;  382.141;  330.310;   76.230
449.736;  463.611;  414.985;   75.545
450.326;  418.631;  359.935;   67.945
450.917;  396.143;  333.685;   77.598
451.507;  349.659;  290.635;   68.027
452.097;  438.629;  383.935;   67.771
452.688;  431.984;  368.435;   62.884
453.278;  326.317;  275.160;   65.512
453.868;  466.494;  403.809;   71.796
454.458;  375.759;  318.910;   60.956
455.048;  409.561;  353.535;   62.356
455.639;  328.847;  268.759;   58.782
456.229;  415.978;  346.284;   65.209
456.819;  439.322;  368.959;   61.466
457.409;  452.229;  386.634;   59.967
457.999;  433.832;  361.034;   58.093
458.589;  393.124;  333.359;   59.536
459.179;  417.580;  349.659;   55.994
459.769;  362.398;  298.609;   43.624
460.358;  463.039;  390.959;   46.978
460.948;  404.881;  328.684;   49.821
461.538;  383.828;  310.534;   54.678
462.128;  384.253;  315.259;   49.309
462.717;  415.604;  337.158;   52.774
463.307;  415.019;  332.983;   48.101
463.897;  383.021;  311.684;   45.606
464.486;  492.760;  417.409;   45.010
465.076;  434.409;  353.758;   45.519
465.666;  385.867;  297.008;   50.058
466.255;  459.858;  380.084;   44.463
466.845;  390.416;  313.384;   41.206
467.434;  424.583;  343.333;   44.847
468.023;  390.867;  300.133;   46.760
468.613;  419.874;  335.959;   39.736
469.202;  381.338;  295.883;   46.461
469.791;  434.830;  345.133;   47.944
470.381;  440.247;  347.033;   47.529
470.970;  419.974;  332.058;   43.773
471.559;  432.289;  342.008;   41.646
472.148;  395.698;  303.683;   37.914
472.738;  450.810;  356.482;   48.071
473.327;  378.661;  281.358;   47.871
473.916;  438.654;  344.183;   37.716
474.505;  443.516;  347.732;   40.256
475.094;  482.384;  376.407;   43.269
475.683;  467.573;  365.032;   36.499
476.272;  436.770;  330.607;   44.542
476.861;  418.378;  312.082;   42.297
477.449;  438.780;  321.156;   46.878
478.038;  409.112;  303.132;   35.156
478.627;  423.087;  312.283;   42.514
479.216;  455.779;  339.082;   43.937
479.805;  465.134;  342.281;   51.393
480.393;  595.249;  478.332;   53.239
480.982;  518.490;  400.307;   38.955
481.571;  515.424;  389.631;   45.436
482.159;  421.430;  293.706;   51.007
482.748;  486.164;  366.357;   49.695
483.336;  509.848;  381.181;   48.280
483.925;  466.209;  334.082;   47.166
484.513;  455.067;  315.681;   55.404
485.102;  481.931;  343.207;   54.238
485.690;  593.096;  454.581;   55.748
486.278;  583.004;  440.606;   55.934
486.867;  488.527;  333.306;   57.106
487.455;  540.331;  388.156;   56.979
488.043;  450.169;  294.606;   57.564
488.631;  601.691;  434.606;   57.432
489.220;  555.951;  375.931;   63.646
489.808;  453.549;  280.831;   65.449
490.396;  554.411;  376.381;   61.977
490.984;  508.735;  312.181;   68.834
491.572;  573.172;  372.756;   70.775
492.160;  559.594;  353.331;   67.564
492.748;  539.436;  321.856;   66.808
493.336;  625.538;  385.406;   79.747
493.924;  593.305;  328.880;   88.688
494.512;  654.233;  377.506;   84.120
495.100;  680.077;  368.731;   86.250
495.687;  734.954;  385.755;  103.074
496.275;  711.797;  306.906;  108.717
496.863;  790.398;  320.381;  107.035
497.451;  881.313;  318.181;  117.993
498.038; 1001.193;  337.580;  120.116
498.626; 1098.251;  323.705;  143.059
499.214; 1236.779;  350.431;  153.434
499.801; 1403.365;  340.156;  175.121
500.389; 1521.971;  273.880;  185.617
500.976; 1785.978;  353.806;  215.789
501.564; 2066.470;  344.506;  240.321
502.151; 2219.385;  238.081;  267.007
502.738; 2545.680;  318.731;  317.961
503.326; 2944.088;  325.180;  361.216
503.913; 3335.212;  343.006;  401.433
504.500; 3777.985;  355.181;  446.492
505.088; 4172.459;  301.106;  512.063
505.675; 4727.009;  330.580;  586.387
506.262; 5254.677;  325.506;  671.021
506.849; 5760.712;  335.756;  759.062
507.436; 6283.616;  380.255;  849.788
508.023; 6788.262;  334.181;  944.288
508.610; 7380.091;  374.231; 1020.690
509.197; 7951.826;  357.257; 1089.052
509.784; 8705.540;  331.206; 1133.776
510.371; 9419.395;  273.280; 1165.501
510.958;10504.612;  344.181; 1251.735
511.545;10701.057;  392.581; 1350.248
512.132;10883.538;  338.105; 1525.945
512.719;11694.188;  294.131; 1834.933
513.305;12445.178;  302.831; 1965.349
513.892;13476.465;  390.881; 1963.265
514.479;14768.177;  344.106; 2046.446
515.066;16185.721;  381.056; 2252.803
515.652;17281.459;  342.181; 2567.247
516.239;18021.133;  367.031; 2636.919
516.825;18256.523;  280.781; 2482.304
517.412;18412.898;  440.656; 2427.031
517.998;18201.756;  326.831; 2540.463
518.585;18336.885;  321.031; 2609.007
519.171;19417.904;  344.230; 2842.088
519.758;21386.596;  289.856; 3090.703
520.344;22886.715;  375.481; 3176.076
520.930;23958.396;  299.831; 3295.037
521.516;24672.721;  355.580; 3500.959
522.103;24713.066;  395.056; 3736.704
522.689;25528.867;  322.431; 3971.022
523.275;27063.148;  381.706; 4213.778
523.861;27271.232;  331.131; 4190.361
524.447;27161.428;  380.380; 4070.602
525.033;28046.730;  381.681; 4088.892
525.619;27991.262;  303.906; 4416.851
526.205;28605.031;  288.856; 4836.835
526.791;30361.455;  321.731; 4885.903
527.377;32194.346;  315.431; 4544.907
527.963;32491.957;  343.282; 4321.995
528.549;31783.396;  352.506; 4473.979
529.135;30952.789;  304.081; 4788.663
529.721;29506.072;  338.481; 4888.577
530.306;29849.146;  466.581; 4775.779
530.892;31446.188;  318.656; 4793.906
531.478;33105.031;  312.706; 4956.948
532.063;35366.043;  298.081; 5136.936
532.649;36898.430;  423.182; 5336.867
533.235;38067.801;  301.356; 5748.092
533.820;39079.879;  387.506; 6456.875
534.406;38598.227;  323.132; 6590.167
534.991;38242.586;  297.731; 6179.622
535.576;37534.789;  323.756; 6098.691
536.162;37468.570;  473.231; 6441.234
536.747;37698.641;  284.632; 6816.224
537.333;39377.387;  300.207; 6889.752
537.918;40202.574;  334.732; 7154.280
538.503;41119.848;  313.831; 7150.848
539.088;40276.012;  347.831; 7253.308
539.673;38578.906;  326.957; 7625.180
540.259;38535.809;  310.081; 8226.793
540.844;40163.582;  268.181; 8745.092
541.429;39402.895;  415.182; 8762.553
542.014;39122.703;  283.257; 8871.497
542.599;40192.762;  349.206; 8886.008
543.184;41867.863;  292.582; 9079.139
543.769;41792.398;  299.932; 9076.182
544.354;40167.477;  316.832; 8354.081
544.938;38078.863;  346.957; 8236.809
545.523;37382.199;  408.931; 8222.179
546.108;38914.961;  333.957; 8114.082
546.693;39053.387;  329.582; 8535.912
547.278;38741.426;  329.756; 9238.322
547.862;37463.297;  335.231; 9034.405
548.447;37057.395;  375.007; 7795.011
549.031;37219.609;  323.407; 7485.099
549.616;37455.270;  345.556; 7626.308
550.201;38022.637;  317.957; 7627.909
550.785;39339.621;  360.657; 7859.125
551.370;41105.930;  285.157; 7990.654
551.954;42451.559;  376.732; 8196.468
552.538;43918.969;  363.782; 7959.495
553.123;43085.531;  305.957; 7964.826
553.707;42512.059;  321.858; 8515.957
554.291;42031.727;  389.882; 8724.024
554.876;41513.254;  368.932; 8524.211
555.460;39972.617;  314.232; 8704.456
556.044;39952.137;  312.058; 9141.473
556.628;40545.570;  331.082; 9250.197
557.212;40955.934;  381.732; 9444.237
557.796;40278.129;  322.682; 9379.783
558.380;41067.801;  349.858; 9353.658
558.964;40542.719;  337.832; 9210.310
559.548;39722.254;  285.732; 8475.153
560.132;40018.141;  317.732; 7954.084
560.716;40565.980;  287.633; 7489.529
561.300;41631.195;  293.532; 7211.952
561.884;42445.906;  356.157; 7141.313
562.467;41453.070;  357.083; 7155.386
563.051;41012.406;  332.158; 7323.158
563.635;41151.711;  321.708; 7709.114
564.219;40687.383;  329.757; 7678.855
564.802;40303.418;  354.833; 7376.187
565.386;39047.363;  337.983; 7054.372
565.969;38549.152;  393.007; 6589.196
566.553;38133.984;  431.132; 6279.371
567.136;38095.797;  387.258; 5967.930
567.720;38078.828;  333.033; 5660.703
568.303;37629.828;  350.983; 5648.615
568.887;38560.926;  336.083; 5618.443
569.470;39063.535;  347.808; 5411.875
570.053;39271.559;  362.008; 5149.274
570.637;38827.070;  311.582; 5122.798
571.220;39283.395;  370.182; 4957.369
571.803;38663.402;  431.408; 4933.018
572.386;38925.086;  321.158; 4840.973
572.969;39418.945;  324.383; 4592.886
573.552;40087.313;  327.358; 4348.387
574.135;37261.270;  301.458; 4002.290
574.718;31915.406;  306.533; 3654.773
575.301;30862.994;  305.583; 3502.288
575.884;29810.584;  304.633; 3349.803
576.467;31241.178;  382.608; 3191.403
577.050;33534.012;  344.783; 3062.418
577.633;36094.285;  419.133; 3214.200
578.216;36957.082;  323.983; 3284.889
578.799;35621.711;  325.158; 3189.777
579.381;36105.746;  437.358; 3064.502
579.964;37737.086;  306.433; 2888.357
580.547;38186.238;  343.283; 2905.760
581.129;38459.035;  402.609; 2966.849
581.712;39682.004;  353.784; 2887.292
582.294;39830.742;  340.783; 2771.631
582.877;39478.832;  440.133; 2711.602
583.459;38652.219;  337.109; 2577.049
584.042;37375.414;  331.484; 2454.707
584.624;36825.891;  309.609; 2305.893
585.206;35600.781;  266.683; 2189.546
585.789;33966.875;  312.459; 2112.577
586.371;32643.910;  356.459; 2153.065
586.953;32733.275;  368.459; 2197.806
587.536;33471.156;  400.958; 2105.489
588.118;33491.465;  328.560; 1963.911
588.700;34146.824;  402.784; 1843.179
589.282;33600.754;  356.533; 1813.834
589.864;32580.809;  339.384; 1777.620
590.446;32487.258;  270.159; 1733.780
591.028;33167.293;  335.084; 1676.008
591.610;34348.754;  269.934; 1631.649
592.192;33722.086;  343.883; 1632.362
592.774;31715.504;  296.959; 1569.507
593.356;30455.012;  308.434; 1524.539
593.937;30924.381;  305.209; 1569.720
594.519;31639.168;  385.159; 1569.049
595.101;32147.186;  280.159; 1545.452
595.683;31166.541;  312.384; 1607.568
596.264;31109.811;  329.084; 1615.506
596.846;31623.553;  316.159; 1667.622
597.427;32950.012;  311.585; 1670.469
598.009;34874.301;  306.135; 1640.312
598.591;33522.355;  368.334; 1541.022
599.172;32244.041;  329.159; 1598.665
599.753;33195.379;  287.835; 1619.068
600.335;31786.393;  399.860; 1548.612
600.916;29083.441;  330.059; 1607.510
601.498;29646.680;  352.434; 1745.181
602.079;30687.379;  332.735; 1801.011
602.660;31341.875;  331.085; 1834.640
603.241;31346.713;  266.484; 1787.351
603.823;31184.848;  312.009; 1684.266
604.404;30312.736;  294.460; 1654.241
604.985;29993.813;  311.435; 1758.741
605.566;29009.762;  373.284; 1697.679
606.147;28771.768;  326.810; 1526.728
606.728;30062.918;  287.885; 1484.086
607.309;30356.207;  312.260; 1421.070
607.890;30502.145;  320.084; 1369.867
608.471;30901.832;  305.985; 1277.826
609.051;30211.178;  345.735; 1180.416
609.632;30934.727;  298.910; 1075.816
610.213;31447.043;  327.260; 1053.313
610.794;30985.902;  319.860;  979.442
611.374;31507.320;  353.585;  917.414
611.955;31009.729;  279.385;  819.987
612.536;30604.680;  350.760;  752.627
613.116;31099.646;  314.485;  690.799
613.697;31268.557;  306.310;  674.974
614.277;30916.479;  296.261;  663.846
614.858;29454.186;  315.435;  665.898
615.438;27370.787;  331.435;  660.712
616.019;26743.521;  396.911;  632.732
616.599;26528.396;  257.935;  551.759
617.179;27447.654;  288.785;  512.871
617.760;27775.697;  453.610;  473.655
618.340;27631.170;  327.786;  440.004
618.920;28716.094;  411.910;  429.731
619.500;28047.678;  317.361;  441.361
620.080;28242.654;  299.235;  425.202
620.660;28225.381;  298.436;  408.164
621.241;28239.508;  315.461;  387.161
621.821;28867.803;  335.836;  378.017
622.401;28204.543;  382.235;  379.188
622.980;28512.615;  283.836;  350.019
623.560;28601.199;  316.836;  336.446
624.140;26328.920;  340.235;  336.473
624.720;24957.246;  346.736;  334.974
625.300;23813.158;  297.610;  325.717
625.880;24784.844;  329.611;  308.519
626.459;27252.844;  329.936;  307.117
627.039;29720.504;  273.711;  290.890
627.619;32044.471;  432.161;  286.635
628.198;31701.930;  382.786;  282.535
628.778;29428.172;  359.011;  285.474
629.357;27983.492;  289.461;  284.103
629.937;28145.906;  314.761;  292.178
630.516;29405.281;  404.261;  290.749
631.096;30055.074;  305.311;  285.489
631.675;30717.482;  395.186;  287.022
632.254;30739.713;  305.012;  286.038
632.834;30161.111;  326.362;  276.451
633.413;28839.521;  400.736;  279.447
633.992;28290.951;  375.962;  264.508
634.571;27942.115;  361.012;  271.010
635.151;27887.877;  293.462;  277.338
635.730;28331.006;  321.436;  289.305
636.309;27324.225;  358.911;  285.306
636.888;26602.607;  354.262;  254.051
637.467;26317.002;  269.612;  230.324
638.046;26650.271;  400.486;  253.349
638.625;28100.824;  386.537;  246.866
639.204;28242.408;  345.112;  240.825
639.782;27779.215;  333.362;  261.970
640.361;27688.951;  391.961;  277.780
640.940;26611.971;  308.461;  270.101
641.519;25484.666;  360.011;  248.622
642.097;25692.885;  353.961;  239.843
642.676;27353.381;  338.986;  244.264
643.255;29473.225;  319.311;  234.985
643.833;31014.045;  360.561;  244.406
644.412;30931.590;  314.386;  244.927
644.990;28975.484;  338.211;  249.948
645.569;28490.055;  355.861;  249.569
646.147;28158.801;  372.611;  243.290
646.726;29208.945;  335.211;  249.511
647.304;30289.115;  321.061;  228.032
647.882;29956.061;  270.686;  214.552
648.461;28301.080;  342.686;  214.973
649.039;26718.949;  366.261;  223.394
649.617;26406.369;  357.161;  261.415
650.195;26865.516;  346.036;  298.736
650.773;28212.709;  314.336;  309.557
651.352;27609.779;  258.236;  297.978
651.930;24825.199;  257.711;  289.399
652.508;24207.869;  366.686;  285.620
653.086;25142.314;  350.436;  272.241
653.663;27340.535;  306.061;  265.062
654.241;28675.129;  282.711;  286.083
654.819;29218.699;  288.861;  286.404
655.397;29611.369;  297.536;  291.825
655.975;29474.664;  319.561;  299.145
656.553;29288.359;  400.861;  288.866
657.130;29647.754;  294.961;  304.087
657.708;28996.398;  344.761;  302.908
658.286;28464.043;  337.811;  294.629
658.863;28427.939;  338.536;  293.350
659.441;29078.984;  343.611;  318.671
660.018;29318.529;  327.111;  333.692
660.596;29455.623;  265.536;  335.013
661.173;29770.244;  309.686;  371.534
661.750;29324.838;  294.510;  365.155
662.328;28882.357;  357.635;  349.976
662.905;27848.027;  312.110;  332.997
663.482;26236.598;  325.085;  321.717
664.060;25867.393;  303.885;  314.438
664.637;27240.662;  362.985;  306.259
665.214;28247.133;  343.760;  314.580
665.791;28587.752;  318.410;  334.501
666.368;28670.547;  312.610;  329.222
666.945;28558.867;  360.485;  342.143
667.522;28432.537;  298.035;  370.964
668.099;27459.033;  321.685;  396.885
668.676;27373.328;  327.960;  391.706
669.253;27725.148;  403.010;  369.627
669.830;28279.518;  384.935;  360.348
670.407;28589.563;  321.710;  344.769
670.984;28708.258;  324.710;  322.890
671.560;28078.902;  366.585;  316.910
672.137;27254.547;  316.510;  322.531
672.714;26856.143;  348.160;  318.552
673.290;26725.137;  339.310;  324.473
673.867;26722.957;  305.735;  340.594
674.443;26848.803;  280.660;  319.515
675.020;27175.723;  334.360;  286.336
675.596;28511.916;  325.335;  247.557
676.173;29093.236;  284.685;  227.778
676.749;29272.756;  241.110;  224.399
677.326;28427.652;  276.485;  230.520
677.902;27555.846;  299.535;  241.841
678.478;27893.766;  287.935;  239.762
679.054;27418.787;  496.185;  248.583
679.631;26562.332;  350.035;  237.503
680.207;27074.775;  420.585;  245.924
680.783;26665.721;  257.685;  224.845
681.359;26345.141;  328.635;  209.666
681.935;26560.186;  333.235;  191.687
682.511;27559.855;  334.310;  210.008
683.087;28076.500;  353.460;  213.329
683.663;28145.771;  316.860;  216.850
684.239;27369.891;  282.010;  229.471
684.815;27165.785;  371.410;  248.792
685.390;27539.932;  420.910;  231.813
685.966;27883.477;  330.384;  221.234
686.542;27592.945;  293.884;  214.255
687.118;26122.740;  337.609;  212.276
687.693;25865.660;  354.159;  233.096
688.269;26705.031;  319.759;  246.917
688.844;26132.701;  348.934;  236.938
689.420;25381.645;  332.309;  242.059
689.995;25551.990;  412.309;  245.480
690.571;25519.660;  387.209;  244.701
691.146;25424.955;  318.634;  251.922
691.722;26520.375;  346.309;  284.743
692.297;26573.369;  309.209;  320.664
692.872;26864.539;  292.359;  313.885
693.448;26454.109;  286.509;  290.106
694.023;25690.730;  338.409;  304.327
694.598;26037.125;  330.909;  319.648
695.173;26763.844;  309.734;  323.169
695.748;26901.814;  262.034;  376.389
696.323;26099.885;  322.634;  397.610
696.898;26530.580;  380.859;  430.231
697.473;26885.225;  270.409;  454.952
698.048;25652.193;  315.859;  478.973
698.623;25625.363;  275.434;  477.094
699.198;25882.234;  332.634;  496.915
699.773;26374.680;  296.709;  490.236
700.348;27460.949;  286.534;  519.957
700.922;26752.344;  335.884;  575.678
701.497;26002.564;  329.484;  621.399
702.072;26270.234;  368.459;  664.420
702.646;27054.203;  358.209;  690.541
703.221;26649.049;  345.334;  748.862
703.795;25286.293;  292.784;  774.282
704.370;25360.363;  240.209;  799.803
704.944;26143.984;  308.359;  875.824
705.519;26485.004;  341.384;  902.945
706.093;26120.449;  295.009;  889.266
706.668;25472.219;  352.859;  903.487
707.242;25627.488;  362.059;  881.708
707.816;25675.184;  319.884;  892.329
708.390;26110.879;  325.334;  970.250
708.965;25884.898;  337.084;  984.671
709.539;24947.318;  317.284; 1026.092
710.113;24620.037;  331.783; 1067.913
710.687;25799.982;  359.383; 1166.434
711.261;26576.002;  281.883; 1190.854
711.835;26669.623;  289.733; 1197.275
712.409;26964.992;  268.058; 1308.096
712.983;27426.738;  265.958; 1461.617
713.557;26414.957;  264.508; 1611.838
714.131;26846.977;  313.533; 1554.359
714.704;26876.572;  298.083; 1520.780
715.278;25938.691;  328.983; 1575.101
715.852;25354.262;  353.558; 1689.822
716.425;27015.732;  415.733; 1829.143
716.999;28253.527;  263.658; 2008.664
717.573;27738.697;  348.733; 2000.485
718.146;28520.316;  407.658; 1914.506
718.720;28512.387;  336.808; 1818.026
719.293;27290.133;  347.408; 1734.147
719.867;26517.027;  302.283; 1716.968
720.440;27181.922;  390.233; 1918.589
721.013;27947.092;  307.233; 1975.410
721.587;27742.537;  270.283; 2073.331
722.160;27424.006;  369.008; 2357.852
722.733;27560.727;  340.358; 2657.073
723.306;28314.047;  324.358; 2703.894
723.880;28711.141;  337.958; 2549.415
724.453;29005.736;  381.208; 2414.336
725.026;29668.457;  305.433; 2298.557
725.599;29398.127;  334.183; 2168.778
726.172;29197.871;  349.033; 2106.099
726.745;29942.967;  346.783; 2253.320
727.318;28988.711;  364.533; 2404.740
727.891;28064.156;  335.333; 2680.161
728.463;28032.150;  334.933; 2838.882
729.036;27317.320;  296.258; 2755.103
729.609;26440.590;  294.583; 2731.824
730.182;26265.885;  360.033; 2855.645
730.754;27588.631;  246.233; 2946.866
731.327;27967.701;  351.758; 2840.187
731.900;26226.121;  271.533; 2647.608
732.472;25170.740;  323.433; 2473.929
733.045;25071.260;  313.083; 2445.750
733.617;25028.730;  262.832; 2511.771
734.190;24678.426;  346.907; 2581.592
734.762;24963.496;  316.282; 2710.813
735.334;26184.141;  329.782; 3005.733
735.907;26012.961;  333.132; 3154.954
736.479;24853.131;  370.857; 3171.675
737.051;25368.051;  347.357; 3217.496
737.623;27904.846;  357.882; 3246.217
738.195;27890.016;  299.482; 2985.238
738.768;26571.109;  252.782; 2727.559
739.340;25964.680;  304.857; 2666.880
739.912;25438.449;  357.657; 2769.601
740.484;24495.795;  350.757; 2731.422
741.056;25159.590;  312.057; 2963.043
741.628;26920.359;  289.782; 3361.364
742.199;27881.779;  383.907; 3641.185
742.771;27337.674;  280.457; 3932.005
743.343;27718.443;  292.832; 4319.926
743.915;27641.039;  344.282; 4706.647
744.487;26777.559;  347.457; 4874.968
745.058;26463.479;  353.457; 4616.589
745.630;26679.074;  348.382; 4253.410
746.201;27182.418;  304.807; 4056.131
746.773;26849.738;  349.032; 3772.952
747.344;26285.934;  322.357; 3642.473
747.916;26818.354;  333.257; 3752.294
748.487;26415.773;  359.432; 4106.215
749.059;25212.469;  284.982; 4457.835
749.630;24485.639;  297.432; 4366.457
750.201;24642.758;  320.057; 4600.078
750.773;25869.152;  303.332; 4658.499
751.344;25644.674;  327.382; 4609.319
751.915;24705.893;  322.882; 4526.440
752.486;24860.889;  293.582; 4536.061
753.057;24402.982;  329.332; 4383.282
753.628;23789.754;  295.257; 4296.503
754.199;23024.498;  310.882; 4383.224
754.770;22352.469;  353.057; 4653.545
755.341;21704.014;  360.857; 4831.666
755.912;21588.857;  319.107; 4831.387
756.483;22605.678;  345.682; 4735.808
757.054;22835.547;  311.757; 4685.029
757.625;21999.893;  283.281; 4994.250
758.195;21261.438;  271.456; 5051.471
758.766;21284.857;  334.106; 5317.792
759.337;21372.402;  271.731; 5646.512
759.907;21756.098;  273.281; 5404.133
760.478;21730.918;  301.906; 5090.954
761.048;21999.111;  350.156; 4871.175
761.619;21841.807;  343.981; 4589.396
762.189;21308.352;  323.481; 4171.317
762.760;20980.896;  353.681; 3872.538
763.330;21653.791;  348.956; 3832.259
763.900;22473.688;  336.956; 4150.180
764.471;21964.381;  288.831; 4529.801
765.041;21014.277;  377.656; 4715.922
765.611;21057.996;  345.006; 4681.442
766.181;22235.742;  313.381; 4717.063
766.751;22085.787;  326.356; 4710.285
767.321;21366.957;  281.681; 4450.305
767.891;21274.426;  335.006; 4274.126
768.461;21022.621;  317.181; 4215.047
769.031;19957.066;  319.931; 4173.068
769.601;19279.586;  371.706; 4174.689
770.171;19310.932;  271.681; 4229.310
770.741;19723.551;  308.231; 4352.031
771.311;18914.396;  349.906; 4336.652
771.880;17786.490;  290.606; 4300.873
772.450;18099.086;  293.831; 4387.194
773.020;19602.480;  265.356; 4220.415
773.589;20572.826;  304.181; 4075.835
774.159;20712.971;  303.806; 4105.756
774.729;20464.840;  302.231; 4114.978
775.298;20040.285;  295.981; 3693.298
775.867;19276.480;  299.481; 3343.119
776.437;18398.426;  327.631; 3062.040
777.006;18480.621;  274.856; 2927.161
777.576;18927.166;  344.456; 3046.482
778.145;18962.734;  343.356; 3230.203
778.714;18059.180;  322.006; 3253.324
779.283;17228.926;  348.206; 3129.745
779.853;17076.170;  314.331; 2983.566
780.422;17421.090;  318.631; 2929.887
780.991;16822.385;  342.380; 2863.908
781.560;16089.155;  388.455; 2948.029
782.129;15809.399;  340.005; 3074.149
782.698;16426.344;  380.505; 2893.970
783.267;16780.215;  307.955; 2721.391
783.836;16749.385;  330.805; 2659.712
784.404;16135.729;  279.880; 2622.233
784.973;15938.899;  237.455; 2600.754
785.542;15822.694;  315.855; 2528.475
786.111;15824.989;  374.280; 2404.396
786.679;15663.435;  344.680; 2365.717
787.248;15392.804;  267.330; 2498.438
787.817;15039.899;  303.955; 2645.659
788.385;15003.144;  369.230; 2709.280
788.954;15126.914;  275.655; 2620.500
789.522;15574.209;  355.780; 2625.422
790.090;15645.804;  278.980; 2743.843
790.659;15168.023;  306.080; 2635.163
791.227;14634.019;  311.805; 2495.484
791.795;14347.063;  331.755; 2413.705
792.364;13958.733;  290.980; 2345.326
792.932;13951.054;  340.980; 2350.447
793.500;13741.448;  316.380; 2429.768
794.068;13454.618;  268.080; 2513.589
794.636;13850.288;  295.280; 2664.310
795.204;14056.383;  262.980; 2721.431
795.772;13434.328;  290.305; 2802.052
796.340;12787.548;  299.005; 2847.173
796.908;12989.443;  261.530; 2997.194
797.476;13120.188;  284.905; 3151.615
798.044;13199.208;  253.155; 3110.735
798.612;12842.553;  314.105; 2931.656
799.180;12784.973;  325.680; 2785.777
799.747;12565.543;  319.580; 2899.098
800.315;12028.588;  274.780; 2955.519
800.883;11498.133;  252.155; 2948.940
801.450;11472.628;  315.580; 2965.361
802.018;11649.923;  334.130; 3070.582
802.585;11483.417;  322.055; 3156.103
803.153;11324.162;  289.680; 3199.524
803.720;11140.808;  296.830; 3168.845
804.287;11052.353;  306.930; 3248.366
804.855;10894.597;  359.104; 3406.187
805.422;10489.117;  307.929; 3430.907
805.989;10095.912;  290.679; 3453.528
806.556; 9897.157;  291.654; 3612.649
807.124;10292.602;  357.604; 3736.570
807.691;10405.797;  281.554; 3770.491
808.258;10177.367;  319.179; 3705.012
808.825; 9902.162;  355.079; 3828.733
809.392; 9829.707;  385.954; 3986.754
809.959; 9751.451;  332.604; 4410.075
810.526; 9551.047;  389.054; 4774.996
811.093; 9192.441;  368.679; 4754.217
811.659; 8951.711;  315.429; 4661.238
812.226; 9247.006;  314.129; 4672.559
812.793; 9455.352;  327.529; 4822.979
813.360; 9202.221;  317.729; 5189.800
813.926; 8840.641;  328.854; 5310.622
814.493; 8390.187;  271.154; 5414.542
815.060; 8199.431;  255.704; 5548.963
815.626; 8306.776;  275.854; 5452.284
816.193; 8361.421;  325.404; 5339.305
816.759; 8168.966;  287.029; 5544.426
817.325; 8169.911;  257.729; 5706.547
817.892; 8383.780;  353.004; 5623.468
818.458; 8268.126;  337.154; 5586.689
819.024; 8128.871;  363.754; 5647.910
819.591; 7909.590;  321.029; 5762.031
820.157; 7603.735;  276.979; 6284.452
820.723; 7833.355;  336.229; 6906.973
821.289; 8183.950;  506.079; 7086.894
821.855; 7881.345;  346.254; 7054.915
822.421; 7875.665;  299.279; 7112.035
822.987; 7831.210;  280.329; 7256.156
823.553; 7725.755;  308.029; 7538.077
824.119; 7521.375;  357.979; 7594.298
824.685; 7430.170;  375.329; 7613.619
825.251; 7383.165;  349.804; 7644.140
825.816; 7361.760;  394.904; 7720.261
826.382; 7001.930;  353.229; 8014.282
826.948; 6875.425;  360.979; 8281.503
827.513; 7007.395;  312.229; 8289.624
828.079; 7224.964;  284.654; 8587.045
828.645; 7304.859;  331.953; 8821.865
829.210; 7116.254;  280.028; 9054.486
829.776; 6960.299;  341.478; 9054.607
830.341; 6854.419;  348.903; 9415.628
830.906; 6720.864;  366.128; 9932.449
831.472; 6472.559;  292.928;10150.271
832.037; 6737.454;  358.778; 9420.391
832.602; 6572.899;  297.278; 8664.912
833.167; 6410.569;  322.128; 8491.933
833.733; 6357.089;  355.203; 8872.854
834.298; 6075.534;  283.078; 9370.575
834.863; 6009.529;  335.253; 9610.695
835.428; 5913.074;  332.603; 9655.616
835.993; 6116.068;  346.478; 9437.838
836.558; 6196.164;  350.903; 9441.459
837.123; 6324.208;  435.803; 9600.979
837.688; 6156.553;  333.278; 9798.301
838.253; 6050.374;  336.928; 9902.921
838.817; 6181.143;  311.203;10339.742
839.382; 6591.188;  374.978;10548.363
839.947; 6430.058;  323.128;10252.484
840.511; 6038.803;  393.528;10040.005
841.076; 5526.248;  252.078;10099.926
841.641; 5584.368;  344.703;10347.347
842.205; 5699.888;  337.778;10817.368
842.770; 6008.008;  408.353;11435.289
843.334; 6173.753;  312.103;12072.409
843.898; 6180.698;  310.603;12635.431
844.463; 6229.018;  380.278;12537.252
845.027; 6174.612;  308.503;12759.673
845.591; 6065.882;  363.603;12821.993
846.156; 5861.902;  299.378;12520.914
846.720; 5875.998;  354.153;12390.436
847.284; 5895.967;  330.928;12956.456
847.848; 5852.887;  348.053;13240.177
848.412; 5722.632;  323.753;13216.998
848.976; 5755.977;  386.653;13014.619
849.540; 5733.472;  417.803;12355.740
850.104; 5673.317;  383.053;12208.761
850.668; 5429.037;  254.278;12106.882
851.232; 5452.257;  268.203;11862.103
851.796; 5602.852;  320.853;11700.523
852.359; 5630.947;  357.802;12375.944
852.923; 5692.066;  372.677;13087.966
853.487; 5553.762;  354.002;13297.187
854.050; 5194.207;  221.277;13851.207
854.614; 5213.577;  307.352;14854.229
855.177; 5168.046;  338.277;15802.149
855.741; 4951.516;  345.252;16603.570
856.304; 4581.886;  368.077;16359.891
856.868; 4411.931;  285.127;14365.512
857.431; 4491.426;  327.252;13361.333
857.995; 4537.096;  311.852;14130.554
858.558; 4742.941;  344.802;14883.175
859.121; 4726.086;  356.802;15754.195
859.684; 4493.381;  334.527;15995.017
860.247; 4369.076;  330.327;15149.537
860.810; 4264.071;  315.502;14640.358
861.374; 4529.541;  427.327;15551.079
861.937; 4447.261;  281.702;16519.801
862.500; 4657.806;  308.952;16796.521
863.062; 4635.476;  286.727;16538.742
863.625; 4536.646;  336.352;16716.764
864.188; 4356.690;  303.952;17055.084
864.751; 4307.210;  311.477;17197.705
865.314; 4254.505;  328.227;17151.625
865.876; 4240.300;  367.602;17783.547
866.439; 4137.895;  356.927;19283.467
867.002; 4083.190;  418.077;20256.389
867.564; 3928.410;  382.527;20485.410
868.127; 3868.480;  339.677;20789.730
868.689; 3770.925;  337.727;21981.951
869.252; 3715.045;  379.552;23803.771
869.814; 3675.415;  297.202;24974.094
870.377; 3750.460;  333.127;24690.314
870.939; 3853.604;  475.577;23963.436
871.501; 3689.099;  336.752;25167.156
872.063; 3513.069;  240.777;26995.477
872.626; 3518.764;  266.427;27443.098
873.188; 3542.509;  339.102;26718.418
873.750; 3425.579;  318.952;26558.840
874.312; 3372.849;  307.927;26701.561
874.874; 3466.444;  397.902;27970.582
875.436; 3439.639;  355.951;29173.402
875.998; 3483.934;  389.851;30376.623
876.560; 3330.779;  360.801;32507.344
877.122; 3053.974;  294.651;34833.066
877.683; 2914.294;  350.176;36458.285
878.245; 2811.439;  318.351;37248.207
878.807; 2908.959;  347.801;36758.027
879.369; 2826.803;  283.901;35223.551
879.930; 2794.374;  283.676;33824.969
880.492; 2903.693;  383.151;34436.492
881.053; 2864.788;  294.601;37745.313
881.615; 2794.883;  307.076;41184.633
882.176; 2756.778;  324.176;42871.555
882.738; 2746.523;  358.351;41693.074
883.299; 2584.043;  262.026;40289.895
883.860; 2452.413;  266.201;39231.215
884.422; 2441.233;  356.201;38264.039
884.983; 2335.528;  288.701;37171.859
885.544; 2345.273;  334.101;35842.379
886.105; 2319.818;  327.726;34810.000
886.666; 2284.938;  316.601;34519.020
887.227; 2205.033;  267.851;33905.641
887.788; 2210.753;  338.601;34502.965
888.349; 2057.022;  284.426;34241.785
888.910; 2019.318;  352.301;33722.203
889.471; 1860.362;  338.351;32539.625
890.032; 1775.732;  326.526;31528.346
890.593; 1754.277;  353.451;32655.068
891.153; 1723.697;  318.251;33882.289
891.714; 1681.017;  271.876;33318.711
892.275; 1657.687;  279.076;31848.930
892.835; 1653.732;  366.851;30339.752
893.396; 1602.877;  351.251;30074.973
893.956; 1505.697;  321.201;30338.393
894.517; 1461.817;  334.976;30864.113
895.077; 1448.912;  341.851;29766.734
895.638; 1469.682;  397.501;26379.557
896.198; 1320.252;  284.226;24056.277
896.758; 1340.222;  363.351;22961.898
897.319; 1238.792;  322.426;21772.020
897.879; 1193.161;  327.851;20877.539
898.439; 1101.081;  269.326;19509.461
898.999; 1179.901;  347.950;17297.582
899.559; 1163.896;  342.950;14712.002
900.119; 1055.516;  283.975;12790.224
900.679; 1102.161;  392.525;11586.744
901.239; 1030.906;  353.950;10776.465
901.799;  978.726;  331.000; 9691.687
902.359;  921.621;  294.300; 8725.907
902.919;  908.216;  289.650; 8305.728
903.479;  882.636;  290.550; 8172.649
904.038;  842.931;  279.900; 7913.870
904.598;  785.551;  237.225; 7262.291
905.158;  818.821;  307.100; 6609.012
905.717;  813.141;  319.925; 6236.133
906.277;  803.335;  329.425; 5829.054
906.836;  798.705;  346.525; 5396.674
907.396;  783.550;  345.100; 4964.195
907.955;  767.645;  344.600; 4528.917
908.515;  719.290;  310.200; 4223.837
909.074;  705.010;  311.450; 4023.958
909.633;  695.905;  317.675; 4065.379
910.192;  757.600;  398.125; 4066.300
910.752;  667.500;  311.025; 3971.600
911.311;  653.500;  302.425; 3839.600
911.870;  633.475;  294.400; 3684.500
912.429;  697.825;  367.100; 3635.600
912.988;  682.400;  360.725; 3689.800
913.547;  601.500;  291.250; 3737.700
914.106;  633.550;  328.775; 3740.300
914.665;  628.850;  328.125; 3604.600
915.224;  657.550;  367.300; 3358.700
915.782;  592.000;  303.450; 3188.400
916.341;  662.500;  375.900; 3091.400
916.900;  587.075;  309.825; 3044.800
917.458;  561.925;  290.900; 2888.600
918.017;  595.600;  323.825; 2818.900
918.576;  578.725;  306.850; 2838.600
919.134;  528.925;  270.925; 2880.100
919.693;  566.850;  303.825; 2996.300
920.251;  556.100;  294.975; 3183.100
920.809;  534.325;  280.075; 3247.000
921.368;  560.200;  306.550; 3156.600
921.926;  537.500;  286.775; 2964.900
922.484;  566.500;  321.075; 2846.300
923.042;  556.625;  309.775; 2890.400
923.601;  626.125;  378.950; 2987.700
924.159;  589.850;  343.425; 3049.800
924.717;  527.700;  283.975; 3087.000
925.275;  567.475;  320.000; 3093.400
925.833;  496.400;  253.450; 3182.400
926.391;  589.150;  344.775; 3397.900
926.949;  541.775;  295.650; 3575.400
927.506;  567.475;  326.450; 3713.400
928.064;  553.175;  311.175; 3871.300
928.622;  556.625;  309.725; 4092.800
929.180;  518.050;  275.125; 4499.300
929.737;  513.950;  266.100; 4813.200
930.295;  588.875;  337.375; 5084.100
930.853;  538.525;  283.675; 5185.000
931.410;  521.425;  273.025; 5313.100
931.968;  591.675;  344.250; 5339.600
932.525;  576.750;  327.375; 5399.900
933.082;  520.525;  265.950; 5457.500
933.640;  584.975;  328.025; 5692.900
934.197;  566.825;  309.200; 5821.200
934.754;  560.500;  305.600; 5617.900
935.312;  544.050;  289.325; 5512.400
935.869;  631.400;  374.375; 5582.400
936.426;  549.825;  289.250; 5650.100
936.983;  556.650;  298.200; 5657.400
937.540;  528.575;  269.650; 5564.300
938.097;  593.875;  327.175; 5574.000
938.654;  568.125;  301.500; 5665.900
939.211;  602.725;  331.500; 5931.600
939.768;  577.300;  310.250; 6153.600
940.324;  577.050;  298.750; 6397.600
940.881;  557.575;  285.525; 6454.200
941.438;  645.650;  365.925; 6206.900
941.995;  632.050;  349.275; 6003.900
942.551;  565.225;  272.650; 6228.300
943.108;  600.850;  313.650; 6603.500
943.664;  566.550;  277.825; 7188.100
944.221;  690.375;  401.575; 7579.900
944.777;  559.200;  269.500; 7658.100
945.334;  570.575;  282.525; 7670.400
945.890;  601.375;  317.025; 7525.100
946.446;  599.750;  313.075; 7261.500
947.003;  610.550;  323.250; 6949.200
947.559;  667.700;  383.950; 6773.100
948.115;  641.000;  358.575; 6668.400
948.671;  608.900;  322.300; 6488.400
949.227;  547.625;  259.975; 6236.600
949.783;  541.950;  255.075; 6008.900
950.339;  624.375;  331.025; 5934.100
950.895;  638.400;  351.200; 5933.500
951.451;  577.975;  295.350; 6074.700
952.007;  618.350;  338.975; 6066.400
952.563;  587.000;  298.450; 5884.100
953.118;  575.025;  287.425; 5733.800
953.674;  591.675;  306.625; 5734.300
954.230;  594.325;  314.075; 6039.700
954.785;  598.425;  312.725; 6383.500
955.341;  627.425;  351.075; 6568.200
955.897;  534.425;  254.200; 6488.600
956.452;  605.475;  328.625; 6239.200
957.008;  683.875;  404.550; 5954.600
957.563;  637.650;  367.550; 5816.700
958.118;  559.475;  282.450; 5828.200
958.674;  589.975;  322.825; 5717.400
959.229;  632.900;  367.175; 5506.800
959.784;  530.500;  267.275; 5292.200
960.339;  623.125;  364.800; 5101.900
960.894;  609.225;  341.450; 5093.200
961.449;  541.600;  280.925; 5227.900
962.004;  742.975;  490.500; 5349.300
962.559;  541.400;  284.775; 5514.900
963.114;  478.200;  222.725; 5717.300
963.669;  575.650;  317.925; 5841.400
964.224;  558.000;  299.750; 5805.900
964.779;  528.475;  267.100; 5723.400
965.334;  642.875;  380.675; 5779.500
965.888;  558.100;  292.650; 5948.500
966.443;  611.100;  350.425; 6344.200
966.998;  511.375;  257.300; 6666.300
967.552;  569.575;  312.450; 6710.100
968.107;  543.025;  293.775; 6593.500
968.661;  571.525;  326.450; 6344.100
969.216;  528.525;  284.875; 6062.400
969.770;  577.750;  322.850; 5785.500
970.324;  576.925;  329.125; 5426.800
970.879;  583.425;  344.225; 5016.800
971.433;  581.925;  343.925; 4904.500
971.987;  557.950;  314.875; 4991.000
972.541;  572.825;  331.825; 4978.500
973.095;  618.550;  388.575; 4832.000
973.649;  501.225;  265.950; 4767.900
974.203;  525.825;  281.000; 4881.200
974.757;  532.850;  301.075; 4969.500
975.311;  543.125;  310.600; 4953.000
975.865;  545.400;  311.625; 4884.300
976.419;  533.025;  300.375; 4739.800
976.973;  527.950;  297.375; 4698.100
977.526;  577.950;  357.650; 4631.100
978.080;  495.375;  267.000; 4621.600
978.634;  559.450;  342.325; 4650.200
979.187;  554.725;  335.325; 4669.200
979.741;  617.450;  401.000; 4658.000
980.294;  490.300;  272.800; 4579.100
980.848;  445.675;  232.750; 4452.800
981.401;  511.975;  297.025; 4271.900
981.955;  529.050;  316.275; 4087.800
982.508;  470.175;  256.725; 3973.900
983.061;  564.375;  358.500; 3928.600
983.615;  497.000;  283.725; 3851.200
984.168;  475.300;  269.550; 3734.800
984.721;  541.925;  334.400; 3628.300
985.274;  529.900;  326.400; 3564.300
985.827;  505.550;  308.675; 3558.100
986.380;  438.675;  247.075; 3559.900
986.933;  523.425;  332.400; 3688.700
987.486;  522.425;  328.700; 3778.500
988.039;  523.550;  335.625; 3559.900
988.591;  548.550;  355.000; 3219.300
989.144;  454.600;  263.175; 2902.900
989.697;  464.575;  282.775; 2722.600
990.250;  524.925;  343.775; 2618.000
990.802;  461.525;  284.350; 2523.900
991.355;  581.900;  416.225; 2436.500
991.907;  520.888;  353.175; 2412.200
992.460;  459.875;  290.125; 2387.900
993.012;  455.575;  292.925; 2365.800
993.565;  431.750;  269.025; 2311.100
994.117;  568.375;  415.075; 2308.700
994.669;  425.625;  272.775; 2249.300
995.221;  480.475;  325.775; 2158.100
995.774;  479.925;  323.950; 2085.600
996.326;  451.600;  302.975; 2068.100
996.878;  498.175;  364.650; 1975.300
997.430;  423.325;  280.975; 1929.500
997.982;  447.775;  314.375; 1861.900
998.534;  450.075;  312.325; 1830.200
999.086;  443.550;  309.400; 1823.200
999.638;  405.000;  264.475; 1815.000
1000.190;  421.200;  289.550; 1796.600
1000.741;  446.050;  315.700; 1738.800
1001.293;  415.200;  285.475; 1666.200
1001.845;  407.150;  282.400; 1566.500
1002.396;  444.900;  323.025; 1471.900
1002.948;  441.150;  319.025; 1398.000
1003.500;  432.250;  311.450; 1356.500
1004.051;  542.450;  427.075; 1294.200
1004.603;  475.275;  355.975; 1190.000
1005.154;  363.200;  256.550; 1063.900
1005.705;  429.575;  327.275;  968.300
1006.257;  423.525;  321.050;  889.800
1006.808;  407.275;  307.300;  801.500
1007.359;  459.200;  357.950;  716.400
1007.910;  389.225;  292.775;  639.100
1008.461;  437.100;  340.400;  561.600
1009.013;  347.275;  260.275;  500.400
1009.564;  472.475;  379.075;  476.100
1010.115;  352.500;  266.650;  431.600
1010.665;  356.525;  276.375;  409.300
1011.216;  398.250;  307.725;  399.700
1011.767;  411.900;  322.300;  388.100
1012.318;  432.900;  346.275;  381.400
1012.869;  396.725;  312.400;  375.400
1013.419;  356.275;  272.200;  357.600
1013.970;  397.475;  308.450;  358.300
1014.521;  362.325;  282.075;  344.100
1015.071;  398.925;  311.900;  322.800
1015.622;  369.925;  293.350;  320.600
1016.172;  349.675;  275.300;  301.700
1016.723;  364.750;  282.900;  289.800
1017.273;  357.425;  277.850;  287.600
1017.823;  378.750;  300.200;  278.700
1018.374;  357.975;  284.275;  274.400
1018.924;  423.050;  341.950;  283.200
1019.474;  419.650;  342.125;  278.500
1020.024;  383.075;  308.475;  274.700
1020.574;  430.750;  347.200;  272.700
1021.124;  401.800;  320.825;  278.400
1021.674;  328.225;  254.500;  269.200
1022.224;  416.775;  338.750;  267.800
1022.774;  392.175;  316.850;  258.100
1023.324;  445.650;  367.150;  260.000
1023.874;  516.675;  441.500;  260.700
1024.423;  359.850;  279.150;  252.700
1024.973;  358.300;  281.275;  234.700
1025.523;  362.650;  289.800;  226.500
1026.072;  357.000;  285.275;  225.500
1026.622;  395.125;  318.725;  210.100
1027.172;  418.475;  346.700;  213.000
1027.721;  350.725;  280.500;  207.700
1028.270;  388.275;  319.175;  205.400
1028.820;  376.700;  302.250;  201.000
1029.369;  361.825;  286.450;  201.000
1029.918;  378.250;  305.700;  198.400
1030.468;  331.750;  259.425;  199.200
1031.017;  376.700;  300.400;  192.600
1031.566;  354.875;  289.275;  197.400
1032.115;  411.775;  337.900;  188.300
1032.664;  351.375;  279.900;  193.700
1033.213;  425.375;  362.050;  191.900
1033.762;  371.175;  302.625;  184.500
1034.311;  401.200;  326.850;  194.300
1034.860;  398.950;  336.175;  192.300
1035.408;  423.700;  355.150;  182.600
1035.957;  424.025;  352.700;  173.900
1036.506;  310.650;  245.850;  185.200
1037.055;  497.425;  423.375;  182.500
1037.603;  390.800;  320.150;  167.600
1038.152;  313.375;  250.525;  168.200
1038.700;  337.250;  274.950;  169.600
1039.249;  396.100;  332.200;  164.300
1039.797;  371.600;  305.675;  169.600
1040.345;  415.775;  345.400;  167.100
1040.894;  364.500;  301.950;  164.400
1041.442;  372.225;  304.750;  158.300
1041.990;  324.650;  259.475;  160.000
1042.538;  313.825;  249.225;  156.800
1043.087;  333.250;  270.350;  146.600
1043.635;  394.450;  327.075;  162.400
1044.183;  345.350;  279.725;  156.300
1044.731;  340.300;  269.300;  158.100
1045.279;  395.025;  328.825;  154.500
1045.827;  521.775;  462.875;  146.200
1046.374;  300.200;  240.950;  154.000
1046.922;  340.550;  281.025;  149.000
1047.470;  402.950;  341.475;  154.900
1048.018;  376.750;  315.450;  148.400
1048.565;  408.575;  353.925;  146.300
1049.113;  318.450;  260.775;  156.100
1049.660;  359.950;  302.650;  154.300
1050.208;  391.700;  324.875;  149.400
1050.755;  349.600;  293.275;  157.500
1051.303;  404.425;  336.200;  157.700
1051.850;  367.700;  310.850;  152.800
1052.397;  279.300;  222.000;  146.300
1052.945;  360.675;  296.750;  149.500
1053.492;  432.250;  369.875;  149.300
1054.039;  421.200;  360.975;  163.100
1054.586;  325.750;  262.725;  150.400
1055.133;  402.000;  338.550;  153.500
1055.680;  373.375;  315.200;  155.600
1056.227;  311.800;  253.400;  148.700
1056.774;  458.425;  404.600;  151.500
1057.321;  304.250;  244.250;  143.700
1057.868;  380.100;  313.950;  145.300
1058.415;  377.175;  324.800;  153.500
1058.961;  390.700;  330.150;  149.900
1059.508;  370.450;  315.850;  147.300
1060.055;  337.575;  281.250;  151.000
1060.601;  362.550;  303.950;  148.700
1061.148;  353.825;  301.600;  153.800
1061.694;  346.075;  287.700;  150.500
1062.241;  342.550;  287.650;  149.100
1062.787;  382.375;  328.450;  153.000
1063.334;  468.950;  410.750;  153.200
1063.880;  386.925;  329.225;  148.400
1064.426;  404.575;  352.025;  149.200
1064.972;  349.125;  292.350;  156.400
1065.518;  327.625;  271.775;  144.700
1066.065;  359.325;  308.625;  139.400
1066.611;  343.600;  293.475;  139.300
1067.157;  369.475;  319.775;  138.400
1067.703;  387.800;  337.575;  142.700
1068.249;  353.675;  296.225;  136.700
1068.794;  363.150;  305.000;  139.400
1069.340;  333.000;  280.900;  142.700
1069.886;  340.875;  290.950;  135.600
1070.432;  311.675;  253.750;  133.400
1070.977;  348.625;  291.550;  138.200
1071.523;  329.925;  279.700;  132.400
1072.068;  337.925;  284.200;  132.700
1072.614;  305.525;  251.100;  127.000
1073.160;  405.350;  348.150;  131.300
1073.705;  333.075;  283.500;  135.700
1074.250;  314.725;  269.250;  133.000
1074.796;  379.525;  324.700;  138.000
1075.341;  383.100;  336.700;  137.300
1075.886;  341.050;  289.575;  134.300
1076.431;  372.175;  329.275;  138.200
1076.976;  368.600;  318.550;  132.200
1077.521;  335.625;  283.600;  138.900
1078.067;  333.825;  282.450;  128.600
1078.612;  385.350;  332.075;  138.900
1079.156;  342.425;  295.750;  128.900
1079.701;  400.200;  343.350;  129.700
1080.246;  397.700;  347.850;  128.600
1080.791;  359.250;  314.325;  122.600
1081.336;  377.575;  326.775;  122.000
1081.880;  374.875;  325.175;  123.900
1082.425;  335.000;  278.750;  120.600
1082.970;  413.050;  366.800;  124.500
1083.514;  341.025;  294.050;  112.000
1084.059;  335.275;  286.600;  120.700
1084.603;  330.225;  274.100;  116.000
1085.147;  374.550;  324.250;  116.300
1085.692;  409.475;  361.250;  108.200
1086.236;  291.975;  241.150;  114.600
1086.780;  436.250;  384.150;  118.900
1087.325;  370.800;  325.450;  120.400
1087.869;  357.350;  304.775;  110.500
1088.413;  408.375;  356.525;  114.000
1088.957;  308.025;  263.950;  114.300
1089.501;  445.450;  396.225;  114.600
1090.045;  416.975;  370.525;  114.200
1090.589;  324.175;  276.525;  105.500
1091.133;  396.075;  345.450;  111.800
1091.676;  344.950;  298.200;  110.900
1092.220;  341.025;  299.475;  110.100
1092.764;  403.750;  361.925;  108.100
1093.307;  390.950;  337.525;  109.900
1093.851;  319.550;  275.925;  107.500
1094.395;  386.075;  345.675;   96.200
1094.938;  365.200;  322.825;   99.300
1095.482;  318.625;  278.475;   97.700
1096.025;  409.500;  364.550;   84.900
1096.568;  448.900;  405.000;   88.500
1097.112;  292.150;  246.200;   95.700
1097.655;  343.925;  296.650;   97.300
1098.198;  337.125;  297.750;   92.600
1098.741;  350.725;  304.700;   91.800
1099.285;  376.600;  328.800;   88.000
1099.828;  255.000;  211.775;   91.700
1100.371;  344.400;  306.475;   89.900
1100.914;  394.000;  345.300;   91.500
1101.457;  390.875;  348.450;   88.100
1101.999;  332.075;  287.650;   86.400
1102.542;  369.875;  326.525;   90.800
1103.085;  374.300;  334.825;   95.400
1103.628;  441.600;  402.425;   97.700
1104.170;  335.725;  294.100;   84.000
1104.713;  368.950;  327.975;   93.900
1105.256;  319.825;  274.375;   93.000
1105.798;  281.400;  242.750;   85.600
1106.341;  422.550;  376.200;   87.100
1106.883;  299.275;  254.050;   85.200
1107.425;  380.900;  336.150;   85.000
1107.968;  356.300;  308.475;   84.300
1108.510;  394.975;  354.625;   88.200
1109.052;  356.050;  312.325;   86.600
1109.594;  315.900;  276.450;   79.400
1110.136;  372.650;  324.750;   81.700
1110.679;  362.150;  320.200;   75.500
1111.221;  349.500;  303.300;   88.500
1111.763;  315.550;  273.725;   87.700
1112.304;  308.950;  269.975;   89.700
1112.846;  383.625;  338.350;   81.900
1113.388;  537.800;  503.625;   86.400
1113.930;  396.000;  350.625;   84.700
1114.472;  352.800;  306.975;   78.900
1115.013;  313.600;  274.675;   78.100
1115.555;  340.900;  300.175;   84.900
1116.097;  323.975;  286.175;   79.200
1116.638;  392.425;  351.800;   83.700
1117.180;  379.900;  340.000;   85.500
1117.721;  324.250;  284.650;   78.800
1118.262;  387.925;  346.125;   77.400
1118.804;  365.475;  323.675;   81.400
1119.345;  332.375;  293.650;   77.800
1119.886;  402.425;  365.925;   81.200
1120.427;  336.475;  298.125;   77.200
1120.969;  340.775;  303.125;   75.200
1121.510;  322.475;  283.075;   80.900
1122.051;  414.250;  375.375;   77.300
1122.592;  373.875;  336.725;   73.300
1123.133;  307.875;  273.850;   90.100
1123.673;  409.025;  369.875;   75.000
1124.214;  352.075;  315.175;   80.600
1124.755;  368.500;  324.350;   78.000
1125.296;  355.925;  318.250;   77.500
1125.836;  400.725;  351.500;   80.400
1126.377;  340.850;  300.875;   75.600
1126.918;  352.225;  309.250;   78.900
1127.458;  355.225;  318.050;   78.000
1127.999;  380.650;  336.250;   76.100
1128.539;  399.650;  364.625;   81.400
1129.079;  356.475;  324.475;   77.400
1129.620;  315.250;  279.875;   68.000
1130.160;  309.125;  272.075;   77.500
1130.700;  367.600;  329.225;   76.300
1131.240;  360.650;  328.450;   66.800
1131.781;  356.075;  314.900;   70.600
1132.321;  343.575;  306.150;   77.200
1132.861;  325.175;  285.675;   70.400
1133.401;  337.625;  300.900;   68.700
1133.941;  356.300;  321.400;   68.500
1134.481;  347.125;  307.900;   75.900
1135.020;  346.425;  309.675;   66.600
1135.560;  383.950;  351.150;   68.100
1136.100;  283.875;  248.900;   64.900
1136.640;  289.600;  255.600;   72.500
1137.179;  305.175;  268.675;   69.700
1137.719;  342.425;  312.975;   68.400
1138.258;  332.575;  301.025;   67.000
1138.798;  376.625;  340.800;   69.600
1139.337;  272.225;  239.200;   64.000
1139.877;  364.675;  332.125;   64.500
1140.416;  504.050;  470.975;   74.900
1140.955;  302.575;  271.575;   67.200
1141.494;  381.525;  350.025;   69.900
1142.034;  328.000;  296.600;   59.100
1142.573;  370.800;  339.400;   65.900
1143.112;  312.525;  283.425;   70.600
1143.651;  307.625;  277.975;   67.100
1144.190;  394.500;  356.875;   56.700
1144.729;  342.800;  310.675;   61.800
1145.267;  329.775;  295.200;   62.500
1145.806;  364.500;  333.350;   68.500
1146.345;  360.725;  329.875;   58.300
1146.884;  347.375;  323.775;   63.100
1147.422;  298.775;  268.350;   54.800
1147.961;  406.675;  375.600;   67.600
1148.500;  380.650;  349.175;   64.700
1149.038;  360.300;  329.975;   61.000
1149.577;  399.725;  366.025;   65.100
1150.115;  258.000;  223.975;   58.100
1150.653;  343.075;  315.175;   60.500
1151.192;  310.125;  282.875;   56.600
1151.730;  374.375;  342.650;   62.300
1152.268;  331.450;  299.225;   55.500
1152.806;  325.575;  289.175;   58.200
1153.344;  322.675;  294.550;   55.000
1153.882;  341.725;  313.275;   64.200
1154.421;  264.250;  238.175;   60.300
1154.958;  337.425;  307.400;   58.100
1155.496;  365.300;  336.925;   55.800
1156.034;  412.025;  380.375;   61.000
1156.572;  380.750;  353.500;   56.200
1157.110;  264.825;  234.675;   53.200
1157.647;  388.625;  356.575;   57.400
1158.185;  319.300;  288.850;   55.500
1158.723;  289.925;  260.925;   58.000
1159.260;  394.650;  364.100;   53.700
1159.798;  376.725;  340.225;   51.700
1160.335;  359.350;  326.400;   59.600

