membrane
Integration time [ms]: 238.412
Averaging Nr. [scans]: 40
Smoothing Nr. [pixels]: 0
Data measured with spectrometer [name]: 7414430SP
Wave   ;Sample   ;Dark     ;Reference
[nm]   ;[counts] ;[counts] ;[counts] 

288.544;  514.424;  332.182;    6.613
289.143;  454.635;  271.583;   14.216
289.742;  542.516;  358.283;   11.816
290.341;  520.154;  338.184;   -4.936
290.940;  482.180;  301.359;    0.852
291.538;  563.029;  386.909;    1.792
292.137;  521.589;  339.183;    6.262
292.736;  622.879;  448.984;    8.164
293.335;  483.013;  303.109;   -6.418
293.934;  506.607;  331.034;   -2.904
294.532;  657.680;  479.809;   -5.162
295.131;  542.357;  376.861;  -10.283
295.730;  525.036;  361.060;  -16.141
296.328;  510.844;  345.711;  -14.740
296.927;  508.161;  342.761;   -8.768
297.525;  503.616;  342.961;  -15.255
298.124;  428.304;  272.787;  -22.063
298.722;  500.005;  336.861;  -14.796
299.321;  461.163;  303.761;  -10.466
299.919;  482.094;  329.786;  -10.979
300.518;  447.109;  293.262;  -12.077
301.116;  455.581;  297.361;  -13.509
301.715;  475.815;  315.411;  -11.939
302.313;  463.777;  306.661;  -15.424
302.911;  469.653;  329.612;  -19.833
303.509;  591.045;  439.211;   -3.567
304.108;  492.051;  342.436;   -9.553
304.706;  517.000;  367.686;   -8.582
305.304;  510.863;  366.712;  -12.348
305.902;  508.574;  359.286;  -14.411
306.500;  467.715;  325.311;   -7.194
307.098;  483.384;  342.011;   -9.322
307.696;  496.311;  361.986;  -19.192
308.294;  465.867;  331.561;   -9.736
308.892;  487.261;  349.686;  -15.482
309.490;  453.696;  314.911;  -14.107
310.088;  495.962;  372.612;  -15.862
310.686;  512.506;  389.461;  -10.781
311.284;  483.397;  356.336;  -14.878
311.882;  462.254;  336.862;   -9.948
312.480;  435.896;  321.162;  -15.503
313.078;  508.207;  388.612;  -17.262
313.675;  437.240;  320.411;   -3.694
314.273;  498.150;  384.962;  -18.246
314.871;  369.193;  268.837;  -15.190
315.468;  408.528;  299.362;  -12.633
316.066;  436.785;  321.511;   -5.765
316.664;  411.465;  302.362;  -14.317
317.261;  555.912;  448.487;   -8.677
317.859;  471.870;  378.637;  -11.804
318.456;  506.685;  411.961;   -3.107
319.054;  478.399;  378.962;   -3.062
319.651;  460.286;  371.737;   -6.706
320.249;  488.836;  398.562;   -5.206
320.846;  429.288;  345.061;   -4.679
321.443;  504.388;  418.661;   -7.920
322.041;  485.650;  400.187;  -14.105
322.638;  420.173;  339.787;   -6.263
323.235;  399.602;  314.961;   -7.424
323.833;  442.655;  363.186;  -14.765
324.430;  361.253;  280.436;  -10.550
325.027;  518.997;  440.611;   -9.951
325.624;  384.923;  298.761;   -3.712
326.221;  409.597;  318.936;   -9.368
326.818;  485.302;  400.711;   -5.637
327.415;  443.159;  346.260;   -6.699
328.012;  411.738;  319.885;   -5.713
328.609;  432.671;  339.260;   -9.983
329.206;  463.148;  366.561;   -7.154
329.803;  439.517;  339.636;   -1.682
330.400;  417.691;  313.485;   -2.741
330.997;  481.801;  377.636;   -4.339
331.594;  470.033;  363.311;  -10.278
332.191;  431.959;  324.736;   -6.967
332.787;  493.990;  386.261;   -0.480
333.384;  449.086;  342.112;  -10.333
333.981;  484.901;  375.163;  -19.900
334.578;  418.925;  310.587;  -19.816
335.174;  432.121;  319.387;  -15.844
335.771;  488.995;  384.438;  -12.670
336.367;  418.687;  320.113;  -21.124
336.964;  469.411;  369.313;  -18.226
337.561;  431.884;  329.313;  -13.311
338.157;  527.421;  432.764;  -19.006
338.754;  462.533;  371.839;  -19.418
339.350;  418.682;  324.864;  -29.433
339.946;  447.364;  348.714;  -16.622
340.543;  488.282;  399.465;  -16.744
341.139;  414.192;  331.215;  -21.841
341.735;  446.710;  363.566;  -25.012
342.332;  404.697;  316.015;  -19.156
342.928;  455.319;  376.415;  -20.443
343.524;  441.100;  357.341;  -14.397
344.120;  424.760;  353.591;  -20.654
344.716;  411.949;  332.640;   -5.730
345.313;  460.185;  378.515;  -10.929
345.909;  350.352;  276.840;  -19.843
346.505;  424.889;  349.565;  -19.645
347.101;  475.292;  394.639;   -9.618
347.697;  454.399;  377.889;  -10.305
348.293;  353.168;  275.590;  -23.189
348.889;  428.544;  352.389;  -18.418
349.485;  397.395;  316.289;  -10.476
350.081;  446.796;  364.839;  -17.320
350.676;  392.996;  319.940;  -21.088
351.272;  468.872;  385.314;  -12.821
351.868;  441.879;  359.189;  -13.165
352.464;  419.258;  339.314;  -12.464
353.059;  374.176;  297.664;  -22.547
353.655;  448.501;  371.639;   -9.379
354.251;  443.703;  356.313;   -8.266
354.846;  424.893;  350.714;  -17.705
355.442;  430.681;  355.915;   -9.317
356.038;  433.434;  352.164;  -11.049
356.633;  422.318;  340.389;  -10.006
357.229;  417.507;  340.089;  -13.120
357.824;  406.329;  327.589;  -15.647
358.420;  391.339;  310.939;  -19.204
359.015;  396.939;  318.914;  -12.263
359.610;  440.145;  365.289;  -16.421
360.206;  342.919;  270.590;  -20.074
360.801;  372.441;  291.064;  -13.277
361.396;  422.889;  343.139;   -5.822
361.992;  382.454;  306.264;  -11.247
362.587;  386.363;  308.515;  -21.502
363.182;  401.418;  322.764;   -7.461
363.777;  427.118;  351.864;   -8.719
364.372;  428.275;  358.189;  -14.590
364.967;  392.481;  321.715;  -15.145
365.563;  476.465;  388.039;   -7.192
366.158;  404.550;  320.264;   -5.662
366.753;  378.796;  295.314;   -8.378
367.348;  434.428;  357.064;  -14.990
367.942;  402.974;  327.764;   -6.005
368.537;  433.109;  361.689;  -11.504
369.132;  413.148;  329.614;  -10.576
369.727;  368.389;  298.440;  -12.573
370.322;  341.877;  266.940;  -11.560
370.917;  420.571;  339.490;  -10.388
371.511;  506.301;  427.164;   -9.161
372.106;  456.806;  379.790;  -10.245
372.701;  340.145;  272.315;  -10.158
373.296;  505.524;  427.564;   -4.719
373.890;  377.363;  307.915;  -11.802
374.485;  416.403;  337.115;  -13.500
375.079;  438.565;  362.789;   -6.276
375.674;  483.632;  401.664;   -0.447
376.268;  409.896;  332.240;   -6.916
376.863;  336.200;  276.716;  -14.483
377.457;  393.395;  314.690;   -6.903
378.052;  451.851;  374.315;   -9.844
378.646;  436.927;  370.840;  -12.601
379.240;  427.408;  351.240;  -14.715
379.835;  384.708;  308.715;  -12.331
380.429;  334.135;  266.490;   -9.074
381.023;  463.563;  393.115;   -1.729
381.617;  401.200;  332.440;  -13.714
382.212;  405.744;  334.815;   -7.060
382.806;  453.145;  377.590;   -2.303
383.400;  397.919;  331.115;   -0.815
383.994;  395.949;  329.140;   -4.429
384.588;  413.016;  348.039;   -6.261
385.182;  432.182;  362.014;    0.008
385.776;  424.618;  356.039;   -3.247
386.370;  407.276;  341.465;   -1.030
386.964;  403.338;  342.840;   -1.346
387.558;  361.140;  293.714;   -2.020
388.152;  405.095;  343.690;   -5.345
388.745;  480.938;  419.915;   -2.774
389.339;  449.544;  385.039;    3.510
389.933;  419.568;  347.289;    5.280
390.527;  507.684;  452.139;    2.610
391.120;  354.261;  295.940;   -7.914
391.714;  422.623;  363.840;   -1.903
392.308;  464.964;  405.564;    6.023
392.901;  383.368;  324.365;   -4.103
393.495;  358.079;  301.415;    3.284
394.089;  453.900;  399.790;    8.655
394.682;  412.774;  361.290;    2.312
395.275;  428.007;  373.240;   -7.402
395.869;  397.548;  342.490;   -1.072
396.462;  370.372;  315.340;    6.454
397.056;  459.557;  403.889;    8.494
397.649;  434.647;  381.015;    1.599
398.242;  422.441;  373.064;    3.153
398.836;  456.097;  402.914;   11.395
399.429;  375.452;  324.289;   14.695
400.022;  393.142;  345.590;    3.627
400.615;  474.398;  432.340;    8.383
401.208;  408.605;  354.989;   13.295
401.802;  415.604;  365.940;    6.211
402.395;  412.767;  361.290;    7.227
402.988;  405.872;  362.265;    2.700
403.581;  385.045;  336.689;   11.225
404.174;  405.857;  354.064;   18.922
404.767;  378.545;  339.265;   14.169
405.360;  373.119;  326.690;    8.999
405.953;  450.231;  403.039;   13.138
406.545;  430.405;  377.889;   13.937
407.138;  369.089;  313.990;   10.869
407.731;  363.975;  317.039;   12.768
408.324;  390.329;  343.789;   22.921
408.917;  405.982;  359.814;   15.308
409.509;  441.154;  395.314;   12.239
410.102;  378.575;  340.165;   13.741
410.695;  390.371;  347.989;   20.249
411.287;  354.167;  311.239;   21.793
411.880;  348.486;  302.339;   22.965
412.472;  359.761;  318.389;   15.082
413.065;  369.678;  336.289;   23.423
413.657;  338.502;  298.039;   21.077
414.250;  380.429;  336.714;   12.349
414.842;  393.144;  352.064;   20.423
415.434;  335.364;  296.714;   19.906
416.027;  384.438;  339.988;   26.574
416.619;  418.461;  384.414;   15.705
417.211;  351.524;  309.039;   17.791
417.804;  370.120;  325.263;   30.244
418.396;  353.588;  319.364;   24.177
418.988;  386.462;  348.488;   24.904
419.580;  331.206;  292.489;   20.692
420.172;  313.353;  278.713;   22.275
420.764;  393.454;  355.763;   26.773
421.356;  378.748;  338.413;   25.731
421.948;  396.340;  359.838;   24.876
422.540;  397.374;  355.188;   30.042
423.132;  350.046;  313.387;   32.728
423.724;  330.004;  290.788;   21.317
424.316;  364.273;  323.238;   29.359
424.908;  347.014;  304.287;   28.798
425.500;  381.556;  335.712;   30.512
426.092;  375.384;  336.912;   26.741
426.683;  401.905;  362.463;   27.029
427.275;  381.496;  336.387;   32.611
427.867;  390.576;  351.337;   33.796
428.458;  426.350;  385.937;   34.453
429.050;  399.051;  356.687;   34.255
429.642;  433.651;  391.712;   39.082
430.233;  326.243;  287.987;   41.138
430.825;  430.767;  384.287;   31.581
431.416;  404.607;  366.212;   35.755
432.008;  378.343;  337.812;   40.566
432.599;  386.053;  335.336;   46.322
433.190;  372.099;  333.212;   46.897
433.782;  345.559;  302.337;   41.069
434.373;  511.845;  470.836;   48.778
434.964;  353.634;  307.636;   50.078
435.556;  372.261;  329.587;   52.381
436.147;  444.171;  392.887;   38.251
436.738;  408.906;  360.061;   47.237
437.329;  419.608;  372.511;   61.304
437.920;  394.438;  345.062;   48.611
438.511;  330.585;  279.837;   44.910
439.103;  366.041;  315.036;   62.404
439.694;  400.807;  350.436;   63.075
440.285;  447.906;  400.436;   61.033
440.876;  493.050;  444.436;   57.249
441.466;  334.473;  290.086;   61.306
442.057;  395.394;  331.460;   65.773
442.648;  443.207;  386.736;   65.676
443.239;  368.064;  312.761;   55.963
443.830;  416.207;  361.860;   69.631
444.421;  386.898;  328.660;   69.943
445.011;  405.378;  350.386;   72.791
445.602;  436.224;  379.461;   68.848
446.193;  288.321;  228.810;   80.044
446.783;  374.818;  313.585;   82.599
447.374;  402.409;  357.311;   77.419
447.964;  411.222;  362.536;   72.605
448.555;  480.802;  424.460;   82.041
449.145;  391.926;  330.310;   76.230
449.736;  469.924;  414.985;   75.545
450.326;  422.594;  359.935;   67.945
450.917;  400.217;  333.685;   77.598
451.507;  356.610;  290.635;   68.027
452.097;  444.959;  383.935;   67.771
452.688;  441.837;  368.435;   62.884
453.278;  332.143;  275.160;   65.512
453.868;  470.088;  403.809;   71.796
454.458;  383.336;  318.910;   60.956
455.048;  415.964;  353.535;   62.356
455.639;  337.090;  268.759;   58.782
456.229;  426.143;  346.284;   65.209
456.819;  445.211;  368.959;   61.466
457.409;  463.495;  386.634;   59.967
457.999;  434.391;  361.034;   58.093
458.589;  407.709;  333.359;   59.536
459.179;  430.217;  349.659;   55.994
459.769;  372.016;  298.609;   43.624
460.358;  469.071;  390.959;   46.978
460.948;  407.814;  328.684;   49.821
461.538;  397.460;  310.534;   54.678
462.128;  395.993;  315.259;   49.309
462.717;  425.299;  337.158;   52.774
463.307;  428.109;  332.983;   48.101
463.897;  399.552;  311.684;   45.606
464.486;  497.602;  417.409;   45.010
465.076;  440.559;  353.758;   45.519
465.666;  396.005;  297.008;   50.058
466.255;  471.611;  380.084;   44.463
466.845;  400.821;  313.384;   41.206
467.434;  436.982;  343.333;   44.847
468.023;  394.412;  300.133;   46.760
468.613;  430.459;  335.959;   39.736
469.202;  393.460;  295.883;   46.461
469.791;  444.344;  345.133;   47.944
470.381;  445.735;  347.033;   47.529
470.970;  424.589;  332.058;   43.773
471.559;  442.209;  342.008;   41.646
472.148;  405.784;  303.683;   37.914
472.738;  461.268;  356.482;   48.071
473.327;  386.871;  281.358;   47.871
473.916;  450.272;  344.183;   37.716
474.505;  457.298;  347.732;   40.256
475.094;  490.136;  376.407;   43.269
475.683;  477.805;  365.032;   36.499
476.272;  447.753;  330.607;   44.542
476.861;  429.878;  312.082;   42.297
477.449;  446.091;  321.156;   46.878
478.038;  422.271;  303.132;   35.156
478.627;  437.023;  312.283;   42.514
479.216;  467.247;  339.082;   43.937
479.805;  475.873;  342.281;   51.393
480.393;  608.049;  478.332;   53.239
480.982;  530.495;  400.307;   38.955
481.571;  524.138;  389.631;   45.436
482.159;  431.592;  293.706;   51.007
482.748;  510.086;  366.357;   49.695
483.336;  527.115;  381.181;   48.280
483.925;  479.254;  334.082;   47.166
484.513;  467.846;  315.681;   55.404
485.102;  493.579;  343.207;   54.238
485.690;  614.228;  454.581;   55.748
486.278;  595.736;  440.606;   55.934
486.867;  502.136;  333.306;   57.106
487.455;  556.794;  388.156;   56.979
488.043;  462.458;  294.606;   57.564
488.631;  614.943;  434.606;   57.432
489.220;  567.077;  375.931;   63.646
489.808;  471.735;  280.831;   65.449
490.396;  571.143;  376.381;   61.977
490.984;  522.042;  312.181;   68.834
491.572;  590.775;  372.756;   70.775
492.160;  581.883;  353.331;   67.564
492.748;  562.626;  321.856;   66.808
493.336;  650.591;  385.406;   79.747
493.924;  613.652;  328.880;   88.688
494.512;  681.992;  377.506;   84.120
495.100;  714.191;  368.731;   86.250
495.687;  778.152;  385.755;  103.074
496.275;  763.823;  306.906;  108.717
496.863;  855.009;  320.381;  107.035
497.451;  947.425;  318.181;  117.993
498.038; 1083.689;  337.580;  120.116
498.626; 1204.324;  323.705;  143.059
499.214; 1355.861;  350.431;  153.434
499.801; 1537.676;  340.156;  175.121
500.389; 1683.670;  273.880;  185.617
500.976; 1975.903;  353.806;  215.789
501.564; 2305.006;  344.506;  240.321
502.151; 2489.198;  238.081;  267.007
502.738; 2860.508;  318.731;  317.961
503.326; 3301.483;  325.180;  361.216
503.913; 3722.316;  343.006;  401.433
504.500; 4214.644;  355.181;  446.492
505.088; 4670.543;  301.106;  512.063
505.675; 5242.754;  330.580;  586.387
506.262; 5819.365;  325.506;  671.021
506.849; 6383.967;  335.756;  759.062
507.436; 6930.863;  380.255;  849.788
508.023; 7475.636;  334.181;  944.288
508.610; 8144.771;  374.231; 1020.690
509.197; 8790.095;  357.257; 1089.052
509.784; 9619.820;  331.206; 1133.776
510.371;10459.663;  273.280; 1165.501
510.958;11645.023;  344.181; 1251.735
511.545;11825.765;  392.581; 1350.248
512.132;12054.034;  338.105; 1525.945
512.719;12954.016;  294.131; 1834.933
513.305;13760.637;  302.831; 1965.349
513.892;14845.806;  390.881; 1963.265
514.479;16273.677;  344.106; 2046.446
515.066;17816.799;  381.056; 2252.803
515.652;19039.436;  342.181; 2567.247
516.239;19869.838;  367.031; 2636.919
516.825;20152.150;  280.781; 2482.304
517.412;20338.498;  440.656; 2427.031
517.998;20172.365;  326.831; 2540.463
518.585;20338.572;  321.031; 2609.007
519.171;21493.152;  344.230; 2842.088
519.758;23684.994;  289.856; 3090.703
520.344;25313.596;  375.481; 3176.076
520.930;26512.188;  299.831; 3295.037
521.516;27195.068;  355.580; 3500.959
522.103;27206.846;  395.056; 3736.704
522.689;28084.807;  322.431; 3971.022
523.275;29703.186;  381.706; 4213.778
523.861;29941.012;  331.131; 4190.361
524.447;29760.725;  380.380; 4070.602
525.033;30639.691;  381.681; 4088.892
525.619;30720.428;  303.906; 4416.851
526.205;31376.018;  288.856; 4836.835
526.791;33236.707;  321.731; 4885.903
527.377;35364.359;  315.431; 4544.907
527.963;35652.227;  343.282; 4321.995
528.549;34904.387;  352.506; 4473.979
529.135;33984.523;  304.081; 4788.663
529.721;32382.408;  338.481; 4888.577
530.306;32546.361;  466.581; 4775.779
530.892;34262.320;  318.656; 4793.906
531.478;36214.910;  312.706; 4956.948
532.063;38865.383;  298.081; 5136.936
532.649;40486.078;  423.182; 5336.867
533.235;41720.039;  301.356; 5748.092
533.820;42735.781;  387.506; 6456.875
534.406;42105.570;  323.132; 6590.167
534.991;41677.375;  297.731; 6179.622
535.576;40970.074;  323.756; 6098.691
536.162;40907.527;  473.231; 6441.234
536.747;41140.887;  284.632; 6816.224
537.333;43114.660;  300.207; 6889.752
537.918;44110.895;  334.732; 7154.280
538.503;45039.055;  313.831; 7150.848
539.088;43878.230;  347.831; 7253.308
539.673;41930.148;  326.957; 7625.180
540.259;42128.445;  310.081; 8226.793
540.844;44098.391;  268.181; 8745.092
541.429;43265.418;  415.182; 8762.553
542.014;43031.680;  283.257; 8871.497
542.599;44011.125;  349.206; 8886.008
543.184;45581.383;  292.582; 9079.139
543.769;45540.348;  299.932; 9076.182
544.354;43710.176;  316.832; 8354.081
544.938;41513.133;  346.957; 8236.809
545.523;40905.188;  408.931; 8222.179
546.108;42506.906;  333.957; 8114.082
546.693;42518.168;  329.582; 8535.912
547.278;42199.516;  329.756; 9238.322
547.862;40759.680;  335.231; 9034.405
548.447;40477.270;  375.007; 7795.011
549.031;40676.590;  323.407; 7485.099
549.616;40897.762;  345.556; 7626.308
550.201;41429.656;  317.957; 7627.909
550.785;42678.969;  360.657; 7859.125
551.370;44453.754;  285.157; 7990.654
551.954;45853.656;  376.732; 8196.468
552.538;47463.840;  363.782; 7959.495
553.123;46509.559;  305.957; 7964.826
553.707;46129.672;  321.858; 8515.957
554.291;45805.348;  389.882; 8724.024
554.876;45148.883;  368.932; 8524.211
555.460;43227.773;  314.232; 8704.456
556.044;43034.602;  312.058; 9141.473
556.628;43844.547;  331.082; 9250.197
557.212;44351.199;  381.732; 9444.237
557.796;43676.082;  322.682; 9379.783
558.380;44334.215;  349.858; 9353.658
558.964;43662.766;  337.832; 9210.310
559.548;42882.953;  285.732; 8475.153
560.132;43262.250;  317.732; 7954.084
560.716;43861.195;  287.633; 7489.529
561.300;44893.594;  293.532; 7211.952
561.884;45706.789;  356.157; 7141.313
562.467;44746.633;  357.083; 7155.386
563.051;44411.168;  332.158; 7323.158
563.635;44584.098;  321.708; 7709.114
564.219;44108.215;  329.757; 7678.855
564.802;43766.008;  354.833; 7376.187
565.386;42454.801;  337.983; 7054.372
565.969;41795.000;  393.007; 6589.196
566.553;41317.145;  431.132; 6279.371
567.136;41145.613;  387.258; 5967.930
567.720;41037.547;  333.033; 5660.703
568.303;40476.742;  350.983; 5648.615
568.887;41439.863;  336.083; 5618.443
569.470;42047.906;  347.808; 5411.875
570.053;42285.953;  362.008; 5149.274
570.637;41644.125;  311.582; 5122.798
571.220;42263.625;  370.182; 4957.369
571.803;41628.652;  431.408; 4933.018
572.386;41917.305;  321.158; 4840.973
572.969;42361.055;  324.383; 4592.886
573.552;42871.375;  327.358; 4348.387
574.135;39891.043;  301.458; 4002.290
574.718;34269.449;  306.533; 3654.773
575.301;33116.000;  305.583; 3502.288
575.884;31962.555;  304.633; 3349.803
576.467;33370.695;  382.608; 3191.403
577.050;35910.457;  344.783; 3062.418
577.633;38766.223;  419.133; 3214.200
578.216;39626.402;  323.983; 3284.889
578.799;37987.012;  325.158; 3189.777
579.381;38477.141;  437.358; 3064.502
579.964;40291.770;  306.433; 2888.357
580.547;40683.109;  343.283; 2905.760
581.129;40930.867;  402.609; 2966.849
581.712;42038.313;  353.784; 2887.292
582.294;42058.609;  340.783; 2771.631
582.877;41667.176;  440.133; 2711.602
583.459;40802.926;  337.109; 2577.049
584.042;39502.969;  331.484; 2454.707
584.624;39029.824;  309.609; 2305.893
585.206;37736.402;  266.683; 2189.546
585.789;36014.680;  312.459; 2112.577
586.371;34589.273;  356.459; 2153.065
586.953;34542.656;  368.459; 2197.806
587.536;35117.852;  400.958; 2105.489
588.118;35136.711;  328.560; 1963.911
588.700;35779.910;  402.784; 1843.179
589.282;35168.305;  356.533; 1813.834
589.864;34119.813;  339.384; 1777.620
590.446;34062.172;  270.159; 1733.780
591.028;34776.727;  335.084; 1676.008
591.610;36103.035;  269.934; 1631.649
592.192;35425.465;  343.883; 1632.362
592.774;33336.113;  296.959; 1569.507
593.356;32133.682;  308.434; 1524.539
593.937;32641.635;  305.209; 1569.720
594.519;33299.098;  385.159; 1569.049
595.101;33832.078;  280.159; 1545.452
595.683;32697.660;  312.384; 1607.568
596.264;32650.090;  329.084; 1615.506
596.846;33267.762;  316.159; 1667.622
597.427;34736.086;  311.585; 1670.469
598.009;36676.023;  306.135; 1640.312
598.591;35230.344;  368.334; 1541.022
599.172;33876.203;  329.159; 1598.665
599.753;34919.074;  287.835; 1619.068
600.335;33430.594;  399.860; 1548.612
600.916;30541.461;  330.059; 1607.510
601.498;31099.820;  352.434; 1745.181
602.079;32127.574;  332.735; 1801.011
602.660;32899.848;  331.085; 1834.640
603.241;33119.773;  266.484; 1787.351
603.823;32820.813;  312.009; 1684.266
604.404;31748.061;  294.460; 1654.241
604.985;31288.639;  311.435; 1758.741
605.566;30333.021;  373.284; 1697.679
606.147;30016.047;  326.810; 1526.728
606.728;31324.498;  287.885; 1484.086
607.309;31513.834;  312.260; 1421.070
607.890;31720.211;  320.084; 1369.867
608.471;32129.182;  305.985; 1277.826
609.051;31391.189;  345.735; 1180.416
609.632;32035.162;  298.910; 1075.816
610.213;32445.443;  327.260; 1053.313
610.794;31957.830;  319.860;  979.442
611.374;32618.699;  353.585;  917.414
611.955;32193.289;  279.385;  819.987
612.536;31682.904;  350.760;  752.627
613.116;32197.348;  314.485;  690.799
613.697;32349.070;  306.310;  674.974
614.277;31948.744;  296.261;  663.846
614.858;30472.338;  315.435;  665.898
615.438;28289.688;  331.435;  660.712
616.019;27643.164;  396.911;  632.732
616.599;27423.082;  257.935;  551.759
617.179;28352.059;  288.785;  512.871
617.760;28753.197;  453.610;  473.655
618.340;28711.088;  327.786;  440.004
618.920;29639.857;  411.910;  429.731
619.500;28771.348;  317.361;  441.361
620.080;28991.168;  299.235;  425.202
620.660;28958.559;  298.436;  408.164
621.241;29021.400;  315.461;  387.161
621.821;29616.443;  335.836;  378.017
622.401;28917.906;  382.235;  379.188
622.980;29209.986;  283.836;  350.019
623.560;29299.592;  316.836;  336.446
624.140;27014.133;  340.235;  336.473
624.720;25575.611;  346.736;  334.974
625.300;24433.621;  297.610;  325.717
625.880;25375.793;  329.611;  308.519
626.459;27906.760;  329.936;  307.117
627.039;30471.750;  273.711;  290.890
627.619;32760.500;  432.161;  286.635
628.198;32382.004;  382.786;  282.535
628.778;30180.811;  359.011;  285.474
629.357;28760.432;  289.461;  284.103
629.937;28964.734;  314.761;  292.178
630.516;30192.783;  404.261;  290.749
631.096;30777.516;  305.311;  285.489
631.675;31422.363;  395.186;  287.022
632.254;31456.549;  305.012;  286.038
632.834;31007.246;  326.362;  276.451
633.413;29642.393;  400.736;  279.447
633.992;29118.107;  375.962;  264.508
634.571;28707.779;  361.012;  271.010
635.151;28677.063;  293.462;  277.338
635.730;29166.453;  321.436;  289.305
636.309;28105.150;  358.911;  285.306
636.888;27370.939;  354.262;  254.051
637.467;27109.791;  269.612;  230.324
638.046;27424.121;  400.486;  253.349
638.625;28823.082;  386.537;  246.866
639.204;28927.299;  345.112;  240.825
639.782;28467.688;  333.362;  261.970
640.361;28424.605;  391.961;  277.780
640.940;27305.350;  308.461;  270.101
641.519;26096.795;  360.011;  248.622
642.097;26332.639;  353.961;  239.843
642.676;28228.908;  338.986;  244.264
643.255;30369.803;  319.311;  234.985
643.833;31777.223;  360.561;  244.406
644.412;31631.418;  314.386;  244.927
644.990;29687.586;  338.211;  249.948
645.569;29101.406;  355.861;  249.569
646.147;28699.125;  372.611;  243.290
646.726;29767.596;  335.211;  249.511
647.304;30895.715;  321.061;  228.032
647.882;30495.434;  270.686;  214.552
648.461;28761.604;  342.686;  214.973
649.039;27020.898;  366.261;  223.394
649.617;26707.643;  357.161;  261.415
650.195;27315.662;  346.036;  298.736
650.773;28762.156;  314.336;  309.557
651.352;28086.176;  258.236;  297.978
651.930;25260.771;  257.711;  289.399
652.508;24498.041;  366.686;  285.620
653.086;25514.584;  350.436;  272.241
653.663;27723.004;  306.061;  265.062
654.241;28952.123;  282.711;  286.083
654.819;29462.969;  288.861;  286.404
655.397;29742.188;  297.536;  291.825
655.975;29622.832;  319.561;  299.145
656.553;29352.701;  400.861;  288.866
657.130;29608.672;  294.961;  304.087
657.708;28988.541;  344.761;  302.908
658.286;28569.635;  337.811;  294.629
658.863;28566.006;  338.536;  293.350
659.441;29256.299;  343.611;  318.671
660.018;29557.244;  327.111;  333.692
660.596;29693.438;  265.536;  335.013
661.173;30000.283;  309.686;  371.534
661.750;29592.852;  294.510;  365.155
662.328;29102.271;  357.635;  349.976
662.905;28072.416;  312.110;  332.997
663.482;26490.410;  325.085;  321.717
664.060;26167.531;  303.885;  314.438
664.637;27641.650;  362.985;  306.259
665.214;28621.119;  343.760;  314.580
665.791;28986.139;  318.410;  334.501
666.368;29040.109;  312.610;  329.222
666.945;28914.953;  360.485;  342.143
667.522;28807.697;  298.035;  370.964
668.099;27726.291;  321.685;  396.885
668.676;27512.111;  327.960;  391.706
669.253;27776.381;  403.010;  369.627
669.830;28278.975;  384.935;  360.348
670.407;28625.695;  321.710;  344.769
670.984;28850.715;  324.710;  322.890
671.560;28226.309;  366.585;  316.910
672.137;27412.029;  316.510;  322.531
672.714;26969.072;  348.160;  318.552
673.290;26798.193;  339.310;  324.473
673.867;26805.986;  305.735;  340.594
674.443;27024.506;  280.660;  319.515
675.020;27448.375;  334.360;  286.336
675.596;28847.221;  325.335;  247.557
676.173;29493.141;  284.685;  227.778
676.749;29663.035;  241.110;  224.399
677.326;28841.754;  276.485;  230.520
677.902;28001.523;  299.535;  241.841
678.478;28400.117;  287.935;  239.762
679.054;27829.863;  496.185;  248.583
679.631;26883.133;  350.035;  237.503
680.207;27420.752;  420.585;  245.924
680.783;27007.621;  257.685;  224.845
681.359;26660.641;  328.635;  209.666
681.935;26925.811;  333.235;  191.687
682.511;27918.705;  334.310;  210.008
683.087;28449.748;  353.460;  213.329
683.663;28447.443;  316.860;  216.850
684.239;27595.037;  282.010;  229.471
684.815;27360.832;  371.410;  248.792
685.390;27863.201;  420.910;  231.813
685.966;28160.322;  330.384;  221.234
686.542;27838.391;  293.884;  214.255
687.118;26299.311;  337.609;  212.276
687.693;26103.955;  354.159;  233.096
688.269;26937.100;  319.759;  246.917
688.844;26337.943;  348.934;  236.938
689.420;25660.764;  332.309;  242.059
689.995;25721.084;  412.309;  245.480
690.571;25509.828;  387.209;  244.701
691.146;25391.672;  318.634;  251.922
691.722;26440.092;  346.309;  284.743
692.297;26426.387;  309.209;  320.664
692.872;26820.006;  292.359;  313.885
693.448;26479.074;  286.509;  290.106
694.023;25622.619;  338.409;  304.327
694.598;25955.064;  330.909;  319.648
695.173;26642.383;  309.734;  323.169
695.748;26889.152;  262.034;  376.389
696.323;25971.922;  322.634;  397.610
696.898;26313.117;  380.859;  430.231
697.473;26647.512;  270.409;  454.952
698.048;25461.432;  315.859;  478.973
698.623;25511.500;  275.434;  477.094
699.198;25778.670;  332.634;  496.915
699.773;26226.664;  296.709;  490.236
700.348;27315.584;  286.534;  519.957
700.922;26644.354;  335.884;  575.678
701.497;25757.023;  329.484;  621.399
702.072;26047.193;  368.459;  664.420
702.646;26850.313;  358.209;  690.541
703.221;26428.857;  345.334;  748.862
703.795;25175.127;  292.784;  774.282
704.370;25290.771;  240.209;  799.803
704.944;26092.865;  308.359;  875.824
705.519;26423.984;  341.384;  902.945
706.093;26008.578;  295.009;  889.266
706.668;25348.273;  352.859;  903.487
707.242;25587.844;  362.059;  881.708
707.816;25708.287;  319.884;  892.329
708.390;26119.207;  325.334;  970.250
708.965;25816.477;  337.084;  984.671
709.539;24873.996;  317.284; 1026.092
710.113;24621.016;  331.783; 1067.913
710.687;25795.260;  359.383; 1166.434
711.261;26474.230;  281.883; 1190.854
711.835;26487.549;  289.733; 1197.275
712.409;26788.418;  268.058; 1308.096
712.983;27370.664;  265.958; 1461.617
713.557;26253.059;  264.508; 1611.838
714.131;26680.178;  313.533; 1554.359
714.704;26844.971;  298.083; 1520.780
715.278;25916.615;  328.983; 1575.101
715.852;25326.336;  353.558; 1689.822
716.425;26920.730;  415.733; 1829.143
716.999;28258.699;  263.658; 2008.664
717.573;27751.145;  348.733; 2000.485
718.146;28481.939;  407.658; 1914.506
718.720;28549.684;  336.808; 1818.026
719.293;27457.277;  347.408; 1734.147
719.867;26616.021;  302.283; 1716.968
720.440;27186.467;  390.233; 1918.589
721.013;27765.736;  307.233; 1975.410
721.587;27418.281;  270.283; 2073.331
722.160;27099.350;  369.008; 2357.852
722.733;27331.844;  340.358; 2657.073
723.306;28242.514;  324.358; 2703.894
723.880;28434.059;  337.958; 2549.415
724.453;28818.254;  381.208; 2414.336
725.026;29596.322;  305.433; 2298.557
725.599;29360.842;  334.183; 2168.778
726.172;29072.111;  349.033; 2106.099
726.745;29962.156;  346.783; 2253.320
727.318;29099.352;  364.533; 2404.740
727.891;28018.346;  335.333; 2680.161
728.463;27856.939;  334.933; 2838.882
729.036;27029.285;  296.258; 2755.103
729.609;26193.854;  294.583; 2731.824
730.182;26069.523;  360.033; 2855.645
730.754;27645.117;  246.233; 2946.866
731.327;27988.037;  351.758; 2840.187
731.900;26287.531;  271.533; 2647.608
732.472;25126.727;  323.433; 2473.929
733.045;24923.221;  313.083; 2445.750
733.617;24825.791;  262.832; 2511.771
734.190;24580.834;  346.907; 2581.592
734.762;25029.354;  316.282; 2710.813
735.334;26394.924;  329.782; 3005.733
735.907;26377.844;  333.132; 3154.954
736.479;25266.764;  370.857; 3171.675
737.051;25503.508;  347.357; 3217.496
737.623;27992.902;  357.882; 3246.217
738.195;27703.922;  299.482; 2985.238
738.768;26261.590;  252.782; 2727.559
739.340;25808.410;  304.857; 2666.880
739.912;25189.029;  357.657; 2769.601
740.484;24296.949;  350.757; 2731.422
741.056;25044.094;  312.057; 2963.043
741.628;26707.738;  289.782; 3361.364
742.199;27596.158;  383.907; 3641.185
742.771;27100.428;  280.457; 3932.005
743.343;27502.672;  292.832; 4319.926
743.915;27389.666;  344.282; 4706.647
744.487;26386.986;  347.457; 4874.968
745.058;26021.881;  353.457; 4616.589
745.630;26431.600;  348.382; 4253.410
746.201;26814.020;  304.807; 4056.131
746.773;26606.164;  349.032; 3772.952
747.344;26132.584;  322.357; 3642.473
747.916;26598.229;  333.257; 3752.294
748.487;26157.197;  359.432; 4106.215
749.059;24947.592;  284.982; 4457.835
749.630;24082.111;  297.432; 4366.457
750.201;24035.432;  320.057; 4600.078
750.773;25429.725;  303.332; 4658.499
751.344;25220.045;  327.382; 4609.319
751.915;24382.715;  322.882; 4526.440
752.486;24610.809;  293.582; 4536.061
753.057;24076.754;  329.332; 4383.282
753.628;23512.572;  295.257; 4296.503
754.199;22785.592;  310.882; 4383.224
754.770;22285.037;  353.057; 4653.545
755.341;21644.707;  360.857; 4831.666
755.912;21756.301;  319.107; 4831.387
756.483;22803.770;  345.682; 4735.808
757.054;22770.715;  311.757; 4685.029
757.625;21934.410;  283.281; 4994.250
758.195;21146.479;  271.456; 5051.471
758.766;21249.574;  334.106; 5317.792
759.337;21345.168;  271.731; 5646.512
759.907;21576.012;  273.281; 5404.133
760.478;21205.682;  301.906; 5090.954
761.048;21464.400;  350.156; 4871.175
761.619;21488.871;  343.981; 4589.396
762.189;20890.391;  323.481; 4171.317
762.760;20645.234;  353.681; 3872.538
763.330;21331.779;  348.956; 3832.259
763.900;22063.924;  336.956; 4150.180
764.471;21667.518;  288.831; 4529.801
765.041;20811.662;  377.656; 4715.922
765.611;20784.883;  345.006; 4681.442
766.181;21789.826;  313.381; 4717.063
766.751;21698.896;  326.356; 4710.285
767.321;21058.041;  281.681; 4450.305
767.891;21311.336;  335.006; 4274.126
768.461;21076.555;  317.181; 4215.047
769.031;19699.125;  319.931; 4173.068
769.601;18796.594;  371.706; 4174.689
770.171;18881.088;  271.681; 4229.310
770.741;19313.383;  308.231; 4352.031
771.311;18664.277;  349.906; 4336.652
771.880;17663.271;  290.606; 4300.873
772.450;17851.992;  293.831; 4387.194
773.020;19310.811;  265.356; 4220.415
773.589;20184.680;  304.181; 4075.835
774.159;20354.250;  303.806; 4105.756
774.729;19723.295;  302.231; 4114.978
775.298;19747.264;  295.981; 3693.298
775.867;19287.883;  299.481; 3343.119
776.437;18263.902;  327.631; 3062.040
777.006;18078.598;  274.856; 2927.161
777.576;18600.191;  344.456; 3046.482
778.145;18863.561;  343.356; 3230.203
778.714;18031.156;  322.006; 3253.324
779.283;17574.475;  348.206; 3129.745
779.853;17640.096;  314.331; 2983.566
780.422;18467.289;  318.631; 2929.887
780.991;18238.434;  342.380; 2863.908
781.560;17465.004;  388.455; 2948.029
782.129;16809.223;  340.005; 3074.149
782.698;17111.492;  380.505; 2893.970
783.267;17130.813;  307.955; 2721.391
783.836;16718.230;  330.805; 2659.712
784.404;15753.876;  279.880; 2622.233
784.973;15600.296;  237.455; 2600.754
785.542;15722.915;  315.855; 2528.475
786.111;15745.935;  374.280; 2404.396
786.679;15385.779;  344.680; 2365.717
787.248;15148.549;  267.330; 2498.438
787.817;14860.543;  303.955; 2645.659
788.385;14769.338;  369.230; 2709.280
788.954;14992.907;  275.655; 2620.500
789.522;15572.477;  355.780; 2625.422
790.090;15574.646;  278.980; 2743.843
790.659;15159.690;  306.080; 2635.163
791.227;14381.835;  311.805; 2495.484
791.795;14083.654;  331.755; 2413.705
792.364;14080.549;  290.980; 2345.326
792.932;14234.594;  340.980; 2350.447
793.500;13903.213;  316.380; 2429.768
794.068;13553.558;  268.080; 2513.589
794.636;13794.977;  295.280; 2664.310
795.204;13947.396;  262.980; 2721.431
795.772;13481.841;  290.305; 2802.052
796.340;12768.886;  299.005; 2847.173
796.908;13029.005;  261.530; 2997.194
797.476;13314.199;  284.905; 3151.615
798.044;13405.494;  253.155; 3110.735
798.612;12786.813;  314.105; 2931.656
799.180;12701.833;  325.680; 2785.777
799.747;12341.728;  319.580; 2899.098
800.315;11819.547;  274.780; 2955.519
800.883;11432.342;  252.155; 2948.940
801.450;11430.036;  315.580; 2965.361
802.018;11391.705;  334.130; 3070.582
802.585;11299.925;  322.055; 3156.103
803.153;11416.944;  289.680; 3199.524
803.720;11307.414;  296.830; 3168.845
804.287;11045.358;  306.930; 3248.366
804.855;10814.903;  359.104; 3406.187
805.422;10415.947;  307.929; 3430.907
805.989; 9922.942;  290.679; 3453.528
806.556; 9640.637;  291.654; 3612.649
807.124;10126.556;  357.604; 3736.570
807.691;10397.301;  281.554; 3770.491
808.258;10227.445;  319.179; 3705.012
808.825;10023.465;  355.079; 3828.733
809.392; 9921.759;  385.954; 3986.754
809.959; 9874.254;  332.604; 4410.075
810.526; 9701.148;  389.054; 4774.996
811.093; 9356.992;  368.679; 4754.217
811.659; 9151.712;  315.429; 4661.238
812.226; 9383.106;  314.129; 4672.559
812.793; 9476.301;  327.529; 4822.979
813.360; 9255.721;  317.729; 5189.800
813.926; 8894.665;  328.854; 5310.622
814.493; 8440.010;  271.154; 5414.542
815.060; 8264.079;  255.704; 5548.963
815.626; 8242.549;  275.854; 5452.284
816.193; 8318.144;  325.404; 5339.305
816.759; 8141.163;  287.029; 5544.426
817.325; 8057.882;  257.729; 5706.547
817.892; 8234.552;  353.004; 5623.468
818.458; 8280.546;  337.154; 5586.689
819.024; 8164.891;  363.754; 5647.910
819.591; 7887.860;  321.029; 5762.031
820.157; 7619.504;  276.979; 6284.452
820.723; 7751.899;  336.229; 6906.973
821.289; 8028.994;  506.079; 7086.894
821.855; 7829.538;  346.254; 7054.915
822.421; 7777.683;  299.279; 7112.035
822.987; 7803.052;  280.329; 7256.156
823.553; 7690.796;  308.029; 7538.077
824.119; 7414.266;  357.979; 7594.298
824.685; 7286.661;  375.329; 7613.619
825.251; 7262.005;  349.804; 7644.140
825.816; 7300.500;  394.904; 7720.261
826.382; 6944.144;  353.229; 8014.282
826.948; 6745.989;  360.979; 8281.503
827.513; 6977.683;  312.229; 8289.624
828.079; 7243.252;  284.654; 8587.045
828.645; 7432.747;  331.953; 8821.865
829.210; 7310.342;  280.028; 9054.486
829.776; 7179.236;  341.478; 9054.607
830.341; 6929.355;  348.903; 9415.628
830.906; 6771.425;  366.128; 9932.449
831.472; 6611.294;  292.928;10150.271
832.037; 6887.739;  358.778; 9420.391
832.602; 6709.534;  297.278; 8664.912
833.167; 6623.528;  322.128; 8491.933
833.733; 6518.048;  355.203; 8872.854
834.298; 6199.792;  283.078; 9370.575
834.863; 6076.037;  335.253; 9610.695
835.428; 5964.456;  332.603; 9655.616
835.993; 6051.901;  346.478; 9437.838
836.558; 6162.470;  350.903; 9441.459
837.123; 6388.189;  435.803; 9600.979
837.688; 6158.734;  333.278; 9798.301
838.253; 5946.204;  336.928; 9902.921
838.817; 6031.398;  311.203;10339.742
839.382; 6446.093;  374.978;10548.363
839.947; 6347.837;  323.128;10252.484
840.511; 6116.606;  393.528;10040.005
841.076; 5654.651;  252.078;10099.926
841.641; 5635.296;  344.703;10347.347
842.205; 5699.015;  337.778;10817.368
842.770; 5971.035;  408.353;11435.289
843.334; 6170.204;  312.103;12072.409
843.898; 6300.474;  310.603;12635.431
844.463; 6408.943;  380.278;12537.252
845.027; 6258.263;  308.503;12759.673
845.591; 6206.932;  363.603;12821.993
846.156; 5986.202;  299.378;12520.914
846.720; 5874.896;  354.153;12390.436
847.284; 5890.891;  330.928;12956.456
847.848; 5890.535;  348.053;13240.177
848.412; 5770.180;  323.753;13216.998
848.976; 5772.449;  386.653;13014.619
849.540; 5746.894;  417.803;12355.740
850.104; 5673.838;  383.053;12208.761
850.668; 5438.233;  254.278;12106.882
851.232; 5504.752;  268.203;11862.103
851.796; 5685.397;  320.853;11700.523
852.359; 5699.916;  357.802;12375.944
852.923; 5649.936;  372.677;13087.966
853.487; 5448.430;  354.002;13297.187
854.050; 5115.625;  221.277;13851.207
854.614; 5106.519;  307.352;14854.229
855.177; 5083.089;  338.277;15802.149
855.741; 4865.408;  345.252;16603.570
856.304; 4584.553;  368.077;16359.891
856.868; 4304.447;  285.127;14365.512
857.431; 4382.592;  327.252;13361.333
857.995; 4634.236;  311.852;14130.554
858.558; 4858.031;  344.802;14883.175
859.121; 4818.150;  356.802;15754.195
859.684; 4596.520;  334.527;15995.017
860.247; 4543.939;  330.327;15149.537
860.810; 4403.934;  315.502;14640.358
861.374; 4551.753;  427.327;15551.079
861.937; 4464.998;  281.702;16519.801
862.500; 4640.192;  308.952;16796.521
863.062; 4590.012;  286.727;16538.742
863.625; 4640.481;  336.352;16716.764
864.188; 4470.926;  303.952;17055.084
864.751; 4512.695;  311.477;17197.705
865.314; 4488.590;  328.227;17151.625
865.876; 4350.534;  367.602;17783.547
866.439; 4183.854;  356.927;19283.467
867.002; 4134.323;  418.077;20256.389
867.564; 3978.593;  382.527;20485.410
868.127; 3961.662;  339.677;20789.730
868.689; 3819.357;  337.727;21981.951
869.252; 3691.576;  379.552;23803.771
869.814; 3649.746;  297.202;24974.094
870.377; 3710.390;  333.127;24690.314
870.939; 3786.985;  475.577;23963.436
871.501; 3618.404;  336.752;25167.156
872.063; 3478.274;  240.777;26995.477
872.626; 3526.093;  266.427;27443.098
873.188; 3543.063;  339.102;26718.418
873.750; 3481.607;  318.952;26558.840
874.312; 3441.827;  307.927;26701.561
874.874; 3503.921;  397.902;27970.582
875.436; 3384.416;  355.951;29173.402
875.998; 3418.835;  389.851;30376.623
876.560; 3285.730;  360.801;32507.344
877.122; 3092.374;  294.651;34833.066
877.683; 2970.144;  350.176;36458.285
878.245; 2849.788;  318.351;37248.207
878.807; 2985.133;  347.801;36758.027
879.369; 2963.402;  283.901;35223.551
879.930; 2952.422;  283.676;33824.969
880.492; 3042.116;  383.151;34436.492
881.053; 2909.686;  294.601;37745.313
881.615; 2819.980;  307.076;41184.633
882.176; 2745.925;  324.176;42871.555
882.738; 2721.869;  358.351;41693.074
883.299; 2565.889;  262.026;40289.895
883.860; 2468.383;  266.201;39231.215
884.422; 2494.203;  356.201;38264.039
884.983; 2412.422;  288.701;37171.859
885.544; 2378.317;  334.101;35842.379
886.105; 2288.236;  327.726;34810.000
886.666; 2246.581;  316.601;34519.020
887.227; 2187.800;  267.851;33905.641
887.788; 2210.745;  338.601;34502.965
888.349; 2051.539;  284.426;34241.785
888.910; 2026.684;  352.301;33722.203
889.471; 1851.078;  338.351;32539.625
890.032; 1775.423;  326.526;31528.346
890.593; 1764.117;  353.451;32655.068
891.153; 1736.312;  318.251;33882.289
891.714; 1672.456;  271.876;33318.711
892.275; 1641.226;  279.076;31848.930
892.835; 1684.320;  366.851;30339.752
893.396; 1618.565;  351.251;30074.973
893.956; 1498.984;  321.201;30338.393
894.517; 1456.379;  334.976;30864.113
895.077; 1437.498;  341.851;29766.734
895.638; 1477.318;  397.501;26379.557
896.198; 1328.062;  284.226;24056.277
896.758; 1347.832;  363.351;22961.898
897.319; 1226.526;  322.426;21772.020
897.879; 1205.821;  327.851;20877.539
898.439; 1123.016;  269.326;19509.461
898.999; 1217.385;  347.950;17297.582
899.559; 1179.404;  342.950;14712.002
900.119; 1071.174;  283.975;12790.224
900.679; 1110.318;  392.525;11586.744
901.239; 1035.438;  353.950;10776.465
901.799;  981.782;  331.000; 9691.687
902.359;  930.727;  294.300; 8725.907
902.919;  896.621;  289.650; 8305.728
903.479;  876.866;  290.550; 8172.649
904.038;  832.460;  279.900; 7913.870
904.598;  770.930;  237.225; 7262.291
905.158;  820.524;  307.100; 6609.012
905.717;  826.169;  319.925; 6236.133
906.277;  801.714;  329.425; 5829.054
906.836;  805.108;  346.525; 5396.674
907.396;  787.927;  345.100; 4964.195
907.955;  777.572;  344.600; 4528.917
908.515;  728.816;  310.200; 4223.837
909.074;  714.561;  311.450; 4023.958
909.633;  696.730;  317.675; 4065.379
910.192;  767.575;  398.125; 4066.300
910.752;  678.650;  311.025; 3971.600
911.311;  658.525;  302.425; 3839.600
911.870;  637.650;  294.400; 3684.500
912.429;  702.825;  367.100; 3635.600
912.988;  688.350;  360.725; 3689.800
913.547;  601.400;  291.250; 3737.700
914.106;  637.825;  328.775; 3740.300
914.665;  632.375;  328.125; 3604.600
915.224;  659.850;  367.300; 3358.700
915.782;  593.650;  303.450; 3188.400
916.341;  667.250;  375.900; 3091.400
916.900;  594.725;  309.825; 3044.800
917.458;  563.875;  290.900; 2888.600
918.017;  597.125;  323.825; 2818.900
918.576;  575.200;  306.850; 2838.600
919.134;  533.050;  270.925; 2880.100
919.693;  565.525;  303.825; 2996.300
920.251;  555.275;  294.975; 3183.100
920.809;  536.575;  280.075; 3247.000
921.368;  561.800;  306.550; 3156.600
921.926;  536.125;  286.775; 2964.900
922.484;  574.925;  321.075; 2846.300
923.042;  559.800;  309.775; 2890.400
923.601;  631.100;  378.950; 2987.700
924.159;  590.425;  343.425; 3049.800
924.717;  532.725;  283.975; 3087.000
925.275;  560.925;  320.000; 3093.400
925.833;  499.100;  253.450; 3182.400
926.391;  588.450;  344.775; 3397.900
926.949;  548.025;  295.650; 3575.400
927.506;  569.800;  326.450; 3713.400
928.064;  559.425;  311.175; 3871.300
928.622;  562.575;  309.725; 4092.800
929.180;  517.175;  275.125; 4499.300
929.737;  516.225;  266.100; 4813.200
930.295;  590.975;  337.375; 5084.100
930.853;  541.225;  283.675; 5185.000
931.410;  521.725;  273.025; 5313.100
931.968;  595.400;  344.250; 5339.600
932.525;  573.875;  327.375; 5399.900
933.082;  518.025;  265.950; 5457.500
933.640;  582.475;  328.025; 5692.900
934.197;  559.950;  309.200; 5821.200
934.754;  568.550;  305.600; 5617.900
935.312;  549.650;  289.325; 5512.400
935.869;  635.375;  374.375; 5582.400
936.426;  548.950;  289.250; 5650.100
936.983;  564.725;  298.200; 5657.400
937.540;  536.675;  269.650; 5564.300
938.097;  593.525;  327.175; 5574.000
938.654;  574.625;  301.500; 5665.900
939.211;  601.400;  331.500; 5931.600
939.768;  581.800;  310.250; 6153.600
940.324;  574.175;  298.750; 6397.600
940.881;  562.900;  285.525; 6454.200
941.438;  642.625;  365.925; 6206.900
941.995;  634.750;  349.275; 6003.900
942.551;  561.600;  272.650; 6228.300
943.108;  598.950;  313.650; 6603.500
943.664;  566.700;  277.825; 7188.100
944.221;  691.125;  401.575; 7579.900
944.777;  560.800;  269.500; 7658.100
945.334;  571.050;  282.525; 7670.400
945.890;  600.575;  317.025; 7525.100
946.446;  603.475;  313.075; 7261.500
947.003;  613.825;  323.250; 6949.200
947.559;  666.175;  383.950; 6773.100
948.115;  644.625;  358.575; 6668.400
948.671;  613.850;  322.300; 6488.400
949.227;  554.625;  259.975; 6236.600
949.783;  548.500;  255.075; 6008.900
950.339;  629.725;  331.025; 5934.100
950.895;  641.750;  351.200; 5933.500
951.451;  582.625;  295.350; 6074.700
952.007;  621.775;  338.975; 6066.400
952.563;  591.750;  298.450; 5884.100
953.118;  578.550;  287.425; 5733.800
953.674;  588.925;  306.625; 5734.300
954.230;  594.325;  314.075; 6039.700
954.785;  596.350;  312.725; 6383.500
955.341;  629.625;  351.075; 6568.200
955.897;  532.300;  254.200; 6488.600
956.452;  608.375;  328.625; 6239.200
957.008;  678.300;  404.550; 5954.600
957.563;  641.350;  367.550; 5816.700
958.118;  562.950;  282.450; 5828.200
958.674;  606.125;  322.825; 5717.400
959.229;  644.125;  367.175; 5506.800
959.784;  537.550;  267.275; 5292.200
960.339;  633.800;  364.800; 5101.900
960.894;  613.775;  341.450; 5093.200
961.449;  552.350;  280.925; 5227.900
962.004;  752.575;  490.500; 5349.300
962.559;  551.675;  284.775; 5514.900
963.114;  482.725;  222.725; 5717.300
963.669;  578.625;  317.925; 5841.400
964.224;  564.650;  299.750; 5805.900
964.779;  533.950;  267.100; 5723.400
965.334;  649.375;  380.675; 5779.500
965.888;  556.650;  292.650; 5948.500
966.443;  610.825;  350.425; 6344.200
966.998;  507.000;  257.300; 6666.300
967.552;  564.600;  312.450; 6710.100
968.107;  548.575;  293.775; 6593.500
968.661;  577.175;  326.450; 6344.100
969.216;  531.325;  284.875; 6062.400
969.770;  569.650;  322.850; 5785.500
970.324;  580.375;  329.125; 5426.800
970.879;  593.725;  344.225; 5016.800
971.433;  590.875;  343.925; 4904.500
971.987;  561.400;  314.875; 4991.000
972.541;  575.225;  331.825; 4978.500
973.095;  626.450;  388.575; 4832.000
973.649;  507.600;  265.950; 4767.900
974.203;  521.025;  281.000; 4881.200
974.757;  532.200;  301.075; 4969.500
975.311;  544.375;  310.600; 4953.000
975.865;  545.750;  311.625; 4884.300
976.419;  531.975;  300.375; 4739.800
976.973;  528.525;  297.375; 4698.100
977.526;  587.850;  357.650; 4631.100
978.080;  489.200;  267.000; 4621.600
978.634;  565.675;  342.325; 4650.200
979.187;  560.975;  335.325; 4669.200
979.741;  622.750;  401.000; 4658.000
980.294;  486.500;  272.800; 4579.100
980.848;  448.775;  232.750; 4452.800
981.401;  512.975;  297.025; 4271.900
981.955;  534.125;  316.275; 4087.800
982.508;  473.350;  256.725; 3973.900
983.061;  570.150;  358.500; 3928.600
983.615;  498.125;  283.725; 3851.200
984.168;  481.225;  269.550; 3734.800
984.721;  535.800;  334.400; 3628.300
985.274;  531.325;  326.400; 3564.300
985.827;  514.150;  308.675; 3558.100
986.380;  451.250;  247.075; 3559.900
986.933;  530.900;  332.400; 3688.700
987.486;  522.775;  328.700; 3778.500
988.039;  525.475;  335.625; 3559.900
988.591;  547.825;  355.000; 3219.300
989.144;  453.350;  263.175; 2902.900
989.697;  469.050;  282.775; 2722.600
990.250;  525.975;  343.775; 2618.000
990.802;  468.150;  284.350; 2523.900
991.355;  592.875;  416.225; 2436.500
991.907;  527.325;  353.175; 2412.200
992.460;  461.775;  290.125; 2387.900
993.012;  457.950;  292.925; 2365.800
993.565;  434.975;  269.025; 2311.100
994.117;  572.575;  415.075; 2308.700
994.669;  428.025;  272.775; 2249.300
995.221;  484.825;  325.775; 2158.100
995.774;  479.450;  323.950; 2085.600
996.326;  449.675;  302.975; 2068.100
996.878;  506.150;  364.650; 1975.300
997.430;  422.700;  280.975; 1929.500
997.982;  450.325;  314.375; 1861.900
998.534;  449.200;  312.325; 1830.200
999.086;  445.875;  309.400; 1823.200
999.638;  404.275;  264.475; 1815.000
1000.190;  418.625;  289.550; 1796.600
1000.741;  448.325;  315.700; 1738.800
1001.293;  417.775;  285.475; 1666.200
1001.845;  412.875;  282.400; 1566.500
1002.396;  447.950;  323.025; 1471.900
1002.948;  443.450;  319.025; 1398.000
1003.500;  431.625;  311.450; 1356.500
1004.051;  544.675;  427.075; 1294.200
1004.603;  473.225;  355.975; 1190.000
1005.154;  358.775;  256.550; 1063.900
1005.705;  429.625;  327.275;  968.300
1006.257;  424.050;  321.050;  889.800
1006.808;  410.625;  307.300;  801.500
1007.359;  455.550;  357.950;  716.400
1007.910;  393.625;  292.775;  639.100
1008.461;  439.400;  340.400;  561.600
1009.013;  350.625;  260.275;  500.400
1009.564;  470.700;  379.075;  476.100
1010.115;  352.750;  266.650;  431.600
1010.665;  365.250;  276.375;  409.300
1011.216;  401.425;  307.725;  399.700
1011.767;  406.950;  322.300;  388.100
1012.318;  438.675;  346.275;  381.400
1012.869;  400.900;  312.400;  375.400
1013.419;  355.950;  272.200;  357.600
1013.970;  401.000;  308.450;  358.300
1014.521;  366.375;  282.075;  344.100
1015.071;  396.275;  311.900;  322.800
1015.622;  371.550;  293.350;  320.600
1016.172;  351.725;  275.300;  301.700
1016.723;  362.475;  282.900;  289.800
1017.273;  357.450;  277.850;  287.600
1017.823;  384.850;  300.200;  278.700
1018.374;  364.225;  284.275;  274.400
1018.924;  427.450;  341.950;  283.200
1019.474;  424.775;  342.125;  278.500
1020.024;  385.825;  308.475;  274.700
1020.574;  424.575;  347.200;  272.700
1021.124;  398.225;  320.825;  278.400
1021.674;  331.875;  254.500;  269.200
1022.224;  416.400;  338.750;  267.800
1022.774;  393.225;  316.850;  258.100
1023.324;  446.675;  367.150;  260.000
1023.874;  518.400;  441.500;  260.700
1024.423;  362.425;  279.150;  252.700
1024.973;  358.225;  281.275;  234.700
1025.523;  368.550;  289.800;  226.500
1026.072;  358.675;  285.275;  225.500
1026.622;  393.725;  318.725;  210.100
1027.172;  421.475;  346.700;  213.000
1027.721;  355.250;  280.500;  207.700
1028.270;  393.800;  319.175;  205.400
1028.820;  374.000;  302.250;  201.000
1029.369;  352.300;  286.450;  201.000
1029.918;  378.925;  305.700;  198.400
1030.468;  330.600;  259.425;  199.200
1031.017;  376.400;  300.400;  192.600
1031.566;  354.875;  289.275;  197.400
1032.115;  409.800;  337.900;  188.300
1032.664;  356.725;  279.900;  193.700
1033.213;  430.050;  362.050;  191.900
1033.762;  368.150;  302.625;  184.500
1034.311;  395.225;  326.850;  194.300
1034.860;  406.600;  336.175;  192.300
1035.408;  424.900;  355.150;  182.600
1035.957;  418.250;  352.700;  173.900
1036.506;  312.200;  245.850;  185.200
1037.055;  493.850;  423.375;  182.500
1037.603;  388.200;  320.150;  167.600
1038.152;  316.800;  250.525;  168.200
1038.700;  346.600;  274.950;  169.600
1039.249;  399.025;  332.200;  164.300
1039.797;  368.025;  305.675;  169.600
1040.345;  410.525;  345.400;  167.100
1040.894;  362.425;  301.950;  164.400
1041.442;  371.150;  304.750;  158.300
1041.990;  323.275;  259.475;  160.000
1042.538;  308.350;  249.225;  156.800
1043.087;  327.050;  270.350;  146.600
1043.635;  394.850;  327.075;  162.400
1044.183;  344.300;  279.725;  156.300
1044.731;  337.275;  269.300;  158.100
1045.279;  395.475;  328.825;  154.500
1045.827;  523.100;  462.875;  146.200
1046.374;  301.550;  240.950;  154.000
1046.922;  348.200;  281.025;  149.000
1047.470;  407.600;  341.475;  154.900
1048.018;  378.425;  315.450;  148.400
1048.565;  417.000;  353.925;  146.300
1049.113;  322.250;  260.775;  156.100
1049.660;  363.350;  302.650;  154.300
1050.208;  394.200;  324.875;  149.400
1050.755;  347.800;  293.275;  157.500
1051.303;  399.775;  336.200;  157.700
1051.850;  372.725;  310.850;  152.800
1052.397;  282.475;  222.000;  146.300
1052.945;  355.000;  296.750;  149.500
1053.492;  432.125;  369.875;  149.300
1054.039;  421.050;  360.975;  163.100
1054.586;  322.675;  262.725;  150.400
1055.133;  403.950;  338.550;  153.500
1055.680;  373.425;  315.200;  155.600
1056.227;  315.250;  253.400;  148.700
1056.774;  457.775;  404.600;  151.500
1057.321;  305.925;  244.250;  143.700
1057.868;  373.650;  313.950;  145.300
1058.415;  381.925;  324.800;  153.500
1058.961;  391.125;  330.150;  149.900
1059.508;  369.550;  315.850;  147.300
1060.055;  339.075;  281.250;  151.000
1060.601;  365.800;  303.950;  148.700
1061.148;  358.000;  301.600;  153.800
1061.694;  343.425;  287.700;  150.500
1062.241;  344.400;  287.650;  149.100
1062.787;  386.200;  328.450;  153.000
1063.334;  468.675;  410.750;  153.200
1063.880;  390.175;  329.225;  148.400
1064.426;  412.275;  352.025;  149.200
1064.972;  345.825;  292.350;  156.400
1065.518;  328.650;  271.775;  144.700
1066.065;  365.375;  308.625;  139.400
1066.611;  347.575;  293.475;  139.300
1067.157;  369.725;  319.775;  138.400
1067.703;  387.075;  337.575;  142.700
1068.249;  350.225;  296.225;  136.700
1068.794;  365.525;  305.000;  139.400
1069.340;  331.150;  280.900;  142.700
1069.886;  343.900;  290.950;  135.600
1070.432;  313.650;  253.750;  133.400
1070.977;  348.100;  291.550;  138.200
1071.523;  328.650;  279.700;  132.400
1072.068;  333.700;  284.200;  132.700
1072.614;  302.225;  251.100;  127.000
1073.160;  394.350;  348.150;  131.300
1073.705;  337.200;  283.500;  135.700
1074.250;  323.550;  269.250;  133.000
1074.796;  377.850;  324.700;  138.000
1075.341;  384.000;  336.700;  137.300
1075.886;  341.725;  289.575;  134.300
1076.431;  380.325;  329.275;  138.200
1076.976;  372.050;  318.550;  132.200
1077.521;  334.575;  283.600;  138.900
1078.067;  337.900;  282.450;  128.600
1078.612;  383.650;  332.075;  138.900
1079.156;  346.275;  295.750;  128.900
1079.701;  399.800;  343.350;  129.700
1080.246;  402.400;  347.850;  128.600
1080.791;  369.650;  314.325;  122.600
1081.336;  378.725;  326.775;  122.000
1081.880;  371.275;  325.175;  123.900
1082.425;  330.625;  278.750;  120.600
1082.970;  415.050;  366.800;  124.500
1083.514;  346.550;  294.050;  112.000
1084.059;  337.450;  286.600;  120.700
1084.603;  325.425;  274.100;  116.000
1085.147;  375.950;  324.250;  116.300
1085.692;  415.800;  361.250;  108.200
1086.236;  284.025;  241.150;  114.600
1086.780;  433.550;  384.150;  118.900
1087.325;  377.650;  325.450;  120.400
1087.869;  352.125;  304.775;  110.500
1088.413;  402.825;  356.525;  114.000
1088.957;  311.400;  263.950;  114.300
1089.501;  447.050;  396.225;  114.600
1090.045;  413.725;  370.525;  114.200
1090.589;  327.950;  276.525;  105.500
1091.133;  388.800;  345.450;  111.800
1091.676;  343.050;  298.200;  110.900
1092.220;  347.350;  299.475;  110.100
1092.764;  406.875;  361.925;  108.100
1093.307;  386.325;  337.525;  109.900
1093.851;  320.875;  275.925;  107.500
1094.395;  395.575;  345.675;   96.200
1094.938;  364.475;  322.825;   99.300
1095.482;  321.025;  278.475;   97.700
1096.025;  415.225;  364.550;   84.900
1096.568;  450.025;  405.000;   88.500
1097.112;  289.800;  246.200;   95.700
1097.655;  346.950;  296.650;   97.300
1098.198;  346.400;  297.750;   92.600
1098.741;  349.150;  304.700;   91.800
1099.285;  376.550;  328.800;   88.000
1099.828;  255.800;  211.775;   91.700
1100.371;  356.175;  306.475;   89.900
1100.914;  390.550;  345.300;   91.500
1101.457;  391.425;  348.450;   88.100
1101.999;  333.600;  287.650;   86.400
1102.542;  371.550;  326.525;   90.800
1103.085;  379.300;  334.825;   95.400
1103.628;  441.375;  402.425;   97.700
1104.170;  338.400;  294.100;   84.000
1104.713;  373.275;  327.975;   93.900
1105.256;  318.875;  274.375;   93.000
1105.798;  284.925;  242.750;   85.600
1106.341;  422.200;  376.200;   87.100
1106.883;  303.950;  254.050;   85.200
1107.425;  388.150;  336.150;   85.000
1107.968;  351.900;  308.475;   84.300
1108.510;  397.100;  354.625;   88.200
1109.052;  355.625;  312.325;   86.600
1109.594;  316.425;  276.450;   79.400
1110.136;  365.975;  324.750;   81.700
1110.679;  361.250;  320.200;   75.500
1111.221;  346.750;  303.300;   88.500
1111.763;  315.650;  273.725;   87.700
1112.304;  307.525;  269.975;   89.700
1112.846;  381.750;  338.350;   81.900
1113.388;  545.825;  503.625;   86.400
1113.930;  395.475;  350.625;   84.700
1114.472;  350.300;  306.975;   78.900
1115.013;  313.925;  274.675;   78.100
1115.555;  339.225;  300.175;   84.900
1116.097;  327.850;  286.175;   79.200
1116.638;  396.225;  351.800;   83.700
1117.180;  380.400;  340.000;   85.500
1117.721;  324.375;  284.650;   78.800
1118.262;  390.575;  346.125;   77.400
1118.804;  362.425;  323.675;   81.400
1119.345;  333.675;  293.650;   77.800
1119.886;  403.850;  365.925;   81.200
1120.427;  333.650;  298.125;   77.200
1120.969;  343.125;  303.125;   75.200
1121.510;  321.575;  283.075;   80.900
1122.051;  417.825;  375.375;   77.300
1122.592;  377.425;  336.725;   73.300
1123.133;  308.275;  273.850;   90.100
1123.673;  403.875;  369.875;   75.000
1124.214;  350.125;  315.175;   80.600
1124.755;  368.550;  324.350;   78.000
1125.296;  354.725;  318.250;   77.500
1125.836;  396.500;  351.500;   80.400
1126.377;  344.400;  300.875;   75.600
1126.918;  349.200;  309.250;   78.900
1127.458;  355.000;  318.050;   78.000
1127.999;  375.500;  336.250;   76.100
1128.539;  397.050;  364.625;   81.400
1129.079;  363.975;  324.475;   77.400
1129.620;  314.425;  279.875;   68.000
1130.160;  308.450;  272.075;   77.500
1130.700;  364.625;  329.225;   76.300
1131.240;  366.150;  328.450;   66.800
1131.781;  356.025;  314.900;   70.600
1132.321;  345.275;  306.150;   77.200
1132.861;  323.050;  285.675;   70.400
1133.401;  335.475;  300.900;   68.700
1133.941;  361.125;  321.400;   68.500
1134.481;  345.200;  307.900;   75.900
1135.020;  348.650;  309.675;   66.600
1135.560;  395.100;  351.150;   68.100
1136.100;  280.750;  248.900;   64.900
1136.640;  290.275;  255.600;   72.500
1137.179;  310.950;  268.675;   69.700
1137.719;  346.325;  312.975;   68.400
1138.258;  332.500;  301.025;   67.000
1138.798;  381.975;  340.800;   69.600
1139.337;  276.650;  239.200;   64.000
1139.877;  372.250;  332.125;   64.500
1140.416;  502.050;  470.975;   74.900
1140.955;  307.775;  271.575;   67.200
1141.494;  383.825;  350.025;   69.900
1142.034;  335.000;  296.600;   59.100
1142.573;  373.850;  339.400;   65.900
1143.112;  318.025;  283.425;   70.600
1143.651;  307.625;  277.975;   67.100
1144.190;  393.350;  356.875;   56.700
1144.729;  337.000;  310.675;   61.800
1145.267;  332.050;  295.200;   62.500
1145.806;  361.500;  333.350;   68.500
1146.345;  365.900;  329.875;   58.300
1146.884;  357.025;  323.775;   63.100
1147.422;  300.775;  268.350;   54.800
1147.961;  409.800;  375.600;   67.600
1148.500;  380.775;  349.175;   64.700
1149.038;  359.950;  329.975;   61.000
1149.577;  399.675;  366.025;   65.100
1150.115;  254.975;  223.975;   58.100
1150.653;  345.775;  315.175;   60.500
1151.192;  314.075;  282.875;   56.600
1151.730;  372.500;  342.650;   62.300
1152.268;  333.375;  299.225;   55.500
1152.806;  324.575;  289.175;   58.200
1153.344;  319.725;  294.550;   55.000
1153.882;  344.000;  313.275;   64.200
1154.421;  268.675;  238.175;   60.300
1154.958;  339.800;  307.400;   58.100
1155.496;  366.675;  336.925;   55.800
1156.034;  406.450;  380.375;   61.000
1156.572;  384.175;  353.500;   56.200
1157.110;  264.325;  234.675;   53.200
1157.647;  387.100;  356.575;   57.400
1158.185;  320.600;  288.850;   55.500
1158.723;  289.225;  260.925;   58.000
1159.260;  398.225;  364.100;   53.700
1159.798;  374.700;  340.225;   51.700
1160.335;  361.550;  326.400;   59.600

