source
Integration time [ms]: 238.412
Averaging Nr. [scans]: 40
Smoothing Nr. [pixels]: 0
Data measured with spectrometer [name]: 7414430SP
Wave   ;Sample   ;Dark     ;Reference
[nm]   ;[counts] ;[counts] ;[counts] 

288.544;  582.206;  332.182;    6.613
289.143;  520.771;  271.583;   14.216
289.742;  617.099;  358.283;   11.816
290.341;  584.397;  338.184;   -4.936
290.940;  545.925;  301.359;    0.852
291.538;  628.887;  386.909;    1.792
292.137;  583.078;  339.183;    6.262
292.736;  690.147;  448.984;    8.164
293.335;  551.067;  303.109;   -6.418
293.934;  580.909;  331.034;   -2.904
294.532;  729.780;  479.809;   -5.162
295.131;  598.347;  376.861;  -10.283
295.730;  585.896;  361.060;  -16.141
296.328;  572.162;  345.711;  -14.740
296.927;  568.730;  342.761;   -8.768
297.525;  561.929;  342.961;  -15.255
298.124;  490.271;  272.787;  -22.063
298.722;  555.187;  336.861;  -14.796
299.321;  522.729;  303.761;  -10.466
299.919;  544.211;  329.786;  -10.979
300.518;  507.679;  293.262;  -12.077
301.116;  514.242;  297.361;  -13.509
301.715;  528.834;  315.411;  -11.939
302.313;  516.234;  306.661;  -15.424
302.911;  529.596;  329.612;  -19.833
303.509;  645.646;  439.211;   -3.567
304.108;  549.844;  342.436;   -9.553
304.706;  560.855;  367.686;   -8.582
305.304;  563.758;  366.712;  -12.348
305.902;  561.390;  359.286;  -14.411
306.500;  521.778;  325.311;   -7.194
307.098;  525.435;  342.011;   -9.322
307.696;  544.299;  361.986;  -19.192
308.294;  520.782;  331.561;   -9.736
308.892;  537.635;  349.686;  -15.482
309.490;  495.010;  314.911;  -14.107
310.088;  543.938;  372.612;  -15.862
310.686;  566.482;  389.461;  -10.781
311.284;  530.874;  356.336;  -14.878
311.882;  503.591;  336.862;   -9.948
312.480;  483.369;  321.162;  -15.503
313.078;  552.810;  388.612;  -17.262
313.675;  483.328;  320.411;   -3.694
314.273;  534.137;  384.962;  -18.246
314.871;  415.500;  268.837;  -15.190
315.468;  446.746;  299.362;  -12.633
316.066;  475.190;  321.511;   -5.765
316.664;  441.696;  302.362;  -14.317
317.261;  591.143;  448.487;   -8.677
317.859;  512.394;  378.637;  -11.804
318.456;  543.304;  411.961;   -3.107
319.054;  509.843;  378.962;   -3.062
319.651;  492.754;  371.737;   -6.706
320.249;  526.829;  398.562;   -5.206
320.846;  464.108;  345.061;   -4.679
321.443;  527.098;  418.661;   -7.920
322.041;  514.748;  400.187;  -14.105
322.638;  454.744;  339.787;   -6.263
323.235;  431.534;  314.961;   -7.424
323.833;  473.062;  363.186;  -14.765
324.430;  390.642;  280.436;  -10.550
325.027;  554.540;  440.611;   -9.951
325.624;  418.566;  298.761;   -3.712
326.221;  446.161;  318.936;   -9.368
326.818;  515.638;  400.711;   -5.637
327.415;  477.817;  346.260;   -6.699
328.012;  440.950;  319.885;   -5.713
328.609;  467.967;  339.260;   -9.983
329.206;  495.956;  366.561;   -7.154
329.803;  479.138;  339.636;   -1.682
330.400;  458.574;  313.485;   -2.741
330.997;  517.539;  377.636;   -4.339
331.594;  508.330;  363.311;  -10.278
332.191;  474.791;  324.736;   -6.967
332.787;  540.798;  386.261;   -0.480
333.384;  483.888;  342.112;  -10.333
333.981;  512.905;  375.163;  -19.900
334.578;  461.412;  310.587;  -19.816
335.174;  469.933;  319.387;  -15.844
335.771;  526.627;  384.438;  -12.670
336.367;  460.130;  320.113;  -21.124
336.964;  506.956;  369.313;  -18.226
337.561;  471.611;  329.313;  -13.311
338.157;  567.450;  432.764;  -19.006
338.754;  503.059;  371.839;  -19.418
339.350;  451.565;  324.864;  -29.433
339.946;  481.728;  348.714;  -16.622
340.543;  513.804;  399.465;  -16.744
341.139;  444.269;  331.215;  -21.841
341.735;  470.641;  363.566;  -25.012
342.332;  422.177;  316.015;  -19.156
342.928;  487.534;  376.415;  -20.443
343.524;  459.055;  357.341;  -14.397
344.120;  449.481;  353.591;  -20.654
344.716;  434.882;  332.640;   -5.730
345.313;  483.612;  378.515;  -10.929
345.909;  378.326;  276.840;  -19.843
346.505;  451.996;  349.565;  -19.645
347.101;  499.251;  394.639;   -9.618
347.697;  476.313;  377.889;  -10.305
348.293;  380.965;  275.590;  -23.189
348.889;  455.415;  352.389;  -18.418
349.485;  416.650;  316.289;  -10.476
350.081;  469.555;  364.839;  -17.320
350.676;  421.054;  319.940;  -21.088
351.272;  486.770;  385.314;  -12.821
351.868;  478.277;  359.189;  -13.165
352.464;  442.915;  339.314;  -12.464
353.059;  394.467;  297.664;  -22.547
353.655;  474.318;  371.639;   -9.379
354.251;  469.653;  356.313;   -8.266
354.846;  448.911;  350.714;  -17.705
355.442;  455.020;  355.915;   -9.317
356.038;  458.685;  352.164;  -11.049
356.633;  451.986;  340.389;  -10.006
357.229;  447.560;  340.089;  -13.120
357.824;  430.231;  327.589;  -15.647
358.420;  411.707;  310.939;  -19.204
359.015;  426.467;  318.914;  -12.263
359.610;  465.655;  365.289;  -16.421
360.206;  370.535;  270.590;  -20.074
360.801;  401.312;  291.064;  -13.277
361.396;  449.478;  343.139;   -5.822
361.992;  411.756;  306.264;  -11.247
362.587;  412.042;  308.515;  -21.502
363.182;  427.755;  322.764;   -7.461
363.777;  461.316;  351.864;   -8.719
364.372;  454.933;  358.189;  -14.590
364.967;  419.505;  321.715;  -15.145
365.563;  498.792;  388.039;   -7.192
366.158;  430.223;  320.264;   -5.662
366.753;  405.565;  295.314;   -8.378
367.348;  459.196;  357.064;  -14.990
367.942;  432.163;  327.764;   -6.005
368.537;  466.354;  361.689;  -11.504
369.132;  439.789;  329.614;  -10.576
369.727;  400.231;  298.440;  -12.573
370.322;  373.522;  266.940;  -11.560
370.917;  443.179;  339.490;  -10.388
371.511;  527.322;  427.164;   -9.161
372.106;  478.630;  379.790;  -10.245
372.701;  370.903;  272.315;  -10.158
373.296;  532.943;  427.564;   -4.719
373.890;  403.692;  307.915;  -11.802
374.485;  436.660;  337.115;  -13.500
375.079;  466.172;  362.789;   -6.276
375.674;  511.970;  401.664;   -0.447
376.268;  434.064;  332.240;   -6.916
376.863;  369.526;  276.716;  -14.483
377.457;  428.009;  314.690;   -6.903
378.052;  475.376;  374.315;   -9.844
378.646;  463.336;  370.840;  -12.601
379.240;  453.318;  351.240;  -14.715
379.835;  411.514;  308.715;  -12.331
380.429;  362.218;  266.490;   -9.074
381.023;  483.926;  393.115;   -1.729
381.617;  423.876;  332.440;  -13.714
382.212;  434.805;  334.815;   -7.060
382.806;  472.759;  377.590;   -2.303
383.400;  427.949;  331.115;   -0.815
383.994;  414.931;  329.140;   -4.429
384.588;  442.441;  348.039;   -6.261
385.182;  456.250;  362.014;    0.008
385.776;  441.750;  356.039;   -3.247
386.370;  428.521;  341.465;   -1.030
386.964;  433.922;  342.840;   -1.346
387.558;  384.477;  293.714;   -2.020
388.152;  422.749;  343.690;   -5.345
388.745;  504.082;  419.915;   -2.774
389.339;  467.905;  385.039;    3.510
389.933;  434.116;  347.289;    5.280
390.527;  527.224;  452.139;    2.610
391.120;  375.582;  295.940;   -7.914
391.714;  448.123;  363.840;   -1.903
392.308;  486.072;  405.564;    6.023
392.901;  405.495;  324.365;   -4.103
393.495;  374.005;  301.415;    3.284
394.089;  472.502;  399.790;    8.655
394.682;  430.642;  361.290;    2.312
395.275;  442.289;  373.240;   -7.402
395.869;  411.398;  342.490;   -1.072
396.462;  384.363;  315.340;    6.454
397.056;  471.930;  403.889;    8.494
397.649;  445.833;  381.015;    1.599
398.242;  446.111;  373.064;    3.153
398.836;  468.799;  402.914;   11.395
399.429;  391.377;  324.289;   14.695
400.022;  408.920;  345.590;    3.627
400.615;  494.678;  432.340;    8.383
401.208;  427.616;  354.989;   13.295
401.802;  428.521;  365.940;    6.211
402.395;  416.295;  361.290;    7.227
402.988;  417.157;  362.265;    2.700
403.581;  396.224;  336.689;   11.225
404.174;  417.195;  354.064;   18.922
404.767;  389.644;  339.265;   14.169
405.360;  377.344;  326.690;    8.999
405.953;  463.026;  403.039;   13.138
406.545;  441.426;  377.889;   13.937
407.138;  370.291;  313.990;   10.869
407.731;  371.323;  317.039;   12.768
408.324;  402.607;  343.789;   22.921
408.917;  414.525;  359.814;   15.308
409.509;  445.761;  395.314;   12.239
410.102;  379.882;  340.165;   13.741
410.695;  402.081;  347.989;   20.249
411.287;  362.612;  311.239;   21.793
411.880;  350.194;  302.339;   22.965
412.472;  360.673;  318.389;   15.082
413.065;  375.142;  336.289;   23.423
413.657;  348.574;  298.039;   21.077
414.250;  387.223;  336.714;   12.349
414.842;  397.151;  352.064;   20.423
415.434;  344.943;  296.714;   19.906
416.027;  385.470;  339.988;   26.574
416.619;  423.180;  384.414;   15.705
417.211;  354.079;  309.039;   17.791
417.804;  374.622;  325.263;   30.244
418.396;  360.479;  319.364;   24.177
418.988;  383.420;  348.488;   24.904
419.580;  332.756;  292.489;   20.692
420.172;  319.388;  278.713;   22.275
420.764;  401.729;  355.763;   26.773
421.356;  378.766;  338.413;   25.731
421.948;  399.119;  359.838;   24.876
422.540;  407.126;  355.188;   30.042
423.132;  358.343;  313.387;   32.728
423.724;  327.674;  290.788;   21.317
424.316;  365.581;  323.238;   29.359
424.908;  353.976;  304.287;   28.798
425.500;  378.304;  335.712;   30.512
426.092;  381.458;  336.912;   26.741
426.683;  408.309;  362.463;   27.029
427.275;  386.664;  336.387;   32.611
427.867;  395.422;  351.337;   33.796
428.458;  432.363;  385.937;   34.453
429.050;  403.436;  356.687;   34.255
429.642;  444.452;  391.712;   39.082
430.233;  330.440;  287.987;   41.138
430.825;  429.086;  384.287;   31.581
431.416;  405.464;  366.212;   35.755
432.008;  386.606;  337.812;   40.566
432.599;  386.827;  335.336;   46.322
433.190;  375.182;  333.212;   46.897
433.782;  345.548;  302.337;   41.069
434.373;  522.365;  470.836;   48.778
434.964;  356.860;  307.636;   50.078
435.556;  372.458;  329.587;   52.381
436.147;  445.975;  392.887;   38.251
436.738;  412.886;  360.061;   47.237
437.329;  425.701;  372.511;   61.304
437.920;  391.972;  345.062;   48.611
438.511;  334.433;  279.837;   44.910
439.103;  368.743;  315.036;   62.404
439.694;  402.337;  350.436;   63.075
440.285;  456.402;  400.436;   61.033
440.876;  497.379;  444.436;   57.249
441.466;  341.270;  290.086;   61.306
442.057;  398.058;  331.460;   65.773
442.648;  438.636;  386.736;   65.676
443.239;  366.318;  312.761;   55.963
443.830;  423.592;  361.860;   69.631
444.421;  399.247;  328.660;   69.943
445.011;  412.703;  350.386;   72.791
445.602;  440.704;  379.461;   68.848
446.193;  290.357;  228.810;   80.044
446.783;  385.524;  313.585;   82.599
447.374;  409.921;  357.311;   77.419
447.964;  421.920;  362.536;   72.605
448.555;  493.251;  424.460;   82.041
449.145;  395.640;  330.310;   76.230
449.736;  474.195;  414.985;   75.545
450.326;  430.943;  359.935;   67.945
450.917;  411.850;  333.685;   77.598
451.507;  367.147;  290.635;   68.027
452.097;  445.142;  383.935;   67.771
452.688;  445.626;  368.435;   62.884
453.278;  351.119;  275.160;   65.512
453.868;  489.637;  403.809;   71.796
454.458;  395.837;  318.910;   60.956
455.048;  432.426;  353.535;   62.356
455.639;  350.406;  268.759;   58.782
456.229;  435.210;  346.284;   65.209
456.819;  462.248;  368.959;   61.466
457.409;  473.539;  386.634;   59.967
457.999;  453.517;  361.034;   58.093
458.589;  422.959;  333.359;   59.536
459.179;  444.616;  349.659;   55.994
459.769;  390.241;  298.609;   43.624
460.358;  489.075;  390.959;   46.978
460.948;  428.043;  328.684;   49.821
461.538;  408.569;  310.534;   54.678
462.128;  409.360;  315.259;   49.309
462.717;  439.630;  337.158;   52.774
463.307;  440.501;  332.983;   48.101
463.897;  410.268;  311.684;   45.606
464.486;  515.877;  417.409;   45.010
465.076;  458.455;  353.758;   45.519
465.666;  411.478;  297.008;   50.058
466.255;  487.864;  380.084;   44.463
466.845;  416.140;  313.384;   41.206
467.434;  455.231;  343.333;   44.847
468.023;  415.355;  300.133;   46.760
468.613;  447.309;  335.959;   39.736
469.202;  413.016;  295.883;   46.461
469.791;  464.728;  345.133;   47.944
470.381;  470.616;  347.033;   47.529
470.970;  446.765;  332.058;   43.773
471.559;  460.521;  342.008;   41.646
472.148;  430.597;  303.683;   37.914
472.738;  485.694;  356.482;   48.071
473.327;  407.457;  281.358;   47.871
473.916;  466.251;  344.183;   37.716
474.505;  480.202;  347.732;   40.256
475.094;  516.667;  376.407;   43.269
475.683;  505.814;  365.032;   36.499
476.272;  471.685;  330.607;   44.542
476.861;  458.565;  312.082;   42.297
477.449;  475.282;  321.156;   46.878
478.038;  449.263;  303.132;   35.156
478.627;  463.867;  312.283;   42.514
479.216;  496.599;  339.082;   43.937
479.805;  511.429;  342.281;   51.393
480.393;  637.222;  478.332;   53.239
480.982;  563.938;  400.307;   38.955
481.571;  559.208;  389.631;   45.436
482.159;  471.496;  293.706;   51.007
482.748;  535.008;  366.357;   49.695
483.336;  560.567;  381.181;   48.280
483.925;  511.066;  334.082;   47.166
484.513;  514.601;  315.681;   55.404
485.102;  535.076;  343.207;   54.238
485.690;  658.437;  454.581;   55.748
486.278;  642.384;  440.606;   55.934
486.867;  542.694;  333.306;   57.106
487.455;  599.320;  388.156;   56.979
488.043;  512.120;  294.606;   57.564
488.631;  667.777;  434.606;   57.432
489.220;  609.214;  375.931;   63.646
489.808;  514.939;  280.831;   65.449
490.396;  624.471;  376.381;   61.977
490.984;  578.987;  312.181;   68.834
491.572;  645.689;  372.756;   70.775
492.160;  636.595;  353.331;   67.564
492.748;  623.862;  321.856;   66.808
493.336;  707.258;  385.406;   79.747
493.924;  684.949;  328.880;   88.688
494.512;  754.167;  377.506;   84.120
495.100;  789.642;  368.731;   86.250
495.687;  866.254;  385.755;  103.074
496.275;  847.860;  306.906;  108.717
496.863;  948.219;  320.381;  107.035
497.451; 1069.343;  318.181;  117.993
498.038; 1234.719;  337.580;  120.116
498.626; 1361.970;  323.705;  143.059
499.214; 1560.634;  350.431;  153.434
499.801; 1775.358;  340.156;  175.121
500.389; 1970.121;  273.880;  185.617
500.976; 2342.073;  353.806;  215.789
501.564; 2724.411;  344.506;  240.321
502.151; 2941.424;  238.081;  267.007
502.738; 3320.836;  318.731;  317.961
503.326; 3820.692;  325.180;  361.216
503.913; 4352.113;  343.006;  401.433
504.500; 4938.116;  355.181;  446.492
505.088; 5544.751;  301.106;  512.063
505.675; 6384.038;  330.580;  586.387
506.262; 7230.527;  325.506;  671.021
506.849; 8042.352;  335.756;  759.062
507.436; 8951.654;  380.255;  849.788
508.023; 9816.190;  334.181;  944.288
508.610;10619.206;  374.231; 1020.690
509.197;11627.505;  357.257; 1089.052
509.784;12779.636;  331.206; 1133.776
510.371;13896.425;  273.280; 1165.501
510.958;15372.064;  344.181; 1251.735
511.545;15560.718;  392.581; 1350.248
512.132;15907.731;  338.105; 1525.945
512.719;17016.438;  294.131; 1834.933
513.305;18359.904;  302.831; 1965.349
513.892;19841.381;  390.881; 1963.265
514.479;21516.314;  344.106; 2046.446
515.066;23352.365;  381.056; 2252.803
515.652;24736.279;  342.181; 2567.247
516.239;25971.104;  367.031; 2636.919
516.825;26567.154;  280.781; 2482.304
517.412;26816.355;  440.656; 2427.031
517.998;26567.736;  326.831; 2540.463
518.585;26488.199;  321.031; 2609.007
519.171;28118.600;  344.230; 2842.088
519.758;31016.551;  289.856; 3090.703
520.344;33463.012;  375.481; 3176.076
520.930;34283.832;  299.831; 3295.037
521.516;35325.918;  355.580; 3500.959
522.103;35042.676;  395.056; 3736.704
522.689;36228.934;  322.431; 3971.022
523.275;38064.930;  381.706; 4213.778
523.861;38025.824;  331.131; 4190.361
524.447;37942.078;  380.380; 4070.602
525.033;39195.176;  381.681; 4088.892
525.619;38652.598;  303.906; 4416.851
526.205;39624.285;  288.856; 4836.835
526.791;42291.059;  321.731; 4885.903
527.377;44007.254;  315.431; 4544.907
527.963;44479.441;  343.282; 4321.995
528.549;43380.203;  352.506; 4473.979
529.135;41901.555;  304.081; 4788.663
529.721;40427.965;  338.481; 4888.577
530.306;41300.004;  466.581; 4775.779
530.892;43422.523;  318.656; 4793.906
531.478;44852.879;  312.706; 4956.948
532.063;47147.980;  298.081; 5136.936
532.649;49120.352;  423.182; 5336.867
533.235;51375.914;  301.356; 5748.092
533.820;53347.469;  387.506; 6456.875
534.406;53323.473;  323.132; 6590.167
534.991;52682.734;  297.731; 6179.622
535.576;51536.418;  323.756; 6098.691
536.162;51306.516;  473.231; 6441.234
536.747;51923.199;  284.632; 6816.224
537.333;53723.922;  300.207; 6889.752
537.918;53395.680;  334.732; 7154.280
538.503;54741.238;  313.831; 7150.848
539.088;54987.551;  347.831; 7253.308
539.673;53595.734;  326.957; 7625.180
540.259;51895.391;  310.081; 8226.793
540.844;53693.352;  268.181; 8745.092
541.429;53438.238;  415.182; 8762.553
542.014;53011.078;  283.257; 8871.497
542.599;55330.613;  349.206; 8886.008
543.184;58878.305;  292.582; 9079.139
543.769;58792.117;  299.932; 9076.182
544.354;57107.582;  316.832; 8354.081
544.938;53690.340;  346.957; 8236.809
545.523;51381.891;  408.931; 8222.179
546.108;52945.250;  333.957; 8114.082
546.693;53441.605;  329.582; 8535.912
547.278;53109.203;  329.756; 9238.322
547.862;52153.340;  335.231; 9034.405
548.447;51410.117;  375.007; 7795.011
549.031;51194.445;  323.407; 7485.099
549.616;51612.355;  345.556; 7626.308
550.201;51990.625;  317.957; 7627.909
550.785;53735.188;  360.657; 7859.125
551.370;56520.371;  285.157; 7990.654
551.954;57773.680;  376.732; 8196.468
552.538;59249.945;  363.782; 7959.495
553.123;58465.484;  305.957; 7964.826
553.707;56555.211;  321.858; 8515.957
554.291;55100.754;  389.882; 8724.024
554.876;54626.500;  368.932; 8524.211
555.460;53901.602;  314.232; 8704.456
556.044;54452.695;  312.058; 9141.473
556.628;54103.961;  331.082; 9250.197
557.212;53754.789;  381.732; 9444.237
557.796;52160.910;  322.682; 9379.783
558.380;54622.160;  349.858; 9353.658
558.964;54676.941;  337.832; 9210.310
559.548;53360.957;  285.732; 8475.153
560.132;53392.918;  317.732; 7954.084
560.716;53820.746;  287.633; 7489.529
561.300;56411.066;  293.532; 7211.952
561.884;57686.227;  356.157; 7141.313
562.467;55811.906;  357.083; 7155.386
563.051;55407.699;  332.158; 7323.158
563.635;55851.992;  321.708; 7709.114
564.219;55410.285;  329.757; 7678.855
564.802;54866.969;  354.833; 7376.187
565.386;53285.770;  337.983; 7054.372
565.969;51982.301;  393.007; 6589.196
566.553;50725.270;  431.132; 6279.371
567.136;50600.430;  387.258; 5967.930
567.720;51304.480;  333.033; 5660.703
568.303;51174.387;  350.983; 5648.615
568.887;52530.574;  336.083; 5618.443
569.470;52357.672;  347.808; 5411.875
570.053;52229.457;  362.008; 5149.274
570.637;52755.000;  311.582; 5122.798
571.220;53044.211;  370.182; 4957.369
571.803;52207.113;  431.408; 4933.018
572.386;52692.910;  321.158; 4840.973
572.969;53839.293;  324.383; 4592.886
573.552;55028.516;  327.358; 4348.387
574.135;51094.922;  301.458; 4002.290
574.718;43608.230;  306.533; 3654.773
575.301;42788.391;  305.583; 3502.288
575.884;41968.547;  304.633; 3349.803
576.467;43858.855;  382.608; 3191.403
577.050;45778.133;  344.783; 3062.418
577.633;47984.922;  419.133; 3214.200
578.216;49285.465;  323.983; 3284.889
578.799;48474.211;  325.158; 3189.777
579.381;48686.102;  437.358; 3064.502
579.964;49583.113;  306.433; 2888.357
580.547;50331.492;  343.283; 2905.760
581.129;51162.797;  402.609; 2966.849
581.712;53876.805;  353.784; 2887.292
582.294;54771.766;  340.783; 2771.631
582.877;54492.371;  440.133; 2711.602
583.459;53475.664;  337.109; 2577.049
584.042;50843.199;  331.484; 2454.707
584.624;48986.309;  309.609; 2305.893
585.206;47352.203;  266.683; 2189.546
585.789;45024.957;  312.459; 2112.577
586.371;42935.902;  356.459; 2153.065
586.953;43421.434;  368.459; 2197.806
587.536;45306.938;  400.958; 2105.489
588.118;45839.242;  328.560; 1963.911
588.700;46875.570;  402.784; 1843.179
589.282;46668.746;  356.533; 1813.834
589.864;45652.242;  339.384; 1777.620
590.446;45669.023;  270.159; 1733.780
591.028;46742.742;  335.084; 1676.008
591.610;48532.930;  269.934; 1631.649
592.192;47493.430;  343.883; 1632.362
592.774;44886.871;  296.959; 1569.507
593.356;42571.180;  308.434; 1524.539
593.937;42432.055;  305.209; 1569.720
594.519;43639.676;  385.159; 1569.049
595.101;45443.086;  280.159; 1545.452
595.683;44920.734;  312.384; 1607.568
596.264;45137.461;  329.084; 1615.506
596.846;45191.578;  316.159; 1667.622
597.427;46101.207;  311.585; 1670.469
598.009;48530.074;  306.135; 1640.312
598.591;46525.457;  368.334; 1541.022
599.172;45000.355;  329.159; 1598.665
599.753;45650.203;  287.835; 1619.068
600.335;43601.246;  399.860; 1548.612
600.916;40634.543;  330.059; 1607.510
601.498;42123.133;  352.434; 1745.181
602.079;43942.813;  332.735; 1801.011
602.660;44179.563;  331.085; 1834.640
603.241;43784.172;  266.484; 1787.351
603.823;44027.223;  312.009; 1684.266
604.404;43386.992;  294.460; 1654.241
604.985;43265.355;  311.435; 1758.741
605.566;42260.199;  373.284; 1697.679
606.147;41921.652;  326.810; 1526.728
606.728;43981.355;  287.885; 1484.086
607.309;44343.344;  312.260; 1421.070
607.890;43397.273;  320.084; 1369.867
608.471;43082.359;  305.985; 1277.826
609.051;42479.590;  345.735; 1180.416
609.632;43889.152;  298.910; 1075.816
610.213;45081.918;  327.260; 1053.313
610.794;43947.063;  319.860;  979.442
611.374;43794.770;  353.585;  917.414
611.955;42630.449;  279.385;  819.987
612.536;42308.168;  350.760;  752.627
613.116;43315.152;  314.485;  690.799
613.697;44069.230;  306.310;  674.974
614.277;43403.793;  296.261;  663.846
614.858;40828.945;  315.435;  665.898
615.438;38594.992;  331.435;  660.712
616.019;38263.895;  396.911;  632.732
616.599;38388.082;  257.935;  551.759
617.179;40032.594;  288.785;  512.871
617.760;40225.293;  453.610;  473.655
618.340;39220.504;  327.786;  440.004
618.920;41245.043;  411.910;  429.731
619.500;40984.727;  317.361;  441.361
620.080;41113.434;  299.235;  425.202
620.660;41166.441;  298.436;  408.164
621.241;41184.766;  315.461;  387.161
621.821;42353.504;  335.836;  378.017
622.401;40894.609;  382.235;  379.188
622.980;40552.961;  283.836;  350.019
623.560;39906.504;  316.836;  336.446
624.140;36587.250;  340.235;  336.473
624.720;34915.617;  346.736;  334.974
625.300;33971.066;  297.610;  325.717
625.880;35660.660;  329.611;  308.519
626.459;39221.859;  329.936;  307.117
627.039;42633.441;  273.711;  290.890
627.619;46436.559;  432.161;  286.635
628.198;45990.563;  382.786;  282.535
628.778;42363.066;  359.011;  285.474
629.357;40228.453;  289.461;  284.103
629.937;40287.484;  314.761;  292.178
630.516;42312.594;  404.261;  290.749
631.096;43801.398;  305.311;  285.489
631.675;45072.734;  395.186;  287.022
632.254;45366.492;  305.012;  286.038
632.834;44347.301;  326.362;  276.451
633.413;41693.652;  400.736;  279.447
633.992;40461.184;  375.962;  264.508
634.571;40228.055;  361.012;  271.010
635.151;40308.988;  293.462;  277.338
635.730;40730.098;  321.436;  289.305
636.309;39080.758;  358.911;  285.306
636.888;37508.547;  354.262;  254.051
637.467;36861.707;  269.612;  230.324
638.046;37526.664;  400.486;  253.349
638.625;40282.852;  386.537;  246.866
639.204;40687.422;  345.112;  240.825
639.782;39677.938;  333.362;  261.970
640.361;38828.684;  391.961;  277.780
640.940;37156.348;  308.461;  270.101
641.519;36751.336;  360.011;  248.622
642.097;36508.375;  353.961;  239.843
642.676;37614.988;  338.986;  244.264
643.255;40718.305;  319.311;  234.985
643.833;43908.719;  360.561;  244.406
644.412;44016.305;  314.386;  244.927
644.990;40739.520;  338.211;  249.948
645.569;40709.359;  355.861;  249.569
646.147;40622.750;  372.611;  243.290
646.726;42079.461;  335.211;  249.511
647.304;43339.375;  321.061;  228.032
647.882;42875.863;  270.686;  214.552
648.461;41439.453;  342.686;  214.973
649.039;39626.941;  366.261;  223.394
649.617;38272.730;  357.161;  261.415
650.195;37808.570;  346.036;  298.736
650.773;39406.836;  314.336;  309.557
651.352;39192.223;  258.236;  297.978
651.930;35754.988;  257.711;  289.399
652.508;35530.449;  366.686;  285.620
653.086;36069.141;  350.436;  272.241
653.663;37989.402;  306.061;  265.062
654.241;40388.516;  282.711;  286.083
654.819;41701.906;  288.861;  286.404
655.397;42392.043;  297.536;  291.825
655.975;42701.559;  319.561;  299.145
656.553;42745.922;  400.861;  288.866
657.130;43908.988;  294.961;  304.087
657.708;42864.523;  344.761;  302.908
658.286;41659.590;  337.811;  294.629
658.863;41105.277;  338.536;  293.350
659.441;41420.016;  343.611;  318.671
660.018;41188.879;  327.111;  333.692
660.596;41061.020;  265.536;  335.013
661.173;41611.832;  309.686;  371.534
661.750;41563.598;  294.510;  365.155
662.328;41835.984;  357.635;  349.976
662.905;40794.074;  312.110;  332.997
663.482;38520.938;  325.085;  321.717
664.060;37837.629;  303.885;  314.438
664.637;39073.742;  362.985;  306.259
665.214;40935.281;  343.760;  314.580
665.791;41774.367;  318.410;  334.501
666.368;42144.559;  312.610;  329.222
666.945;41897.098;  360.485;  342.143
667.522;41526.984;  298.035;  370.964
668.099;40608.898;  321.685;  396.885
668.676;41244.488;  327.960;  391.706
669.253;42282.402;  403.010;  369.627
669.830;43060.215;  384.935;  360.348
670.407;43061.531;  321.710;  344.769
670.984;42673.367;  324.710;  322.890
671.560;41347.082;  366.585;  316.910
672.137;39892.320;  316.510;  322.531
672.714;39031.309;  348.160;  318.552
673.290;39245.500;  339.310;  324.473
673.867;39400.465;  305.735;  340.594
674.443;39148.402;  280.660;  319.515
675.020;39362.141;  334.360;  286.336
675.596;41732.953;  325.335;  247.557
676.173;42770.645;  284.685;  227.778
676.749;43285.730;  241.110;  224.399
677.326;42025.746;  276.485;  230.520
677.902;40867.359;  299.535;  241.841
678.478;41536.148;  287.935;  239.762
679.054;40927.414;  496.185;  248.583
679.631;40624.102;  350.035;  237.503
680.207;41457.242;  420.585;  245.924
680.783;41046.305;  257.685;  224.845
681.359;40591.742;  328.635;  209.666
681.935;40597.906;  333.235;  191.687
682.511;41251.598;  334.310;  210.008
683.087;41561.559;  353.460;  213.329
683.663;42130.473;  316.860;  216.850
684.239;41434.414;  282.010;  229.471
684.815;40931.375;  371.410;  248.792
685.390;41038.465;  420.910;  231.813
685.966;41546.730;  330.384;  221.234
686.542;41827.844;  293.884;  214.255
687.118;40189.230;  337.609;  212.276
687.693;39276.020;  354.159;  233.096
688.269;39835.461;  319.759;  246.917
688.844;39239.848;  348.934;  236.938
689.420;38647.688;  332.309;  242.059
689.995;39087.875;  412.309;  245.480
690.571;39108.391;  387.209;  244.701
691.146;38863.527;  318.634;  251.922
691.722;40914.418;  346.309;  284.743
692.297;41670.480;  309.209;  320.664
692.872;41719.922;  292.359;  313.885
693.448;41041.109;  286.509;  290.106
694.023;40364.598;  338.409;  304.327
694.598;41208.813;  330.909;  319.648
695.173;42437.426;  309.734;  323.169
695.748;42479.438;  262.034;  376.389
696.323;41645.828;  322.634;  397.610
696.898;42421.117;  380.859;  430.231
697.473;42850.258;  270.409;  454.952
698.048;40978.719;  315.859;  478.973
698.623;40862.484;  275.434;  477.094
699.198;41640.121;  332.634;  496.915
699.773;42727.109;  296.709;  490.236
700.348;44088.625;  286.534;  519.957
700.922;43507.688;  335.884;  575.678
701.497;43249.578;  329.484;  621.399
702.072;43605.418;  368.459;  664.420
702.646;43981.105;  358.209;  690.541
703.221;42791.418;  345.334;  748.862
703.795;40447.008;  292.784;  774.282
704.370;40060.945;  240.209;  799.803
704.944;40880.188;  308.359;  875.824
705.519;41760.523;  341.384;  902.945
706.093;42213.664;  295.009;  889.266
706.668;41769.727;  352.859;  903.487
707.242;41806.891;  362.059;  881.708
707.816;41027.406;  319.884;  892.329
708.390;41596.168;  325.334;  970.250
708.965;41728.184;  337.084;  984.671
709.539;40212.648;  317.284; 1026.092
710.113;38953.359;  331.783; 1067.913
710.687;40225.375;  359.383; 1166.434
711.261;41695.637;  281.883; 1190.854
711.835;41890.977;  289.733; 1197.275
712.409;42669.543;  268.058; 1308.096
712.983;44002.879;  265.958; 1461.617
713.557;42853.742;  264.508; 1611.838
714.131;43254.484;  313.533; 1554.359
714.704;43080.047;  298.083; 1520.780
715.278;41534.461;  328.983; 1575.101
715.852;40722.473;  353.558; 1689.822
716.425;42734.262;  415.733; 1829.143
716.999;43253.551;  263.658; 2008.664
717.573;42687.965;  348.733; 2000.485
718.146;44366.453;  407.658; 1914.506
718.720;44369.895;  336.808; 1818.026
719.293;42928.406;  347.408; 1734.147
719.867;42194.270;  302.283; 1716.968
720.440;43571.387;  390.233; 1918.589
721.013;45098.625;  307.233; 1975.410
721.587;45438.813;  270.283; 2073.331
722.160;45194.652;  369.008; 2357.852
722.733;45060.492;  340.358; 2657.073
723.306;45472.527;  324.358; 2703.894
723.880;46042.066;  337.958; 2549.415
724.453;46346.582;  381.208; 2414.336
725.026;46926.871;  305.433; 2298.557
725.599;46347.836;  334.183; 2168.778
726.172;45767.449;  349.033; 2106.099
726.745;47320.414;  346.783; 2253.320
727.318;46324.277;  364.533; 2404.740
727.891;45637.164;  335.333; 2680.161
728.463;45766.480;  334.933; 2838.882
729.036;44297.992;  296.258; 2755.103
729.609;42521.805;  294.583; 2731.824
730.182;41685.695;  360.033; 2855.645
730.754;43458.535;  246.233; 2946.866
731.327;44544.375;  351.758; 2840.187
731.900;42899.660;  271.533; 2647.608
732.472;41616.824;  323.433; 2473.929
733.045;40748.090;  313.083; 2445.750
733.617;40615.953;  262.832; 2511.771
734.190;40108.516;  346.907; 2581.592
734.762;41189.883;  316.282; 2710.813
735.334;42809.320;  329.782; 3005.733
735.907;42156.457;  333.132; 3154.954
736.479;40834.496;  370.857; 3171.675
737.051;41813.113;  347.357; 3217.496
737.623;44461.051;  357.882; 3246.217
738.195;44490.863;  299.482; 2985.238
738.768;43042.203;  252.782; 2727.559
739.340;42404.418;  304.857; 2666.880
739.912;41498.957;  357.657; 2769.601
740.484;39771.969;  350.757; 2731.422
741.056;40698.059;  312.057; 2963.043
741.628;43784.797;  289.782; 3361.364
742.199;45732.512;  383.907; 3641.185
742.771;44935.273;  280.457; 3932.005
743.343;44475.590;  292.832; 4319.926
743.915;44188.652;  344.282; 4706.647
744.487;43461.141;  347.457; 4874.968
745.058;43071.156;  353.457; 4616.589
745.630;43027.719;  348.382; 4253.410
746.201;43269.633;  304.807; 4056.131
746.773;42957.570;  349.032; 3772.952
747.344;42365.211;  322.357; 3642.473
747.916;42941.977;  333.257; 3752.294
748.487;42867.539;  359.432; 4106.215
749.059;41013.801;  284.982; 4457.835
749.630;40105.266;  297.432; 4366.457
750.201;40825.707;  320.057; 4600.078
750.773;41655.719;  303.332; 4658.499
751.344;41006.484;  327.382; 4609.319
751.915;40099.398;  322.882; 4526.440
752.486;40910.859;  293.582; 4536.061
753.057;39949.023;  329.332; 4383.282
753.628;38489.590;  295.257; 4296.503
754.199;37678.578;  310.882; 4383.224
754.770;36955.316;  353.057; 4653.545
755.341;36020.281;  360.857; 4831.666
755.912;36045.043;  319.107; 4831.387
756.483;36926.184;  345.682; 4735.808
757.054;37617.395;  311.757; 4685.029
757.625;37648.086;  283.281; 4994.250
758.195;36479.223;  271.456; 5051.471
758.766;36442.988;  334.106; 5317.792
759.337;36617.152;  271.731; 5646.512
759.907;36919.367;  273.281; 5404.133
760.478;36825.305;  301.906; 5090.954
761.048;36739.117;  350.156; 4871.175
761.619;36361.582;  343.981; 4589.396
762.189;35944.973;  323.481; 4171.317
762.760;35211.285;  353.681; 3872.538
763.330;35489.875;  348.956; 3832.259
763.900;36385.461;  336.956; 4150.180
764.471;35828.977;  288.831; 4529.801
765.041;34082.215;  377.656; 4715.922
765.611;34241.055;  345.006; 4681.442
766.181;35614.742;  313.381; 4717.063
766.751;34728.309;  326.356; 4710.285
767.321;33707.770;  281.681; 4450.305
767.891;34229.461;  335.006; 4274.126
768.461;33693.324;  317.181; 4215.047
769.031;32209.213;  319.931; 4173.068
769.601;31526.951;  371.706; 4174.689
770.171;31853.164;  271.681; 4229.310
770.741;32621.555;  308.231; 4352.031
771.311;31531.393;  349.906; 4336.652
771.880;29911.857;  290.606; 4300.873
772.450;30192.270;  293.831; 4387.194
773.020;32247.334;  265.356; 4220.415
773.589;33322.922;  304.181; 4075.835
774.159;33026.313;  303.806; 4105.756
774.729;31960.551;  302.231; 4114.978
775.298;31572.490;  295.981; 3693.298
775.867;31036.803;  299.481; 3343.119
776.437;29898.543;  327.631; 3062.040
777.006;29521.582;  274.856; 2927.161
777.576;29811.020;  344.456; 3046.482
778.145;29923.658;  343.356; 3230.203
778.714;28868.373;  322.006; 3253.324
779.283;28388.336;  348.206; 3129.745
779.853;28482.951;  314.331; 2983.566
780.422;29019.289;  318.631; 2929.887
780.991;28339.979;  342.380; 2863.908
781.560;27453.342;  388.455; 2948.029
782.129;26702.230;  340.005; 3074.149
782.698;27356.619;  380.505; 2893.970
783.267;26969.908;  307.955; 2721.391
783.836;26840.297;  330.805; 2659.712
784.404;26460.436;  279.880; 2622.233
784.973;26360.000;  237.455; 2600.754
785.542;25862.965;  315.855; 2528.475
786.111;25410.979;  374.280; 2404.396
786.679;24726.541;  344.680; 2365.717
787.248;24467.006;  267.330; 2498.438
787.817;24180.744;  303.955; 2645.659
788.385;24378.107;  369.230; 2709.280
788.954;24650.947;  275.655; 2620.500
789.522;25132.486;  355.780; 2625.422
790.090;25354.299;  278.980; 2743.843
790.659;24662.488;  306.080; 2635.163
791.227;23546.102;  311.805; 2495.484
791.795;22973.666;  331.755; 2413.705
792.364;22627.980;  290.980; 2345.326
792.932;22694.545;  340.980; 2350.447
793.500;22450.258;  316.380; 2429.768
794.068;22302.598;  268.080; 2513.589
794.636;22428.486;  295.280; 2664.310
795.204;22255.924;  262.980; 2721.431
795.772;21193.738;  290.305; 2802.052
796.340;20571.627;  299.005; 2847.173
796.908;20932.516;  261.530; 2997.194
797.476;21601.830;  284.905; 3151.615
798.044;21616.744;  253.155; 3110.735
798.612;21053.357;  314.105; 2931.656
799.180;20863.797;  325.680; 2785.777
799.747;20560.686;  319.580; 2899.098
800.315;20220.949;  274.780; 2955.519
800.883;20013.037;  252.155; 2948.940
801.450;19916.102;  315.580; 2965.361
802.018;19515.240;  334.130; 3070.582
802.585;18973.729;  322.055; 3156.103
803.153;19021.268;  289.680; 3199.524
803.720;18847.781;  296.830; 3168.845
804.287;18361.271;  306.930; 3248.366
804.855;18144.385;  359.104; 3406.187
805.422;17495.273;  307.929; 3430.907
805.989;16766.313;  290.679; 3453.528
806.556;16424.527;  291.654; 3612.649
807.124;17191.541;  357.604; 3736.570
807.691;17468.805;  281.554; 3770.491
808.258;16551.617;  319.179; 3705.012
808.825;16284.856;  355.079; 3828.733
809.392;16290.496;  385.954; 3986.754
809.959;16253.385;  332.604; 4410.075
810.526;15792.248;  389.054; 4774.996
811.093;15274.162;  368.679; 4754.217
811.659;15194.477;  315.429; 4661.238
812.226;16049.040;  314.129; 4672.559
812.793;16316.579;  327.529; 4822.979
813.360;15551.867;  317.729; 5189.800
813.926;14855.081;  328.854; 5310.622
814.493;14204.695;  271.154; 5414.542
815.060;14036.784;  255.704; 5548.963
815.626;14012.898;  275.854; 5452.284
816.193;13718.562;  325.404; 5339.305
816.759;13396.051;  287.029; 5544.426
817.325;13566.715;  257.729; 5706.547
817.892;13974.129;  353.004; 5623.468
818.458;14044.567;  337.154; 5586.689
819.024;14036.006;  363.754; 5647.910
819.591;13750.620;  321.029; 5762.031
820.157;13392.684;  276.979; 6284.452
820.723;13427.173;  336.229; 6906.973
821.289;13640.937;  506.079; 7086.894
821.855;13361.200;  346.254; 7054.915
822.421;13104.015;  299.279; 7112.035
822.987;13219.928;  280.329; 7256.156
823.553;13327.892;  308.029; 7538.077
824.119;13068.056;  357.979; 7594.298
824.685;12993.444;  375.329; 7613.619
825.251;12748.709;  349.804; 7644.140
825.816;12541.822;  394.904; 7720.261
826.382;11970.562;  353.229; 8014.282
826.948;11673.525;  360.979; 8281.503
827.513;11873.313;  312.229; 8289.624
828.079;12185.453;  284.654; 8587.045
828.645;12311.042;  331.953; 8821.865
829.210;12303.730;  280.028; 9054.486
829.776;12217.119;  341.478; 9054.607
830.341;11810.958;  348.903; 9415.628
830.906;11700.947;  366.128; 9932.449
831.472;11419.111;  292.928;10150.271
832.037;11507.700;  358.778; 9420.391
832.602;11118.863;  297.278; 8664.912
833.167;10824.553;  322.128; 8491.933
833.733;10880.541;  355.203; 8872.854
834.298;10627.030;  283.078; 9370.575
834.863;10310.394;  335.253; 9610.695
835.428;10089.482;  332.603; 9655.616
835.993;10257.672;  346.478; 9437.838
836.558;10376.011;  350.903; 9441.459
837.123;10635.425;  435.803; 9600.979
837.688;10379.913;  333.278; 9798.301
838.253;10304.353;  336.928; 9902.921
838.817;10696.891;  311.203;10339.742
839.382;11245.180;  374.978;10548.363
839.947;11166.644;  323.128;10252.484
840.511;10584.032;  393.528;10040.005
841.076; 9929.396;  252.078;10099.926
841.641; 9915.135;  344.703;10347.347
842.205; 9908.724;  337.778;10817.368
842.770;10318.563;  408.353;11435.289
843.334;10518.002;  312.103;12072.409
843.898;10528.466;  310.603;12635.431
844.463;10677.555;  380.278;12537.252
845.027;10609.769;  308.503;12759.673
845.591;10468.183;  363.603;12821.993
846.156;10272.121;  299.378;12520.914
846.720;10127.085;  354.153;12390.436
847.284;10088.648;  330.928;12956.456
847.848;10003.037;  348.053;13240.177
848.412; 9820.376;  323.753;13216.998
848.976; 9940.540;  386.653;13014.619
849.540; 9800.454;  417.803;12355.740
850.104; 9710.293;  383.053;12208.761
850.668; 9359.382;  254.278;12106.882
851.232; 9445.846;  268.203;11862.103
851.796; 9669.085;  320.853;11700.523
852.359; 9612.948;  357.802;12375.944
852.923; 9520.287;  372.677;13087.966
853.487; 9242.951;  354.002;13297.187
854.050; 8766.465;  221.277;13851.207
854.614; 8648.754;  307.352;14854.229
855.177; 8749.968;  338.277;15802.149
855.741; 8687.906;  345.252;16603.570
856.304; 8148.870;  368.077;16359.891
856.868; 7658.709;  285.127;14365.512
857.431; 7680.723;  327.252;13361.333
857.995; 7869.212;  311.852;14130.554
858.558; 8114.051;  344.802;14883.175
859.121; 8099.990;  356.802;15754.195
859.684; 7906.479;  334.527;15995.017
860.247; 7811.267;  330.327;15149.537
860.810; 7766.181;  315.502;14640.358
861.374; 7811.520;  427.327;15551.079
861.937; 7682.184;  281.702;16519.801
862.500; 7919.373;  308.952;16796.521
863.062; 7888.687;  286.727;16538.742
863.625; 7834.875;  336.352;16716.764
864.188; 7743.464;  303.952;17055.084
864.751; 7770.428;  311.477;17197.705
865.314; 7654.642;  328.227;17151.625
865.876; 7492.656;  367.602;17783.547
866.439; 7215.495;  356.927;19283.467
867.002; 7074.784;  418.077;20256.389
867.564; 6911.072;  382.527;20485.410
868.127; 6846.086;  339.677;20789.730
868.689; 6512.750;  337.727;21981.951
869.252; 6383.264;  379.552;23803.771
869.814; 6235.278;  297.202;24974.094
870.377; 6270.542;  333.127;24690.314
870.939; 6377.431;  475.577;23963.436
871.501; 6285.544;  336.752;25167.156
872.063; 6070.083;  240.777;26995.477
872.626; 6054.322;  266.427;27443.098
873.188; 6023.136;  339.102;26718.418
873.750; 5849.575;  318.952;26558.840
874.312; 5804.539;  307.927;26701.561
874.874; 6034.902;  397.902;27970.582
875.436; 5914.116;  355.951;29173.402
875.998; 5833.830;  389.851;30376.623
876.560; 5632.419;  360.801;32507.344
877.122; 5281.558;  294.651;34833.066
877.683; 5167.771;  350.176;36458.285
878.245; 5019.286;  318.351;37248.207
878.807; 5139.949;  347.801;36758.027
879.369; 5118.463;  283.901;35223.551
879.930; 5046.977;  283.676;33824.969
880.492; 5087.841;  383.151;34436.492
881.053; 4939.705;  294.601;37745.313
881.615; 4825.668;  307.076;41184.633
882.176; 4602.757;  324.176;42871.555
882.738; 4489.296;  358.351;41693.074
883.299; 4313.560;  262.026;40289.895
883.860; 4209.799;  266.201;39231.215
884.422; 4131.163;  356.201;38264.039
884.983; 3977.152;  288.701;37171.859
885.544; 3974.141;  334.101;35842.379
886.105; 3887.779;  327.726;34810.000
886.666; 3821.293;  316.601;34519.020
887.227; 3646.182;  267.851;33905.641
887.788; 3587.196;  338.601;34502.965
888.349; 3337.185;  284.426;34241.785
888.910; 3241.799;  352.301;33722.203
889.471; 3052.613;  338.351;32539.625
890.032; 2905.951;  326.526;31528.346
890.593; 2914.965;  353.451;32655.068
891.153; 2949.279;  318.251;33882.289
891.714; 2852.468;  271.876;33318.711
892.275; 2748.557;  279.076;31848.930
892.835; 2695.896;  366.851;30339.752
893.396; 2578.234;  351.251;30074.973
893.956; 2432.323;  321.201;30338.393
894.517; 2330.987;  334.976;30864.113
895.077; 2299.051;  341.851;29766.734
895.638; 2290.440;  397.501;26379.557
896.198; 2065.529;  284.226;24056.277
896.758; 2037.393;  363.351;22961.898
897.319; 1887.056;  322.426;21772.020
897.879; 1828.695;  327.851;20877.539
898.439; 1723.409;  269.326;19509.461
898.999; 1802.023;  347.950;17297.582
899.559; 1757.912;  342.950;14712.002
900.119; 1602.776;  283.975;12790.224
900.679; 1638.240;  392.525;11586.744
901.239; 1528.153;  353.950;10776.465
901.799; 1456.142;  331.000; 9691.687
902.359; 1377.481;  294.300; 8725.907
902.919; 1331.320;  289.650; 8305.728
903.479; 1291.809;  290.550; 8172.649
904.038; 1224.698;  279.900; 7913.870
904.598; 1156.911;  237.225; 7262.291
905.158; 1177.225;  307.100; 6609.012
905.717; 1158.664;  319.925; 6236.133
906.277; 1124.353;  329.425; 5829.054
906.836; 1105.467;  346.525; 5396.674
907.396; 1068.331;  345.100; 4964.195
907.955; 1052.670;  344.600; 4528.917
908.515; 1000.883;  310.200; 4223.837
909.074;  974.522;  311.450; 4023.958
909.633;  943.686;  317.675; 4065.379
910.192; 1003.875;  398.125; 4066.300
910.752;  893.625;  311.025; 3971.600
911.311;  878.475;  302.425; 3839.600
911.870;  848.675;  294.400; 3684.500
912.429;  903.975;  367.100; 3635.600
912.988;  887.975;  360.725; 3689.800
913.547;  798.950;  291.250; 3737.700
914.106;  819.525;  328.775; 3740.300
914.665;  810.250;  328.125; 3604.600
915.224;  834.875;  367.300; 3358.700
915.782;  767.325;  303.450; 3188.400
916.341;  834.925;  375.900; 3091.400
916.900;  748.750;  309.825; 3044.800
917.458;  729.075;  290.900; 2888.600
918.017;  753.025;  323.825; 2818.900
918.576;  735.950;  306.850; 2838.600
919.134;  690.100;  270.925; 2880.100
919.693;  725.325;  303.825; 2996.300
920.251;  714.525;  294.975; 3183.100
920.809;  694.025;  280.075; 3247.000
921.368;  707.850;  306.550; 3156.600
921.926;  683.525;  286.775; 2964.900
922.484;  714.700;  321.075; 2846.300
923.042;  699.600;  309.775; 2890.400
923.601;  772.875;  378.950; 2987.700
924.159;  731.625;  343.425; 3049.800
924.717;  671.775;  283.975; 3087.000
925.275;  706.675;  320.000; 3093.400
925.833;  639.950;  253.450; 3182.400
926.391;  724.275;  344.775; 3397.900
926.949;  684.900;  295.650; 3575.400
927.506;  708.900;  326.450; 3713.400
928.064;  696.925;  311.175; 3871.300
928.622;  698.900;  309.725; 4092.800
929.180;  656.650;  275.125; 4499.300
929.737;  654.675;  266.100; 4813.200
930.295;  732.375;  337.375; 5084.100
930.853;  686.025;  283.675; 5185.000
931.410;  678.600;  273.025; 5313.100
931.968;  741.575;  344.250; 5339.600
932.525;  726.150;  327.375; 5399.900
933.082;  661.950;  265.950; 5457.500
933.640;  733.350;  328.025; 5692.900
934.197;  707.125;  309.200; 5821.200
934.754;  709.650;  305.600; 5617.900
935.312;  702.225;  289.325; 5512.400
935.869;  782.675;  374.375; 5582.400
936.426;  705.800;  289.250; 5650.100
936.983;  710.550;  298.200; 5657.400
937.540;  691.325;  269.650; 5564.300
938.097;  755.900;  327.175; 5574.000
938.654;  734.725;  301.500; 5665.900
939.211;  757.900;  331.500; 5931.600
939.768;  740.075;  310.250; 6153.600
940.324;  734.975;  298.750; 6397.600
940.881;  728.875;  285.525; 6454.200
941.438;  814.525;  365.925; 6206.900
941.995;  806.775;  349.275; 6003.900
942.551;  741.800;  272.650; 6228.300
943.108;  778.400;  313.650; 6603.500
943.664;  743.950;  277.825; 7188.100
944.221;  863.875;  401.575; 7579.900
944.777;  749.750;  269.500; 7658.100
945.334;  752.525;  282.525; 7670.400
945.890;  789.850;  317.025; 7525.100
946.446;  788.550;  313.075; 7261.500
947.003;  794.325;  323.250; 6949.200
947.559;  847.750;  383.950; 6773.100
948.115;  826.725;  358.575; 6668.400
948.671;  796.725;  322.300; 6488.400
949.227;  734.150;  259.975; 6236.600
949.783;  727.975;  255.075; 6008.900
950.339;  813.175;  331.025; 5934.100
950.895;  832.300;  351.200; 5933.500
951.451;  768.300;  295.350; 6074.700
952.007;  810.300;  338.975; 6066.400
952.563;  773.125;  298.450; 5884.100
953.118;  763.350;  287.425; 5733.800
953.674;  782.225;  306.625; 5734.300
954.230;  786.225;  314.075; 6039.700
954.785;  775.300;  312.725; 6383.500
955.341;  807.550;  351.075; 6568.200
955.897;  720.600;  254.200; 6488.600
956.452;  786.850;  328.625; 6239.200
957.008;  861.475;  404.550; 5954.600
957.563;  823.550;  367.550; 5816.700
958.118;  748.300;  282.450; 5828.200
958.674;  789.675;  322.825; 5717.400
959.229;  825.375;  367.175; 5506.800
959.784;  720.575;  267.275; 5292.200
960.339;  814.200;  364.800; 5101.900
960.894;  789.875;  341.450; 5093.200
961.449;  713.125;  280.925; 5227.900
962.004;  910.725;  490.500; 5349.300
962.559;  714.475;  284.775; 5514.900
963.114;  656.575;  222.725; 5717.300
963.669;  759.600;  317.925; 5841.400
964.224;  737.800;  299.750; 5805.900
964.779;  709.600;  267.100; 5723.400
965.334;  827.225;  380.675; 5779.500
965.888;  724.900;  292.650; 5948.500
966.443;  776.275;  350.425; 6344.200
966.998;  683.175;  257.300; 6666.300
967.552;  741.500;  312.450; 6710.100
968.107;  717.000;  293.775; 6593.500
968.661;  752.275;  326.450; 6344.100
969.216;  714.050;  284.875; 6062.400
969.770;  741.925;  322.850; 5785.500
970.324;  750.225;  329.125; 5426.800
970.879;  758.025;  344.225; 5016.800
971.433;  764.900;  343.925; 4904.500
971.987;  723.600;  314.875; 4991.000
972.541;  732.850;  331.825; 4978.500
973.095;  782.125;  388.575; 4832.000
973.649;  668.125;  265.950; 4767.900
974.203;  684.000;  281.000; 4881.200
974.757;  702.125;  301.075; 4969.500
975.311;  702.825;  310.600; 4953.000
975.865;  697.550;  311.625; 4884.300
976.419;  682.900;  300.375; 4739.800
976.973;  675.650;  297.375; 4698.100
977.526;  734.150;  357.650; 4631.100
978.080;  644.475;  267.000; 4621.600
978.634;  714.050;  342.325; 4650.200
979.187;  695.275;  335.325; 4669.200
979.741;  761.075;  401.000; 4658.000
980.294;  634.550;  272.800; 4579.100
980.848;  586.275;  232.750; 4452.800
981.401;  644.325;  297.025; 4271.900
981.955;  667.550;  316.275; 4087.800
982.508;  614.225;  256.725; 3973.900
983.061;  707.250;  358.500; 3928.600
983.615;  639.650;  283.725; 3851.200
984.168;  611.000;  269.550; 3734.800
984.721;  670.700;  334.400; 3628.300
985.274;  657.600;  326.400; 3564.300
985.827;  634.850;  308.675; 3558.100
986.380;  569.025;  247.075; 3559.900
986.933;  651.375;  332.400; 3688.700
987.486;  641.625;  328.700; 3778.500
988.039;  642.325;  335.625; 3559.900
988.591;  658.450;  355.000; 3219.300
989.144;  571.000;  263.175; 2902.900
989.697;  579.525;  282.775; 2722.600
990.250;  635.950;  343.775; 2618.000
990.802;  567.625;  284.350; 2523.900
991.355;  699.250;  416.225; 2436.500
991.907;  630.263;  353.175; 2412.200
992.460;  561.275;  290.125; 2387.900
993.012;  559.275;  292.925; 2365.800
993.565;  535.575;  269.025; 2311.100
994.117;  671.675;  415.075; 2308.700
994.669;  525.625;  272.775; 2249.300
995.221;  574.000;  325.775; 2158.100
995.774;  569.825;  323.950; 2085.600
996.326;  538.000;  302.975; 2068.100
996.878;  589.175;  364.650; 1975.300
997.430;  513.275;  280.975; 1929.500
997.982;  544.275;  314.375; 1861.900
998.534;  532.500;  312.325; 1830.200
999.086;  520.850;  309.400; 1823.200
999.638;  480.400;  264.475; 1815.000
1000.190;  504.075;  289.550; 1796.600
1000.741;  528.500;  315.700; 1738.800
1001.293;  492.550;  285.475; 1666.200
1001.845;  488.975;  282.400; 1566.500
1002.396;  523.925;  323.025; 1471.900
1002.948;  513.000;  319.025; 1398.000
1003.500;  501.750;  311.450; 1356.500
1004.051;  606.650;  427.075; 1294.200
1004.603;  540.975;  355.975; 1190.000
1005.154;  428.650;  256.550; 1063.900
1005.705;  494.775;  327.275;  968.300
1006.257;  486.625;  321.050;  889.800
1006.808;  473.075;  307.300;  801.500
1007.359;  517.550;  357.950;  716.400
1007.910;  445.475;  292.775;  639.100
1008.461;  488.950;  340.400;  561.600
1009.013;  408.400;  260.275;  500.400
1009.564;  520.725;  379.075;  476.100
1010.115;  403.600;  266.650;  431.600
1010.665;  414.050;  276.375;  409.300
1011.216;  446.600;  307.725;  399.700
1011.767;  463.350;  322.300;  388.100
1012.318;  483.400;  346.275;  381.400
1012.869;  449.975;  312.400;  375.400
1013.419;  409.475;  272.200;  357.600
1013.970;  446.625;  308.450;  358.300
1014.521;  413.600;  282.075;  344.100
1015.071;  444.375;  311.900;  322.800
1015.622;  421.600;  293.350;  320.600
1016.172;  405.750;  275.300;  301.700
1016.723;  408.800;  282.900;  289.800
1017.273;  404.525;  277.850;  287.600
1017.823;  432.400;  300.200;  278.700
1018.374;  414.375;  284.275;  274.400
1018.924;  470.300;  341.950;  283.200
1019.474;  465.100;  342.125;  278.500
1020.024;  431.225;  308.475;  274.700
1020.574;  472.000;  347.200;  272.700
1021.124;  442.825;  320.825;  278.400
1021.674;  373.225;  254.500;  269.200
1022.224;  460.575;  338.750;  267.800
1022.774;  435.375;  316.850;  258.100
1023.324;  488.250;  367.150;  260.000
1023.874;  557.175;  441.500;  260.700
1024.423;  408.675;  279.150;  252.700
1024.973;  400.300;  281.275;  234.700
1025.523;  403.750;  289.800;  226.500
1026.072;  399.300;  285.275;  225.500
1026.622;  436.950;  318.725;  210.100
1027.172;  461.725;  346.700;  213.000
1027.721;  391.600;  280.500;  207.700
1028.270;  433.325;  319.175;  205.400
1028.820;  415.900;  302.250;  201.000
1029.369;  402.050;  286.450;  201.000
1029.918;  421.625;  305.700;  198.400
1030.468;  369.550;  259.425;  199.200
1031.017;  418.650;  300.400;  192.600
1031.566;  398.075;  289.275;  197.400
1032.115;  447.475;  337.900;  188.300
1032.664;  392.675;  279.900;  193.700
1033.213;  467.300;  362.050;  191.900
1033.762;  413.125;  302.625;  184.500
1034.311;  439.300;  326.850;  194.300
1034.860;  445.525;  336.175;  192.300
1035.408;  459.500;  355.150;  182.600
1035.957;  460.925;  352.700;  173.900
1036.506;  351.775;  245.850;  185.200
1037.055;  532.525;  423.375;  182.500
1037.603;  430.700;  320.150;  167.600
1038.152;  352.050;  250.525;  168.200
1038.700;  377.225;  274.950;  169.600
1039.249;  432.100;  332.200;  164.300
1039.797;  406.925;  305.675;  169.600
1040.345;  446.700;  345.400;  167.100
1040.894;  402.500;  301.950;  164.400
1041.442;  408.925;  304.750;  158.300
1041.990;  360.825;  259.475;  160.000
1042.538;  348.475;  249.225;  156.800
1043.087;  369.075;  270.350;  146.600
1043.635;  429.125;  327.075;  162.400
1044.183;  381.750;  279.725;  156.300
1044.731;  370.100;  269.300;  158.100
1045.279;  428.600;  328.825;  154.500
1045.827;  561.925;  462.875;  146.200
1046.374;  341.550;  240.950;  154.000
1046.922;  384.650;  281.025;  149.000
1047.470;  435.850;  341.475;  154.900
1048.018;  409.300;  315.450;  148.400
1048.565;  449.725;  353.925;  146.300
1049.113;  354.650;  260.775;  156.100
1049.660;  397.300;  302.650;  154.300
1050.208;  431.200;  324.875;  149.400
1050.755;  387.875;  293.275;  157.500
1051.303;  430.175;  336.200;  157.700
1051.850;  405.400;  310.850;  152.800
1052.397;  308.150;  222.000;  146.300
1052.945;  392.275;  296.750;  149.500
1053.492;  466.025;  369.875;  149.300
1054.039;  454.500;  360.975;  163.100
1054.586;  352.250;  262.725;  150.400
1055.133;  443.275;  338.550;  153.500
1055.680;  411.475;  315.200;  155.600
1056.227;  344.550;  253.400;  148.700
1056.774;  497.250;  404.600;  151.500
1057.321;  337.950;  244.250;  143.700
1057.868;  407.100;  313.950;  145.300
1058.415;  407.325;  324.800;  153.500
1058.961;  420.675;  330.150;  149.900
1059.508;  400.800;  315.850;  147.300
1060.055;  370.425;  281.250;  151.000
1060.601;  391.350;  303.950;  148.700
1061.148;  391.875;  301.600;  153.800
1061.694;  376.275;  287.700;  150.500
1062.241;  377.450;  287.650;  149.100
1062.787;  418.150;  328.450;  153.000
1063.334;  497.050;  410.750;  153.200
1063.880;  419.925;  329.225;  148.400
1064.426;  438.850;  352.025;  149.200
1064.972;  376.425;  292.350;  156.400
1065.518;  357.900;  271.775;  144.700
1066.065;  394.075;  308.625;  139.400
1066.611;  377.700;  293.475;  139.300
1067.157;  404.925;  319.775;  138.400
1067.703;  417.700;  337.575;  142.700
1068.249;  381.875;  296.225;  136.700
1068.794;  395.050;  305.000;  139.400
1069.340;  361.750;  280.900;  142.700
1069.886;  377.725;  290.950;  135.600
1070.432;  336.650;  253.750;  133.400
1070.977;  374.050;  291.550;  138.200
1071.523;  358.275;  279.700;  132.400
1072.068;  362.125;  284.200;  132.700
1072.614;  332.100;  251.100;  127.000
1073.160;  431.850;  348.150;  131.300
1073.705;  359.725;  283.500;  135.700
1074.250;  350.525;  269.250;  133.000
1074.796;  406.350;  324.700;  138.000
1075.341;  413.650;  336.700;  137.300
1075.886;  373.300;  289.575;  134.300
1076.431;  399.125;  329.275;  138.200
1076.976;  398.250;  318.550;  132.200
1077.521;  365.650;  283.600;  138.900
1078.067;  360.300;  282.450;  128.600
1078.612;  410.950;  332.075;  138.900
1079.156;  379.350;  295.750;  128.900
1079.701;  428.150;  343.350;  129.700
1080.246;  427.700;  347.850;  128.600
1080.791;  393.650;  314.325;  122.600
1081.336;  410.825;  326.775;  122.000
1081.880;  399.625;  325.175;  123.900
1082.425;  356.275;  278.750;  120.600
1082.970;  439.525;  366.800;  124.500
1083.514;  373.425;  294.050;  112.000
1084.059;  361.850;  286.600;  120.700
1084.603;  350.625;  274.100;  116.000
1085.147;  397.900;  324.250;  116.300
1085.692;  444.825;  361.250;  108.200
1086.236;  317.950;  241.150;  114.600
1086.780;  459.225;  384.150;  118.900
1087.325;  402.300;  325.450;  120.400
1087.869;  380.150;  304.775;  110.500
1088.413;  432.100;  356.525;  114.000
1088.957;  331.775;  263.950;  114.300
1089.501;  467.675;  396.225;  114.600
1090.045;  439.650;  370.525;  114.200
1090.589;  354.175;  276.525;  105.500
1091.133;  414.525;  345.450;  111.800
1091.676;  368.125;  298.200;  110.900
1092.220;  373.725;  299.475;  110.100
1092.764;  435.075;  361.925;  108.100
1093.307;  406.600;  337.525;  109.900
1093.851;  345.700;  275.925;  107.500
1094.395;  417.300;  345.675;   96.200
1094.938;  386.875;  322.825;   99.300
1095.482;  345.925;  278.475;   97.700
1096.025;  432.550;  364.550;   84.900
1096.568;  480.275;  405.000;   88.500
1097.112;  316.100;  246.200;   95.700
1097.655;  365.650;  296.650;   97.300
1098.198;  363.200;  297.750;   92.600
1098.741;  372.700;  304.700;   91.800
1099.285;  398.500;  328.800;   88.000
1099.828;  277.525;  211.775;   91.700
1100.371;  376.750;  306.475;   89.900
1100.914;  415.850;  345.300;   91.500
1101.457;  415.400;  348.450;   88.100
1101.999;  350.775;  287.650;   86.400
1102.542;  388.875;  326.525;   90.800
1103.085;  402.575;  334.825;   95.400
1103.628;  461.300;  402.425;   97.700
1104.170;  357.925;  294.100;   84.000
1104.713;  395.825;  327.975;   93.900
1105.256;  340.750;  274.375;   93.000
1105.798;  308.250;  242.750;   85.600
1106.341;  437.200;  376.200;   87.100
1106.883;  319.350;  254.050;   85.200
1107.425;  408.600;  336.150;   85.000
1107.968;  380.275;  308.475;   84.300
1108.510;  416.825;  354.625;   88.200
1109.052;  376.200;  312.325;   86.600
1109.594;  339.375;  276.450;   79.400
1110.136;  392.450;  324.750;   81.700
1110.679;  387.025;  320.200;   75.500
1111.221;  366.125;  303.300;   88.500
1111.763;  339.750;  273.725;   87.700
1112.304;  332.175;  269.975;   89.700
1112.846;  403.925;  338.350;   81.900
1113.388;  566.600;  503.625;   86.400
1113.930;  416.500;  350.625;   84.700
1114.472;  370.850;  306.975;   78.900
1115.013;  334.400;  274.675;   78.100
1115.555;  359.150;  300.175;   84.900
1116.097;  346.025;  286.175;   79.200
1116.638;  415.325;  351.800;   83.700
1117.180;  400.825;  340.000;   85.500
1117.721;  350.400;  284.650;   78.800
1118.262;  409.800;  346.125;   77.400
1118.804;  387.975;  323.675;   81.400
1119.345;  353.475;  293.650;   77.800
1119.886;  427.500;  365.925;   81.200
1120.427;  357.450;  298.125;   77.200
1120.969;  363.225;  303.125;   75.200
1121.510;  341.525;  283.075;   80.900
1122.051;  438.700;  375.375;   77.300
1122.592;  391.700;  336.725;   73.300
1123.133;  329.525;  273.850;   90.100
1123.673;  424.375;  369.875;   75.000
1124.214;  365.575;  315.175;   80.600
1124.755;  390.425;  324.350;   78.000
1125.296;  375.325;  318.250;   77.500
1125.836;  412.650;  351.500;   80.400
1126.377;  361.300;  300.875;   75.600
1126.918;  368.625;  309.250;   78.900
1127.458;  374.375;  318.050;   78.000
1127.999;  392.700;  336.250;   76.100
1128.539;  416.300;  364.625;   81.400
1129.079;  381.050;  324.475;   77.400
1129.620;  338.950;  279.875;   68.000
1130.160;  324.700;  272.075;   77.500
1130.700;  388.775;  329.225;   76.300
1131.240;  384.000;  328.450;   66.800
1131.781;  371.225;  314.900;   70.600
1132.321;  360.900;  306.150;   77.200
1132.861;  337.725;  285.675;   70.400
1133.401;  356.400;  300.900;   68.700
1133.941;  378.625;  321.400;   68.500
1134.481;  356.650;  307.900;   75.900
1135.020;  362.125;  309.675;   66.600
1135.560;  404.550;  351.150;   68.100
1136.100;  301.500;  248.900;   64.900
1136.640;  308.575;  255.600;   72.500
1137.179;  320.925;  268.675;   69.700
1137.719;  361.900;  312.975;   68.400
1138.258;  351.200;  301.025;   67.000
1138.798;  398.075;  340.800;   69.600
1139.337;  295.150;  239.200;   64.000
1139.877;  389.325;  332.125;   64.500
1140.416;  519.000;  470.975;   74.900
1140.955;  316.250;  271.575;   67.200
1141.494;  400.875;  350.025;   69.900
1142.034;  346.325;  296.600;   59.100
1142.573;  389.100;  339.400;   65.900
1143.112;  333.175;  283.425;   70.600
1143.651;  322.550;  277.975;   67.100
1144.190;  411.200;  356.875;   56.700
1144.729;  359.000;  310.675;   61.800
1145.267;  346.500;  295.200;   62.500
1145.806;  380.250;  333.350;   68.500
1146.345;  379.250;  329.875;   58.300
1146.884;  373.200;  323.775;   63.100
1147.422;  316.850;  268.350;   54.800
1147.961;  420.975;  375.600;   67.600
1148.500;  399.525;  349.175;   64.700
1149.038;  378.850;  329.975;   61.000
1149.577;  414.575;  366.025;   65.100
1150.115;  268.950;  223.975;   58.100
1150.653;  360.125;  315.175;   60.500
1151.192;  328.925;  282.875;   56.600
1151.730;  387.150;  342.650;   62.300
1152.268;  346.500;  299.225;   55.500
1152.806;  342.675;  289.175;   58.200
1153.344;  343.125;  294.550;   55.000
1153.882;  352.550;  313.275;   64.200
1154.421;  283.275;  238.175;   60.300
1154.958;  354.925;  307.400;   58.100
1155.496;  377.100;  336.925;   55.800
1156.034;  422.325;  380.375;   61.000
1156.572;  392.950;  353.500;   56.200
1157.110;  281.475;  234.675;   53.200
1157.647;  404.175;  356.575;   57.400
1158.185;  338.425;  288.850;   55.500
1158.723;  303.725;  260.925;   58.000
1159.260;  411.825;  364.100;   53.700
1159.798;  385.750;  340.225;   51.700
1160.335;  373.000;  326.400;   59.600

