
Integration time [ms]:   3.276
Averaging Nr. [scans]: 1000
Smoothing Nr. [pixels]: 0
Data measured with spectrometer [name]: 7414430SP
Wave   ;Sample   ;Dark     ;Reference
[nm]   ;[counts] ;[counts] ;[counts] 

288.544;  150.817;    7.793;  793.890
289.143;  155.507;    7.462;  681.602
289.742;  154.390;    8.602;  828.814
290.341;  140.669;    1.321;  789.841
290.940;  128.919;   -0.709;  730.702
291.538;  130.968;    0.881;  881.108
292.137;  130.367;    0.122;  792.581
292.736;  135.500;   -1.929;  975.101
293.335;  131.992;   -8.229;  735.086
293.934;  132.966;   -5.279;  781.677
294.532;  129.972;   -1.369; 1031.958
295.131;  117.110;   -7.641;  834.394
295.730;  117.064;   -8.420;  809.588
296.328;  115.523;   -5.611;  783.442
296.927;  116.403;   -5.781;  779.652
297.525;  117.785;   -6.361;  781.236
298.124;  107.714;  -11.382;  654.009
298.722;  111.352;   -7.641;  761.933
299.321;  108.945;   -6.811;  708.597
299.919;  107.438;   -6.991;  751.918
300.518;  104.491;  -10.362;  689.338
301.116;  106.292;   -9.581;  691.381
301.715;  105.074;   -4.891;  730.222
302.313;  105.527;   -8.801;  704.943
302.911;  100.442;   -8.522;  733.830
303.509;  105.410;   -6.171;  925.627
304.108;  102.727;   -7.311;  760.383
304.706;  102.368;   -8.321;  801.664
305.304;   96.436;  -10.222;  796.707
305.902;  101.528;   -6.021;  784.484
306.500;   98.127;   -4.971;  728.200
307.098;   96.336;   -7.061;  746.560
307.696;   93.731;   -8.801;  780.432
308.294;   94.912;   -6.411;  731.359
308.892;   96.364;   -2.901;  759.769
309.490;   93.566;   -5.041;  712.161
310.088;   90.699;   -5.002;  788.444
310.686;   96.089;   -2.041;  821.749
311.284;   90.939;   -2.351;  766.040
311.882;   88.563;   -4.422;  731.225
312.480;   86.027;   -4.192;  697.167
313.078;   87.060;   -1.172;  808.331
313.675;   88.028;   -2.601;  691.600
314.273;   83.595;   -1.312;  797.837
314.871;   82.893;   -3.942;  589.829
315.468;   80.659;   -2.802;  652.090
316.066;   83.156;   -0.701;  694.427
316.664;   76.600;   -4.362;  656.351
317.261;   80.344;   -2.872;  910.128
317.859;   75.176;   -2.022;  768.735
318.456;   76.139;   -0.531;  830.096
319.054;   71.301;   -3.912;  787.828
319.651;   71.842;   -4.752;  759.928
320.249;   70.247;   -2.602;  810.188
320.846;   66.972;   -0.821;  714.286
321.443;   65.023;   -4.642;  832.135
322.041;   62.127;   -5.002;  812.315
322.638;   59.344;   -3.982;  701.456
323.235;   60.955;   -3.411;  665.683
323.833;   58.520;   -7.361;  740.354
324.430;   53.403;   -8.611;  615.900
325.027;   54.420;   -4.061;  876.855
325.624;   53.879;   -4.031;  644.532
326.221;   51.450;   -7.481;  689.717
326.818;   51.232;   -5.281;  818.332
327.415;   53.940;   -7.460;  748.828
328.012;   53.083;   -5.510;  690.585
328.609;   51.857;   -7.880;  731.389
329.206;   50.088;   -8.331;  778.621
329.803;   50.594;   -5.121;  737.841
330.400;   52.935;   -4.510;  704.260
330.997;   54.191;   -6.441;  817.147
331.594;   52.973;   -8.831;  788.185
332.191;   57.779;   -7.621;  728.722
332.787;   60.995;   -4.591;  844.463
333.384;   59.866;   -7.412;  763.093
333.981;   58.576;   -8.293;  815.687
334.578;   61.549;   -7.052;  708.378
335.174;   63.718;   -3.102;  731.469
335.771;   63.834;   -5.943;  836.456
336.367;   60.513;   -7.393;  710.631
336.964;   64.581;   -4.063;  793.266
337.561;   62.063;   -3.813;  731.112
338.157;   58.012;   -4.654;  911.916
338.754;   55.466;   -7.934;  796.589
339.350;   53.411;   -4.414;  722.493
339.946;   56.491;   -4.664;  773.135
340.543;   47.865;   -6.375;  846.136
341.139;   43.093;   -9.815;  720.836
341.735;   39.976;   -4.526;  772.593
342.332;   37.985;   -4.895;  691.472
342.928;   39.285;   -4.295;  795.394
343.524;   33.635;   -5.476;  761.684
344.120;   29.398;   -5.856;  738.562
344.716;   31.819;   -2.155;  723.717
345.313;   30.126;   -6.275;  795.342
345.909;   24.623;   -8.815;  627.336
346.505;   26.690;   -5.305;  740.247
347.101;   27.100;   -2.674;  827.864
347.697;   27.972;   -4.344;  785.398
348.293;   22.243;   -9.975;  627.244
348.889;   23.670;   -5.774;  745.914
349.485;   22.190;   -5.004;  688.205
350.081;   22.605;   -4.704;  772.592
350.676;   18.300;   -6.635;  691.606
351.272;   22.922;   -4.504;  809.530
351.868;   22.139;   -3.914;  780.497
352.464;   19.037;   -9.044;  723.932
353.059;   15.470;   -8.314;  646.017
353.655;   19.106;   -7.024;  777.063
354.251;   19.166;   -5.343;  759.845
354.846;   14.958;   -8.604;  740.646
355.442;   12.330;   -6.945;  753.071
356.038;   14.247;   -7.564;  751.708
356.633;   13.868;   -5.814;  728.594
357.229;   11.892;   -7.364;  724.757
357.824;   10.817;   -8.024;  703.600
358.420;    9.958;   -9.384;  679.726
359.015;    9.500;   -5.104;  695.357
359.610;   11.909;   -6.854;  763.920
360.206;    4.826;  -10.185;  603.240
360.801;    7.985;   -7.054;  646.503
361.396;   10.376;   -5.034;  725.975
361.992;    5.365;   -8.284;  668.220
362.587;    2.881;   -8.625;  670.160
363.182;    5.125;   -7.674;  689.631
363.777;    5.655;   -5.164;  738.242
364.372;    5.570;   -8.604;  737.314
364.967;    1.256;   -9.055;  680.744
365.563;    5.362;   -6.114;  815.567
366.158;    2.645;   -5.814;  685.161
366.753;    3.021;   -7.854;  649.263
367.348;    1.682;   -7.804;  746.056
367.942;    0.655;   -7.954;  697.298
368.537;    0.385;   -4.984;  754.245
369.132;    1.182;   -8.564;  703.428
369.727;   -2.231;   -8.855;  638.079
370.322;   -2.376;   -6.245;  580.186
370.917;   -2.252;   -6.425;  710.646
371.511;    0.738;   -6.294;  861.834
372.106;   -2.814;   -7.685;  776.964
372.701;   -6.616;   -7.335;  585.988
373.296;   -1.244;   -4.564;  863.135
373.890;   -5.611;  -10.235;  647.840
374.485;   -6.760;   -7.885;  691.199
375.079;   -3.956;   -7.324;  738.685
375.674;   -3.416;   -3.494;  812.970
376.268;   -6.766;   -8.525;  691.759
376.863;  -12.343;  -10.086;  580.327
377.457;   -6.237;   -7.025;  662.490
378.052;   -8.566;   -3.585;  764.884
378.646;   -8.537;   -7.595;  741.167
379.240;   -9.266;   -8.335;  721.176
379.835;   -7.727;   -5.785;  636.978
380.429;  -10.212;   -4.335;  562.557
381.023;  -10.648;   -6.805;  779.205
381.617;  -12.520;   -9.195;  680.106
382.212;   -9.561;   -6.905;  685.303
382.806;   -9.438;   -3.745;  760.690
383.400;  -13.296;   -7.745;  672.281
383.994;  -13.274;   -9.765;  664.870
384.588;   -9.860;   -6.564;  697.701
385.182;   -8.680;   -5.344;  726.624
385.776;   -9.733;   -8.514;  706.875
386.370;  -13.170;   -9.555;  681.968
386.964;  -12.570;   -8.715;  684.155
387.558;   -9.941;   -6.174;  598.360
388.152;  -14.039;   -8.725;  681.959
388.745;  -12.318;   -7.965;  814.707
389.339;  -10.848;   -5.924;  747.642
389.933;   -9.504;   -5.524;  695.370
390.527;  -10.371;   -7.114;  859.029
391.120;  -16.524;  -10.725;  595.318
391.714;  -14.109;   -8.035;  711.633
392.308;  -11.068;   -3.574;  780.253
392.901;  -14.404;   -7.245;  642.460
393.495;  -16.535;   -9.285;  595.414
394.089;  -14.425;   -5.895;  760.452
394.682;  -14.842;   -4.295;  697.188
395.275;  -15.260;   -9.875;  719.927
395.869;  -16.198;   -8.485;  667.314
396.462;  -15.002;   -7.455;  616.609
397.056;  -11.017;   -5.424;  776.621
397.649;  -16.006;   -6.605;  731.575
398.242;  -12.851;   -8.224;  712.645
398.836;  -12.215;   -7.474;  766.408
399.429;  -14.022;   -7.094;  631.041
400.022;  -16.909;   -9.475;  665.902
400.615;  -13.948;   -7.145;  805.609
401.208;  -12.976;   -7.174;  691.451
401.802;  -15.238;   -5.515;  699.329
402.395;  -15.904;   -9.875;  683.502
402.988;  -16.742;   -8.845;  696.627
403.581;  -13.334;   -8.874;  646.878
404.174;  -11.832;   -5.324;  686.568
404.767;  -14.431;   -9.575;  638.583
405.360;  -16.683;  -10.965;  621.445
405.953;  -11.837;   -8.764;  759.034
406.545;  -11.675;   -7.514;  725.342
407.138;  -15.084;  -10.025;  618.350
407.731;  -14.106;  -10.034;  613.303
408.324;   -9.593;   -9.374;  660.554
408.917;  -11.372;   -6.534;  681.864
409.509;  -12.592;   -8.004;  740.396
410.102;  -15.397;   -9.875;  643.948
410.695;   -9.095;   -8.604;  665.758
411.287;   -9.947;   -6.794;  599.821
411.880;  -10.585;   -9.334;  585.421
412.472;  -14.001;  -10.254;  613.092
413.065;  -11.572;   -6.714;  629.408
413.657;   -9.495;   -7.234;  576.678
414.250;   -8.695;  -10.544;  646.681
414.842;  -10.750;   -9.744;  676.353
415.434;   -8.259;   -6.994;  570.463
416.027;   -4.956;   -5.893;  652.196
416.619;   -7.018;   -7.264;  713.400
417.211;   -6.875;  -10.374;  599.352
417.804;   -3.024;   -7.993;  628.499
418.396;   -7.836;   -7.234;  607.643
418.988;   -5.523;   -9.443;  659.238
419.580;   -8.793;  -10.724;  568.276
420.172;   -6.298;  -10.323;  536.196
420.764;   -2.243;   -8.793;  672.482
421.356;   -3.019;  -11.143;  636.898
421.948;   -4.266;   -8.293;  677.661
422.540;    1.416;   -7.893;  680.027
423.132;   -0.059;   -7.082;  600.641
423.724;   -2.392;   -8.653;  561.267
424.316;   -1.479;  -10.213;  621.345
424.908;    2.451;   -9.762;  591.517
425.500;    3.218;   -5.572;  647.978
426.092;    2.333;   -8.422;  648.268
426.683;    1.509;   -9.283;  684.836
427.275;    4.916;   -7.852;  641.471
427.867;    6.279;   -5.272;  668.948
428.458;    7.185;   -7.682;  732.344
429.050;    5.882;  -10.612;  680.749
429.642;    7.534;   -9.882;  743.124
430.233;    7.586;   -6.962;  569.356
430.825;    9.481;   -6.842;  724.809
431.416;    6.841;   -9.672;  698.241
432.008;   10.716;   -6.552;  651.723
432.599;   11.398;   -6.891;  656.073
433.190;    7.466;  -10.912;  637.670
433.782;    7.730;  -11.172;  590.395
434.373;   14.393;   -6.061;  884.765
434.964;   13.055;   -8.251;  602.920
435.556;   11.226;   -9.722;  634.537
436.147;   14.061;   -9.082;  758.490
436.738;   14.782;   -8.041;  701.099
437.329;   19.396;   -7.341;  721.723
437.920;   11.838;   -8.162;  666.688
438.511;   12.420;  -11.802;  564.526
439.103;   18.904;  -10.191;  623.998
439.694;   19.994;   -7.601;  681.583
440.285;   21.040;   -8.541;  764.432
440.876;   19.478;   -9.751;  845.738
441.466;   19.491;   -9.401;  575.162
442.057;   24.329;   -7.760;  665.814
442.648;   22.658;   -9.971;  746.255
443.239;   21.475;  -11.001;  620.477
443.830;   26.061;   -7.990;  704.958
444.421;   27.803;   -7.910;  655.474
445.011;   24.033;   -8.131;  693.619
445.602;   24.309;   -7.111;  743.126
446.193;   26.499;  -10.920;  488.117
446.783;   30.464;   -6.500;  640.397
447.374;   26.756;   -8.671;  692.759
447.964;   26.463;  -10.781;  713.770
448.555;   35.153;   -9.650;  822.742
449.145;   31.378;   -8.660;  662.853
449.736;   32.189;   -8.990;  803.179
450.326;   32.453;   -9.500;  713.626
450.917;   37.063;   -8.680;  675.324
451.507;   36.090;   -7.520;  600.661
452.097;   37.296;   -8.590;  746.267
452.688;   37.923;  -11.340;  742.160
453.278;   37.282;  -10.100;  566.840
453.868;   41.663;   -6.019;  793.550
454.458;   39.982;   -9.440;  651.141
455.048;   40.552;  -10.560;  711.783
455.639;   42.642;  -11.799;  567.096
456.229;   45.002;   -6.899;  710.694
456.819;   46.705;   -7.389;  751.158
457.409;   47.522;  -11.119;  773.993
457.999;   50.229;   -9.289;  737.505
458.589;   50.360;   -6.139;  686.606
459.179;   50.070;   -8.729;  717.658
459.769;   48.470;   -9.789;  627.099
460.358;   52.728;  -10.259;  797.262
460.948;   52.649;   -7.299;  689.503
461.538;   54.731;  -10.289;  660.677
462.128;   53.209;  -11.269;  664.934
462.717;   59.278;   -9.368;  710.326
463.307;   62.183;   -7.908;  705.846
463.897;   57.791;   -9.599;  656.942
464.486;   58.017;   -9.769;  837.128
465.076;   61.759;   -8.048;  733.776
465.666;   65.566;   -9.358;  652.900
466.255;   62.834;   -7.919;  785.651
466.845;   61.602;  -11.689;  666.749
467.434;   65.028;   -7.818;  725.873
468.023;   66.586;   -7.678;  658.357
468.613;   63.462;  -10.939;  713.946
469.202;   67.643;  -10.118;  646.507
469.791;   72.417;   -9.108;  737.811
470.381;   74.310;   -6.058;  742.813
470.970;   73.977;  -10.428;  711.099
471.559;   73.893;  -10.268;  733.291
472.148;   76.302;   -8.448;  675.737
472.738;   78.920;   -6.917;  765.466
473.327;   78.134;  -11.978;  637.529
473.916;   78.611;  -11.888;  737.446
474.505;   82.603;   -9.437;  751.703
475.094;   85.466;   -6.747;  806.570
475.683;   84.977;   -9.367;  797.699
476.272;   86.178;  -12.637;  730.632
476.861;   88.097;  -10.027;  706.754
477.449;   94.910;   -8.716;  728.487
478.038;   89.955;   -9.577;  692.513
478.627;   90.787;   -9.718;  714.852
479.216;   96.686;   -8.947;  769.441
479.805;  100.091;   -6.256;  783.375
480.393;   99.089;   -7.937; 1008.945
480.982;   98.737;   -7.717;  874.501
481.571;  105.131;   -9.266;  858.333
482.159;  105.497;   -7.636;  705.386
482.748;  105.209;   -9.667;  821.385
483.336;  110.240;  -10.376;  858.209
483.925;  110.952;   -7.147;  774.373
484.513;  117.555;   -7.996;  758.962
485.102;  113.985;  -10.027;  810.965
485.690;  122.401;  -10.446; 1011.050
486.278;  125.021;   -8.446;  979.329
486.867;  124.791;   -6.356;  809.662
487.455;  127.240;   -9.136;  898.229
488.043;  128.094;  -10.646;  748.361
488.631;  136.656;   -7.456; 1005.079
489.220;  140.427;   -6.636;  908.626
489.808;  139.991;  -11.036;  741.415
490.396;  147.992;  -10.246;  914.645
490.984;  154.363;   -8.556;  830.161
491.572;  164.475;   -5.886;  940.315
492.160;  171.021;   -9.486;  919.081
492.748;  183.100;  -10.976;  884.341
493.336;  205.358;   -8.776; 1019.693
493.924;  231.480;   -5.465;  958.077
494.512;  259.908;   -9.986; 1066.638
495.100;  298.194;  -10.636; 1103.280
495.687;  351.157;  -10.885; 1206.373
496.275;  411.202;   -8.126; 1150.796
496.863;  477.539;  -10.586; 1281.171
497.451;  575.270;  -11.926; 1386.805
498.038;  709.803;  -10.885; 1556.729
498.626;  811.708;   -6.315; 1741.407
499.214;  944.293;   -7.326; 2016.609
499.801; 1137.825;  -11.906; 2220.633
500.389; 1375.699;  -10.466; 2312.494
500.976; 1692.515;   -5.236; 2744.849
501.564; 2089.605;   -8.936; 3148.565
502.151; 2455.039;  -13.176; 3515.999
502.738; 2914.432;  -10.646; 3971.274
503.326; 3285.523;   -9.525; 4403.796
503.913; 3640.023;  -10.856; 5161.749
504.500; 3939.183;  -11.586; 5986.420
505.088; 4349.162;  -10.336; 6381.201
505.675; 4854.700;   -6.355; 6925.547
506.262; 5496.626;   -9.046; 7619.060
506.849; 6193.167;  -10.416; 8733.969
507.436; 6647.966;  -10.305; 9790.121
508.023; 7187.739;   -5.496; 9985.472
508.610; 7441.674;   -7.856;10434.618
509.197; 8055.267;  -10.097;11198.435
509.784; 9392.023;  -10.886;12391.194
510.371;10331.393;   -9.315;13603.713
510.958;11016.957;   -9.936;14426.586
511.545;11806.407;   -9.326;15243.775
512.132;12757.179;  -10.075;15945.876
512.719;13399.863;   -7.796;16340.369
513.305;14232.917;  -10.606;18011.766
513.892;14985.771;  -11.486;19754.971
514.479;16360.029;   -9.126;20967.805
515.066;17691.904;   -6.026;22299.793
515.652;18692.045;   -8.466;22908.660
516.239;19905.838;  -10.886;23798.875
516.825;21019.971;  -11.496;25567.275
517.412;22146.715;   -5.796;28154.959
517.998;22972.633;  -10.506;28344.111
518.585;22938.797;  -10.076;27134.219
519.171;23213.734;   -8.315;27268.576
519.758;24330.311;   -8.596;28964.129
520.344;25988.732;   -8.466;30664.494
520.930;26398.523;  -11.006;32550.605
521.516;28184.006;  -10.495;35422.895
522.103;30832.352;   -5.526;38280.004
522.689;31849.146;   -8.746;37835.117
523.275;31380.516;  -11.376;37288.613
523.861;31726.232;  -11.156;37281.395
524.447;32741.145;   -8.135;37846.949
525.033;32195.082;   -7.896;38321.949
525.619;32582.494;  -12.476;38579.285
526.205;34546.410;   -9.516;40622.875
526.791;37252.516;   -6.926;42258.836
527.377;37089.223;   -8.346;42966.902
527.963;38966.184;   -8.717;42018.949
528.549;37700.438;  -11.016;42476.828
529.135;36258.133;   -8.536;41854.852
529.721;35917.242;   -9.666;41237.711
530.306;35511.762;  -10.066;41259.445
530.892;35604.746;  -11.356;41506.047
531.478;36891.289;   -6.596;43559.613
532.063;39127.328;   -8.836;47695.563
532.649;39162.621;  -10.047;50808.324
533.235;40581.949;   -9.746;51787.500
533.820;42202.305;   -6.566;52145.035
534.406;43179.508;  -10.817;51133.488
534.991;42789.852;   -9.416;49996.805
535.576;41567.629;   -9.036;48882.852
536.162;41833.266;   -6.156;46942.285
536.747;42972.805;  -11.607;45711.746
537.333;46478.184;  -11.787;48510.180
537.918;49332.664;  -12.437;50439.891
538.503;47946.582;   -7.196;50863.711
539.088;45269.996;  -10.556;50906.922
539.673;45555.355;   -8.767;52621.965
540.259;45084.008;  -10.026;52368.094
540.844;42112.719;   -7.416;50879.109
541.429;42491.102;   -9.467;52077.777
542.014;46006.590;   -9.527;52716.695
542.599;46258.449;   -9.946;52363.281
543.184;43612.203;   -7.927;53187.137
543.769;44698.461;   -9.297;54697.605
544.354;44221.531;  -10.127;53913.914
544.938;43507.063;   -9.267;49680.164
545.523;45458.309;   -6.506;47386.277
546.108;47079.922;   -9.787;49151.949
546.693;49333.410;  -11.587;51384.637
547.278;49584.586;  -10.986;51853.254
547.862;46350.066;   -8.206;51173.750
548.447;41945.316;  -10.067;51691.395
549.031;41328.527;   -9.637;52456.703
549.616;45678.426;   -9.926;52714.516
550.201;44473.355;   -6.347;52414.598
550.785;45122.836;   -7.917;52355.059
551.370;44945.715;  -10.867;54589.453
551.954;45659.414;   -9.047;58267.348
552.538;47114.949;   -7.827;59062.176
553.123;45696.879;  -10.287;58115.285
553.707;43390.922;  -12.178;56556.285
554.291;43680.242;   -8.717;56201.668
554.876;45077.453;   -7.457;55335.762
555.460;45983.535;  -10.387;54155.703
556.044;47938.586;   -9.618;53721.484
556.628;45873.406;  -11.567;53731.016
557.212;44312.676;   -8.097;54312.531
557.796;42626.063;  -11.077;53797.773
558.380;42566.535;  -11.108;56145.984
558.964;43395.363;   -9.057;57277.930
559.548;44277.008;   -6.977;56459.641
560.132;42537.098;  -11.457;54434.543
560.716;41647.816;  -11.378;54800.617
561.300;42516.145;   -9.577;57606.945
561.884;43513.703;   -7.127;58972.445
562.467;42699.016;   -7.118;57327.570
563.051;41947.738;  -13.358;54962.434
563.635;42173.395;  -10.178;52594.473
564.219;42697.695;   -7.837;50610.410
564.802;43467.309;  -11.398;49551.180
565.386;43841.793;  -12.788;48370.953
565.969;43668.527;   -9.077;48178.871
566.553;42917.691;   -6.207;49957.305
567.136;42611.305;   -8.568;50369.594
567.720;38674.559;  -11.868;49492.004
568.303;37132.922;   -8.268;50616.352
568.887;37373.539;   -8.698;50727.148
569.470;37550.102;   -6.808;51698.379
570.053;36461.375;  -13.188;52122.078
570.637;35086.117;  -12.037;52536.438
571.220;34519.176;   -8.577;51186.098
571.803;34456.180;   -8.498;51032.762
572.386;36491.660;  -10.498;49609.887
572.969;38989.879;   -9.388;48285.926
573.552;37435.445;   -8.338;47624.285
574.135;36444.051;   -8.518;45498.641
574.718;33649.547;  -13.628;41970.434
575.301;31718.141;  -10.893;41447.137
575.884;29786.734;   -8.158;40923.836
576.467;30281.322;  -10.328;45267.723
577.050;32856.203;  -13.058;48175.543
577.633;35495.324;   -9.458;47729.328
578.216;35228.602;   -8.928;47579.793
578.799;34648.047;   -9.358;47820.996
579.381;33312.582;  -11.388;48115.551
579.964;32037.420;  -11.718;47333.766
580.547;33476.535;   -8.588;46668.969
581.129;34214.551;   -8.859;44466.141
581.712;34416.547;  -10.729;44164.922
582.294;35188.238;  -11.118;46477.855
582.877;35452.469;   -5.218;48244.254
583.459;33273.934;   -8.679;47437.895
584.042;31677.766;  -10.709;46943.219
584.624;32385.193;  -11.669;46792.227
585.206;31769.613;   -8.218;46557.250
585.789;32012.119;  -10.569;45793.773
586.371;34767.586;  -11.859;43836.391
586.953;35196.141;  -10.719;42972.492
587.536;35956.496;   -7.198;42487.211
588.118;35274.914;   -8.720;42086.414
588.700;31900.387;  -10.439;43389.930
589.282;30739.617;   -9.198;43646.039
589.864;30655.078;   -9.199;43438.109
590.446;30202.375;  -11.319;43151.926
591.028;28311.492;  -11.159;42781.867
591.610;27281.873;  -11.779;42839.098
592.192;26960.352;   -7.668;42820.402
592.774;27684.850;  -11.949;40724.277
593.356;27711.996;  -12.129;39874.789
593.937;27608.420;  -10.669;39980.648
594.519;29872.318;   -6.509;42069.633
595.101;32202.879;  -10.849;42976.031
595.683;32303.688;  -11.679;44084.441
596.264;33281.352;   -9.049;43478.797
596.846;31959.969;   -8.849;43803.672
597.427;31161.350;   -9.570;42986.934
598.009;32949.246;  -12.620;42832.219
598.591;33283.348;  -10.039;42580.086
599.172;32240.414;  -10.369;43061.805
599.753;32215.273;   -9.140;41691.469
600.335;33913.246;  -11.430;40692.520
600.916;32785.250;   -9.939;39982.422
601.498;30455.857;   -8.479;40318.617
602.079;29169.406;  -10.920;40670.609
602.660;29202.008;  -11.480;41450.898
603.241;30235.645;  -11.699;41137.738
603.823;29058.145;   -9.579;38868.797
604.404;29218.539;  -10.620;38182.785
604.985;30406.766;  -10.450;38078.047
605.566;29532.865;   -9.129;38056.633
606.147;29508.139;   -7.510;37020.418
606.728;31829.951;  -10.660;37883.359
607.309;30959.352;  -11.740;38748.273
607.890;30095.256;   -9.759;38850.230
608.471;29746.248;   -8.250;37457.918
609.051;28975.072;   -9.240;36066.457
609.632;28013.730;  -12.120;35991.074
610.213;28974.883;   -9.110;37402.641
610.794;29422.465;   -8.030;38383.363
611.374;28606.066;   -8.110;40562.387
611.955;28975.236;  -13.560;38533.727
612.536;30480.570;  -11.400;36951.789
613.116;30363.893;   -8.070;37197.891
613.697;30578.410;  -10.830;38411.125
614.277;29119.781;  -11.641;38673.938
614.858;29975.264;  -13.310;37075.863
615.438;29471.121;   -7.460;35092.906
616.019;26612.135;   -7.601;33666.301
616.599;27280.408;  -12.020;34189.023
617.179;29203.330;  -11.780;36952.047
617.760;29760.551;   -8.570;39582.574
618.340;30849.430;  -11.471;38943.977
618.920;32452.346;  -11.170;37594.156
619.500;32215.736;  -11.071;37866.938
620.080;31519.607;   -7.750;37869.043
620.660;32584.820;  -12.711;36868.617
621.241;33592.727;  -10.211;36352.309
621.821;33544.762;  -10.961;35459.520
622.401;32943.816;   -7.720;35207.414
622.980;31938.242;   -8.981;35980.422
623.560;30508.385;   -9.331;37351.328
624.140;29973.939;   -9.850;34388.582
624.720;25046.260;   -7.451;32368.764
625.300;21372.596;   -9.070;32638.629
625.880;24683.531;  -12.601;34599.035
626.459;28576.184;  -11.751;36831.738
627.039;31614.365;   -9.281;38299.098
627.619;31639.832;   -8.801;38289.574
628.198;29818.801;  -12.071;37220.695
628.778;28874.621;   -9.461;37632.563
629.357;29746.865;   -8.491;38003.012
629.937;29926.713;   -9.721;38402.039
630.516;29214.416;   -9.951;37868.801
631.096;28924.949;  -11.731;35760.410
631.675;32247.949;   -8.572;35225.219
632.254;37352.789;  -11.282;35130.289
632.834;36641.375;  -13.322;35794.570
633.413;34689.457;  -10.301;35788.922
633.992;31559.477;   -8.582;34532.863
634.571;32639.000;   -8.352;33590.113
635.151;35159.863;  -11.912;34943.863
635.730;33728.012;  -10.511;35352.523
636.309;30553.795;   -7.731;35366.605
636.888;28204.008;   -9.952;36165.637
637.467;29055.582;  -11.672;37515.902
638.046;31031.102;   -8.901;39288.695
638.625;34325.637;   -7.912;38279.699
639.204;33837.570;  -10.022;37741.598
639.782;31735.826;  -12.252;38364.551
640.361;27897.762;  -10.041;36740.621
640.940;25036.705;  -11.161;34950.082
641.519;25345.309;   -9.701;34137.398
642.097;28142.643;  -11.271;35654.258
642.676;31139.438;   -8.651;35637.957
643.255;32057.535;   -8.711;36567.074
643.833;31146.287;   -9.581;37809.434
644.412;31730.273;  -13.711;37337.293
644.990;31188.682;  -11.811;37018.531
645.569;31234.551;   -9.411;36518.469
646.147;29963.674;  -10.291;36186.430
646.726;28738.275;  -12.401;36267.688
647.304;29647.621;  -10.411;36647.625
647.882;31915.201;   -9.651;39286.742
648.461;33770.516;   -9.631;39157.703
649.039;32200.840;  -11.881;35412.883
649.617;31502.662;   -9.661;34744.918
650.195;31216.945;   -9.301;35403.098
650.773;30045.850;  -10.511;35053.797
651.352;27710.617;  -11.521;33756.816
651.930;25461.740;  -12.211;31868.773
652.508;23736.453;   -9.171;33121.551
653.086;27558.289;   -9.371;33564.793
653.663;30394.697;  -13.161;34054.668
654.241;29447.018;  -13.031;35693.309
654.819;31035.668;   -9.371;36422.906
655.397;30838.857;  -10.511;38213.484
655.975;30854.740;  -10.371;39507.625
656.553;30813.330;  -10.051;39498.223
657.130;29070.053;  -10.061;40395.480
657.708;28601.875;   -9.561;39242.020
658.286;28555.992;  -11.511;38920.020
658.863;29560.844;  -10.261;40202.898
659.441;32229.313;   -7.531;39677.938
660.018;31333.131;   -9.501;40413.355
660.596;30403.229;  -13.301;39931.414
661.173;32458.289;  -11.211;39604.531
661.750;32731.600;   -9.951;39700.070
662.328;31951.939;   -9.390;39292.809
662.905;30987.869;  -11.330;38235.648
663.482;26258.244;   -9.050;36212.305
664.060;24328.566;   -8.240;35944.945
664.637;27132.027;  -10.050;35170.785
665.214;29140.209;  -11.760;34197.523
665.791;30803.400;  -10.530;34549.520
666.368;29302.523;   -9.690;35118.578
666.945;30162.662;   -9.320;36019.418
667.522;31813.752;  -11.860;36048.438
668.099;32119.721;  -10.770;36243.914
668.676;31513.229;   -6.260;35958.875
669.253;29734.623;   -7.000;37384.730
669.830;30085.832;  -10.190;36779.629
670.407;29778.371;   -9.550;35231.289
670.984;30183.189;   -9.260;35544.270
671.560;30242.197;   -9.280;35466.867
672.137;28634.170;  -11.810;34280.863
672.714;29421.432;  -11.490;34632.863
673.290;29730.623;   -7.740;35135.422
673.867;29976.527;  -10.660;36114.480
674.443;30195.385;  -12.230;36152.859
675.020;28767.943;  -10.450;35327.238
675.596;29837.711;   -9.260;35795.176
676.173;30279.973;  -10.780;35430.355
676.749;29995.588;  -13.690;33549.516
677.326;30227.996;  -11.980;32210.012
677.902;30267.289;   -8.630;32068.871
678.478;29456.115;  -10.730;32583.891
679.054;29422.957;  -10.520;32088.928
679.631;30175.758;  -11.920;30978.848
680.207;31044.553;   -7.490;33160.887
680.783;32351.973;   -9.860;35570.363
681.359;31564.898;  -13.380;36125.184
681.935;30646.686;  -12.480;35240.922
682.511;29298.783;   -7.900;34429.961
683.087;29268.730;   -7.710;34463.680
683.663;29339.031;  -11.480;34648.898
684.239;28522.141;  -14.090;34546.457
684.815;28253.906;   -7.560;35586.375
685.390;28613.510;   -9.910;35821.895
685.966;28987.590;  -11.159;35085.871
686.542;31770.402;  -11.169;34198.230
687.118;33742.395;   -5.959;32847.707
687.693;33750.203;  -10.329;32794.027
688.269;32999.539;  -12.059;33072.367
688.844;30695.879;  -10.909;33141.664
689.420;28519.139;   -8.019;33965.742
689.995;26297.164;   -8.399;34655.523
690.571;25278.539;  -10.949;33576.742
691.146;26047.160;   -9.619;32657.219
691.722;25342.854;   -8.999;32526.979
692.297;25441.965;  -11.589;33014.617
692.872;27481.955;  -11.739;34012.254
693.448;26770.268;  -11.059;34237.434
694.023;26040.816;  -10.139;34142.672
694.598;28326.176;   -9.029;34132.031
695.173;28454.363;  -13.319;34205.250
695.748;27946.064;  -10.169;32882.488
696.323;27674.096;   -8.339;32864.906
696.898;27667.832;   -8.169;33170.004
697.473;27301.434;  -12.309;32432.984
698.048;27031.104;  -10.989;31649.303
698.623;27631.418;   -9.329;30778.141
699.198;29713.539;   -9.849;31140.119
699.773;30401.514;  -12.329;31764.299
700.348;28861.316;  -10.389;31780.816
700.922;28905.051;   -9.269;32046.375
701.497;29172.387;   -9.329;32603.574
702.072;29081.020;  -10.789;34799.871
702.646;28211.373;  -10.839;35793.172
703.221;26458.941;   -9.099;35201.590
703.795;28535.939;  -10.939;34764.527
704.370;28871.217;  -12.859;34307.367
704.944;29167.602;  -11.559;33509.887
705.519;30461.168;   -7.939;31388.584
706.093;31809.264;  -10.499;31340.104
706.668;31775.266;  -11.289;32630.281
707.242;30401.514;  -11.509;32728.779
707.816;28804.514;   -9.639;32947.238
708.390;27382.262;  -11.429;33277.855
708.965;28562.910;  -11.869;33834.336
709.539;29419.225;  -11.689;33709.273
710.113;29941.230;  -10.478;33044.313
710.687;28935.123;  -10.228;31953.992
711.261;26607.982;  -13.698;30505.949
711.835;26384.691;  -13.378;30262.369
712.409;27447.594;   -9.698;31254.447
712.983;28920.180;  -11.898;32754.986
713.557;29673.242;  -15.138;34018.824
714.131;29519.104;  -14.098;34579.625
714.704;28864.262;   -9.958;33890.262
715.278;26575.768;  -10.028;33531.102
715.852;26029.826;  -11.148;33601.660
716.425;26951.551;   -9.068;33515.117
716.999;27331.109;  -10.038;33185.555
717.573;28339.713;   -9.798;33905.996
718.146;29595.246;  -12.378;35199.293
718.720;28868.801;  -11.918;35060.551
719.293;28096.473;   -8.088;34973.230
719.867;30993.811;  -10.888;36394.449
720.440;30833.713;  -11.938;36663.008
721.013;29365.342;  -12.818;35102.426
721.587;28159.438;  -10.298;33985.266
722.160;26824.109;  -10.048;33524.965
722.733;25912.250;  -12.108;32987.043
723.306;26700.947;  -10.818;33066.301
723.880;28813.432;   -8.908;33399.500
724.453;30144.982;   -9.878;33468.297
725.026;28850.143;  -11.188;33816.637
725.599;26495.857;  -11.678;32797.996
726.172;27369.221;   -9.618;33187.434
726.745;28894.395;   -8.258;35136.613
727.318;30588.563;  -12.978;35751.730
727.891;30920.791;  -12.148;35890.430
728.463;30586.326;   -8.968;34822.090
729.036;29549.658;  -10.188;32895.086
729.609;29636.268;  -11.788;31823.225
730.182;26235.607;  -11.788;31445.283
730.754;23808.793;  -10.268;32373.223
731.327;23929.178;   -9.998;33676.820
731.900;24165.150;  -12.228;33417.000
732.472;25629.443;  -13.848;31978.498
733.045;27651.602;   -8.698;30368.777
733.617;27628.434;  -10.607;30574.215
734.190;26894.504;  -11.507;31280.975
734.762;23858.445;  -13.647;31674.412
735.334;22517.084;   -9.767;31247.291
735.907;23139.848;   -9.897;29876.211
736.479;22766.199;  -11.637;29808.488
737.051;22320.785;   -9.567;30233.547
737.623;23776.600;   -8.187;31469.086
738.195;25167.084;  -11.187;31784.225
738.768;27136.535;  -12.337;32120.523
739.340;26578.793;  -12.227;32094.342
739.912;24963.371;  -11.057;31312.680
740.484;23956.904;  -10.207;31946.238
741.056;23159.492;  -10.047;32984.059
741.628;24948.654;  -13.627;33897.715
742.199;27341.283;   -7.177;33213.016
742.771;25662.080;  -10.797;31369.113
743.343;23166.416;  -11.997;31865.473
743.915;22065.439;  -12.867;32388.631
744.487;22313.268;   -7.617;31079.568
745.058;22516.861;   -9.557;30570.107
745.630;23247.561;   -9.877;29970.127
746.201;24001.160;  -14.177;29186.766
746.773;23966.313;   -9.237;28805.723
747.344;23785.199;   -9.847;29591.223
747.916;22572.982;  -11.657;31412.201
748.487;22738.295;  -10.587;32194.898
749.059;24080.908;   -8.707;32533.719
749.630;25200.623;  -10.537;32158.518
750.201;24440.631;  -11.687;30855.395
750.773;22675.797;  -11.647;28622.555
751.344;22702.436;   -7.147;28405.732
751.915;23626.807;   -9.757;28461.551
752.486;22593.045;  -12.427;27842.850
753.057;20245.049;  -12.227;27845.008
753.628;19222.658;  -10.417;27728.107
754.199;20548.904;  -11.767;27381.086
754.770;21713.209;  -11.187;25882.203
755.341;21681.811;  -10.507;25886.184
755.912;21742.414;   -9.387;26050.861
756.483;20936.225;  -10.647;26798.779
757.054;18995.965;  -11.837;27048.238
757.625;17884.055;  -12.716;26294.838
758.195;17879.100;   -9.666;26142.076
758.766;17557.123;   -8.656;26392.234
759.337;18434.186;  -12.856;26334.594
759.907;20457.750;  -13.366;27579.652
760.478;21262.115;   -8.576;28352.770
761.048;20532.744;  -10.526;27325.088
761.619;19735.299;  -11.116;26460.428
762.189;19726.707;  -12.136;26029.826
762.760;20959.023;   -9.456;26430.145
763.330;21981.920;   -7.136;26670.902
763.900;21148.205;  -11.786;26603.021
764.471;18304.803;  -11.546;25542.740
765.041;17083.193;   -8.096;24358.459
765.611;17336.518;   -8.876;23991.297
766.181;17835.447;  -12.196;24470.236
766.751;18685.957;  -11.636;24845.975
767.321;18544.979;  -10.156;24533.633
767.891;16463.412;  -11.766;24916.492
768.461;15823.902;  -14.936;24776.771
769.031;16285.288;  -12.356;24757.988
769.601;17874.395;   -7.526;24181.088
770.171;17773.662;  -10.766;23670.387
770.741;17044.125;  -13.176;22960.045
771.311;17423.633;  -10.616;22917.523
771.880;17706.717;   -9.576;23562.941
772.450;17193.684;  -10.336;24216.500
773.020;17301.609;  -13.516;24140.398
773.589;17014.482;  -13.466;24414.857
774.159;16521.406;   -8.686;23858.717
774.729;15995.131;   -9.476;22942.135
775.298;15378.380;  -13.666;22324.033
775.867;14986.703;  -11.716;21140.313
776.437;14952.851;   -9.906;20838.092
777.006;14527.365;  -12.166;20599.510
777.576;14544.364;  -12.356;20508.809
778.145;14919.234;  -11.646;20732.947
778.714;14833.531;   -8.226;21062.465
779.283;13989.334;   -9.556;20949.664
779.853;13650.722;  -14.116;20508.623
780.422;14094.035;  -11.506;20649.082
780.991;13612.260;   -9.556;21527.520
781.560;12571.726;   -9.095;22632.658
782.129;12336.136;  -12.135;23048.277
782.698;12306.144;  -10.865;23438.555
783.267;11979.945;   -9.335;23267.734
783.836;12023.066;  -11.045;22415.133
784.404;13042.464;  -13.865;20443.152
784.973;13369.580;  -13.095;19699.150
785.542;13216.366;  -11.575;19763.828
786.111;13129.229;   -9.705;20341.408
786.679;12709.784;  -12.105;20207.967
787.248;12499.340;  -12.455;19516.465
787.817;12250.896;  -11.535;18900.363
788.385;11778.437;   -9.765;17879.121
788.954;11131.266;  -14.005;17658.301
789.522;10715.154;  -11.955;17788.879
790.090;11314.181;  -10.135;18118.277
790.659;11663.136;  -10.975;18338.736
791.227;11080.781;  -13.375;18508.615
791.795;11571.635;  -12.375;17898.254
792.364;11899.614;  -10.725;17295.133
792.932;12105.867;   -9.715;16822.051
793.500;12331.837;  -12.675;17040.148
794.068;12631.688;  -13.495;17179.787
794.636;12745.448;  -10.885;16664.246
795.204;12287.335;  -11.045;16524.545
795.772;12318.044;  -13.175;17274.564
796.340;11826.682;  -12.445;17891.002
796.908;11651.292;   -9.735;17648.561
797.476;11585.107;   -9.815;17064.080
798.044;11116.511;  -13.985;16672.777
798.612;10279.100;  -13.115;17023.996
799.180; 9968.807;  -10.185;16561.615
799.747; 9887.313;   -9.055;15962.773
800.315; 9598.898;  -12.385;15296.992
800.883; 9201.310;  -15.035;14801.771
801.450; 9101.208;  -10.365;14534.430
802.018; 9111.311;   -9.855;14173.248
802.585; 9191.949;  -11.905;14029.547
803.153; 9309.605;  -11.585;13836.846
803.720; 9293.258;   -9.095;13567.324
804.287; 8965.151;   -9.135;13360.622
804.855; 8533.845;  -11.604;13681.981
805.422; 8377.502;  -11.794;13536.560
805.989; 8324.940;  -10.734;13355.958
806.556; 8510.445;  -10.444;13747.896
807.124; 8843.280;  -12.764;13987.376
807.691; 8773.379;  -12.964;14038.674
808.258; 8528.896;  -11.134;14120.152
808.825; 8152.778;   -9.854;13860.111
809.392; 8195.969;  -10.504;13268.790
809.959; 7744.031;  -13.054;12680.389
810.526; 7387.770;   -8.294;12427.308
811.093; 7446.076;   -8.394;12030.105
811.659; 7960.313;  -12.304;11653.664
812.226; 8281.829;  -13.944;11637.183
812.793; 7858.228;  -10.484;11611.521
813.360; 7208.918;  -10.144;11885.181
813.926; 6872.482;  -11.684;12770.539
814.493; 6678.707;  -13.644;12677.638
815.060; 6374.417;   -9.724;11974.336
815.626; 6471.419;   -9.854;11594.715
816.193; 6916.668;  -13.254;11579.474
816.759; 6978.904;  -13.204;11666.972
817.325; 7122.337;   -9.434;11325.530
817.892; 7478.548;  -10.134;11105.369
818.458; 7885.303;  -13.474;10843.928
819.024; 7508.776;  -11.854;10714.406
819.591; 7127.770;  -10.244;10469.165
820.157; 6872.793;  -10.704;10235.523
820.723; 6388.192;  -12.324;10847.563
821.289; 6099.642;   -9.444;11040.980
821.855; 5992.231;   -8.374;10357.100
822.421; 5948.466;  -10.234; 9978.918
822.987; 5874.975;  -13.294; 9754.177
823.553; 5571.494;  -10.884;10065.755
824.119; 5436.585;   -8.884;10036.294
824.685; 5525.951;   -6.784;10029.192
825.251; 5599.735;  -12.004;10199.230
825.816; 5539.273;  -11.474; 9820.189
826.382; 5350.641;   -9.174; 9297.248
826.948; 5604.610;   -9.214; 9381.347
827.513; 5977.203;  -10.774; 9450.726
828.079; 5753.842;  -11.924; 9472.444
828.645; 5226.607;  -10.543; 9292.643
829.210; 5195.216;  -10.533; 9065.341
829.776; 5167.613;  -10.753; 9132.620
830.341; 5002.350;  -10.173; 9092.878
830.906; 5157.911;  -10.743; 9078.557
831.472; 5490.801;  -11.113; 8534.535
832.037; 5213.214;  -10.603; 8677.874
832.602; 4643.243;  -13.323; 8628.692
833.167; 4354.399;  -10.823; 8879.031
833.733; 4303.521;  -10.113; 9189.790
834.298; 4395.171;  -13.583; 9052.608
834.863; 4383.967;  -12.703; 8895.087
835.428; 4346.098;  -10.523; 8824.266
835.993; 4298.398;   -6.963; 8845.385
836.558; 4213.601;  -10.763; 8888.563
837.123; 4357.809;   -9.903; 8966.582
837.688; 4546.990;   -9.913; 8617.860
838.253; 4704.243;  -10.283; 8590.699
838.817; 4905.911;  -12.963; 8443.797
839.382; 4851.854;  -14.243; 8799.356
839.947; 4540.073;  -10.733; 8810.595
840.511; 4215.059;   -9.383; 8796.394
841.076; 3850.153;  -12.563; 8347.231
841.641; 3914.297;  -12.953; 8224.330
842.205; 4004.059;   -7.043; 8223.349
842.770; 4141.237;   -8.163; 8622.107
843.334; 4403.243;  -12.503; 8410.386
843.898; 4440.000;  -11.693; 8337.465
844.463; 4480.385;  -10.203; 8506.283
845.027; 4205.852;   -9.533; 8280.962
845.591; 3972.412;  -13.443; 8231.141
846.156; 3940.854;  -13.143; 7969.179
846.720; 3791.310;   -9.433; 7768.278
847.284; 3639.642;  -11.033; 7630.957
847.848; 3469.546;  -10.403; 7472.395
848.412; 3369.468;  -11.553; 7437.394
848.976; 3421.538;   -8.393; 7674.592
849.540; 3395.362;   -8.713; 7836.011
850.104; 3505.997;  -12.463; 7913.669
850.668; 3841.514;  -12.973; 7694.508
851.232; 3944.313;  -10.793; 7756.887
851.796; 3757.075;  -10.662; 7926.545
852.359; 3441.830;  -13.082; 7827.844
852.923; 3304.383;  -12.192; 7641.163
853.487; 3142.802;  -11.912; 7342.501
854.050; 3058.376;  -10.892; 7042.820
854.614; 3167.685;  -13.992; 7151.338
855.177; 3262.491;  -11.732; 7105.077
855.741; 3315.304;   -8.962; 6989.675
856.304; 3229.533;   -9.442; 6596.634
856.868; 3167.417;  -14.192; 6356.272
857.431; 3291.077;  -12.702; 6468.571
857.995; 3420.310;   -9.942; 6373.210
858.558; 3429.738;   -9.112; 6324.448
859.121; 3169.508;  -12.932; 6408.327
859.684; 3061.004;  -13.442; 6347.886
860.247; 3176.587;  -10.632; 6321.264
860.810; 3140.230;  -11.272; 6301.903
861.374; 2888.114;   -9.832; 6607.881
861.937; 2634.793;  -11.762; 6408.200
862.500; 2613.898;   -9.722; 6572.639
863.062; 2770.750;  -10.512; 6387.297
863.625; 2941.938;  -11.232; 6190.836
864.188; 3108.203;  -14.112; 5807.254
864.751; 3172.009;  -11.302; 5682.413
865.314; 3061.871;  -10.112; 5547.492
865.876; 2894.154;  -12.182; 5500.150
866.439; 2909.344;  -10.722; 5415.909
867.002; 2859.395;   -9.252; 5501.567
867.564; 2629.937;   -9.572; 5413.946
868.127; 2400.476;  -13.142; 5160.325
868.689; 2308.631;  -12.902; 5133.183
869.252; 2233.841;   -9.732; 5252.382
869.814; 2146.755;   -9.432; 5297.141
870.377; 2170.898;  -11.552; 5390.919
870.939; 2256.288;   -9.052; 5599.898
871.501; 2309.867;  -10.982; 5248.336
872.063; 2314.308;  -12.292; 4854.235
872.626; 2282.791;  -14.912; 4817.074
873.188; 2294.388;  -13.112; 4987.732
873.750; 2250.912;  -13.442; 4868.651
874.312; 2161.491;   -9.402; 4779.330
874.874; 2068.135;  -11.062; 4866.348
875.436; 1984.753;  -13.931; 4718.887
875.998; 1975.674;   -9.561; 4660.005
876.560; 1980.342;  -11.321; 4462.964
877.122; 1925.532;  -12.221; 4145.042
877.683; 1842.776;  -12.191; 4056.481
878.245; 1766.501;  -12.101; 3950.740
878.807; 1795.344;   -8.971; 4058.958
879.369; 1812.619;  -12.071; 3954.677
879.930; 1719.839;  -14.621; 3941.495
880.492; 1666.558;  -10.311; 4067.014
881.053; 1626.341;  -10.901; 3859.633
881.615; 1502.028;  -14.411; 3776.071
882.176; 1417.611;  -13.761; 3734.750
882.738; 1390.536;   -9.181; 3678.489
883.299; 1369.159;  -11.791; 3405.407
883.860; 1373.020;  -13.121; 3351.106
884.422; 1381.647;  -11.211; 3394.044
884.983; 1328.813;  -10.091; 3166.443
885.544; 1225.397;   -8.461; 3189.802
886.105; 1147.161;  -12.361; 3160.360
886.666; 1082.144;  -14.141; 3093.059
887.227; 1023.157;  -11.361; 2941.957
887.788;  955.422;  -11.401; 2974.836
888.349;  893.053;  -13.791; 2721.214
888.910;  896.999;  -13.191; 2696.493
889.471;  910.534;   -9.881; 2560.172
890.032;  892.899;   -9.881; 2558.190
890.593;  866.639;  -10.371; 2567.669
891.153;  835.833;  -13.301; 2460.307
891.714;  784.318;  -11.431; 2372.046
892.275;  740.810;  -11.291; 2309.505
892.835;  698.824;  -11.471; 2382.543
893.396;  635.414;  -11.541; 2295.502
893.956;  575.237;  -11.181; 2162.420
894.517;  539.785;  -11.741; 2125.439
895.077;  536.210;  -11.671; 2086.978
895.638;  539.127;  -11.311; 2126.316
896.198;  508.172;   -9.831; 1838.275
896.758;  464.504;   -8.421; 1892.813
897.319;  431.728;  -12.351; 1792.232
897.879;  412.901;  -13.511; 1762.751
898.439;  386.289;  -12.001; 1661.149
898.999;  360.433;  -10.180; 1781.468
899.559;  349.650;  -12.030; 1703.347
900.119;  344.860;  -15.710; 1537.525
900.679;  341.061;   -8.900; 1638.384
901.239;  329.833;   -8.340; 1527.902
901.799;  317.727;  -13.910; 1456.441
902.359;  312.584;  -13.460; 1357.140
902.919;  304.420;  -11.490; 1331.118
903.479;  290.828;  -12.110; 1317.257
904.038;  268.495;  -11.720; 1262.595
904.598;  252.367;  -13.610; 1152.034
905.158;  247.004;  -11.040; 1240.893
905.717;  240.052;  -10.900; 1233.691
906.277;  228.271;  -15.080; 1217.330
906.836;  218.974;  -13.380; 1222.408
907.396;  211.044;  -10.780; 1193.047
907.955;  203.534;   -8.500; 1182.526
908.515;  198.474;  -12.760; 1099.364
909.074;  191.040;  -11.900; 1092.863
909.633;  184.763;   -8.950; 1069.121
910.192;  180.502;   -8.770; 1196.460
910.752;  174.724;  -12.390; 1029.960
911.311;  170.411;  -13.680; 1009.780
911.870;  168.041;  -12.370;  971.460
912.429;  169.875;  -10.900; 1094.080
912.988;  167.873;  -11.690; 1081.060
913.547;  162.097;  -13.240;  940.380
914.106;  157.211;  -11.990;  999.420
914.665;  154.525;   -9.990;  984.020
915.224;  153.906;  -12.880; 1035.760
915.782;  154.182;  -12.350;  922.560
916.341;  153.967;   -9.110; 1049.840
916.900;  149.183;   -9.270;  925.260
917.458;  148.002;  -13.240;  884.220
918.017;  146.858;  -13.550;  942.600
918.576;  146.105;  -12.320;  904.440
919.134;  143.704;  -11.490;  837.980
919.693;  141.890;  -13.670;  893.060
920.251;  140.055;  -15.470;  876.500
920.809;  138.727;  -11.290;  839.580
921.368;  138.462;  -10.210;  885.360
921.926;  137.477;  -12.140;  842.940
922.484;  136.236;  -13.080;  903.360
923.042;  136.493;  -11.720;  880.340
923.601;  138.939;   -7.480;  998.680
924.159;  136.608;  -11.570;  935.560
924.717;  133.442;  -13.840;  841.080
925.275;  134.051;  -10.640;  903.240
925.833;  133.535;  -11.540;  779.320
926.391;  135.185;  -12.960;  938.380
926.949;  133.061;  -14.130;  857.680
927.506;  132.946;  -11.750;  903.500
928.064;  133.070;  -10.250;  877.580
928.622;  132.255;  -13.030;  880.100
929.180;  132.180;  -13.400;  814.180
929.737;  133.277;  -10.700;  808.540
930.295;  137.036;  -10.070;  928.480
930.853;  138.457;  -11.960;  849.100
931.410;  139.249;  -13.120;  821.120
931.968;  139.061;  -10.770;  940.660
932.525;  139.097;  -10.680;  909.380
933.082;  138.708;  -13.130;  811.440
933.640;  139.661;  -13.210;  925.900
934.197;  138.007;  -11.060;  886.360
934.754;  138.496;   -9.580;  897.780
935.312;  142.388;  -14.000;  863.340
935.869;  146.087;  -10.710; 1012.980
936.426;  146.577;   -9.860;  872.800
936.983;  147.574;   -9.710;  889.020
937.540;  147.541;  -13.990;  838.280
938.097;  145.760;  -14.040;  940.120
938.654;  145.878;  -10.310;  898.860
939.211;  149.661;  -10.560;  952.480
939.768;  153.756;  -13.900;  915.420
940.324;  155.892;  -14.760;  904.200
940.881;  157.023;  -10.370;  878.500
941.438;  156.931;   -8.260; 1021.200
941.995;  153.290;  -12.540;  992.560
942.551;  150.622;  -14.670;  875.620
943.108;  151.500;  -10.450;  937.920
943.664;  153.387;  -10.750;  869.340
944.221;  156.580;  -11.550; 1088.140
944.777;  155.499;  -14.770;  869.680
945.334;  157.778;  -12.820;  884.840
945.890;  159.249;  -10.130;  946.480
946.446;  159.653;  -13.470;  947.020
947.003;  161.379;  -12.120;  964.940
947.559;  163.876;   -9.980; 1063.040
948.115;  162.369;   -9.080; 1026.540
948.671;  161.204;  -10.830;  967.300
949.227;  157.801;  -12.440;  859.560
949.783;  154.265;  -12.910;  858.900
950.339;  156.888;  -10.270;  991.000
950.895;  156.563;  -13.630; 1023.840
951.451;  157.121;  -15.100;  925.280
952.007;  158.455;  -11.330;  998.540
952.563;  160.499;  -10.580;  937.780
953.118;  158.731;  -13.440;  904.940
953.674;  158.064;  -12.710;  935.780
954.230;  157.945;  -10.350;  949.640
954.785;  155.042;   -9.190;  936.640
955.341;  153.230;  -11.200;  998.160
955.897;  151.466;  -16.560;  834.660
956.452;  153.393;  -12.570;  953.840
957.008;  151.818;   -7.970; 1083.640
957.563;  149.962;  -11.940; 1009.540
958.118;  146.050;  -13.450;  877.700
958.674;  146.647;  -12.030;  946.780
959.229;  148.390;   -9.410; 1013.980
959.784;  145.848;  -12.000;  832.400
960.339;  144.291;  -14.780; 1001.280
960.894;  139.616;   -9.860;  963.760
961.449;  136.212;   -9.970;  859.960
962.004;  137.569;  -10.900; 1212.840
962.559;  132.129;  -13.150;  860.140
963.114;  129.239;  -13.740;  742.480
963.669;  128.933;   -9.820;  915.500
964.224;  127.932;  -13.890;  874.340
964.779;  127.281;  -12.600;  828.420
965.334;  128.143;  -10.950; 1017.860
965.888;  127.402;  -11.170;  875.360
966.443;  130.741;  -12.540;  972.380
966.998;  130.942;  -15.780;  819.460
967.552;  131.373;   -9.760;  908.380
968.107;  128.718;   -9.060;  868.300
968.661;  129.564;  -11.950;  922.440
969.216;  125.591;  -12.800;  856.280
969.770;  117.515;  -11.210;  917.200
970.324;  106.028;  -11.610;  923.140
970.879;   96.148;  -11.370;  947.180
971.433;   90.235;  -12.540;  952.720
971.987;   87.079;  -11.320;  895.340
972.541;   86.597;  -10.720;  917.100
973.095;   89.875;   -9.680; 1009.460
973.649;   91.841;  -11.440;  809.480
974.203;   91.649;  -11.210;  829.040
974.757;   92.978;  -10.240;  855.220
975.311;   93.698;  -13.720;  872.600
975.865;   94.481;  -13.770;  881.820
976.419;   92.712;  -11.690;  857.400
976.973;   94.429;   -9.510;  849.620
977.526;   96.785;  -12.620;  949.920
978.080;   96.151;  -12.010;  796.780
978.634;   97.787;  -10.170;  921.320
979.187;   95.112;   -9.020;  905.400
979.741;   93.504;   -9.820; 1018.380
980.294;   88.976;  -14.870;  789.160
980.848;   87.427;  -12.380;  717.220
981.401;   89.911;  -10.350;  816.540
981.955;   91.680;  -13.720;  844.300
982.508;   90.853;  -11.490;  746.340
983.061;   90.664;  -10.000;  915.260
983.615;   87.545;  -11.480;  798.800
984.168;   85.150;  -13.220;  770.080
984.721;   85.406;  -13.960;  880.760
985.274;   84.549;  -10.870;  867.500
985.827;   82.725;   -9.790;  834.220
986.380;   81.105;  -13.120;  721.340
986.933;   79.468;  -12.450;  864.800
987.486;   77.956;  -10.210;  861.920
988.039;   76.691;   -8.430;  863.100
988.591;   75.103;  -10.520;  893.260
989.144;   72.720;  -14.860;  737.260
989.697;   72.123;  -13.080;  758.740
990.250;   72.364;  -10.150;  858.100
990.802;   72.129;  -13.430;  755.860
991.355;   73.536;  -12.750;  974.880
991.907;   71.030;  -12.040;  864.320
992.460;   68.524;  -11.330;  753.760
993.012;   68.354;  -13.610;  749.540
993.565;   66.738;  -13.460;  711.360
994.117;   68.601;   -9.360;  950.780
994.669;   64.673;  -11.300;  701.320
995.221;   63.170;  -13.540;  791.920
995.774;   61.182;  -13.430;  787.580
996.326;   59.818;  -12.520;  740.220
996.878;   59.509;  -10.950;  838.420
997.430;   57.239;  -14.300;  699.860
997.982;   56.664;  -13.760;  750.140
998.534;   56.160;  -11.530;  739.060
999.086;   54.900;  -10.310;  738.220
999.638;   53.830;  -12.530;  661.380
1000.190;   53.065;  -11.840;  699.320
1000.741;   52.248;  -10.260;  742.700
1001.293;   51.319;   -8.860;  686.020
1001.845;   48.611;  -13.700;  676.640
1002.396;   48.278;  -12.100;  743.400
1002.948;   47.168;  -12.760;  737.400
1003.500;   46.126;  -10.380;  723.780
1004.051;   47.109;  -11.900;  907.580
1004.603;   45.910;  -12.250;  791.820
1005.154;   42.427;  -13.210;  608.980
1005.705;   41.777;  -10.950;  723.960
1006.257;   42.546;  -13.880;  707.220
1006.808;   40.306;  -12.840;  685.460
1007.359;   41.249;  -10.570;  763.240
1007.910;   39.888;   -9.620;  646.640
1008.461;   39.236;  -13.630;  732.940
1009.013;   38.394;  -17.200;  588.340
1009.564;   39.230;  -10.200;  793.520
1010.115;   37.963;  -12.570;  597.040
1010.665;   37.166;  -15.150;  602.160
1011.216;   37.758;  -14.480;  667.920
1011.767;   37.395;  -11.340;  697.920
1012.318;   36.884;   -9.780;  736.980
1012.869;   35.407;  -12.380;  679.000
1013.419;   35.376;  -15.560;  603.120
1013.970;   35.729;  -11.010;  666.640
1014.521;   34.845;  -11.610;  620.620
1015.071;   35.510;  -13.450;  670.380
1015.622;   35.154;  -13.870;  635.460
1016.172;   34.728;  -11.610;  596.820
1016.723;   34.197;  -12.120;  614.380
1017.273;   33.374;  -13.620;  604.160
1017.823;   33.115;  -14.140;  650.340
1018.374;   32.987;  -12.800;  611.760
1018.924;   33.722;  -12.340;  716.880
1019.474;   33.183;  -11.410;  718.880
1020.024;   31.785;  -14.770;  657.580
1020.574;   33.381;   -9.780;  726.160
1021.124;   32.714;   -8.560;  673.580
1021.674;   31.523;  -15.190;  559.120
1022.224;   33.082;  -13.530;  708.940
1022.774;   32.565;  -13.280;  668.820
1023.324;   32.391;  -10.690;  753.520
1023.874;   32.889;  -10.240;  875.760
1024.423;   31.083;  -12.540;  613.700
1024.973;   31.180;  -10.010;  610.760
1025.523;   30.054;  -10.550;  620.960
1026.072;   30.204;  -13.560;  606.420
1026.622;   29.911;  -15.120;  675.740
1027.172;   30.601;  -11.260;  715.660
1027.721;   29.160;  -11.410;  601.220
1028.270;   30.134;  -13.530;  663.400
1028.820;   29.764;  -13.680;  638.080
1029.369;   29.269;  -13.520;  612.700
1029.918;   29.634;  -10.980;  649.840
1030.468;   28.911;  -13.530;  564.780
1031.017;   28.991;  -13.170;  634.800
1031.566;   27.533;  -12.200;  608.900
1032.115;   28.703;   -9.960;  694.500
1032.664;   27.180;  -13.210;  596.480
1033.213;   28.458;  -12.500;  735.420
1033.762;   27.793;  -11.910;  635.620
1034.311;   27.460;   -9.640;  677.220
1034.860;   27.986;  -13.310;  691.000
1035.408;   26.733;  -11.830;  722.720
1035.957;   27.772;  -12.000;  719.540
1036.506;   25.681;  -11.690;  530.800
1037.055;   28.216;  -10.990;  844.320
1037.603;   26.104;  -15.120;  664.000
1038.152;   24.376;  -12.450;  534.760
1038.700;   25.376;  -10.560;  585.740
1039.249;   25.560;  -11.080;  681.220
1039.797;   25.651;  -12.540;  633.360
1040.345;   25.324;  -11.920;  705.420
1040.894;   24.714;  -11.410;  625.300
1041.442;   25.660;  -14.320;  632.200
1041.990;   24.317;  -16.240;  559.160
1042.538;   24.138;  -11.680;  536.180
1043.087;   23.423;  -10.760;  570.860
1043.635;   25.456;  -11.850;  670.500
1044.183;   24.185;  -15.480;  586.400
1044.731;   23.450;  -11.770;  576.000
1045.279;   23.090;  -13.090;  674.920
1045.827;   25.521;  -12.440;  892.400
1046.374;   22.959;  -13.840;  515.420
1046.922;   21.937;  -13.220;  590.580
1047.470;   23.923;  -10.230;  691.300
1048.018;   23.783;  -14.590;  647.960
1048.565;   23.892;  -12.050;  708.600
1049.113;   22.086;  -11.650;  557.000
1049.660;   22.253;  -10.510;  629.660
1050.208;   22.344;  -13.310;  675.640
1050.755;   21.513;  -15.900;  606.580
1051.303;   22.607;  -11.430;  686.820
1051.850;   20.838;   -8.480;  635.120
1052.397;   19.707;  -15.010;  473.960
1052.945;   21.193;  -13.960;  617.760
1053.492;   22.620;  -13.150;  741.840
1054.039;   22.562;   -9.630;  720.180
1054.586;   20.767;  -13.680;  557.240
1055.133;   21.526;  -14.570;  693.140
1055.680;   21.240;  -13.820;  646.620
1056.227;   20.250;  -11.730;  542.780
1056.774;   21.798;  -12.480;  794.980
1057.321;   19.607;  -13.930;  523.260
1057.868;   20.343;  -11.690;  651.320
1058.415;   19.908;   -9.520;  651.980
1058.961;   20.036;  -13.160;  678.940
1059.508;   19.725;  -12.920;  643.820
1060.055;   19.995;  -11.920;  581.780
1060.601;   19.668;  -11.500;  624.300
1061.148;   19.336;  -14.330;  616.820
1061.694;   18.919;  -16.870;  592.580
1062.241;   19.567;  -10.330;  596.320
1062.787;   19.324;  -10.620;  663.140
1063.334;   20.561;  -10.110;  808.560
1063.880;   19.779;  -13.400;  668.360
1064.426;   19.145;  -10.680;  706.820
1064.972;   17.871;   -9.920;  601.340
1065.518;   16.751;  -10.980;  566.640
1066.065;   19.048;  -14.890;  624.460
1066.611;   17.657;  -12.870;  598.800
1067.157;   18.357;  -12.950;  641.860
1067.703;   18.163;  -13.540;  668.480
1068.249;   18.292;  -13.540;  605.220
1068.794;   18.063;  -12.600;  626.880
1069.340;   17.038;  -10.620;  578.960
1069.886;   17.144;  -12.830;  590.700
1070.432;   16.139;  -14.870;  541.720
1070.977;   16.058;  -11.980;  601.080
1071.523;   16.649;   -8.200;  573.060
1072.068;   17.242;  -12.330;  582.000
1072.614;   16.363;  -16.370;  527.760
1073.160;   17.364;  -11.100;  687.040
1073.705;   14.697;  -10.480;  572.520
1074.250;   15.760;  -14.520;  559.900
1074.796;   16.951;  -11.460;  655.160
1075.341;   16.591;  -11.950;  664.100
1075.886;   15.725;  -11.460;  594.240
1076.431;   15.814;  -13.770;  649.880
1076.976;   15.571;  -12.680;  639.220
1077.521;   15.459;  -13.170;  583.080
1078.067;   14.054;  -10.860;  579.400
1078.612;   15.083;  -13.920;  661.620
1079.156;   15.007;  -13.880;  601.540
1079.701;   15.282;  -13.120;  693.260
1080.246;   15.578;   -9.940;  696.300
1080.791;   14.553;  -14.740;  625.020
1081.336;   14.964;  -13.750;  659.320
1081.880;   15.675;  -13.400;  649.680
1082.425;   13.419;  -12.220;  573.480
1082.970;   15.891;  -11.610;  717.040
1083.514;   13.926;  -13.580;  597.000
1084.059;   13.312;  -12.810;  586.720
1084.603;   13.222;  -12.320;  565.840
1085.147;   13.186;  -13.190;  645.220
1085.692;   14.886;  -12.480;  716.800
1086.236;   12.532;  -13.020;  503.140
1086.780;   14.352;   -9.190;  751.440
1087.325;   14.191;  -12.480;  654.620
1087.869;   13.566;  -12.450;  610.700
1088.413;   14.154;  -12.240;  705.040
1088.957;   11.483;   -9.020;  543.400
1089.501;   13.733;  -10.320;  766.640
1090.045;   13.169;  -12.720;  726.480
1090.589;   11.639;  -13.690;  569.920
1091.133;   12.455;  -10.020;  673.340
1091.676;   12.647;  -12.330;  591.940
1092.220;   12.368;  -14.970;  600.920
1092.764;   13.177;  -12.430;  706.960
1093.307;   12.901;   -9.800;  673.780
1093.851;   11.614;  -14.970;  556.540
1094.395;   12.753;  -15.310;  683.140
1094.938;   11.168;  -10.370;  632.520
1095.482;   10.984;  -11.050;  559.800
1096.025;   12.026;  -11.840;  710.880
1096.568;   12.614;  -12.840;  779.280
1097.112;    9.227;  -14.700;  508.180
1097.655;   11.273;   -8.720;  603.000
1098.198;    9.943;  -13.610;  600.180
1098.741;    9.823;  -13.350;  612.860
1099.285;   11.888;  -11.230;  657.300
1099.828;    9.113;  -11.840;  439.400
1100.371;   10.579;  -10.840;  608.160
1100.914;   10.103;  -14.190;  682.660
1101.457;   10.474;  -11.240;  679.900
1101.999;    8.880;  -11.270;  584.680
1102.542;   10.465;  -11.480;  641.440
1103.085;   10.351;  -11.750;  658.500
1103.628;   10.535;  -11.400;  762.060
1104.170;    8.854;  -10.490;  588.280
1104.713;    9.807;  -10.600;  646.700
1105.256;    8.471;  -14.360;  557.440
1105.798;    8.011;  -13.210;  499.980
1106.341;   10.449;  -10.270;  728.900
1106.883;    9.480;  -12.200;  521.340
1107.425;    8.793;  -13.110;  668.180
1107.968;    9.254;  -12.840;  612.380
1108.510;    9.359;   -6.480;  684.960
1109.052;    8.012;  -13.940;  612.620
1109.594;    8.174;  -13.690;  554.440
1110.136;    8.428;  -11.880;  643.220
1110.679;    7.839;   -9.500;  633.080
1111.221;    8.384;  -14.160;  604.460
1111.763;    7.595;  -13.980;  559.220
1112.304;    8.091;  -13.880;  547.140
1112.846;    8.266;  -12.210;  666.240
1113.388;   10.588;  -11.390;  942.180
1113.930;    8.676;  -14.540;  694.200
1114.472;    7.511;  -12.640;  606.540
1115.013;    5.796;  -11.620;  551.280
1115.555;    6.504;  -13.640;  587.100
1116.097;    6.556;  -15.380;  579.480
1116.638;    7.381;  -12.640;  684.600
1117.180;    7.603;   -9.850;  667.740
1117.721;    7.204;  -13.690;  568.580
1118.262;    7.699;  -12.680;  677.960
1118.804;    7.626;  -12.530;  637.340
1119.345;    5.937;  -11.690;  578.400
1119.886;    7.648;  -13.380;  704.040
1120.427;    6.432;  -14.070;  589.020
1120.969;    5.714;  -13.500;  597.920
1121.510;    5.199;  -11.480;  563.060
1122.051;    6.872;  -12.830;  723.580
1122.592;    5.974;  -14.290;  655.420
1123.133;    4.757;  -12.400;  547.940
1123.673;    6.878;  -10.130;  706.480
1124.214;    5.571;  -12.930;  612.460
1124.755;    6.739;  -14.380;  639.460
1125.296;    5.738;  -14.000;  627.320
1125.836;    6.442;  -10.070;  691.500
1126.377;    5.570;  -12.640;  599.660
1126.918;    6.261;  -12.960;  614.980
1127.458;    4.527;  -13.350;  622.220
1127.999;    5.526;  -10.750;  656.980
1128.539;    5.700;  -12.350;  694.240
1129.079;    4.798;  -14.860;  632.720
1129.620;    4.811;  -13.840;  558.100
1130.160;    3.185;  -12.330;  539.480
1130.700;    5.416;  -14.530;  640.840
1131.240;    5.458;  -12.530;  643.700
1131.781;    4.358;  -14.450;  619.680
1132.321;    4.401;   -9.790;  599.120
1132.861;    3.604;  -14.860;  564.200
1133.401;    3.518;  -14.290;  593.940
1133.941;    4.469;  -11.750;  626.280
1134.481;    3.093;   -9.920;  597.580
1135.020;    3.419;  -12.290;  609.160
1135.560;    4.535;  -11.650;  674.940
1136.100;    3.308;  -16.270;  501.160
1136.640;    2.761;  -10.890;  510.480
1137.179;    2.921;  -14.180;  537.960
1137.719;    3.954;  -16.250;  605.400
1138.258;    3.348;  -14.230;  587.360
1138.798;    3.386;   -9.090;  663.780
1139.337;    2.304;  -15.130;  482.840
1139.877;    4.095;  -13.680;  642.360
1140.416;    5.616;  -11.320;  878.060
1140.955;    2.296;  -10.860;  535.380
1141.494;    3.346;  -12.920;  669.280
1142.034;    2.802;  -13.930;  583.520
1142.573;    3.545;  -11.440;  646.280
1143.112;    2.526;  -12.000;  553.480
1143.651;    2.252;  -13.670;  536.480
1144.190;    3.658;  -12.730;  691.640
1144.729;    2.523;  -14.560;  607.420
1145.267;    2.457;  -11.830;  584.900
1145.806;    3.023;  -12.230;  637.040
1146.345;    2.206;  -14.130;  635.020
1146.884;    2.046;  -11.590;  622.500
1147.422;    1.195;  -12.550;  533.060
1147.961;    3.420;  -11.180;  708.460
1148.500;    3.301;  -11.510;  669.720
1149.038;    2.703;  -11.640;  632.500
1149.577;    2.689;  -10.130;  698.640
1150.115;    0.188;  -13.970;  452.280
1150.653;    1.796;  -14.520;  607.340
1151.192;    1.787;  -12.810;  552.920
1151.730;    1.782;   -9.100;  652.560
1152.268;    1.271;  -12.220;  589.520
1152.806;    1.035;  -14.140;  571.180
1153.344;    0.256;  -12.350;  577.640
1153.882;    1.513;   -8.980;  600.060
1154.421;   -0.180;  -15.190;  470.620
1154.958;    0.841;  -15.210;  595.240
1155.496;    2.475;  -12.850;  645.280
1156.034;    1.104;   -9.940;  721.880
1156.572;    1.800;  -13.570;  667.060
1157.110;    0.156;  -14.590;  473.940
1157.647;    1.756;  -13.030;  676.960
1158.185;   -0.642;  -12.140;  564.320
1158.723;   -0.578;  -14.390;  509.200
1159.260;    0.297;  -14.090;  701.700
1159.798;    1.097;  -11.920;  658.160
1160.335;    0.512;  -11.110;  631.820

