
Integration time [ms]:   3.276
Averaging Nr. [scans]: 1000
Smoothing Nr. [pixels]: 0
Data measured with spectrometer [name]: 7414430SP
Wave   ;Sample   ;Dark     ;Reference
[nm]   ;[counts] ;[counts] ;[counts] 

288.544;  151.536;    7.793;  793.890
289.143;  154.858;    7.462;  681.602
289.742;  156.188;    8.602;  828.814
290.341;  140.876;    1.321;  789.841
290.940;  130.718;   -0.709;  730.702
291.538;  131.066;    0.881;  881.108
292.137;  131.740;    0.122;  792.581
292.736;  136.390;   -1.929;  975.101
293.335;  132.728;   -8.229;  735.086
293.934;  132.486;   -5.279;  781.677
294.532;  131.189;   -1.369; 1031.958
295.131;  118.082;   -7.641;  834.394
295.730;  117.701;   -8.420;  809.588
296.328;  116.238;   -5.611;  783.442
296.927;  117.376;   -5.781;  779.652
297.525;  118.239;   -6.361;  781.236
298.124;  108.070;  -11.382;  654.009
298.722;  111.325;   -7.641;  761.933
299.321;  110.561;   -6.811;  708.597
299.919;  108.876;   -6.991;  751.918
300.518;  105.230;  -10.362;  689.338
301.116;  106.157;   -9.581;  691.381
301.715;  106.730;   -4.891;  730.222
302.313;  105.931;   -8.801;  704.943
302.911;  101.283;   -8.522;  733.830
303.509;  105.991;   -6.171;  925.627
304.108;  103.688;   -7.311;  760.383
304.706;  103.194;   -8.321;  801.664
305.304;   97.374;  -10.222;  796.707
305.902;  103.350;   -6.021;  784.484
306.500;   98.913;   -4.971;  728.200
307.098;   97.640;   -7.061;  746.560
307.696;   95.879;   -8.801;  780.432
308.294;   95.447;   -6.411;  731.359
308.892;   98.437;   -2.901;  759.769
309.490;   94.168;   -5.041;  712.161
310.088;   92.654;   -5.002;  788.444
310.686;   95.504;   -2.041;  821.749
311.284;   92.168;   -2.351;  766.040
311.882;   90.030;   -4.422;  731.225
312.480;   86.965;   -4.192;  697.167
313.078;   87.870;   -1.172;  808.331
313.675;   89.874;   -2.601;  691.600
314.273;   84.186;   -1.312;  797.837
314.871;   83.697;   -3.942;  589.829
315.468;   81.307;   -2.802;  652.090
316.066;   84.189;   -0.701;  694.427
316.664;   77.664;   -4.362;  656.351
317.261;   81.502;   -2.872;  910.128
317.859;   76.062;   -2.022;  768.735
318.456;   78.049;   -0.531;  830.096
319.054;   73.123;   -3.912;  787.828
319.651;   72.428;   -4.752;  759.928
320.249;   70.629;   -2.602;  810.188
320.846;   68.269;   -0.821;  714.286
321.443;   66.575;   -4.642;  832.135
322.041;   63.563;   -5.002;  812.315
322.638;   61.282;   -3.982;  701.456
323.235;   62.096;   -3.411;  665.683
323.833;   59.363;   -7.361;  740.354
324.430;   54.856;   -8.611;  615.900
325.027;   55.515;   -4.061;  876.855
325.624;   55.394;   -4.031;  644.532
326.221;   52.065;   -7.481;  689.717
326.818;   52.282;   -5.281;  818.332
327.415;   55.386;   -7.460;  748.828
328.012;   54.152;   -5.510;  690.585
328.609;   53.589;   -7.880;  731.389
329.206;   51.904;   -8.331;  778.621
329.803;   51.987;   -5.121;  737.841
330.400;   54.361;   -4.510;  704.260
330.997;   56.268;   -6.441;  817.147
331.594;   54.427;   -8.831;  788.185
332.191;   58.722;   -7.621;  728.722
332.787;   63.028;   -4.591;  844.463
333.384;   61.220;   -7.412;  763.093
333.981;   59.848;   -8.293;  815.687
334.578;   61.272;   -7.052;  708.378
335.174;   66.048;   -3.102;  731.469
335.771;   65.453;   -5.943;  836.456
336.367;   61.655;   -7.393;  710.631
336.964;   65.788;   -4.063;  793.266
337.561;   63.723;   -3.813;  731.112
338.157;   59.662;   -4.654;  911.916
338.754;   56.703;   -7.934;  796.589
339.350;   54.739;   -4.414;  722.493
339.946;   57.306;   -4.664;  773.135
340.543;   49.754;   -6.375;  846.136
341.139;   43.113;   -9.815;  720.836
341.735;   41.035;   -4.526;  772.593
342.332;   40.178;   -4.895;  691.472
342.928;   40.671;   -4.295;  795.394
343.524;   34.835;   -5.476;  761.684
344.120;   30.882;   -5.856;  738.562
344.716;   34.053;   -2.155;  723.717
345.313;   31.651;   -6.275;  795.342
345.909;   26.593;   -8.815;  627.336
346.505;   27.919;   -5.305;  740.247
347.101;   28.885;   -2.674;  827.864
347.697;   29.757;   -4.344;  785.398
348.293;   23.781;   -9.975;  627.244
348.889;   24.591;   -5.774;  745.914
349.485;   24.184;   -5.004;  688.205
350.081;   24.343;   -4.704;  772.592
350.676;   20.129;   -6.635;  691.606
351.272;   23.566;   -4.504;  809.530
351.868;   24.571;   -3.914;  780.497
352.464;   21.633;   -9.044;  723.932
353.059;   17.501;   -8.314;  646.017
353.655;   20.669;   -7.024;  777.063
354.251;   22.300;   -5.343;  759.845
354.846;   16.473;   -8.604;  740.646
355.442;   13.933;   -6.945;  753.071
356.038;   16.152;   -7.564;  751.708
356.633;   16.854;   -5.814;  728.594
357.229;   14.617;   -7.364;  724.757
357.824;   12.588;   -8.024;  703.600
358.420;   11.776;   -9.384;  679.726
359.015;   12.121;   -5.104;  695.357
359.610;   13.443;   -6.854;  763.920
360.206;    6.818;  -10.185;  603.240
360.801;   10.625;   -7.054;  646.503
361.396;   12.478;   -5.034;  725.975
361.992;    7.759;   -8.284;  668.220
362.587;    5.411;   -8.625;  670.160
363.182;    6.800;   -7.674;  689.631
363.777;    7.764;   -5.164;  738.242
364.372;    7.476;   -8.604;  737.314
364.967;    3.786;   -9.055;  680.744
365.563;    7.796;   -6.114;  815.567
366.158;    4.683;   -5.814;  685.161
366.753;    5.362;   -7.854;  649.263
367.348;    3.263;   -7.804;  746.056
367.942;    3.912;   -7.954;  697.298
368.537;    3.373;   -4.984;  754.245
369.132;    3.067;   -8.564;  703.428
369.727;   -0.891;   -8.855;  638.079
370.322;    0.290;   -6.245;  580.186
370.917;    0.072;   -6.425;  710.646
371.511;    2.285;   -6.294;  861.834
372.106;   -0.457;   -7.685;  776.964
372.701;   -3.763;   -7.335;  585.988
373.296;    2.206;   -4.564;  863.135
373.890;   -2.242;  -10.235;  647.840
374.485;   -5.198;   -7.885;  691.199
375.079;   -1.286;   -7.324;  738.685
375.674;    0.142;   -3.494;  812.970
376.268;   -4.085;   -8.525;  691.759
376.863;   -9.968;  -10.086;  580.327
377.457;   -3.961;   -7.025;  662.490
378.052;   -5.669;   -3.585;  764.884
378.646;   -5.787;   -7.595;  741.167
379.240;   -6.507;   -8.335;  721.176
379.835;   -5.586;   -5.785;  636.978
380.429;   -6.996;   -4.335;  562.557
381.023;   -7.062;   -6.805;  779.205
381.617;  -10.124;   -9.195;  680.106
382.212;   -7.259;   -6.905;  685.303
382.806;   -5.553;   -3.745;  760.690
383.400;   -9.825;   -7.745;  672.281
383.994;  -10.799;   -9.765;  664.870
384.588;   -7.569;   -6.564;  697.701
385.182;   -5.715;   -5.344;  726.624
385.776;   -7.344;   -8.514;  706.875
386.370;  -10.592;   -9.555;  681.968
386.964;   -8.984;   -8.715;  684.155
387.558;   -7.610;   -6.174;  598.360
388.152;  -11.065;   -8.725;  681.959
388.745;   -8.988;   -7.965;  814.707
389.339;   -7.412;   -5.924;  747.642
389.933;   -6.947;   -5.524;  695.370
390.527;   -7.087;   -7.114;  859.029
391.120;  -13.543;  -10.725;  595.318
391.714;  -11.266;   -8.035;  711.633
392.308;   -7.763;   -3.574;  780.253
392.901;  -10.944;   -7.245;  642.460
393.495;  -13.264;   -9.285;  595.414
394.089;  -10.792;   -5.895;  760.452
394.682;  -11.870;   -4.295;  697.188
395.275;  -11.551;   -9.875;  719.927
395.869;  -13.417;   -8.485;  667.314
396.462;  -12.499;   -7.455;  616.609
397.056;   -8.239;   -5.424;  776.621
397.649;  -11.988;   -6.605;  731.575
398.242;  -10.427;   -8.224;  712.645
398.836;   -9.262;   -7.474;  766.408
399.429;   -9.489;   -7.094;  631.041
400.022;  -13.565;   -9.475;  665.902
400.615;  -11.446;   -7.145;  805.609
401.208;   -9.625;   -7.174;  691.451
401.802;  -11.474;   -5.515;  699.329
402.395;  -11.699;   -9.875;  683.502
402.988;  -14.103;   -8.845;  696.627
403.581;  -10.352;   -8.874;  646.878
404.174;   -7.791;   -5.324;  686.568
404.767;  -10.801;   -9.575;  638.583
405.360;  -13.243;  -10.965;  621.445
405.953;   -8.047;   -8.764;  759.034
406.545;   -7.496;   -7.514;  725.342
407.138;  -11.391;  -10.025;  618.350
407.731;  -10.519;  -10.034;  613.303
408.324;   -7.616;   -9.374;  660.554
408.917;   -7.397;   -6.534;  681.864
409.509;   -8.454;   -8.004;  740.396
410.102;  -10.320;   -9.875;  643.948
410.695;   -5.417;   -8.604;  665.758
411.287;   -5.923;   -6.794;  599.821
411.880;   -6.568;   -9.334;  585.421
412.472;  -10.182;  -10.254;  613.092
413.065;   -8.034;   -6.714;  629.408
413.657;   -5.055;   -7.234;  576.678
414.250;   -4.533;  -10.544;  646.681
414.842;   -6.887;   -9.744;  676.353
415.434;   -4.874;   -6.994;  570.463
416.027;   -0.610;   -5.893;  652.196
416.619;   -1.876;   -7.264;  713.400
417.211;   -3.082;  -10.374;  599.352
417.804;    0.620;   -7.993;  628.499
418.396;   -3.104;   -7.234;  607.643
418.988;   -1.031;   -9.443;  659.238
419.580;   -4.861;  -10.724;  568.276
420.172;   -2.249;  -10.323;  536.196
420.764;    1.778;   -8.793;  672.482
421.356;    0.658;  -11.143;  636.898
421.948;    0.165;   -8.293;  677.661
422.540;    4.928;   -7.893;  680.027
423.132;    4.163;   -7.082;  600.641
423.724;    2.003;   -8.653;  561.267
424.316;    3.358;  -10.213;  621.345
424.908;    6.165;   -9.762;  591.517
425.500;    7.364;   -5.572;  647.978
426.092;    8.348;   -8.422;  648.268
426.683;    6.070;   -9.283;  684.836
427.275;    9.616;   -7.852;  641.471
427.867;   10.735;   -5.272;  668.948
428.458;   11.940;   -7.682;  732.344
429.050;    9.698;  -10.612;  680.749
429.642;   11.462;   -9.882;  743.124
430.233;   12.732;   -6.962;  569.356
430.825;   14.382;   -6.842;  724.809
431.416;   11.757;   -9.672;  698.241
432.008;   15.400;   -6.552;  651.723
432.599;   15.478;   -6.891;  656.073
433.190;   12.940;  -10.912;  637.670
433.782;   12.064;  -11.172;  590.395
434.373;   18.951;   -6.061;  884.765
434.964;   18.854;   -8.251;  602.920
435.556;   16.166;   -9.722;  634.537
436.147;   20.071;   -9.082;  758.490
436.738;   18.624;   -8.041;  701.099
437.329;   25.258;   -7.341;  721.723
437.920;   17.443;   -8.162;  666.688
438.511;   17.221;  -11.802;  564.526
439.103;   24.054;  -10.191;  623.998
439.694;   25.552;   -7.601;  681.583
440.285;   26.654;   -8.541;  764.432
440.876;   24.950;   -9.751;  845.738
441.466;   23.780;   -9.401;  575.162
442.057;   29.035;   -7.760;  665.814
442.648;   28.888;   -9.971;  746.255
443.239;   26.498;  -11.001;  620.477
443.830;   31.541;   -7.990;  704.958
444.421;   33.807;   -7.910;  655.474
445.011;   30.815;   -8.131;  693.619
445.602;   29.759;   -7.111;  743.126
446.193;   31.198;  -10.920;  488.117
446.783;   36.860;   -6.500;  640.397
447.374;   31.899;   -8.671;  692.759
447.964;   31.952;  -10.781;  713.770
448.555;   40.321;   -9.650;  822.742
449.145;   38.176;   -8.660;  662.853
449.736;   38.273;   -8.990;  803.179
450.326;   38.097;   -9.500;  713.626
450.917;   42.599;   -8.680;  675.324
451.507;   42.303;   -7.520;  600.661
452.097;   43.247;   -8.590;  746.267
452.688;   44.384;  -11.340;  742.160
453.278;   43.466;  -10.100;  566.840
453.868;   48.379;   -6.019;  793.550
454.458;   46.465;   -9.440;  651.141
455.048;   46.856;  -10.560;  711.783
455.639;   48.127;  -11.799;  567.096
456.229;   51.694;   -6.899;  710.694
456.819;   54.025;   -7.389;  751.158
457.409;   53.271;  -11.119;  773.993
457.999;   56.331;   -9.289;  737.505
458.589;   56.391;   -6.139;  686.606
459.179;   56.983;   -8.729;  717.658
459.769;   55.000;   -9.789;  627.099
460.358;   60.028;  -10.259;  797.262
460.948;   59.530;   -7.299;  689.503
461.538;   60.979;  -10.289;  660.677
462.128;   58.666;  -11.269;  664.934
462.717;   66.143;   -9.368;  710.326
463.307;   69.110;   -7.908;  705.846
463.897;   65.405;   -9.599;  656.942
464.486;   64.173;   -9.769;  837.128
465.076;   68.616;   -8.048;  733.776
465.666;   72.155;   -9.358;  652.900
466.255;   70.195;   -7.919;  785.651
466.845;   68.988;  -11.689;  666.749
467.434;   72.464;   -7.818;  725.873
468.023;   73.953;   -7.678;  658.357
468.613;   72.079;  -10.939;  713.946
469.202;   74.983;  -10.118;  646.507
469.791;   79.549;   -9.108;  737.811
470.381;   81.861;   -6.058;  742.813
470.970;   81.880;  -10.428;  711.099
471.559;   81.922;  -10.268;  733.291
472.148;   84.697;   -8.448;  675.737
472.738;   86.478;   -6.917;  765.466
473.327;   86.846;  -11.978;  637.529
473.916;   86.470;  -11.888;  737.446
474.505;   90.453;   -9.437;  751.703
475.094;   93.637;   -6.747;  806.570
475.683;   93.440;   -9.367;  797.699
476.272;   94.633;  -12.637;  730.632
476.861;   97.201;  -10.027;  706.754
477.449;  104.056;   -8.716;  728.487
478.038;   99.510;   -9.577;  692.513
478.627;   99.048;   -9.718;  714.852
479.216;  105.828;   -8.947;  769.441
479.805;  108.522;   -6.256;  783.375
480.393;  108.822;   -7.937; 1008.945
480.982;  107.327;   -7.717;  874.501
481.571;  114.660;   -9.266;  858.333
482.159;  115.807;   -7.636;  705.386
482.748;  114.913;   -9.667;  821.385
483.336;  119.837;  -10.376;  858.209
483.925;  120.333;   -7.147;  774.373
484.513;  127.374;   -7.996;  758.962
485.102;  124.144;  -10.027;  810.965
485.690;  133.088;  -10.446; 1011.050
486.278;  135.015;   -8.446;  979.329
486.867;  135.888;   -6.356;  809.662
487.455;  138.089;   -9.136;  898.229
488.043;  139.172;  -10.646;  748.361
488.631;  148.603;   -7.456; 1005.079
489.220;  152.890;   -6.636;  908.626
489.808;  153.225;  -11.036;  741.415
490.396;  162.312;  -10.246;  914.645
490.984;  167.748;   -8.556;  830.161
491.572;  178.921;   -5.886;  940.315
492.160;  186.757;   -9.486;  919.081
492.748;  199.432;  -10.976;  884.341
493.336;  224.638;   -8.776; 1019.693
493.924;  253.906;   -5.465;  958.077
494.512;  285.537;   -9.986; 1066.638
495.100;  328.030;  -10.636; 1103.280
495.687;  384.862;  -10.885; 1206.373
496.275;  451.589;   -8.126; 1150.796
496.863;  527.007;  -10.586; 1281.171
497.451;  636.076;  -11.926; 1386.805
498.038;  782.633;  -10.885; 1556.729
498.626;  899.646;   -6.315; 1741.407
499.214; 1048.478;   -7.326; 2016.609
499.801; 1257.843;  -11.906; 2220.633
500.389; 1525.403;  -10.466; 2312.494
500.976; 1870.993;   -5.236; 2744.849
501.564; 2307.982;   -8.936; 3148.565
502.151; 2704.102;  -13.176; 3515.999
502.738; 3208.571;  -10.646; 3971.274
503.326; 3630.618;   -9.525; 4403.796
503.913; 4034.911;  -10.856; 5161.749
504.500; 4364.671;  -11.586; 5986.420
505.088; 4837.535;  -10.336; 6381.201
505.675; 5401.548;   -6.355; 6925.547
506.262; 6103.384;   -9.046; 7619.060
506.849; 6888.619;  -10.416; 8733.969
507.436; 7383.419;  -10.305; 9790.121
508.023; 7965.029;   -5.496; 9985.472
508.610; 8234.709;   -7.856;10434.618
509.197; 8904.148;  -10.097;11198.435
509.784;10382.883;  -10.886;12391.194
510.371;11398.451;   -9.315;13603.713
510.958;12179.020;   -9.936;14426.586
511.545;13056.358;   -9.326;15243.775
512.132;14048.765;  -10.075;15945.876
512.719;14708.911;   -7.796;16340.369
513.305;15614.405;  -10.606;18011.766
513.892;16500.992;  -11.486;19754.971
514.479;18077.400;   -9.126;20967.805
515.066;19595.395;   -6.026;22299.793
515.652;20745.193;   -8.466;22908.660
516.239;21995.520;  -10.886;23798.875
516.825;23136.416;  -11.496;25567.275
517.412;24257.828;   -5.796;28154.959
517.998;25169.268;  -10.506;28344.111
518.585;25181.350;  -10.076;27134.219
519.171;25434.539;   -8.315;27268.576
519.758;26687.699;   -8.596;28964.129
520.344;28644.408;   -8.466;30664.494
520.930;29035.063;  -11.006;32550.605
521.516;30755.633;  -10.495;35422.895
522.103;33599.641;   -5.526;38280.004
522.689;34651.469;   -8.746;37835.117
523.275;34314.043;  -11.376;37288.613
523.861;34984.219;  -11.156;37281.395
524.447;36080.762;   -8.135;37846.949
525.033;35497.746;   -7.896;38321.949
525.619;35917.930;  -12.476;38579.285
526.205;37895.973;   -9.516;40622.875
526.791;40765.160;   -6.926;42258.836
527.377;40581.848;   -8.346;42966.902
527.963;42534.816;   -8.717;42018.949
528.549;41237.164;  -11.016;42476.828
529.135;39570.938;   -8.536;41854.852
529.721;39087.352;   -9.666;41237.711
530.306;38521.887;  -10.066;41259.445
530.892;38696.414;  -11.356;41506.047
531.478;40133.316;   -6.596;43559.613
532.063;42639.719;   -8.836;47695.563
532.649;42826.781;  -10.047;50808.324
533.235;44164.184;   -9.746;51787.500
533.820;45699.480;   -6.566;52145.035
534.406;46672.789;  -10.817;51133.488
534.991;46181.699;   -9.416;49996.805
535.576;44967.660;   -9.036;48882.852
536.162;45341.191;   -6.156;46942.285
536.747;46515.828;  -11.607;45711.746
537.333;50128.750;  -11.787;48510.180
537.918;53426.133;  -12.437;50439.891
538.503;52054.895;   -7.196;50863.711
539.088;48814.941;  -10.556;50906.922
539.673;49015.035;   -8.767;52621.965
540.259;48801.797;  -10.026;52368.094
540.844;45704.613;   -7.416;50879.109
541.429;46179.824;   -9.467;52077.777
542.014;49834.961;   -9.527;52716.695
542.599;50055.973;   -9.946;52363.281
543.184;46948.148;   -7.927;53187.137
543.769;47828.328;   -9.297;54697.605
544.354;47557.047;  -10.127;53913.914
544.938;46760.285;   -9.267;49680.164
545.523;48883.707;   -6.506;47386.277
546.108;50902.148;   -9.787;49151.949
546.693;53249.105;  -11.587;51384.637
547.278;53353.281;  -10.986;51853.254
547.862;49815.250;   -8.206;51173.750
548.447;44984.598;  -10.067;51691.395
549.031;44441.977;   -9.637;52456.703
549.616;49219.258;   -9.926;52714.516
550.201;48067.113;   -6.347;52414.598
550.785;48607.590;   -7.917;52355.059
551.370;48319.762;  -10.867;54589.453
551.954;48895.195;   -9.047;58267.348
552.538;50536.152;   -7.827;59062.176
553.123;48928.840;  -10.287;58115.285
553.707;46362.176;  -12.178;56556.285
554.291;46779.609;   -8.717;56201.668
554.876;48470.141;   -7.457;55335.762
555.460;49262.758;  -10.387;54155.703
556.044;51054.281;   -9.618;53721.484
556.628;49045.480;  -11.567;53731.016
557.212;47503.648;   -8.097;54312.531
557.796;45620.023;  -11.077;53797.773
558.380;45661.250;  -11.108;56145.984
558.964;46628.203;   -9.057;57277.930
559.548;47678.137;   -6.977;56459.641
560.132;45657.949;  -11.457;54434.543
560.716;44478.313;  -11.378;54800.617
561.300;45320.547;   -9.577;57606.945
561.884;46463.547;   -7.127;58972.445
562.467;45375.773;   -7.118;57327.570
563.051;44640.762;  -13.358;54962.434
563.635;44915.680;  -10.178;52594.473
564.219;45445.230;   -7.837;50610.410
564.802;46264.871;  -11.398;49551.180
565.386;46472.527;  -12.788;48370.953
565.969;46116.813;   -9.077;48178.871
566.553;45231.625;   -6.207;49957.305
567.136;45239.414;   -8.568;50369.594
567.720;41233.734;  -11.868;49492.004
568.303;39601.867;   -8.268;50616.352
568.887;39768.629;   -8.698;50727.148
569.470;39988.961;   -6.808;51698.379
570.053;38842.848;  -13.188;52122.078
570.637;37392.840;  -12.037;52536.438
571.220;36865.121;   -8.577;51186.098
571.803;36853.781;   -8.498;51032.762
572.386;38785.070;  -10.498;49609.887
572.969;41564.922;   -9.388;48285.926
573.552;40246.727;   -8.338;47624.285
574.135;39338.090;   -8.518;45498.641
574.718;36583.961;  -13.628;41970.434
575.301;35112.539;  -10.893;41447.137
575.884;33641.117;   -8.158;40923.836
576.467;34827.598;  -10.328;45267.723
577.050;37422.199;  -13.058;48175.543
577.633;39206.254;   -9.458;47729.328
578.216;37952.363;   -8.928;47579.793
578.799;36788.512;   -9.358;47820.996
579.381;35149.309;  -11.388;48115.551
579.964;33501.355;  -11.718;47333.766
580.547;35075.426;   -8.588;46668.969
581.129;36046.258;   -8.859;44466.141
581.712;36470.492;  -10.729;44164.922
582.294;37320.563;  -11.118;46477.855
582.877;37502.965;   -5.218;48244.254
583.459;35234.254;   -8.679;47437.895
584.042;33476.227;  -10.709;46943.219
584.624;34199.367;  -11.669;46792.227
585.206;33685.922;   -8.218;46557.250
585.789;33789.855;  -10.569;45793.773
586.371;36706.898;  -11.859;43836.391
586.953;37491.277;  -10.719;42972.492
587.536;38449.465;   -7.198;42487.211
588.118;38169.773;   -8.720;42086.414
588.700;34436.301;  -10.439;43389.930
589.282;33486.516;   -9.198;43646.039
589.864;34459.098;   -9.199;43438.109
590.446;35762.109;  -11.319;43151.926
591.028;35477.301;  -11.159;42781.867
591.610;34408.469;  -11.779;42839.098
592.192;31563.766;   -7.668;42820.402
592.774;30020.594;  -11.949;40724.277
593.356;29011.150;  -12.129;39874.789
593.937;28476.918;  -10.669;39980.648
594.519;30643.045;   -6.509;42069.633
595.101;33000.805;  -10.849;42976.031
595.683;33213.152;  -11.679;44084.441
596.264;34208.121;   -9.049;43478.797
596.846;32975.742;   -8.849;43803.672
597.427;32237.648;   -9.570;42986.934
598.009;34081.262;  -12.620;42832.219
598.591;34389.840;  -10.039;42580.086
599.172;33384.191;  -10.369;43061.805
599.753;33397.016;   -9.140;41691.469
600.335;35268.984;  -11.430;40692.520
600.916;34053.684;   -9.939;39982.422
601.498;31502.246;   -8.479;40318.617
602.079;30093.676;  -10.920;40670.609
602.660;30055.654;  -11.480;41450.898
603.241;31180.715;  -11.699;41137.738
603.823;29959.197;   -9.579;38868.797
604.404;29864.887;  -10.620;38182.785
604.985;31201.668;  -10.450;38078.047
605.566;30452.031;   -9.129;38056.633
606.147;30471.273;   -7.510;37020.418
606.728;32800.801;  -10.660;37883.359
607.309;31870.002;  -11.740;38748.273
607.890;31048.795;   -9.759;38850.230
608.471;30633.643;   -8.250;37457.918
609.051;29848.963;   -9.240;36066.457
609.632;28819.863;  -12.120;35991.074
610.213;29755.141;   -9.110;37402.641
610.794;30317.205;   -8.030;38383.363
611.374;29566.260;   -8.110;40562.387
611.955;30018.357;  -13.560;38533.727
612.536;31594.041;  -11.400;36951.789
613.116;31232.223;   -8.070;37197.891
613.697;31470.502;  -10.830;38411.125
614.277;29909.721;  -11.641;38673.938
614.858;30818.580;  -13.310;37075.863
615.438;30320.646;   -7.460;35092.906
616.019;27442.836;   -7.601;33666.301
616.599;27933.717;  -12.020;34189.023
617.179;29963.213;  -11.780;36952.047
617.760;30714.031;   -8.570;39582.574
618.340;31815.396;  -11.471;38943.977
618.920;33381.172;  -11.170;37594.156
619.500;33093.742;  -11.071;37866.938
620.080;32253.203;   -7.750;37869.043
620.660;33339.543;  -12.711;36868.617
621.241;34314.434;  -10.211;36352.309
621.821;34278.531;  -10.961;35459.520
622.401;33747.250;   -7.720;35207.414
622.980;32769.828;   -8.981;35980.422
623.560;31273.102;   -9.331;37351.328
624.140;30622.301;   -9.850;34388.582
624.720;25709.068;   -7.451;32368.764
625.300;21972.350;   -9.070;32638.629
625.880;25291.311;  -12.601;34599.035
626.459;29212.158;  -11.751;36831.738
627.039;32258.002;   -9.281;38299.098
627.619;32198.770;   -8.801;38289.574
628.198;30435.158;  -12.071;37220.695
628.778;29562.572;   -9.461;37632.563
629.357;30369.885;   -8.491;38003.012
629.937;30458.791;   -9.721;38402.039
630.516;29870.688;   -9.951;37868.801
631.096;29694.809;  -11.731;35760.410
631.675;32708.287;   -8.572;35225.219
632.254;37951.512;  -11.282;35130.289
632.834;37280.625;  -13.322;35794.570
633.413;35334.223;  -10.301;35788.922
633.992;32222.801;   -8.582;34532.863
634.571;33434.586;   -8.352;33590.113
635.151;36099.996;  -11.912;34943.863
635.730;34461.836;  -10.511;35352.523
636.309;30999.887;   -7.731;35366.605
636.888;28508.041;   -9.952;36165.637
637.467;29275.305;  -11.672;37515.902
638.046;31342.201;   -8.901;39288.695
638.625;34685.613;   -7.912;38279.699
639.204;34294.207;  -10.022;37741.598
639.782;32152.164;  -12.252;38364.551
640.361;28329.168;  -10.041;36740.621
640.940;25389.234;  -11.161;34950.082
641.519;25743.768;   -9.701;34137.398
642.097;28465.838;  -11.271;35654.258
642.676;31464.242;   -8.651;35637.957
643.255;32549.568;   -8.711;36567.074
643.833;31667.436;   -9.581;37809.434
644.412;32170.830;  -13.711;37337.293
644.990;31484.053;  -11.811;37018.531
645.569;31360.988;   -9.411;36518.469
646.147;30132.291;  -10.291;36186.430
646.726;29199.291;  -12.401;36267.688
647.304;30351.732;  -10.411;36647.625
647.882;32437.451;   -9.651;39286.742
648.461;34091.492;   -9.631;39157.703
649.039;32541.043;  -11.881;35412.883
649.617;31839.641;   -9.661;34744.918
650.195;31567.510;   -9.301;35403.098
650.773;30472.453;  -10.511;35053.797
651.352;28040.461;  -11.521;33756.816
651.930;25764.635;  -12.211;31868.773
652.508;24100.793;   -9.171;33121.551
653.086;27986.758;   -9.371;33564.793
653.663;30948.123;  -13.161;34054.668
654.241;29793.803;  -13.031;35693.309
654.819;31326.867;   -9.371;36422.906
655.397;31119.982;  -10.511;38213.484
655.975;31057.994;  -10.371;39507.625
656.553;31164.506;  -10.051;39498.223
657.130;29333.113;  -10.061;40395.480
657.708;28732.992;   -9.561;39242.020
658.286;28709.377;  -11.511;38920.020
658.863;29865.205;  -10.261;40202.898
659.441;32618.705;   -7.531;39677.938
660.018;31743.516;   -9.501;40413.355
660.596;30706.604;  -13.301;39931.414
661.173;32694.576;  -11.211;39604.531
661.750;32876.070;   -9.951;39700.070
662.328;31992.201;   -9.390;39292.809
662.905;31189.100;  -11.330;38235.648
663.482;26620.016;   -9.050;36212.305
664.060;24667.225;   -8.240;35944.945
664.637;27471.813;  -10.050;35170.785
665.214;29545.971;  -11.760;34197.523
665.791;31345.252;  -10.530;34549.520
666.368;29801.086;   -9.690;35118.578
666.945;30386.254;   -9.320;36019.418
667.522;32003.361;  -11.860;36048.438
668.099;32288.885;  -10.770;36243.914
668.676;31588.891;   -6.260;35958.875
669.253;29840.582;   -7.000;37384.730
669.830;30180.912;  -10.190;36779.629
670.407;29872.355;   -9.550;35231.289
670.984;30123.918;   -9.260;35544.270
671.560;30280.066;   -9.280;35466.867
672.137;28875.682;  -11.810;34280.863
672.714;29691.205;  -11.490;34632.863
673.290;29912.166;   -7.740;35135.422
673.867;30144.178;  -10.660;36114.480
674.443;30472.408;  -12.230;36152.859
675.020;28915.125;  -10.450;35327.238
675.596;29920.943;   -9.260;35795.176
676.173;30346.877;  -10.780;35430.355
676.749;29966.186;  -13.690;33549.516
677.326;30228.174;  -11.980;32210.012
677.902;30388.699;   -8.630;32068.871
678.478;29670.945;  -10.730;32583.891
679.054;29518.955;  -10.520;32088.928
679.631;30281.830;  -11.920;30978.848
680.207;31164.604;   -7.490;33160.887
680.783;32394.414;   -9.860;35570.363
681.359;31578.824;  -13.380;36125.184
681.935;30688.188;  -12.480;35240.922
682.511;29509.453;   -7.900;34429.961
683.087;29437.107;   -7.710;34463.680
683.663;29389.969;  -11.480;34648.898
684.239;28583.641;  -14.090;34546.457
684.815;28215.703;   -7.560;35586.375
685.390;28537.029;   -9.910;35821.895
685.966;28905.150;  -11.159;35085.871
686.542;31651.736;  -11.169;34198.230
687.118;33857.152;   -5.959;32847.707
687.693;34068.461;  -10.329;32794.027
688.269;33251.559;  -12.059;33072.367
688.844;30846.959;  -10.909;33141.664
689.420;28640.371;   -8.019;33965.742
689.995;26457.914;   -8.399;34655.523
690.571;25352.004;  -10.949;33576.742
691.146;26006.973;   -9.619;32657.219
691.722;25363.832;   -8.999;32526.979
692.297;25300.045;  -11.589;33014.617
692.872;27305.762;  -11.739;34012.254
693.448;26743.566;  -11.059;34237.434
694.023;25984.207;  -10.139;34142.672
694.598;28155.717;   -9.029;34132.031
695.173;28336.049;  -13.319;34205.250
695.748;27777.916;  -10.169;32882.488
696.323;27516.000;   -8.339;32864.906
696.898;27482.180;   -8.169;33170.004
697.473;27281.027;  -12.309;32432.984
698.048;27075.945;  -10.989;31649.303
698.623;27499.936;   -9.329;30778.141
699.198;29532.826;   -9.849;31140.119
699.773;30366.840;  -12.329;31764.299
700.348;28793.166;  -10.389;31780.816
700.922;28835.066;   -9.269;32046.375
701.497;29276.871;   -9.329;32603.574
702.072;29297.928;  -10.789;34799.871
702.646;28359.629;  -10.839;35793.172
703.221;26350.838;   -9.099;35201.590
703.795;28410.424;  -10.939;34764.527
704.370;28889.641;  -12.859;34307.367
704.944;29266.945;  -11.559;33509.887
705.519;30504.590;   -7.939;31388.584
706.093;31682.473;  -10.499;31340.104
706.668;31659.334;  -11.289;32630.281
707.242;30280.496;  -11.509;32728.779
707.816;28685.469;   -9.639;32947.238
708.390;27261.861;  -11.429;33277.855
708.965;28367.301;  -11.869;33834.336
709.539;29129.234;  -11.689;33709.273
710.113;29594.301;  -10.478;33044.313
710.687;28735.248;  -10.228;31953.992
711.261;26432.674;  -13.698;30505.949
711.835;26096.783;  -13.378;30262.369
712.409;27099.854;   -9.698;31254.447
712.983;28739.301;  -11.898;32754.986
713.557;29564.037;  -15.138;34018.824
714.131;29365.363;  -14.098;34579.625
714.704;28715.611;   -9.958;33890.262
715.278;26351.865;  -10.028;33531.102
715.852;25655.973;  -11.148;33601.660
716.425;26430.936;   -9.068;33515.117
716.999;26853.111;  -10.038;33185.555
717.573;27913.719;   -9.798;33905.996
718.146;29224.291;  -12.378;35199.293
718.720;28679.221;  -11.918;35060.551
719.293;27942.174;   -8.088;34973.230
719.867;30826.281;  -10.888;36394.449
720.440;30703.178;  -11.938;36663.008
721.013;29264.766;  -12.818;35102.426
721.587;28002.457;  -10.298;33985.266
722.160;26491.500;  -10.048;33524.965
722.733;25573.209;  -12.108;32987.043
723.306;26370.566;  -10.818;33066.301
723.880;28564.934;   -8.908;33399.500
724.453;30131.135;   -9.878;33468.297
725.026;28904.842;  -11.188;33816.637
725.599;26303.086;  -11.678;32797.996
726.172;26823.768;   -9.618;33187.434
726.745;28210.785;   -8.258;35136.613
727.318;29866.674;  -12.978;35751.730
727.891;30429.900;  -12.148;35890.430
728.463;30207.119;   -8.968;34822.090
729.036;29183.855;  -10.188;32895.086
729.609;29314.131;  -11.788;31823.225
730.182;25908.854;  -11.788;31445.283
730.754;23518.189;  -10.268;32373.223
731.327;23727.313;   -9.998;33676.820
731.900;23876.586;  -12.228;33417.000
732.472;25212.746;  -13.848;31978.498
733.045;27227.260;   -8.698;30368.777
733.617;27181.648;  -10.607;30574.215
734.190;26573.871;  -11.507;31280.975
734.762;23629.789;  -13.647;31674.412
735.334;22185.488;   -9.767;31247.291
735.907;22805.023;   -9.897;29876.211
736.479;22477.939;  -11.637;29808.488
737.051;22054.656;   -9.567;30233.547
737.623;23510.045;   -8.187;31469.086
738.195;24739.555;  -11.187;31784.225
738.768;26471.008;  -12.337;32120.523
739.340;26158.318;  -12.227;32094.342
739.912;24753.012;  -11.057;31312.680
740.484;23711.074;  -10.207;31946.238
741.056;22806.854;  -10.047;32984.059
741.628;24526.619;  -13.627;33897.715
742.199;26878.996;   -7.177;33213.016
742.771;25235.287;  -10.797;31369.113
743.343;22760.291;  -11.997;31865.473
743.915;21598.518;  -12.867;32388.631
744.487;21826.135;   -7.617;31079.568
745.058;22070.531;   -9.557;30570.107
745.630;22772.443;   -9.877;29970.127
746.201;23616.029;  -14.177;29186.766
746.773;23735.510;   -9.237;28805.723
747.344;23568.129;   -9.847;29591.223
747.916;22331.447;  -11.657;31412.201
748.487;22382.643;  -10.587;32194.898
749.059;23682.271;   -8.707;32533.719
749.630;24732.889;  -10.537;32158.518
750.201;23866.910;  -11.687;30855.395
750.773;22107.250;  -11.647;28622.555
751.344;22101.748;   -7.147;28405.732
751.915;23108.703;   -9.757;28461.551
752.486;22293.848;  -12.427;27842.850
753.057;19975.012;  -12.227;27845.008
753.628;18879.959;  -10.417;27728.107
754.199;20141.201;  -11.767;27381.086
754.770;21300.984;  -11.187;25882.203
755.341;21260.561;  -10.507;25886.184
755.912;21386.611;   -9.387;26050.861
756.483;20665.621;  -10.647;26798.779
757.054;18795.824;  -11.837;27048.238
757.625;17611.131;  -12.716;26294.838
758.195;17471.869;   -9.666;26142.076
758.766;17151.102;   -8.656;26392.234
759.337;18036.637;  -12.856;26334.594
759.907;19983.549;  -13.366;27579.652
760.478;20815.629;   -8.576;28352.770
761.048;20153.234;  -10.526;27325.088
761.619;19380.115;  -11.116;26460.428
762.189;19327.908;  -12.136;26029.826
762.760;20428.596;   -9.456;26430.145
763.330;21522.531;   -7.136;26670.902
763.900;20785.330;  -11.786;26603.021
764.471;18012.854;  -11.546;25542.740
765.041;16780.051;   -8.096;24358.459
765.611;17026.668;   -8.876;23991.297
766.181;17525.352;  -12.196;24470.236
766.751;18343.869;  -11.636;24845.975
767.321;18209.604;  -10.156;24533.633
767.891;16180.244;  -11.766;24916.492
768.461;15493.431;  -14.936;24776.771
769.031;15869.526;  -12.356;24757.988
769.601;17490.619;   -7.526;24181.088
770.171;17511.527;  -10.766;23670.387
770.741;16758.504;  -13.176;22960.045
771.311;17067.271;  -10.616;22917.523
771.880;17401.441;   -9.576;23562.941
772.450;16878.432;  -10.336;24216.500
773.020;16835.039;  -13.516;24140.398
773.589;16460.730;  -13.466;24414.857
774.159;15975.824;   -8.686;23858.717
774.729;15521.237;   -9.476;22942.135
775.298;15002.336;  -13.666;22324.033
775.867;14627.071;  -11.716;21140.313
776.437;14576.866;   -9.906;20838.092
777.006;14177.254;  -12.166;20599.510
777.576;14180.070;  -12.356;20508.809
778.145;14490.407;  -11.646;20732.947
778.714;14420.103;   -8.226;21062.465
779.283;13629.533;   -9.556;20949.664
779.853;13294.353;  -14.116;20508.623
780.422;13730.154;  -11.506;20649.082
780.991;13217.832;   -9.556;21527.520
781.560;12164.389;   -9.095;22632.658
782.129;11953.034;  -12.135;23048.277
782.698;11925.642;  -10.865;23438.555
783.267;11615.650;   -9.335;23267.734
783.836;11633.610;  -11.045;22415.133
784.404;12590.516;  -13.865;20443.152
784.973;12943.894;  -13.095;19699.150
785.542;12791.843;  -11.575;19763.828
786.111;12705.150;   -9.705;20341.408
786.679;12331.093;  -12.105;20207.967
787.248;12101.110;  -12.455;19516.465
787.817;11827.784;  -11.535;18900.363
788.385;11370.787;   -9.765;17879.121
788.954;10750.877;  -14.005;17658.301
789.522;10327.482;  -11.955;17788.879
790.090;10904.985;  -10.135;18118.277
790.659;11272.146;  -10.975;18338.736
791.227;10711.279;  -13.375;18508.615
791.795;11208.634;  -12.375;17898.254
792.364;11580.865;  -10.725;17295.133
792.932;11813.553;   -9.715;16822.051
793.500;11998.698;  -12.675;17040.148
794.068;12246.523;  -13.495;17179.787
794.636;12369.940;  -10.885;16664.246
795.204;11883.740;  -11.045;16524.545
795.772;11880.374;  -13.175;17274.564
796.340;11392.646;  -12.445;17891.002
796.908;11246.017;   -9.735;17648.561
797.476;11225.479;   -9.815;17064.080
798.044;10778.684;  -13.985;16672.777
798.612; 9938.876;  -13.115;17023.996
799.180; 9619.177;  -10.185;16561.615
799.747; 9529.715;   -9.055;15962.773
800.315; 9228.879;  -12.385;15296.992
800.883; 8886.402;  -15.035;14801.771
801.450; 8831.753;  -10.365;14534.430
802.018; 8834.695;   -9.855;14173.248
802.585; 8878.250;  -11.905;14029.547
803.153; 8949.708;  -11.585;13836.846
803.720; 8938.858;   -9.095;13567.324
804.287; 8652.590;   -9.135;13360.622
804.855; 8220.214;  -11.604;13681.981
805.422; 8075.034;  -11.794;13536.560
805.989; 8044.533;  -10.734;13355.958
806.556; 8201.141;  -10.444;13747.896
807.124; 8511.714;  -12.764;13987.376
807.691; 8444.663;  -12.964;14038.674
808.258; 8226.896;  -11.134;14120.152
808.825; 7893.332;   -9.854;13860.111
809.392; 7926.189;  -10.504;13268.790
809.959; 7478.154;  -13.054;12680.389
810.526; 7117.294;   -8.294;12427.308
811.093; 7183.974;   -8.394;12030.105
811.659; 7746.990;  -12.304;11653.664
812.226; 8134.078;  -13.944;11637.183
812.793; 7756.229;  -10.484;11611.521
813.360; 7112.656;  -10.144;11885.181
813.926; 6722.443;  -11.684;12770.539
814.493; 6483.012;  -13.644;12677.638
815.060; 6149.951;   -9.724;11974.336
815.626; 6212.356;   -9.854;11594.715
816.193; 6646.022;  -13.254;11579.474
816.759; 6703.670;  -13.204;11666.972
817.325; 6838.537;   -9.434;11325.530
817.892; 7185.085;  -10.134;11105.369
818.458; 7577.519;  -13.474;10843.928
819.024; 7237.646;  -11.854;10714.406
819.591; 6897.999;  -10.244;10469.165
820.157; 6638.439;  -10.704;10235.523
820.723; 6132.079;  -12.324;10847.563
821.289; 5836.249;   -9.444;11040.980
821.855; 5757.211;   -8.374;10357.100
822.421; 5760.721;  -10.234; 9978.918
822.987; 5701.606;  -13.294; 9754.177
823.553; 5386.187;  -10.884;10065.755
824.119; 5226.659;   -8.884;10036.294
824.685; 5312.309;   -6.784;10029.192
825.251; 5388.915;  -12.004;10199.230
825.816; 5337.770;  -11.474; 9820.189
826.382; 5153.665;   -9.174; 9297.248
826.948; 5382.183;   -9.214; 9381.347
827.513; 5750.377;  -10.774; 9450.726
828.079; 5540.696;  -11.924; 9472.444
828.645; 5000.929;  -10.543; 9292.643
829.210; 4939.703;  -10.533; 9065.341
829.776; 4917.524;  -10.753; 9132.620
830.341; 4767.361;  -10.173; 9092.878
830.906; 4919.863;  -10.743; 9078.557
831.472; 5263.468;  -11.113; 8534.535
832.037; 5028.242;  -10.603; 8677.874
832.602; 4483.293;  -13.323; 8628.692
833.167; 4186.563;  -10.823; 8879.031
833.733; 4139.195;  -10.113; 9189.790
834.298; 4241.067;  -13.583; 9052.608
834.863; 4239.312;  -12.703; 8895.087
835.428; 4197.847;  -10.523; 8824.266
835.993; 4117.599;   -6.963; 8845.385
836.558; 4019.355;  -10.763; 8888.563
837.123; 4152.689;   -9.903; 8966.582
837.688; 4342.709;   -9.913; 8617.860
838.253; 4525.033;  -10.283; 8590.699
838.817; 4733.056;  -12.963; 8443.797
839.382; 4683.920;  -14.243; 8799.356
839.947; 4384.463;  -10.733; 8810.595
840.511; 4080.389;   -9.383; 8796.394
841.076; 3729.035;  -12.563; 8347.231
841.641; 3773.248;  -12.953; 8224.330
842.205; 3844.375;   -7.043; 8223.349
842.770; 3963.765;   -8.163; 8622.107
843.334; 4209.170;  -12.503; 8410.386
843.898; 4222.407;  -11.693; 8337.465
844.463; 4251.375;  -10.203; 8506.283
845.027; 3997.220;   -9.533; 8280.962
845.591; 3780.432;  -13.443; 8231.141
846.156; 3781.164;  -13.143; 7969.179
846.720; 3664.610;   -9.433; 7768.278
847.284; 3533.495;  -11.033; 7630.957
847.848; 3367.071;  -10.403; 7472.395
848.412; 3270.584;  -11.553; 7437.394
848.976; 3316.122;   -8.393; 7674.592
849.540; 3272.859;   -8.713; 7836.011
850.104; 3353.368;  -12.463; 7913.669
850.668; 3682.145;  -12.973; 7694.508
851.232; 3792.172;  -10.793; 7756.887
851.796; 3613.559;  -10.662; 7926.545
852.359; 3311.934;  -13.082; 7827.844
852.923; 3174.197;  -12.192; 7641.163
853.487; 3021.051;  -11.912; 7342.501
854.050; 2947.647;  -10.892; 7042.820
854.614; 3061.283;  -13.992; 7151.338
855.177; 3161.189;  -11.732; 7105.077
855.741; 3210.248;   -8.962; 6989.675
856.304; 3120.323;   -9.442; 6596.634
856.868; 3055.138;  -14.192; 6356.272
857.431; 3168.726;  -12.702; 6468.571
857.995; 3279.193;   -9.942; 6373.210
858.558; 3284.523;   -9.112; 6324.448
859.121; 3037.334;  -12.932; 6408.327
859.684; 2933.681;  -13.442; 6347.886
860.247; 3054.070;  -10.632; 6321.264
860.810; 3033.485;  -11.272; 6301.903
861.374; 2789.501;   -9.832; 6607.881
861.937; 2539.989;  -11.762; 6408.200
862.500; 2515.304;   -9.722; 6572.639
863.062; 2665.619;  -10.512; 6387.297
863.625; 2836.365;  -11.232; 6190.836
864.188; 2996.089;  -14.112; 5807.254
864.751; 3053.591;  -11.302; 5682.413
865.314; 2947.053;  -10.112; 5547.492
865.876; 2774.495;  -12.182; 5500.150
866.439; 2781.331;  -10.722; 5415.909
867.002; 2737.584;   -9.252; 5501.567
867.564; 2527.649;   -9.572; 5413.946
868.127; 2313.571;  -13.142; 5160.325
868.689; 2227.543;  -12.902; 5133.183
869.252; 2157.144;   -9.732; 5252.382
869.814; 2073.908;   -9.432; 5297.141
870.377; 2090.560;  -11.552; 5390.919
870.939; 2164.012;   -9.052; 5599.898
871.501; 2216.059;  -10.982; 5248.336
872.063; 2224.578;  -12.292; 4854.235
872.626; 2190.512;  -14.912; 4817.074
873.188; 2198.586;  -13.112; 4987.732
873.750; 2152.314;  -13.442; 4868.651
874.312; 2061.610;   -9.402; 4779.330
874.874; 1971.882;  -11.062; 4866.348
875.436; 1890.764;  -13.931; 4718.887
875.998; 1881.620;   -9.561; 4660.005
876.560; 1892.708;  -11.321; 4462.964
877.122; 1840.816;  -12.221; 4145.042
877.683; 1755.838;  -12.191; 4056.481
878.245; 1683.819;  -12.101; 3950.740
878.807; 1710.380;   -8.971; 4058.958
879.369; 1724.987;  -12.071; 3954.677
879.930; 1634.311;  -14.621; 3941.495
880.492; 1581.688;  -10.311; 4067.014
881.053; 1547.972;  -10.901; 3859.633
881.615; 1431.110;  -14.411; 3776.071
882.176; 1348.500;  -13.761; 3734.750
882.738; 1319.516;   -9.181; 3678.489
883.299; 1296.297;  -11.791; 3405.407
883.860; 1299.176;  -13.121; 3351.106
884.422; 1308.472;  -11.211; 3394.044
884.983; 1264.397;  -10.091; 3166.443
885.544; 1169.716;   -8.461; 3189.802
886.105; 1093.156;  -12.361; 3160.360
886.666; 1029.871;  -14.141; 3093.059
887.227;  972.777;  -11.361; 2941.957
887.788;  909.426;  -11.401; 2974.836
888.349;  848.959;  -13.791; 2721.214
888.910;  852.919;  -13.191; 2696.493
889.471;  863.202;   -9.881; 2560.172
890.032;  848.494;   -9.881; 2558.190
890.593;  822.898;  -10.371; 2567.669
891.153;  793.534;  -13.301; 2460.307
891.714;  744.673;  -11.431; 2372.046
892.275;  706.907;  -11.291; 2309.505
892.835;  668.953;  -11.471; 2382.543
893.396;  610.231;  -11.541; 2295.502
893.956;  553.690;  -11.181; 2162.420
894.517;  518.527;  -11.741; 2125.439
895.077;  513.094;  -11.671; 2086.978
895.638;  513.304;  -11.311; 2126.316
896.198;  485.537;   -9.831; 1838.275
896.758;  443.852;   -8.421; 1892.813
897.319;  411.499;  -12.351; 1792.232
897.879;  394.113;  -13.511; 1762.751
898.439;  369.792;  -12.001; 1661.149
898.999;  344.447;  -10.180; 1781.468
899.559;  335.394;  -12.030; 1703.347
900.119;  330.262;  -15.710; 1537.525
900.679;  327.896;   -8.900; 1638.384
901.239;  316.455;   -8.340; 1527.902
901.799;  306.098;  -13.910; 1456.441
902.359;  299.801;  -13.460; 1357.140
902.919;  292.058;  -11.490; 1331.118
903.479;  280.511;  -12.110; 1317.257
904.038;  259.069;  -11.720; 1262.595
904.598;  241.314;  -13.610; 1152.034
905.158;  237.478;  -11.040; 1240.893
905.717;  231.102;  -10.900; 1233.691
906.277;  219.468;  -15.080; 1217.330
906.836;  210.781;  -13.380; 1222.408
907.396;  203.001;  -10.780; 1193.047
907.955;  196.059;   -8.500; 1182.526
908.515;  190.889;  -12.760; 1099.364
909.074;  183.886;  -11.900; 1092.863
909.633;  177.976;   -8.950; 1069.121
910.192;  174.231;   -8.770; 1196.460
910.752;  168.804;  -12.390; 1029.960
911.311;  164.840;  -13.680; 1009.780
911.870;  162.047;  -12.370;  971.460
912.429;  164.639;  -10.900; 1094.080
912.988;  162.640;  -11.690; 1081.060
913.547;  156.631;  -13.240;  940.380
914.106;  151.954;  -11.990;  999.420
914.665;  150.695;   -9.990;  984.020
915.224;  149.286;  -12.880; 1035.760
915.782;  148.810;  -12.350;  922.560
916.341;  148.060;   -9.110; 1049.840
916.900;  145.012;   -9.270;  925.260
917.458;  143.287;  -13.240;  884.220
918.017;  141.958;  -13.550;  942.600
918.576;  140.954;  -12.320;  904.440
919.134;  140.095;  -11.490;  837.980
919.693;  137.349;  -13.670;  893.060
920.251;  135.022;  -15.470;  876.500
920.809;  134.389;  -11.290;  839.580
921.368;  134.379;  -10.210;  885.360
921.926;  133.251;  -12.140;  842.940
922.484;  131.184;  -13.080;  903.360
923.042;  131.609;  -11.720;  880.340
923.601;  134.351;   -7.480;  998.680
924.159;  132.581;  -11.570;  935.560
924.717;  129.694;  -13.840;  841.080
925.275;  129.729;  -10.640;  903.240
925.833;  129.545;  -11.540;  779.320
926.391;  130.498;  -12.960;  938.380
926.949;  128.100;  -14.130;  857.680
927.506;  127.906;  -11.750;  903.500
928.064;  129.101;  -10.250;  877.580
928.622;  128.180;  -13.030;  880.100
929.180;  127.351;  -13.400;  814.180
929.737;  128.822;  -10.700;  808.540
930.295;  132.621;  -10.070;  928.480
930.853;  134.325;  -11.960;  849.100
931.410;  134.801;  -13.120;  821.120
931.968;  133.684;  -10.770;  940.660
932.525;  133.811;  -10.680;  909.380
933.082;  134.333;  -13.130;  811.440
933.640;  134.393;  -13.210;  925.900
934.197;  131.750;  -11.060;  886.360
934.754;  134.094;   -9.580;  897.780
935.312;  136.207;  -14.000;  863.340
935.869;  139.929;  -10.710; 1012.980
936.426;  140.558;   -9.860;  872.800
936.983;  141.906;   -9.710;  889.020
937.540;  140.497;  -13.990;  838.280
938.097;  140.187;  -14.040;  940.120
938.654;  140.953;  -10.310;  898.860
939.211;  142.848;  -10.560;  952.480
939.768;  146.920;  -13.900;  915.420
940.324;  148.354;  -14.760;  904.200
940.881;  150.209;  -10.370;  878.500
941.438;  150.466;   -8.260; 1021.200
941.995;  146.534;  -12.540;  992.560
942.551;  144.896;  -14.670;  875.620
943.108;  144.249;  -10.450;  937.920
943.664;  147.034;  -10.750;  869.340
944.221;  149.762;  -11.550; 1088.140
944.777;  147.461;  -14.770;  869.680
945.334;  149.247;  -12.820;  884.840
945.890;  152.046;  -10.130;  946.480
946.446;  152.086;  -13.470;  947.020
947.003;  153.198;  -12.120;  964.940
947.559;  154.915;   -9.980; 1063.040
948.115;  154.576;   -9.080; 1026.540
948.671;  152.571;  -10.830;  967.300
949.227;  148.530;  -12.440;  859.560
949.783;  146.825;  -12.910;  858.900
950.339;  148.838;  -10.270;  991.000
950.895;  148.630;  -13.630; 1023.840
951.451;  148.446;  -15.100;  925.280
952.007;  148.882;  -11.330;  998.540
952.563;  151.132;  -10.580;  937.780
953.118;  150.060;  -13.440;  904.940
953.674;  148.415;  -12.710;  935.780
954.230;  148.261;  -10.350;  949.640
954.785;  146.784;   -9.190;  936.640
955.341;  144.084;  -11.200;  998.160
955.897;  142.849;  -16.560;  834.660
956.452;  142.461;  -12.570;  953.840
957.008;  142.275;   -7.970; 1083.640
957.563;  140.708;  -11.940; 1009.540
958.118;  135.521;  -13.450;  877.700
958.674;  137.012;  -12.030;  946.780
959.229;  137.536;   -9.410; 1013.980
959.784;  135.142;  -12.000;  832.400
960.339;  133.395;  -14.780; 1001.280
960.894;  130.148;   -9.860;  963.760
961.449;  126.998;   -9.970;  859.960
962.004;  126.716;  -10.900; 1212.840
962.559;  122.826;  -13.150;  860.140
963.114;  119.137;  -13.740;  742.480
963.669;  119.500;   -9.820;  915.500
964.224;  118.257;  -13.890;  874.340
964.779;  117.131;  -12.600;  828.420
965.334;  118.475;  -10.950; 1017.860
965.888;  118.494;  -11.170;  875.360
966.443;  120.272;  -12.540;  972.380
966.998;  118.797;  -15.780;  819.460
967.552;  118.132;   -9.760;  908.380
968.107;  114.489;   -9.060;  868.300
968.661;  115.098;  -11.950;  922.440
969.216;  116.398;  -12.800;  856.280
969.770;  117.184;  -11.210;  917.200
970.324;  115.369;  -11.610;  923.140
970.879;  112.286;  -11.370;  947.180
971.433;  108.825;  -12.540;  952.720
971.987;  103.402;  -11.320;  895.340
972.541;  100.798;  -10.720;  917.100
973.095;  100.917;   -9.680; 1009.460
973.649;   99.461;  -11.440;  809.480
974.203;   98.448;  -11.210;  829.040
974.757;   99.743;  -10.240;  855.220
975.311;   99.138;  -13.720;  872.600
975.865;   98.009;  -13.770;  881.820
976.419;   96.488;  -11.690;  857.400
976.973;   97.345;   -9.510;  849.620
977.526;   99.092;  -12.620;  949.920
978.080;   97.850;  -12.010;  796.780
978.634;   99.516;  -10.170;  921.320
979.187;   96.475;   -9.020;  905.400
979.741;   92.975;   -9.820; 1018.380
980.294;   88.808;  -14.870;  789.160
980.848;   87.762;  -12.380;  717.220
981.401;   89.453;  -10.350;  816.540
981.955;   91.314;  -13.720;  844.300
982.508;   90.338;  -11.490;  746.340
983.061;   90.381;  -10.000;  915.260
983.615;   86.958;  -11.480;  798.800
984.168;   83.870;  -13.220;  770.080
984.721;   82.811;  -13.960;  880.760
985.274;   82.301;  -10.870;  867.500
985.827;   81.288;   -9.790;  834.220
986.380;   78.019;  -13.120;  721.340
986.933;   78.201;  -12.450;  864.800
987.486;   76.142;  -10.210;  861.920
988.039;   75.400;   -8.430;  863.100
988.591;   73.642;  -10.520;  893.260
989.144;   71.092;  -14.860;  737.260
989.697;   70.202;  -13.080;  758.740
990.250;   71.803;  -10.150;  858.100
990.802;   70.314;  -13.430;  755.860
991.355;   70.588;  -12.750;  974.880
991.907;   69.005;  -12.040;  864.320
992.460;   67.421;  -11.330;  753.760
993.012;   66.612;  -13.610;  749.540
993.565;   64.293;  -13.460;  711.360
994.117;   66.113;   -9.360;  950.780
994.669;   62.923;  -11.300;  701.320
995.221;   61.039;  -13.540;  791.920
995.774;   58.537;  -13.430;  787.580
996.326;   57.567;  -12.520;  740.220
996.878;   57.539;  -10.950;  838.420
997.430;   56.246;  -14.300;  699.860
997.982;   54.447;  -13.760;  750.140
998.534;   53.773;  -11.530;  739.060
999.086;   53.063;  -10.310;  738.220
999.638;   52.083;  -12.530;  661.380
1000.190;   49.946;  -11.840;  699.320
1000.741;   50.522;  -10.260;  742.700
1001.293;   50.083;   -8.860;  686.020
1001.845;   48.925;  -13.700;  676.640
1002.396;   49.012;  -12.100;  743.400
1002.948;   48.203;  -12.760;  737.400
1003.500;   47.271;  -10.380;  723.780
1004.051;   47.504;  -11.900;  907.580
1004.603;   45.474;  -12.250;  791.820
1005.154;   41.829;  -13.210;  608.980
1005.705;   40.728;  -10.950;  723.960
1006.257;   41.081;  -13.880;  707.220
1006.808;   39.888;  -12.840;  685.460
1007.359;   39.955;  -10.570;  763.240
1007.910;   38.597;   -9.620;  646.640
1008.461;   38.473;  -13.630;  732.940
1009.013;   37.937;  -17.200;  588.340
1009.564;   38.806;  -10.200;  793.520
1010.115;   36.649;  -12.570;  597.040
1010.665;   36.751;  -15.150;  602.160
1011.216;   36.358;  -14.480;  667.920
1011.767;   35.685;  -11.340;  697.920
1012.318;   35.986;   -9.780;  736.980
1012.869;   34.784;  -12.380;  679.000
1013.419;   34.035;  -15.560;  603.120
1013.970;   34.260;  -11.010;  666.640
1014.521;   33.925;  -11.610;  620.620
1015.071;   34.095;  -13.450;  670.380
1015.622;   33.527;  -13.870;  635.460
1016.172;   33.043;  -11.610;  596.820
1016.723;   33.242;  -12.120;  614.380
1017.273;   32.787;  -13.620;  604.160
1017.823;   32.569;  -14.140;  650.340
1018.374;   32.102;  -12.800;  611.760
1018.924;   31.918;  -12.340;  716.880
1019.474;   32.554;  -11.410;  718.880
1020.024;   31.257;  -14.770;  657.580
1020.574;   32.054;   -9.780;  726.160
1021.124;   32.487;   -8.560;  673.580
1021.674;   30.360;  -15.190;  559.120
1022.224;   31.471;  -13.530;  708.940
1022.774;   30.991;  -13.280;  668.820
1023.324;   31.217;  -10.690;  753.520
1023.874;   32.433;  -10.240;  875.760
1024.423;   29.968;  -12.540;  613.700
1024.973;   29.291;  -10.010;  610.760
1025.523;   29.353;  -10.550;  620.960
1026.072;   29.157;  -13.560;  606.420
1026.622;   28.740;  -15.120;  675.740
1027.172;   29.801;  -11.260;  715.660
1027.721;   28.928;  -11.410;  601.220
1028.270;   29.577;  -13.530;  663.400
1028.820;   28.910;  -13.680;  638.080
1029.369;   28.205;  -13.520;  612.700
1029.918;   27.953;  -10.980;  649.840
1030.468;   28.047;  -13.530;  564.780
1031.017;   27.924;  -13.170;  634.800
1031.566;   27.100;  -12.200;  608.900
1032.115;   28.112;   -9.960;  694.500
1032.664;   25.801;  -13.210;  596.480
1033.213;   27.848;  -12.500;  735.420
1033.762;   26.374;  -11.910;  635.620
1034.311;   26.416;   -9.640;  677.220
1034.860;   26.947;  -13.310;  691.000
1035.408;   26.876;  -11.830;  722.720
1035.957;   27.295;  -12.000;  719.540
1036.506;   25.124;  -11.690;  530.800
1037.055;   27.541;  -10.990;  844.320
1037.603;   25.541;  -15.120;  664.000
1038.152;   23.488;  -12.450;  534.760
1038.700;   25.030;  -10.560;  585.740
1039.249;   24.191;  -11.080;  681.220
1039.797;   24.998;  -12.540;  633.360
1040.345;   24.190;  -11.920;  705.420
1040.894;   24.234;  -11.410;  625.300
1041.442;   24.084;  -14.320;  632.200
1041.990;   22.897;  -16.240;  559.160
1042.538;   22.412;  -11.680;  536.180
1043.087;   23.360;  -10.760;  570.860
1043.635;   23.956;  -11.850;  670.500
1044.183;   23.256;  -15.480;  586.400
1044.731;   23.144;  -11.770;  576.000
1045.279;   23.259;  -13.090;  674.920
1045.827;   24.757;  -12.440;  892.400
1046.374;   21.124;  -13.840;  515.420
1046.922;   21.476;  -13.220;  590.580
1047.470;   22.601;  -10.230;  691.300
1048.018;   22.220;  -14.590;  647.960
1048.565;   23.398;  -12.050;  708.600
1049.113;   21.436;  -11.650;  557.000
1049.660;   21.281;  -10.510;  629.660
1050.208;   22.297;  -13.310;  675.640
1050.755;   20.482;  -15.900;  606.580
1051.303;   21.569;  -11.430;  686.820
1051.850;   21.715;   -8.480;  635.120
1052.397;   20.163;  -15.010;  473.960
1052.945;   19.712;  -13.960;  617.760
1053.492;   21.287;  -13.150;  741.840
1054.039;   21.934;   -9.630;  720.180
1054.586;   20.489;  -13.680;  557.240
1055.133;   20.505;  -14.570;  693.140
1055.680;   20.666;  -13.820;  646.620
1056.227;   20.095;  -11.730;  542.780
1056.774;   20.633;  -12.480;  794.980
1057.321;   18.798;  -13.930;  523.260
1057.868;   19.334;  -11.690;  651.320
1058.415;   19.489;   -9.520;  651.980
1058.961;   20.302;  -13.160;  678.940
1059.508;   19.117;  -12.920;  643.820
1060.055;   18.753;  -11.920;  581.780
1060.601;   20.269;  -11.500;  624.300
1061.148;   19.208;  -14.330;  616.820
1061.694;   18.310;  -16.870;  592.580
1062.241;   18.246;  -10.330;  596.320
1062.787;   19.409;  -10.620;  663.140
1063.334;   19.415;  -10.110;  808.560
1063.880;   17.803;  -13.400;  668.360
1064.426;   18.442;  -10.680;  706.820
1064.972;   18.162;   -9.920;  601.340
1065.518;   16.453;  -10.980;  566.640
1066.065;   17.190;  -14.890;  624.460
1066.611;   16.534;  -12.870;  598.800
1067.157;   18.027;  -12.950;  641.860
1067.703;   17.455;  -13.540;  668.480
1068.249;   16.569;  -13.540;  605.220
1068.794;   16.907;  -12.600;  626.880
1069.340;   16.665;  -10.620;  578.960
1069.886;   16.152;  -12.830;  590.700
1070.432;   15.421;  -14.870;  541.720
1070.977;   15.361;  -11.980;  601.080
1071.523;   16.148;   -8.200;  573.060
1072.068;   16.669;  -12.330;  582.000
1072.614;   15.638;  -16.370;  527.760
1073.160;   15.464;  -11.100;  687.040
1073.705;   14.944;  -10.480;  572.520
1074.250;   15.784;  -14.520;  559.900
1074.796;   16.556;  -11.460;  655.160
1075.341;   15.644;  -11.950;  664.100
1075.886;   15.286;  -11.460;  594.240
1076.431;   14.600;  -13.770;  649.880
1076.976;   14.240;  -12.680;  639.220
1077.521;   13.177;  -13.170;  583.080
1078.067;   14.223;  -10.860;  579.400
1078.612;   14.573;  -13.920;  661.620
1079.156;   14.997;  -13.880;  601.540
1079.701;   14.918;  -13.120;  693.260
1080.246;   15.686;   -9.940;  696.300
1080.791;   14.525;  -14.740;  625.020
1081.336;   14.235;  -13.750;  659.320
1081.880;   14.330;  -13.400;  649.680
1082.425;   13.657;  -12.220;  573.480
1082.970;   15.513;  -11.610;  717.040
1083.514;   13.505;  -13.580;  597.000
1084.059;   13.073;  -12.810;  586.720
1084.603;   12.732;  -12.320;  565.840
1085.147;   13.139;  -13.190;  645.220
1085.692;   14.072;  -12.480;  716.800
1086.236;   11.835;  -13.020;  503.140
1086.780;   14.859;   -9.190;  751.440
1087.325;   13.505;  -12.480;  654.620
1087.869;   12.551;  -12.450;  610.700
1088.413;   12.865;  -12.240;  705.040
1088.957;   11.503;   -9.020;  543.400
1089.501;   13.374;  -10.320;  766.640
1090.045;   12.570;  -12.720;  726.480
1090.589;   10.504;  -13.690;  569.920
1091.133;   12.431;  -10.020;  673.340
1091.676;   12.392;  -12.330;  591.940
1092.220;   10.254;  -14.970;  600.920
1092.764;   12.683;  -12.430;  706.960
1093.307;   12.462;   -9.800;  673.780
1093.851;   10.689;  -14.970;  556.540
1094.395;   11.069;  -15.310;  683.140
1094.938;   10.171;  -10.370;  632.520
1095.482;   10.840;  -11.050;  559.800
1096.025;   12.111;  -11.840;  710.880
1096.568;   11.774;  -12.840;  779.280
1097.112;    9.025;  -14.700;  508.180
1097.655;   11.350;   -8.720;  603.000
1098.198;    9.092;  -13.610;  600.180
1098.741;    9.375;  -13.350;  612.860
1099.285;   10.770;  -11.230;  657.300
1099.828;    8.799;  -11.840;  439.400
1100.371;    9.975;  -10.840;  608.160
1100.914;   10.173;  -14.190;  682.660
1101.457;   10.180;  -11.240;  679.900
1101.999;    8.766;  -11.270;  584.680
1102.542;    9.460;  -11.480;  641.440
1103.085;    9.274;  -11.750;  658.500
1103.628;    9.473;  -11.400;  762.060
1104.170;    9.409;  -10.490;  588.280
1104.713;    9.471;  -10.600;  646.700
1105.256;    8.643;  -14.360;  557.440
1105.798;    7.394;  -13.210;  499.980
1106.341;   10.935;  -10.270;  728.900
1106.883;    9.138;  -12.200;  521.340
1107.425;    8.550;  -13.110;  668.180
1107.968;    8.113;  -12.840;  612.380
1108.510;    9.078;   -6.480;  684.960
1109.052;    7.638;  -13.940;  612.620
1109.594;    7.480;  -13.690;  554.440
1110.136;    8.193;  -11.880;  643.220
1110.679;    8.163;   -9.500;  633.080
1111.221;    8.767;  -14.160;  604.460
1111.763;    8.030;  -13.980;  559.220
1112.304;    7.079;  -13.880;  547.140
1112.846;    8.600;  -12.210;  666.240
1113.388;   10.006;  -11.390;  942.180
1113.930;    7.078;  -14.540;  694.200
1114.472;    6.682;  -12.640;  606.540
1115.013;    6.523;  -11.620;  551.280
1115.555;    6.028;  -13.640;  587.100
1116.097;    6.206;  -15.380;  579.480
1116.638;    6.730;  -12.640;  684.600
1117.180;    7.507;   -9.850;  667.740
1117.721;    6.602;  -13.690;  568.580
1118.262;    7.241;  -12.680;  677.960
1118.804;    7.160;  -12.530;  637.340
1119.345;    6.281;  -11.690;  578.400
1119.886;    7.077;  -13.380;  704.040
1120.427;    5.071;  -14.070;  589.020
1120.969;    5.347;  -13.500;  597.920
1121.510;    5.028;  -11.480;  563.060
1122.051;    5.730;  -12.830;  723.580
1122.592;    5.258;  -14.290;  655.420
1123.133;    4.272;  -12.400;  547.940
1123.673;    7.378;  -10.130;  706.480
1124.214;    5.537;  -12.930;  612.460
1124.755;    5.716;  -14.380;  639.460
1125.296;    4.951;  -14.000;  627.320
1125.836;    6.768;  -10.070;  691.500
1126.377;    4.743;  -12.640;  599.660
1126.918;    5.578;  -12.960;  614.980
1127.458;    4.161;  -13.350;  622.220
1127.999;    4.929;  -10.750;  656.980
1128.539;    5.498;  -12.350;  694.240
1129.079;    3.944;  -14.860;  632.720
1129.620;    3.233;  -13.840;  558.100
1130.160;    4.012;  -12.330;  539.480
1130.700;    4.714;  -14.530;  640.840
1131.240;    4.592;  -12.530;  643.700
1131.781;    3.659;  -14.450;  619.680
1132.321;    4.510;   -9.790;  599.120
1132.861;    3.165;  -14.860;  564.200
1133.401;    3.204;  -14.290;  593.940
1133.941;    4.270;  -11.750;  626.280
1134.481;    3.314;   -9.920;  597.580
1135.020;    3.199;  -12.290;  609.160
1135.560;    3.667;  -11.650;  674.940
1136.100;    2.282;  -16.270;  501.160
1136.640;    3.485;  -10.890;  510.480
1137.179;    3.234;  -14.180;  537.960
1137.719;    3.312;  -16.250;  605.400
1138.258;    3.410;  -14.230;  587.360
1138.798;    3.606;   -9.090;  663.780
1139.337;    2.080;  -15.130;  482.840
1139.877;    2.843;  -13.680;  642.360
1140.416;    4.707;  -11.320;  878.060
1140.955;    2.634;  -10.860;  535.380
1141.494;    2.541;  -12.920;  669.280
1142.034;    2.081;  -13.930;  583.520
1142.573;    2.923;  -11.440;  646.280
1143.112;    2.218;  -12.000;  553.480
1143.651;    2.864;  -13.670;  536.480
1144.190;    3.001;  -12.730;  691.640
1144.729;    1.792;  -14.560;  607.420
1145.267;    2.994;  -11.830;  584.900
1145.806;    3.927;  -12.230;  637.040
1146.345;    1.430;  -14.130;  635.020
1146.884;    1.272;  -11.590;  622.500
1147.422;    2.242;  -12.550;  533.060
1147.961;    3.715;  -11.180;  708.460
1148.500;    2.341;  -11.510;  669.720
1149.038;    1.956;  -11.640;  632.500
1149.577;    2.435;  -10.130;  698.640
1150.115;   -0.018;  -13.970;  452.280
1150.653;    1.085;  -14.520;  607.340
1151.192;    1.159;  -12.810;  552.920
1151.730;    1.892;   -9.100;  652.560
1152.268;    1.178;  -12.220;  589.520
1152.806;    0.297;  -14.140;  571.180
1153.344;   -0.429;  -12.350;  577.640
1153.882;    0.923;   -8.980;  600.060
1154.421;   -0.452;  -15.190;  470.620
1154.958;    0.178;  -15.210;  595.240
1155.496;    1.320;  -12.850;  645.280
1156.034;    0.921;   -9.940;  721.880
1156.572;    2.089;  -13.570;  667.060
1157.110;   -0.341;  -14.590;  473.940
1157.647;    0.923;  -13.030;  676.960
1158.185;    0.185;  -12.140;  564.320
1158.723;   -0.737;  -14.390;  509.200
1159.260;    0.360;  -14.090;  701.700
1159.798;    0.580;  -11.920;  658.160
1160.335;    0.226;  -11.110;  631.820

