gmr_left
Integration time [ms]: 384.568
Averaging Nr. [scans]: 20
Smoothing Nr. [pixels]: 0
Data measured with spectrometer [name]: 7414430SP
Wave   ;Sample   ;Dark     ;Reference
[nm]   ;[counts] ;[counts] ;[counts] 

288.544;  639.955;  568.515;  793.890
289.143;  538.924;  409.561;  681.602
289.742;  668.291;  554.563;  828.814
290.341;  632.022;  505.621;  789.841
290.940;  594.515;  470.651;  730.702
291.538;  721.506;  638.612;  881.108
292.137;  644.996;  534.599;  792.581
292.736;  802.872;  681.621;  975.101
293.335;  596.477;  510.669;  735.086
293.934;  639.527;  495.663;  781.677
294.532;  864.548;  741.656; 1031.958
295.131;  682.313;  595.746;  834.394
295.730;  679.451;  598.740;  809.588
296.328;  647.255;  543.748;  783.442
296.927;  648.622;  597.761;  779.652
297.525;  643.451;  550.746;  781.236
298.124;  545.013;  421.822;  654.009
298.722;  636.270;  559.769;  761.933
299.321;  588.082;  487.787;  708.597
299.919;  624.137;  498.805;  751.918
300.518;  585.163;  469.828;  689.338
301.116;  580.558;  504.786;  691.381
301.715;  617.792;  511.760;  730.222
302.313;  592.699;  453.771;  704.943
302.911;  624.827;  513.844;  733.830
303.509;  786.975;  690.770;  925.627
304.108;  647.010;  544.767;  760.383
304.706;  687.720;  555.763;  801.664
305.304;  696.434;  584.826;  796.707
305.902;  678.530;  580.759;  784.484
306.500;  623.379;  507.790;  728.200
307.098;  652.877;  522.797;  746.560
307.696;  687.322;  583.814;  780.432
308.294;  643.558;  558.798;  731.359
308.892;  663.305;  546.766;  759.769
309.490;  619.984;  509.809;  712.161
310.088;  707.917;  605.831;  788.444
310.686;  716.342;  599.777;  821.749
311.284;  672.973;  545.812;  766.040
311.882;  635.636;  537.830;  731.225
312.480;  626.218;  498.852;  697.167
313.078;  720.449;  628.829;  808.331
313.675;  619.929;  501.790;  691.600
314.273;  717.929;  596.854;  797.837
314.871;  533.949;  410.841;  589.829
315.468;  592.827;  515.844;  652.090
316.066;  620.601;  490.792;  694.427
316.664;  583.484;  490.855;  656.351
317.261;  809.494;  738.822;  910.128
317.859;  690.863;  589.840;  768.735
318.456;  735.849;  653.806;  830.096
319.054;  694.901;  615.833;  787.828
319.651;  680.604;  575.818;  759.928
320.249;  726.154;  657.818;  810.188
320.846;  631.820;  532.804;  714.286
321.443;  735.518;  658.817;  832.135
322.041;  723.825;  623.828;  812.315
322.638;  626.846;  561.821;  701.456
323.235;  589.849;  516.771;  665.683
323.833;  660.584;  582.791;  740.354
324.430;  552.925;  431.805;  615.900
325.027;  793.803;  719.791;  876.855
325.624;  582.825;  430.747;  644.532
326.221;  617.656;  470.764;  689.717
326.818;  751.287;  639.788;  818.332
327.415;  684.522;  529.732;  748.828
328.012;  636.767;  477.725;  690.585
328.609;  680.379;  521.743;  731.389
329.206;  712.874;  601.760;  778.621
329.803;  689.422;  539.767;  737.841
330.400;  661.968;  498.741;  704.260
330.997;  750.877;  568.762;  817.147
331.594;  741.308;  600.815;  788.185
332.191;  686.591;  534.767;  728.722
332.787;  773.146;  605.786;  844.463
333.384;  705.075;  523.840;  763.093
333.981;  751.620;  572.897;  815.687
334.578;  659.842;  498.876;  708.378
335.174;  669.172;  497.878;  731.469
335.771;  759.316;  594.918;  836.456
336.367;  657.504;  505.953;  710.631
336.964;  723.894;  578.927;  793.266
337.561;  665.935;  529.941;  731.112
338.157;  816.310;  709.000;  911.916
338.754;  728.032;  608.020;  796.589
339.350;  650.859;  535.012;  722.493
339.946;  687.865;  575.978;  773.135
340.543;  749.877;  657.060;  846.136
341.139;  650.391;  529.094;  720.836
341.735;  686.182;  610.102;  772.593
342.332;  620.435;  532.087;  691.472
342.928;  703.966;  574.076;  795.394
343.524;  665.670;  581.108;  761.684
344.120;  652.280;  531.115;  738.562
344.716;  631.446;  541.060;  723.717
345.313;  700.130;  584.063;  795.342
345.909;  554.315;  435.072;  627.336
346.505;  654.720;  573.043;  740.247
347.101;  716.385;  594.029;  827.864
347.697;  680.646;  585.008;  785.398
348.293;  540.025;  442.033;  627.244
348.889;  653.366;  578.023;  745.914
349.485;  592.218;  517.010;  688.205
350.081;  663.392;  577.005;  772.592
350.676;  599.761;  521.040;  691.606
351.272;  694.168;  594.987;  809.530
351.868;  653.404;  566.970;  780.497
352.464;  619.946;  564.990;  723.932
353.059;  566.625;  473.015;  646.017
353.655;  667.556;  584.980;  777.063
354.251;  642.749;  553.958;  759.845
354.846;  628.529;  534.006;  740.646
355.442;  638.556;  561.039;  753.071
356.038;  635.118;  554.998;  751.708
356.633;  614.723;  546.993;  728.594
357.229;  606.177;  547.008;  724.757
357.824;  599.111;  515.022;  703.600
358.420;  562.516;  529.017;  679.726
359.015;  573.318;  508.004;  695.357
359.610;  646.637;  579.992;  763.920
360.206;  502.397;  418.041;  603.240
360.801;  529.632;  482.003;  646.503
361.396;  601.865;  522.978;  725.975
361.992;  548.061;  504.022;  668.220
362.587;  552.146;  512.048;  670.160
363.182;  574.210;  531.024;  689.631
363.777;  612.461;  559.010;  738.242
364.372;  609.468;  578.016;  737.314
364.967;  566.972;  518.048;  680.744
365.563;  668.310;  623.995;  815.567
366.158;  562.303;  502.007;  685.161
366.753;  530.094;  489.992;  649.263
367.348;  610.704;  579.023;  746.056
367.942;  560.946;  519.008;  697.298
368.537;  607.604;  552.029;  754.245
369.132;  568.904;  517.017;  703.428
369.727;  511.485;  477.052;  638.079
370.322;  470.563;  430.032;  580.186
370.917;  574.611;  528.040;  710.646
371.511;  711.308;  666.020;  861.834
372.106;  638.222;  615.048;  776.964
372.701;  464.075;  439.062;  585.988
373.296;  695.779;  671.012;  863.135
373.890;  514.146;  486.048;  647.840
374.485;  562.622;  535.071;  691.199
375.079;  598.306;  582.021;  738.685
375.674;  651.542;  650.017;  812.970
376.268;  548.277;  528.049;  691.759
376.863;  456.587;  451.103;  580.327
377.457;  535.389;  514.031;  662.490
378.052;  607.459;  601.059;  764.884
378.646;  594.566;  571.058;  741.167
379.240;  581.066;  552.064;  721.176
379.835;  507.920;  532.037;  636.978
380.429;  442.999;  427.045;  562.557
381.023;  619.616;  597.070;  779.205
381.617;  544.473;  514.081;  680.106
382.212;  545.315;  518.036;  685.303
382.806;  603.389;  610.031;  760.690
383.400;  530.001;  550.067;  672.281
383.994;  531.401;  557.073;  664.870
384.588;  554.778;  535.029;  697.701
385.182;  585.611;  584.999;  726.624
385.776;  568.827;  539.019;  706.875
386.370;  552.927;  545.054;  681.968
386.964;  545.415;  553.031;  684.155
387.558;  471.875;  448.003;  598.360
388.152;  544.087;  545.045;  681.959
388.745;  665.680;  664.039;  814.707
389.339;  616.601;  623.014;  747.642
389.933;  556.206;  552.998;  695.370
390.527;  695.372;  720.024;  859.029
391.120;  472.453;  481.071;  595.318
391.714;  575.425;  588.039;  711.633
392.308;  633.051;  622.008;  780.253
392.901;  513.058;  497.037;  642.460
393.495;  480.330;  508.057;  595.414
394.089;  622.354;  649.046;  760.452
394.682;  550.047;  534.047;  697.188
395.275;  583.278;  577.047;  719.927
395.869;  536.239;  567.061;  667.314
396.462;  503.318;  512.039;  616.609
397.056;  629.494;  631.003;  776.621
397.649;  595.049;  601.057;  731.575
398.242;  579.446;  583.025;  712.645
398.836;  629.965;  630.013;  766.408
399.429;  505.632;  486.015;  631.041
400.022;  541.222;  536.059;  665.902
400.615;  658.008;  675.043;  805.609
401.208;  565.813;  580.009;  691.451
401.802;  565.760;  569.036;  699.329
402.395;  561.972;  535.059;  683.502
402.988;  564.454;  588.070;  696.627
403.581;  523.523;  560.023;  646.878
404.174;  556.529;  573.994;  686.568
404.767;  526.454;  529.040;  638.583
405.360;  504.118;  506.062;  621.445
405.953;  626.520;  648.008;  759.034
406.545;  597.665;  583.996;  725.342
407.138;  491.387;  507.039;  618.350
407.731;  508.066;  507.029;  613.303
408.324;  542.887;  560.975;  660.554
408.917;  561.061;  577.999;  681.864
409.509;  617.444;  618.027;  740.396
410.102;  527.937;  542.051;  643.948
410.695;  541.773;  557.970;  665.758
411.287;  487.118;  482.981;  599.821
411.880;  475.816;  456.988;  585.421
412.472;  494.418;  511.027;  613.092
413.065;  527.766;  563.006;  629.408
413.657;  466.875;  484.963;  576.678
414.250;  528.772;  525.966;  646.681
414.842;  563.263;  576.997;  676.353
415.434;  477.399;  475.969;  570.463
416.027;  529.025;  535.922;  652.196
416.619;  593.113;  592.962;  713.400
417.211;  489.161;  500.964;  599.352
417.804;  516.484;  540.914;  628.499
418.396;  501.410;  513.965;  607.643
418.988;  542.689;  525.944;  659.238
419.580;  466.284;  484.978;  568.276
420.172;  446.401;  456.944;  536.196
420.764;  556.272;  578.913;  672.482
421.356;  529.903;  544.925;  636.898
421.948;  564.785;  552.947;  677.661
422.540;  564.441;  580.890;  680.027
423.132;  500.937;  498.887;  600.641
423.724;  461.503;  455.931;  561.267
424.316;  514.637;  504.916;  621.345
424.908;  504.025;  498.869;  591.517
425.500;  539.594;  548.869;  647.978
426.092;  534.015;  551.867;  648.268
426.683;  580.491;  583.896;  684.836
427.275;  546.586;  540.848;  641.471
427.867;  555.080;  557.841;  668.948
428.458;  611.773;  592.842;  732.344
429.050;  576.834;  569.867;  680.749
429.642;  617.013;  615.845;  743.124
430.233;  467.684;  460.832;  569.356
430.825;  620.660;  584.837;  724.809
431.416;  585.401;  594.868;  698.241
432.008;  546.418;  538.823;  651.723
432.599;  547.591;  555.814;  656.073
433.190;  535.554;  534.859;  637.670
433.782;  493.549;  480.858;  590.395
434.373;  747.161;  771.800;  884.765
434.964;  494.627;  467.798;  602.920
435.556;  531.942;  533.836;  634.537
436.147;  643.232;  617.822;  758.490
436.738;  588.694;  584.816;  701.099
437.329;  607.501;  599.763;  721.723
437.920;  559.637;  563.852;  666.688
438.511;  474.351;  440.845;  564.526
439.103;  521.955;  524.772;  623.998
439.694;  575.811;  546.759;  681.583
440.285;  644.710;  607.773;  764.432
440.876;  719.039;  709.798;  845.738
441.466;  480.877;  436.786;  575.162
442.057;  557.467;  554.731;  665.814
442.648;  632.617;  617.772;  746.255
443.239;  525.722;  531.791;  620.477
443.830;  589.130;  578.742;  704.958
444.421;  562.689;  482.716;  655.474
445.011;  581.322;  529.779;  693.619
445.602;  628.384;  592.785;  743.126
446.193;  408.413;  379.734;  488.117
446.783;  532.291;  497.697;  640.397
447.374;  579.924;  563.772;  692.759
447.964;  596.122;  602.773;  713.770
448.555;  693.346;  654.692;  822.742
449.145;  549.858;  533.728;  662.853
449.736;  672.399;  656.742;  803.179
450.326;  599.732;  545.740;  713.626
450.917;  570.786;  549.684;  675.324
451.507;  504.127;  455.692;  600.661
452.097;  625.558;  600.710;  746.267
452.688;  624.906;  534.700;  742.160
453.278;  472.108;  444.693;  566.840
453.868;  670.244;  618.665;  793.550
454.458;  544.467;  473.696;  651.141
455.048;  591.003;  546.703;  711.783
455.639;  469.258;  439.663;  567.096
456.229;  598.274;  544.649;  710.694
456.819;  627.199;  579.648;  751.158
457.409;  652.353;  604.657;  773.993
457.999;  627.446;  557.628;  737.505
458.589;  568.755;  525.632;  686.606
459.179;  599.801;  550.641;  717.658
459.769;  521.415;  487.663;  627.099
460.358;  669.141;  644.621;  797.262
460.948;  569.000;  522.625;  689.503
461.538;  553.856;  488.618;  660.677
462.128;  560.274;  481.649;  664.934
462.717;  590.637;  569.572;  710.326
463.307;  588.301;  556.553;  705.846
463.897;  546.443;  479.614;  656.942
464.486;  708.077;  640.657;  837.128
465.076;  615.103;  582.592;  733.776
465.666;  541.908;  516.547;  652.900
466.255;  656.365;  592.604;  785.651
466.845;  558.825;  481.612;  666.749
467.434;  607.006;  576.589;  725.873
468.023;  544.486;  457.573;  658.357
468.613;  593.305;  526.632;  713.946
469.202;  539.205;  470.579;  646.507
469.791;  621.456;  542.548;  737.811
470.381;  616.986;  556.544;  742.813
470.970;  589.929;  486.551;  711.099
471.559;  620.432;  565.571;  733.291
472.148;  552.263;  481.536;  675.737
472.738;  638.036;  569.527;  765.466
473.327;  527.922;  430.534;  637.529
473.916;  619.858;  547.564;  737.446
474.505;  631.081;  552.520;  751.703
475.094;  681.658;  578.500;  806.570
475.683;  659.105;  568.521;  797.699
476.272;  609.681;  507.526;  730.632
476.861;  592.794;  481.495;  706.754
477.449;  605.803;  502.441;  728.487
478.038;  571.900;  477.526;  692.513
478.627;  596.829;  504.533;  714.852
479.216;  642.924;  583.468;  769.441
479.805;  656.093;  548.450;  783.375
480.393;  838.834;  759.493; 1008.945
480.982;  735.994;  614.513;  874.501
481.571;  728.315;  628.447;  858.333
482.159;  582.893;  453.444;  705.386
482.748;  685.938;  548.478;  821.385
483.336;  721.527;  621.459;  858.209
483.925;  657.881;  539.473;  774.373
484.513;  629.594;  520.408;  758.962
485.102;  669.196;  554.482;  810.965
485.690;  844.574;  716.421; 1011.050
486.278;  833.805;  684.421;  979.329
486.867;  676.620;  541.430;  809.662
487.455;  753.339;  578.448;  898.229
488.043;  628.638;  447.449;  748.361
488.631;  847.748;  712.404; 1005.079
489.220;  765.863;  584.396;  908.626
489.808;  621.296;  424.435;  741.415
490.396;  777.979;  593.422;  914.645
490.984;  705.172;  505.423;  830.161
491.572;  804.622;  618.405;  940.315
492.160;  783.888;  526.449;  919.081
492.748;  762.446;  526.453;  884.341
493.336;  876.034;  620.406; 1019.693
493.924;  841.065;  534.383;  958.077
494.512;  952.955;  599.427; 1066.638
495.100; 1005.719;  569.449; 1103.280
495.687; 1119.748;  637.387; 1206.373
496.275; 1102.393;  490.398; 1150.796
496.863; 1231.279;  517.440; 1281.171
497.451; 1357.524;  507.445; 1386.805
498.038; 1531.184;  560.377; 1556.729
498.626; 1726.795;  520.384; 1741.407
499.214; 2103.805;  543.421; 2016.609
499.801; 2380.008;  548.436; 2220.633
500.389; 2567.357;  465.391; 2312.494
500.976; 3037.220;  564.395; 2744.849
501.564; 3296.926;  530.437; 3148.565
502.151; 3446.460;  369.446; 3515.999
502.738; 3993.653;  520.406; 3971.274
503.326; 4618.767;  490.375; 4403.796
503.913; 5294.817;  530.410; 5161.749
504.500; 5832.651;  553.430; 5986.420
505.088; 6512.562;  476.427; 6381.201
505.675; 7592.596;  520.377; 6925.547
506.262; 8499.179;  513.446; 7619.060
506.849; 9415.207;  535.414; 8733.969
507.436;10169.800;  590.385; 9790.121
508.023;10204.469;  518.391; 9985.472
508.610;10749.777;  592.412;10434.618
509.197;11996.160;  546.469;11198.435
509.784;13144.810;  543.417;12391.194
510.371;13993.611;  433.368;13603.713
510.958;14556.444;  505.437;14426.586
511.545;14503.458;  634.424;15243.775
512.132;15215.606;  547.379;15945.876
512.719;16300.467;  475.410;16340.369
513.305;18025.078;  478.430;18011.766
513.892;19798.506;  600.455;19754.971
514.479;21058.863;  549.396;20967.805
515.066;22064.926;  615.402;22299.793
515.652;23282.816;  523.404;22908.660
516.239;24662.318;  603.420;23798.875
516.825;26036.563;  464.409;25567.275
517.412;27166.510;  686.393;28154.959
517.998;26388.131;  501.432;28344.111
518.585;24937.660;  509.446;27134.219
519.171;25128.615;  535.383;27268.576
519.758;25728.439;  440.395;28964.129
520.344;26848.260;  573.417;30664.494
520.930;28275.270;  456.459;32550.605
521.516;30890.727;  596.383;35422.895
522.103;31527.445;  639.408;38280.004
522.689;30343.980;  498.450;37835.117
523.275;29464.836;  614.439;37288.613
523.861;30601.189;  552.413;37281.395
524.447;33664.402;  614.384;37846.949
525.033;35677.219;  601.436;38321.949
525.619;35015.703;  461.452;38579.285
526.205;35083.629;  483.435;40622.875
526.791;36681.672;  528.398;42258.836
527.377;37991.496;  509.449;42966.902
527.963;39232.086;  570.470;42018.949
528.549;40701.090;  580.452;42476.828
529.135;40168.129;  481.428;41854.852
529.721;38372.398;  524.432;41237.711
530.306;38428.492;  714.452;41259.445
530.892;39525.555;  517.433;41506.047
531.478;42303.973;  526.417;43559.613
532.063;43998.949;  462.445;47695.563
532.649;46300.398;  662.479;50808.324
533.235;46681.039;  487.442;51787.500
533.820;46803.484;  612.394;52145.035
534.406;45436.684;  511.477;51133.488
534.991;44712.215;  497.448;49996.805
535.576;42993.520;  517.432;48882.852
536.162;41594.906;  729.426;46942.285
536.747;42360.578;  444.482;45711.746
537.333;44375.980;  487.479;48510.180
537.918;46356.215;  520.466;50439.891
538.503;45549.672;  498.421;50863.711
539.088;44187.582;  570.460;50906.922
539.673;46366.430;  530.467;52621.965
540.259;47699.105;  483.443;52368.094
540.844;46986.520;  434.436;50879.109
541.429;46539.184;  655.487;52077.777
542.014;46610.480;  451.502;52716.695
542.599;43488.695;  569.453;52363.281
543.184;40584.262;  489.483;53187.137
543.769;40105.055;  467.486;54697.605
544.354;39550.535;  493.480;53913.914
544.938;39515.770;  571.467;49680.164
545.523;40443.121;  652.446;47386.277
546.108;45062.688;  518.488;49151.949
546.693;48832.336;  533.513;51384.637
547.278;47112.684;  570.458;51853.254
547.862;45556.902;  517.429;51173.750
548.447;46008.262;  574.495;51691.395
549.031;46022.539;  497.523;52456.703
549.616;45744.602;  562.461;52714.516
550.201;46570.988;  489.473;52414.598
550.785;49787.582;  590.491;52355.059
551.370;52604.574;  465.503;54589.453
551.954;53987.871;  594.493;58267.348
552.538;52595.617;  577.473;59062.176
553.123;51677.750;  462.501;58115.285
553.707;52316.504;  511.538;56556.285
554.291;51707.160;  614.485;56201.668
554.876;50452.148;  623.498;55335.762
555.460;49714.281;  508.520;54155.703
556.044;49902.262;  493.553;53721.484
556.628;49163.480;  527.507;53731.016
557.212;47807.953;  603.462;54312.531
557.796;46394.613;  537.507;53797.773
558.380;45767.793;  548.549;56145.984
558.964;46914.941;  560.481;57277.930
559.548;49130.434;  445.483;56459.641
560.132;50102.070;  485.524;54434.543
560.716;50344.469;  460.547;54800.617
561.300;51457.777;  460.475;57606.945
561.884;50389.172;  560.512;58972.445
562.467;49881.527;  560.545;57327.570
563.051;50092.973;  540.544;54962.434
563.635;48567.328;  540.533;52594.473
564.219;45508.926;  504.511;50610.410
564.802;45768.246;  572.550;49551.180
565.386;46636.309;  516.541;48370.953
565.969;46629.457;  604.488;48178.871
566.553;46937.086;  698.527;49957.305
567.136;45746.871;  608.551;50369.594
567.720;46565.891;  542.569;49492.004
568.303;48421.766;  564.544;50616.352
568.887;49775.836;  548.534;50727.148
569.470;50043.289;  555.580;51698.379
570.053;47309.555;  572.573;52122.078
570.637;45151.270;  491.514;52536.438
571.220;44952.730;  588.510;51186.098
571.803;45304.051;  680.584;51032.762
572.386;45681.500;  495.561;49609.887
572.969;45948.691;  526.538;48285.926
573.552;46580.531;  531.549;47624.285
574.135;44848.746;  458.591;45498.641
574.718;41053.332;  474.559;41970.434
575.301;40135.887;  487.068;41447.137
575.884;39218.445;  499.577;40923.836
576.467;40848.789;  559.569;45267.723
577.050;40888.148;  575.580;48175.543
577.633;40070.160;  663.538;47729.328
578.216;41384.789;  503.574;47579.793
578.799;46273.230;  523.600;47820.996
579.381;47218.574;  669.567;48115.551
579.964;42865.855;  503.538;47333.766
580.547;40651.656;  537.579;46668.969
581.129;40820.164;  621.610;44466.141
581.712;41093.660;  551.621;44164.922
582.294;42764.645;  522.570;46477.855
582.877;41320.570;  703.563;48244.254
583.459;39961.020;  544.619;47437.895
584.042;41785.996;  520.618;46943.219
584.624;41779.145;  507.624;46792.227
585.206;41925.586;  407.575;46557.250
585.789;40865.219;  477.611;45793.773
586.371;39553.680;  552.638;43836.391
586.953;37989.973;  598.608;42972.492
587.536;36529.242;  635.574;42487.211
588.118;37194.188;  543.679;42086.414
588.700;38828.211;  662.631;43389.930
589.282;40461.406;  586.599;43646.039
589.864;39848.645;  523.612;43438.109
590.446;39883.402;  407.647;43151.926
591.028;39263.254;  543.639;42781.867
591.610;39231.117;  439.615;42839.098
592.192;38987.098;  565.599;42820.402
592.774;36924.781;  475.629;40724.277
593.356;36414.902;  501.668;39874.789
593.937;35945.559;  523.605;39980.648
594.519;36971.684;  611.612;42069.633
595.101;37940.934;  460.657;42976.031
595.683;38236.375;  509.666;44084.441
596.264;39319.906;  540.611;43478.797
596.846;41153.719;  517.630;43803.672
597.427;40321.027;  487.679;42986.934
598.009;39741.770;  472.681;42832.219
598.591;38709.285;  598.632;42580.086
599.172;37714.547;  500.640;43061.805
599.753;37330.793;  454.676;41691.469
600.335;37475.406;  637.693;40692.520
600.916;37325.879;  552.666;39982.422
601.498;37857.371;  559.652;40318.617
602.079;38810.551;  534.676;40670.609
602.660;37638.059;  531.685;41450.898
603.241;36747.844;  434.637;41137.738
603.823;37024.348;  514.648;38868.797
604.404;38428.695;  451.688;38182.785
604.985;40642.629;  509.695;38078.047
605.566;41532.195;  595.634;38056.633
606.147;40096.668;  537.708;37020.418
606.728;38548.145;  457.716;37883.359
607.309;37866.152;  483.697;38748.273
607.890;37835.406;  526.661;38850.230
608.471;37847.141;  469.685;37457.918
609.051;37748.063;  536.742;36066.457
609.632;37130.477;  458.735;35991.074
610.213;38113.906;  541.693;37402.641
610.794;39902.934;  503.699;38383.363
611.374;38469.832;  568.707;40562.387
611.955;37867.668;  444.725;38533.727
612.536;39900.961;  573.691;36951.789
613.116;39501.156;  524.698;37197.891
613.697;39104.023;  515.744;38411.125
614.277;38853.988;  494.753;38673.938
614.858;35554.523;  516.696;37075.863
615.438;33588.891;  536.691;35092.906
616.019;33337.953;  622.756;33666.301
616.599;34461.664;  423.733;34189.023
617.179;37467.707;  475.710;36952.047
617.760;37837.598;  708.686;39582.574
618.340;36002.566;  498.765;38943.977
618.920;35621.879;  653.742;37594.156
619.500;35634.797;  495.768;37866.938
620.080;35674.676;  479.741;37869.043
620.660;36014.758;  468.802;36868.617
621.241;36102.027;  491.762;36352.309
621.821;35735.348;  592.749;35459.520
622.401;36115.523;  587.742;35207.414
622.980;37909.910;  463.779;35980.422
623.560;37347.605;  460.758;37351.328
624.140;34761.488;  557.741;34388.582
624.720;34996.473;  554.748;32368.764
625.300;36921.930;  485.743;32638.629
625.880;37917.375;  503.780;34599.035
626.459;36479.348;  556.753;36831.738
627.039;35077.438;  444.772;38299.098
627.619;36461.723;  703.802;38289.574
628.198;38329.984;  572.791;37220.695
628.778;39814.172;  551.748;37632.563
629.357;40266.547;  448.751;38003.012
629.937;38861.875;  496.798;38402.039
630.516;35866.137;  605.794;37868.801
631.096;34901.078;  498.751;35760.410
631.675;34005.625;  625.817;35225.219
632.254;33742.602;  508.833;35130.289
632.834;35023.633;  534.822;35794.570
633.413;36241.113;  638.771;35788.922
633.992;36137.289;  587.820;34532.863
634.571;36435.285;  576.844;33590.113
635.151;35819.816;  476.831;34943.863
635.730;34987.539;  511.775;35352.523
636.309;35148.262;  583.793;35366.605
636.888;35064.965;  593.820;36165.637
637.467;35380.387;  450.842;37515.902
638.046;36415.504;  646.791;39288.695
638.625;36879.285;  649.820;38279.699
639.204;36803.438;  541.850;37741.598
639.782;37716.789;  526.878;38364.551
640.361;37722.469;  639.809;36740.621
640.940;37115.879;  503.807;34950.082
641.519;36687.738;  532.805;34137.398
642.097;35318.949;  556.804;35654.258
642.676;35381.660;  571.802;35637.957
643.255;35357.172;  489.800;36567.074
643.833;36950.531;  569.799;37809.434
644.412;38566.691;  490.797;37337.293
644.990;38920.703;  534.795;37018.531
645.569;38249.012;  555.793;36518.469
646.147;36818.324;  588.792;36186.430
646.726;35741.484;  552.790;36267.688
647.304;35403.047;  509.788;36647.625
647.882;35240.605;  425.787;39286.742
648.461;34804.168;  559.785;39157.703
649.039;34955.727;  588.783;35412.883
649.617;34433.789;  570.781;34744.918
650.195;34224.750;  570.780;35403.098
650.773;34298.262;  470.778;35053.797
651.352;34204.371;  391.776;33756.816
651.930;33455.281;  420.775;31868.773
652.508;32888.594;  603.773;33121.551
653.086;32409.652;  545.771;33564.793
653.663;34180.465;  497.770;34054.668
654.241;34903.273;  453.768;35693.309
654.819;35964.434;  476.766;36422.906
655.397;37677.094;  443.764;38213.484
655.975;38787.008;  530.763;39507.625
656.553;40049.316;  618.761;39498.223
657.130;39327.930;  478.759;40395.480
657.708;39788.387;  552.758;39242.020
658.286;38543.398;  525.756;38920.020
658.863;37633.809;  545.754;40202.898
659.441;37241.621;  541.752;39677.938
660.018;38097.730;  509.751;40413.355
660.596;38739.941;  406.749;39931.414
661.173;39214.703;  500.747;39604.531
661.750;38879.762;  486.746;39700.070
662.328;38590.926;  564.744;39292.809
662.905;37294.586;  510.742;38235.648
663.482;35491.895;  513.741;36212.305
664.060;35259.105;  514.739;35944.945
664.637;35094.016;  585.737;35170.785
665.214;35093.180;  550.735;34197.523
665.791;36522.590;  529.734;34549.520
666.368;37017.949;  530.732;35118.578
666.945;35199.211;  585.730;36019.418
667.522;34840.672;  470.729;36048.438
668.099;36321.082;  505.727;36243.914
668.676;36503.844;  532.725;35958.875
669.253;36407.254;  629.723;37384.730
669.830;34886.164;  578.722;36779.629
670.407;33410.074;  537.720;35231.289
670.984;32648.734;  544.718;35544.270
671.560;33392.195;  560.717;35466.867
672.137;32637.307;  498.715;34280.863
672.714;33007.969;  579.713;34632.863
673.290;34086.227;  548.711;35135.422
673.867;32775.938;  482.710;36114.480
674.443;32889.750;  428.708;36152.859
675.020;34841.262;  541.706;35327.238
675.596;35780.520;  521.705;35795.176
676.173;34762.633;  436.703;35430.355
676.749;34841.844;  385.701;33549.516
677.326;34443.254;  432.700;32210.012
677.902;35482.863;  468.698;32068.871
678.478;34675.625;  424.696;32583.891
679.054;33304.637;  772.694;32088.928
679.631;33058.695;  548.693;30978.848
680.207;33877.105;  660.691;33160.887
680.783;33895.418;  412.689;35570.363
681.359;34433.180;  522.688;36125.184
681.935;34184.289;  540.686;35240.922
682.511;33635.949;  540.684;34429.961
683.087;32693.160;  558.682;34463.680
683.663;32039.570;  498.681;34648.898
684.239;31887.281;  433.679;34546.457
684.815;31719.143;  576.677;35586.375
685.390;32226.504;  664.676;35821.895
685.966;32497.363;  527.674;35085.871
686.542;31902.824;  491.672;34198.230
687.118;32036.635;  520.671;32847.707
687.693;32342.547;  578.669;32794.027
688.269;31384.758;  516.667;33072.367
688.844;30664.217;  567.665;33141.664
689.420;31273.479;  519.664;33965.742
689.995;31138.889;  626.662;34655.523
690.571;31053.650;  615.660;33576.742
691.146;32508.361;  510.659;32657.219
691.722;31823.822;  535.657;32526.979
692.297;30477.732;  459.655;33014.617
692.872;30468.742;  475.654;34012.254
693.448;29936.203;  459.652;34237.434
694.023;29795.264;  537.650;34142.672
694.598;30369.625;  531.648;34132.031
695.173;30593.635;  519.647;34205.250
695.748;29566.246;  415.645;32882.488
696.323;30487.406;  537.643;32864.906
696.898;31275.117;  566.642;33170.004
697.473;30380.428;  437.640;32432.984
698.048;30034.139;  517.638;31649.303
698.623;31226.750;  453.636;30778.141
699.198;32251.010;  536.635;31140.119
699.773;32942.422;  455.633;31764.299
700.348;32019.232;  474.631;31780.816
700.922;31629.143;  520.630;32046.375
701.497;31245.553;  512.628;32603.574
702.072;31209.365;  594.626;34799.871
702.646;31875.025;  601.625;35793.172
703.221;32088.785;  531.623;35201.590
703.795;31482.197;  466.621;34764.527
704.370;31959.906;  386.619;34307.367
704.944;31921.518;  523.618;33509.887
705.519;32211.979;  558.616;31388.584
706.093;33261.438;  467.614;31340.104
706.668;33254.051;  533.613;32630.281
707.242;32895.160;  587.611;32728.779
707.816;31636.072;  511.609;32947.238
708.390;31287.883;  521.607;33277.855
708.965;32117.242;  565.606;33834.336
709.539;32187.004;  518.604;33709.273
710.113;31224.465;  525.602;33044.313
710.687;32082.676;  551.601;31953.992
711.261;32430.336;  468.599;30505.949
711.835;31540.646;  462.597;30262.369
712.409;30958.807;  413.595;31254.447
712.983;32105.768;  424.594;32754.986
713.557;33811.680;  423.592;34018.824
714.131;33821.340;  500.590;34579.625
714.704;32939.000;  495.589;33890.262
715.278;32330.111;  530.587;33531.102
715.852;32405.521;  564.585;33601.660
716.425;32158.883;  663.584;33515.117
716.999;31471.693;  432.582;33185.555
717.573;32173.805;  567.580;33905.996
718.146;33224.316;  615.578;35199.293
718.720;33324.824;  518.577;35060.551
719.293;33371.484;  565.575;34973.230
719.867;33072.398;  470.573;36394.449
720.440;33365.406;  603.572;36663.008
721.013;33853.668;  519.570;35102.426
721.587;32617.479;  405.568;33985.266
722.160;32293.189;  562.566;33524.965
722.733;31693.600;  547.565;32987.043
723.306;33096.211;  513.563;33066.301
723.880;34484.773;  565.561;33399.500
724.453;34507.684;  640.560;33468.297
725.026;33377.691;  497.558;33816.637
725.599;31705.555;  539.556;32797.996
726.172;31649.715;  558.555;33187.434
726.745;33418.176;  538.553;35136.613
727.318;33822.336;  584.551;35751.730
727.891;32710.098;  534.549;35890.430
728.463;31522.809;  535.548;34822.090
729.036;31002.168;  447.546;32895.086
729.609;30075.629;  473.544;31823.225
730.182;29999.590;  580.543;31445.283
730.754;31012.600;  407.541;32373.223
731.327;33023.660;  545.539;33676.820
731.900;32803.973;  421.537;33417.000
732.472;32226.033;  542.536;31978.498
733.045;32020.594;  502.534;30368.777
733.617;30448.555;  437.532;30574.215
734.190;29490.615;  572.531;31280.975
734.762;29249.275;  534.529;31674.412
735.334;29491.186;  527.527;31247.291
735.907;29623.246;  547.526;29876.211
736.479;29279.658;  576.524;29808.488
737.051;30194.619;  544.522;30233.547
737.623;32148.979;  559.520;31469.086
738.195;33344.738;  477.519;31784.225
738.768;33718.051;  389.517;32120.523
739.340;33332.660;  500.515;32094.342
739.912;33219.523;  596.514;31312.680
740.484;32272.383;  543.512;31946.238
741.056;32234.494;  498.510;32984.059
741.628;33563.855;  476.508;33897.715
742.199;32384.715;  596.507;33213.016
742.771;31107.926;  444.505;31369.113
743.343;31363.736;  475.503;31865.473
743.915;31490.297;  503.502;32388.631
744.487;30877.908;  586.500;31079.568
745.058;29453.619;  562.498;30570.107
745.630;28205.879;  564.497;29970.127
746.201;27730.689;  475.495;29186.766
746.773;27268.551;  553.493;28805.723
747.344;26066.611;  515.491;29591.223
747.916;25558.021;  541.490;31412.201
748.487;26393.783;  572.488;32194.898
749.059;27549.693;  453.486;32533.719
749.630;27873.305;  480.485;32158.518
750.201;27146.766;  523.483;30855.395
750.773;26432.176;  478.481;28622.555
751.344;25368.287;  514.479;28405.732
751.915;24159.598;  512.478;28461.551
752.486;24258.857;  462.476;27842.850
753.057;25367.770;  533.474;27845.008
753.628;25155.529;  485.473;27728.107
754.199;23996.291;  483.471;27381.086
754.770;23553.352;  560.469;25882.203
755.341;23093.512;  609.468;25886.184
755.912;22684.723;  508.466;26050.861
756.483;22576.383;  564.464;26798.779
757.054;22061.943;  533.462;27048.238
757.625;22232.605;  470.461;26294.838
758.195;22976.666;  436.459;26142.076
758.766;22653.826;  534.457;26392.234
759.337;22419.537;  432.456;26334.594
759.907;23288.197;  436.454;27579.652
760.478;24018.959;  497.452;28352.770
761.048;24413.219;  566.450;27325.088
761.619;24025.830;  553.449;26460.428
762.189;22972.090;  490.447;26029.826
762.760;21971.451;  588.445;26430.145
763.330;20495.313;  548.444;26670.902
763.900;19644.273;  537.442;26603.021
764.471;19880.783;  468.440;25542.740
765.041;20296.594;  599.438;24358.459
765.611;20965.355;  540.437;23991.297
766.181;21724.564;  538.435;24470.236
766.751;21794.326;  542.433;24845.975
767.321;20759.438;  474.432;24533.633
767.891;20287.398;  499.430;24916.492
768.461;19797.209;  532.428;24776.771
769.031;18832.969;  503.427;24757.988
769.601;17807.129;  591.425;24181.088
770.171;16952.941;  421.423;23670.387
770.741;17393.701;  467.421;22960.045
771.311;18222.162;  568.420;22917.523
771.880;18279.172;  445.418;23562.941
772.450;18002.334;  487.416;24216.500
773.020;17962.994;  424.415;24140.398
773.589;17542.904;  493.413;24414.857
774.159;17324.215;  462.411;23858.717
774.729;17178.477;  480.409;22942.135
775.298;15535.837;  485.408;22324.033
775.867;14870.548;  494.406;21140.313
776.437;15423.208;  512.404;20838.092
777.006;15519.020;  443.403;20599.510
777.576;15276.729;  528.401;20508.809
778.145;15287.391;  558.399;20732.947
778.714;15612.552;  529.398;21062.465
779.283;15740.063;  558.396;20949.664
779.853;15855.873;  481.394;20508.623
780.422;16334.084;  526.392;20649.082
780.991;16100.794;  553.391;21527.520
781.560;15495.505;  606.389;22632.658
782.129;15212.766;  543.387;23048.277
782.698;15133.626;  606.386;23438.555
783.267;15402.387;  519.384;23267.734
783.836;16108.147;  536.382;22415.133
784.404;15535.408;  443.380;20443.152
784.973;15026.470;  387.379;19699.150
785.542;14519.130;  495.377;19763.828
786.111;14988.891;  591.375;20341.408
786.679;15241.901;  534.374;20207.967
787.248;14549.962;  423.372;19516.465
787.817;14679.673;  503.370;18900.363
788.385;14919.733;  571.369;17879.121
788.954;14158.294;  423.367;17658.301
789.522;14297.005;  605.365;17788.879
790.090;14953.466;  433.363;18118.277
790.659;15437.127;  493.362;18338.736
791.227;15606.537;  505.360;18508.615
791.795;15215.198;  533.358;17898.254
792.364;13925.009;  476.357;17295.133
792.932;13648.720;  532.355;16822.051
793.500;14082.380;  508.353;17040.148
794.068;14639.141;  416.352;17179.787
794.636;14343.451;  478.350;16664.246
795.204;13128.862;  432.348;16524.545
795.772;13012.773;  462.346;17274.564
796.340;13559.634;  484.345;17891.002
796.908;13851.694;  442.343;17648.561
797.476;13864.355;  447.341;17064.080
798.044;13588.016;  400.340;16672.777
798.612;13406.776;  499.338;17023.996
799.180;12938.587;  534.336;16561.615
799.747;12766.948;  503.334;15962.773
800.315;12952.059;  439.333;15296.992
800.883;13325.270;  398.331;14801.771
801.450;12917.330;  515.329;14534.430
802.018;12588.191;  525.328;14173.248
802.585;12680.651;  497.326;14029.547
803.153;12875.213;  497.324;13836.846
803.720;12834.873;  507.322;13567.324
804.287;12793.334;  479.321;13360.622
804.855;12496.545;  582.319;13681.981
805.422;12154.505;  490.317;13536.560
805.989;12136.966;  482.316;13355.958
806.556;12468.776;  479.314;13747.896
807.124;12932.237;  525.312;13987.376
807.691;12612.948;  443.311;14038.674
808.258;12519.259;  505.309;14120.152
808.825;12837.770;  541.307;13860.111
809.392;12986.580;  625.305;13268.790
809.959;12906.691;  562.304;12680.389
810.526;12512.452;  651.302;12427.308
811.093;11862.912;  582.300;12030.105
811.659;11622.523;  502.299;11653.664
812.226;12043.684;  500.297;11637.183
812.793;12129.694;  539.295;11611.521
813.360;11805.455;  467.293;11885.181
813.926;11809.517;  535.292;12770.539
814.493;11763.227;  441.290;12677.638
815.060;11514.038;  420.288;11974.336
815.626;11208.799;  421.287;11594.715
816.193;11036.560;  517.285;11579.474
816.759;11251.420;  453.283;11666.972
817.325;11142.030;  404.282;11325.530
817.892;11232.491;  526.280;11105.369
818.458;11210.752;  534.278;10843.928
819.024;11208.813;  578.276;10714.406
819.591;10319.773;  528.275;10469.165
820.157;10076.784;  434.273;10235.523
820.723;10591.145;  525.271;10847.563
821.289;10914.355;  791.270;11040.980
821.855;10258.316;  537.268;10357.100
822.421;10195.077;  444.266; 9978.918
822.987;10233.688;  433.264; 9754.177
823.553;10072.998;  512.263;10065.755
824.119;10083.560;  543.261;10036.294
824.685;10054.720;  600.259;10029.192
825.251;10014.030;  542.258;10199.230
825.816; 9778.241;  622.256; 9820.189
826.382; 9116.402;  556.254; 9297.248
826.948; 8730.063;  585.253; 9381.347
827.513; 8801.874;  504.251; 9450.726
828.079; 8813.135;  469.249; 9472.444
828.645; 9045.646;  543.247; 9292.643
829.210; 8845.556;  434.246; 9065.341
829.776; 8594.666;  570.244; 9132.620
830.341; 8263.527;  564.242; 9092.878
830.906; 8312.488;  584.241; 9078.557
831.472; 8024.398;  449.239; 8534.535
832.037; 8110.659;  581.237; 8677.874
832.602; 7762.470;  467.235; 8628.692
833.167; 7807.731;  540.234; 8879.031
833.733; 7705.441;  556.232; 9189.790
834.298; 7321.052;  412.230; 9052.608
834.863; 7435.913;  522.229; 8895.087
835.428; 7481.274;  565.227; 8824.266
835.993; 7623.685;  546.225; 8845.385
836.558; 7577.345;  548.224; 8888.563
837.123; 7618.956;  686.222; 8966.582
837.688; 7312.217;  521.220; 8617.860
838.253; 7003.027;  510.218; 8590.699
838.817; 6930.488;  487.217; 8443.797
839.382; 7438.499;  608.215; 8799.356
839.947; 7743.560;  537.213; 8810.595
840.511; 7682.220;  610.212; 8796.394
841.076; 6926.231;  413.210; 8347.231
841.641; 6815.092;  549.208; 8224.330
842.205; 6767.603;  548.206; 8223.349
842.770; 6794.013;  632.205; 8622.107
843.334; 6865.524;  493.203; 8410.386
843.898; 6835.785;  500.201; 8337.465
844.463; 7001.845;  598.200; 8506.283
845.027; 6901.356;  512.198; 8280.962
845.591; 6782.867;  562.196; 8231.141
846.156; 6656.578;  490.195; 7969.179
846.720; 6652.238;  592.193; 7768.278
847.284; 6540.099;  497.191; 7630.957
847.848; 6559.510;  570.189; 7472.395
848.412; 6577.771;  553.188; 7437.394
848.976; 6482.131;  637.186; 7674.592
849.540; 6506.542;  660.184; 7836.011
850.104; 6481.353;  600.183; 7913.669
850.668; 6410.963;  405.181; 7694.508
851.232; 6284.874;  426.179; 7756.887
851.796; 6198.084;  506.177; 7926.545
852.359; 6039.295;  596.176; 7827.844
852.923; 5982.456;  574.174; 7641.163
853.487; 6126.217;  578.172; 7342.501
854.050; 5769.578;  371.171; 7042.820
854.614; 5573.289;  501.169; 7151.338
855.177; 5686.349;  542.167; 7105.077
855.741; 5660.660;  555.166; 6989.675
856.304; 5614.271;  575.164; 6596.634
856.868; 5383.681;  453.162; 6356.272
857.431; 5325.242;  522.160; 6468.571
857.995; 5398.853;  497.159; 6373.210
858.558; 5480.763;  551.157; 6324.448
859.121; 5436.174;  567.155; 6408.327
859.684; 5251.685;  516.154; 6347.886
860.247; 5143.746;  519.152; 6321.264
860.810; 5157.206;  486.150; 6301.903
861.374; 5370.267;  667.148; 6607.881
861.937; 5411.328;  465.147; 6408.200
862.500; 5622.938;  506.145; 6572.639
863.062; 5493.849;  431.143; 6387.297
863.625; 5393.910;  541.142; 6190.836
864.188; 5113.071;  497.140; 5807.254
864.751; 5016.631;  498.138; 5682.413
865.314; 4929.542;  535.136; 5547.492
865.876; 4895.453;  555.135; 5500.150
866.439; 4947.664;  556.133; 5415.909
867.002; 5003.774;  688.131; 5501.567
867.564; 4868.035;  595.130; 5413.946
868.127; 4803.846;  527.128; 5160.325
868.689; 4567.006;  549.126; 5133.183
869.252; 4463.717;  596.125; 5252.382
869.814; 4439.228;  474.123; 5297.141
870.377; 4648.588;  533.121; 5390.919
870.939; 4975.750;  773.119; 5599.898
871.501; 4904.560;  550.118; 5248.336
872.063; 4710.721;  398.116; 4854.235
872.626; 4631.131;  419.114; 4817.074
873.188; 4582.842;  534.113; 4987.732
873.750; 4236.253;  532.111; 4868.651
874.312; 3858.914;  525.109; 4779.330
874.874; 3727.424;  635.107; 4866.348
875.436; 3466.535;  571.106; 4718.887
875.998; 3401.196;  631.104; 4660.005
876.560; 3214.007;  552.102; 4462.964
877.122; 3067.017;  466.101; 4145.042
877.683; 3101.228;  609.099; 4056.481
878.245; 3069.039;  493.097; 3950.740
878.807; 3181.949;  561.096; 4058.958
879.369; 3166.610;  448.094; 3954.677
879.930; 3211.721;  447.092; 3941.495
880.492; 3400.282;  620.090; 4067.014
881.053; 3329.392;  462.089; 3859.633
881.615; 3310.203;  468.087; 3776.071
882.176; 3251.264;  518.085; 3734.750
882.738; 3216.425;  603.084; 3678.489
883.299; 2950.235;  378.082; 3405.407
883.860; 2883.196;  423.080; 3351.106
884.422; 2916.757;  552.078; 3394.044
884.983; 2733.767;  481.077; 3166.443
885.544; 2776.328;  559.075; 3189.802
886.105; 2775.839;  525.073; 3160.360
886.666; 2714.250;  513.072; 3093.059
887.227; 2566.910;  450.070; 2941.957
887.788; 2553.371;  528.068; 2974.836
888.349; 2333.032;  437.067; 2721.214
888.910; 2353.093;  596.065; 2696.493
889.471; 2274.153;  546.063; 2560.172
890.032; 2221.264;  541.061; 2558.190
890.593; 2226.025;  574.060; 2567.669
891.153; 2144.585;  504.058; 2460.307
891.714; 2004.896;  434.056; 2372.046
892.275; 1945.757;  417.055; 2309.505
892.835; 2012.668;  590.053; 2382.543
893.396; 1936.478;  565.051; 2295.502
893.956; 1798.939;  484.049; 2162.420
894.517; 1754.500;  533.048; 2125.439
895.077; 1712.410;  534.046; 2086.978
895.638; 1724.871;  637.044; 2126.316
896.198; 1496.632;  486.043; 1838.275
896.758; 1566.093;  580.041; 1892.813
897.319; 1460.253;  512.039; 1792.232
897.879; 1434.514;  535.038; 1762.751
898.439; 1310.425;  418.036; 1661.149
898.999; 1386.086;  543.034; 1781.468
899.559; 1350.546;  534.032; 1703.347
900.119; 1215.757;  450.031; 1537.525
900.679; 1323.968;  647.029; 1638.384
901.239; 1221.428;  565.027; 1527.902
901.799; 1165.289;  493.026; 1456.441
902.359; 1089.800;  463.024; 1357.140
902.919; 1082.861;  481.022; 1331.118
903.479; 1067.021;  501.020; 1317.257
904.038; 1002.982;  436.019; 1262.595
904.598;  932.043;  380.017; 1152.034
905.158; 1001.953;  497.015; 1240.893
905.717;  999.914;  492.014; 1233.691
906.277;  991.375;  518.012; 1217.330
906.836; 1010.586;  544.010; 1222.408
907.396;  983.146;  552.009; 1193.047
907.955;  970.307;  574.007; 1182.526
908.515;  904.468;  476.005; 1099.364
909.074;  903.579;  497.003; 1092.863
909.633;  890.939;  514.002; 1069.121
910.192;  992.800;  642.000; 1196.460
910.752;  861.650;  493.000; 1029.960
911.311;  838.850;  464.000; 1009.780
911.870;  822.850;  506.000;  971.460
912.429;  926.450;  575.000; 1094.080
912.988;  908.500;  599.000; 1081.060
913.547;  792.900;  460.000;  940.380
914.106;  841.250;  552.000;  999.420
914.665;  824.950;  519.000;  984.020
915.224;  874.050;  619.000; 1035.760
915.782;  784.450;  487.000;  922.560
916.341;  880.200;  600.000; 1049.840
916.900;  777.800;  510.000;  925.260
917.458;  749.450;  455.000;  884.220
918.017;  799.750;  535.000;  942.600
918.576;  772.450;  513.000;  904.440
919.134;  708.250;  450.000;  837.980
919.693;  760.350;  491.000;  893.060
920.251;  748.950;  503.000;  876.500
920.809;  715.200;  471.000;  839.580
921.368;  750.850;  478.000;  885.360
921.926;  728.450;  443.000;  842.940
922.484;  778.150;  529.000;  903.360
923.042;  756.550;  491.000;  880.340
923.601;  850.050;  585.000;  998.680
924.159;  798.550;  547.000;  935.560
924.717;  718.500;  485.000;  841.080
925.275;  765.850;  524.000;  903.240
925.833;  671.650;  377.000;  779.320
926.391;  799.500;  520.000;  938.380
926.949;  741.850;  479.000;  857.680
927.506;  781.850;  552.000;  903.500
928.064;  751.400;  504.000;  877.580
928.622;  754.250;  500.000;  880.100
929.180;  705.750;  446.000;  814.180
929.737;  692.100;  435.000;  808.540
930.295;  798.350;  532.000;  928.480
930.853;  727.250;  448.000;  849.100
931.410;  708.800;  426.000;  821.120
931.968;  816.000;  539.000;  940.660
932.525;  781.900;  517.000;  909.380
933.082;  704.750;  406.000;  811.440
933.640;  806.700;  538.000;  925.900
934.197;  771.100;  503.000;  886.360
934.754;  763.950;  461.000;  897.780
935.312;  751.500;  466.000;  863.340
935.869;  880.900;  577.000; 1012.980
936.426;  755.900;  497.000;  872.800
936.983;  766.050;  465.000;  889.020
937.540;  728.500;  422.000;  838.280
938.097;  819.100;  529.000;  940.120
938.654;  777.600;  502.000;  898.860
939.211;  823.400;  512.000;  952.480
939.768;  791.500;  478.000;  915.420
940.324;  779.200;  467.000;  904.200
940.881;  749.800;  476.000;  878.500
941.438;  873.900;  581.000; 1021.200
941.995;  856.500;  560.000;  992.560
942.551;  752.200;  439.000;  875.620
943.108;  802.900;  529.000;  937.920
943.664;  753.500;  450.000;  869.340
944.221;  937.350;  628.000; 1088.140
944.777;  757.450;  418.000;  869.680
945.334;  768.150;  471.000;  884.840
945.890;  807.400;  486.000;  946.480
946.446;  809.600;  505.000;  947.020
947.003;  828.200;  508.000;  964.940
947.559;  920.000;  643.000; 1063.040
948.115;  879.900;  581.000; 1026.540
948.671;  833.050;  511.000;  967.300
949.227;  739.250;  412.000;  859.560
949.783;  731.700;  428.000;  858.900
950.339;  842.800;  531.000;  991.000
950.895;  863.950;  552.000; 1023.840
951.451;  790.400;  501.000;  925.280
952.007;  858.000;  544.000;  998.540
952.563;  791.300;  498.000;  937.780
953.118;  780.000;  475.000;  904.940
953.674;  798.800;  504.000;  935.780
954.230;  801.400;  500.000;  949.640
954.785;  798.900;  484.000;  936.640
955.341;  848.900;  535.000;  998.160
955.897;  697.400;  393.000;  834.660
956.452;  800.250;  524.000;  953.840
957.008;  913.550;  616.000; 1083.640
957.563;  856.250;  554.000; 1009.540
958.118;  740.150;  473.000;  877.700
958.674;  795.850;  524.000;  946.780
959.229;  858.150;  572.000; 1013.980
959.784;  710.600;  402.000;  832.400
960.339;  851.900;  563.000; 1001.280
960.894;  819.450;  532.000;  963.760
961.449;  727.050;  452.000;  859.960
962.004; 1025.900;  790.000; 1212.840
962.559;  722.150;  455.000;  860.140
963.114;  625.600;  347.000;  742.480
963.669;  772.700;  502.000;  915.500
964.224;  739.000;  452.000;  874.340
964.779;  699.950;  409.000;  828.420
965.334;  859.500;  609.000; 1017.860
965.888;  727.700;  475.000;  875.360
966.443;  821.000;  549.000;  972.380
966.998;  683.900;  396.000;  819.460
967.552;  772.700;  480.000;  908.380
968.107;  734.100;  482.000;  868.300
968.661;  767.150;  539.000;  922.440
969.216;  718.950;  484.000;  856.280
969.770;  768.250;  516.000;  917.200
970.324;  767.500;  530.000;  923.140
970.879;  799.900;  579.000;  947.180
971.433;  801.700;  549.000;  952.720
971.987;  752.750;  520.000;  895.340
972.541;  767.750;  520.000;  917.100
973.095;  848.500;  583.000; 1009.460
973.649;  669.450;  449.000;  809.480
974.203;  688.500;  446.000;  829.040
974.757;  709.900;  492.000;  855.220
975.311;  736.650;  480.000;  872.600
975.865;  743.500;  511.000;  881.820
976.419;  718.750;  504.000;  857.400
976.973;  711.250;  461.000;  849.620
977.526;  796.700;  556.000;  949.920
978.080;  665.500;  424.000;  796.780
978.634;  776.150;  567.000;  921.320
979.187;  758.000;  526.000;  905.400
979.741;  862.800;  608.000; 1018.380
980.294;  661.700;  412.000;  789.160
980.848;  602.850;  396.000;  717.220
981.401;  684.050;  475.000;  816.540
981.955;  717.750;  513.000;  844.300
982.508;  624.650;  410.000;  746.340
983.061;  780.550;  556.000;  915.260
983.615;  664.450;  454.000;  798.800
984.168;  641.750;  425.000;  770.080
984.721;  737.950;  508.000;  880.760
985.274;  722.000;  533.000;  867.500
985.827;  698.800;  518.000;  834.220
986.380;  601.150;  385.000;  721.340
986.933;  720.500;  524.000;  864.800
987.486;  715.300;  522.000;  861.920
988.039;  719.600;  558.000;  863.100
988.591;  746.750;  575.000;  893.260
989.144;  619.200;  434.000;  737.260
989.697;  633.100;  452.000;  758.740
990.250;  713.750;  543.000;  858.100
990.802;  630.300;  437.000;  755.860
991.355;  827.400;  669.000;  974.880
991.907;  730.025;  572.500;  864.320
992.460;  632.650;  476.000;  753.760
993.012;  629.850;  481.000;  749.540
993.565;  593.050;  436.000;  711.360
994.117;  791.450;  670.000;  950.780
994.669;  583.200;  441.000;  701.320
995.221;  673.600;  512.000;  791.920
995.774;  667.400;  512.000;  787.580
996.326;  624.400;  496.000;  740.220
996.878;  698.400;  571.000;  838.420
997.430;  585.150;  464.000;  699.860
997.982;  631.650;  508.000;  750.140
998.534;  620.200;  486.000;  739.060
999.086;  620.900;  486.000;  738.220
999.638;  551.300;  423.000;  661.380
1000.190;  591.650;  492.000;  699.320
1000.741;  621.050;  536.000;  742.700
1001.293;  570.800;  431.000;  686.020
1001.845;  564.900;  465.000;  676.640
1002.396;  629.000;  539.000;  743.400
1002.948;  613.300;  528.000;  737.400
1003.500;  603.100;  494.000;  723.780
1004.051;  767.150;  675.000;  907.580
1004.603;  667.650;  574.000;  791.820
1005.154;  502.850;  419.000;  608.980
1005.705;  601.650;  524.000;  723.960
1006.257;  591.400;  501.000;  707.220
1006.808;  583.450;  507.000;  685.460
1007.359;  646.850;  575.000;  763.240
1007.910;  541.550;  453.000;  646.640
1008.461;  614.700;  542.000;  732.940
1009.013;  493.800;  412.000;  588.340
1009.564;  670.350;  619.000;  793.520
1010.115;  495.950;  427.000;  597.040
1010.665;  501.200;  434.000;  602.160
1011.216;  559.550;  497.000;  667.920
1011.767;  584.750;  512.000;  697.920
1012.318;  611.050;  549.000;  736.980
1012.869;  565.850;  497.000;  679.000
1013.419;  504.100;  411.000;  603.120
1013.970;  563.350;  490.000;  666.640
1014.521;  513.750;  456.000;  620.620
1015.071;  569.200;  476.000;  670.380
1015.622;  534.900;  496.000;  635.460
1016.172;  498.450;  455.000;  596.820
1016.723;  508.350;  473.000;  614.380
1017.273;  503.250;  454.000;  604.160
1017.823;  533.900;  496.000;  650.340
1018.374;  518.850;  440.000;  611.760
1018.924;  603.400;  559.000;  716.880
1019.474;  593.500;  544.000;  718.880
1020.024;  545.050;  487.000;  657.580
1020.574;  603.850;  570.000;  726.160
1021.124;  558.350;  528.000;  673.580
1021.674;  460.700;  401.000;  559.120
1022.224;  597.750;  522.000;  708.940
1022.774;  558.700;  489.000;  668.820
1023.324;  636.000;  593.000;  753.520
1023.874;  747.200;  660.000;  875.760
1024.423;  513.350;  456.000;  613.700
1024.973;  509.900;  487.000;  610.760
1025.523;  517.850;  452.000;  620.960
1026.072;  503.900;  448.000;  606.420
1026.622;  561.400;  518.000;  675.740
1027.172;  598.200;  580.000;  715.660
1027.721;  499.550;  437.000;  601.220
1028.270;  560.000;  500.000;  663.400
1028.820;  537.550;  494.000;  638.080
1029.369;  515.550;  477.000;  612.700
1029.918;  536.950;  464.000;  649.840
1030.468;  470.400;  402.000;  564.780
1031.017;  532.350;  494.000;  634.800
1031.566;  509.400;  491.000;  608.900
1032.115;  580.000;  536.000;  694.500
1032.664;  497.350;  418.000;  596.480
1033.213;  615.550;  567.000;  735.420
1033.762;  524.550;  497.000;  635.620
1034.311;  565.900;  507.000;  677.220
1034.860;  576.750;  534.000;  691.000
1035.408;  605.600;  543.000;  722.720
1035.957;  598.450;  537.000;  719.540
1036.506;  437.850;  374.000;  530.800
1037.055;  709.300;  665.000;  844.320
1037.603;  552.550;  507.000;  664.000
1038.152;  439.250;  395.000;  534.760
1038.700;  482.500;  410.000;  585.740
1039.249;  568.350;  531.000;  681.220
1039.797;  531.350;  482.000;  633.360
1040.345;  585.500;  545.000;  705.420
1040.894;  529.750;  461.000;  625.300
1041.442;  531.300;  503.000;  632.200
1041.990;  467.550;  399.000;  559.160
1042.538;  449.750;  399.000;  536.180
1043.087;  473.800;  464.000;  570.860
1043.635;  562.250;  524.000;  670.500
1044.183;  487.900;  453.000;  586.400
1044.731;  475.900;  427.000;  576.000
1045.279;  564.350;  519.000;  674.920
1045.827;  758.650;  714.000;  892.400
1046.374;  426.850;  398.000;  515.420
1046.922;  495.600;  474.000;  590.580
1047.470;  581.450;  541.000;  691.300
1048.018;  541.150;  509.000;  647.960
1048.565;  605.200;  575.000;  708.600
1049.113;  466.500;  401.000;  557.000
1049.660;  520.100;  485.000;  629.660
1050.208;  562.400;  554.000;  675.640
1050.755;  507.500;  468.000;  606.580
1051.303;  572.700;  547.000;  686.820
1051.850;  531.600;  494.000;  635.120
1052.397;  387.800;  340.000;  473.960
1052.945;  517.900;  513.000;  617.760
1053.492;  620.150;  618.000;  741.840
1054.039;  602.050;  561.000;  720.180
1054.586;  470.200;  397.000;  557.240
1055.133;  573.600;  528.000;  693.140
1055.680;  541.600;  508.000;  646.620
1056.227;  440.250;  385.000;  542.780
1056.774;  666.800;  624.000;  794.980
1057.321;  428.600;  400.000;  523.260
1057.868;  534.150;  536.000;  651.320
1058.415;  549.050;  502.000;  651.980
1058.961;  561.550;  510.000;  678.940
1059.508;  536.200;  472.000;  643.820
1060.055;  484.300;  456.000;  581.780
1060.601;  520.000;  470.000;  624.300
1061.148;  514.850;  495.000;  616.820
1061.694;  498.450;  463.000;  592.580
1062.241;  497.800;  498.000;  596.320
1062.787;  554.900;  554.000;  663.140
1063.334;  676.400;  665.000;  808.560
1063.880;  562.800;  531.000;  668.360
1064.426;  596.200;  583.000;  706.820
1064.972;  494.400;  461.000;  601.340
1065.518;  472.250;  415.000;  566.640
1066.065;  527.950;  502.000;  624.460
1066.611;  502.000;  483.000;  598.800
1067.157;  532.750;  509.000;  641.860
1067.703;  552.150;  514.000;  668.480
1068.249;  501.550;  475.000;  605.220
1068.794;  524.800;  499.000;  626.880
1069.340;  481.200;  447.000;  578.960
1069.886;  495.200;  470.000;  590.700
1070.432;  444.350;  405.000;  541.720
1070.977;  500.550;  477.000;  601.080
1071.523;  475.550;  431.000;  573.060
1072.068;  489.350;  441.000;  582.000
1072.614;  432.650;  387.000;  527.760
1073.160;  578.550;  556.000;  687.040
1073.705;  475.250;  488.000;  572.520
1074.250;  462.300;  479.000;  559.900
1074.796;  550.950;  502.000;  655.160
1075.341;  561.550;  525.000;  664.100
1075.886;  491.500;  470.000;  594.240
1076.431;  544.800;  514.000;  649.880
1076.976;  530.500;  491.000;  639.220
1077.521;  486.050;  463.000;  583.080
1078.067;  477.550;  450.000;  579.400
1078.612;  551.700;  537.000;  661.620
1079.156;  501.000;  481.000;  601.540
1079.701;  576.800;  543.000;  693.260
1080.246;  582.650;  599.000;  696.300
1080.791;  529.150;  485.000;  625.020
1081.336;  547.750;  502.000;  659.320
1081.880;  552.850;  526.000;  649.680
1082.425;  469.850;  421.000;  573.480
1082.970;  600.650;  577.000;  717.040
1083.514;  498.850;  482.000;  597.000
1084.059;  490.200;  455.000;  586.720
1084.603;  475.600;  437.000;  565.840
1085.147;  537.900;  496.000;  645.220
1085.692;  597.400;  566.000;  716.800
1086.236;  419.050;  419.000;  503.140
1086.780;  631.200;  621.000;  751.440
1087.325;  545.400;  518.000;  654.620
1087.869;  507.500;  482.000;  610.700
1088.413;  585.050;  567.000;  705.040
1088.957;  443.550;  457.000;  543.400
1089.501;  634.150;  634.000;  766.640
1090.045;  604.950;  611.000;  726.480
1090.589;  473.200;  453.000;  569.920
1091.133;  557.450;  513.000;  673.340
1091.676;  495.450;  450.000;  591.940
1092.220;  505.050;  481.000;  600.920
1092.764;  595.650;  579.000;  706.960
1093.307;  559.050;  526.000;  673.780
1093.851;  458.600;  442.000;  556.540
1094.395;  569.800;  571.000;  683.140
1094.938;  529.800;  516.000;  632.520
1095.482;  467.700;  455.000;  559.800
1096.025;  595.950;  565.000;  710.880
1096.568;  649.750;  631.000;  779.280
1097.112;  416.350;  405.000;  508.180
1097.655;  497.300;  518.000;  603.000
1098.198;  497.350;  473.000;  600.180
1098.741;  518.100;  490.000;  612.860
1099.285;  552.200;  531.000;  657.300
1099.828;  363.850;  330.000;  439.400
1100.371;  513.550;  497.000;  608.160
1100.914;  573.950;  552.000;  682.660
1101.457;  570.750;  555.000;  679.900
1101.999;  476.500;  447.000;  584.680
1102.542;  527.250;  491.000;  641.440
1103.085;  546.800;  548.000;  658.500
1103.628;  638.000;  642.000;  762.060
1104.170;  488.050;  463.000;  588.280
1104.713;  548.000;  529.000;  646.700
1105.256;  466.300;  403.000;  557.440
1105.798;  412.850;  400.000;  499.980
1106.341;  607.850;  603.000;  728.900
1106.883;  433.450;  393.000;  521.340
1107.425;  551.200;  534.000;  668.180
1107.968;  519.550;  517.000;  612.380
1108.510;  579.450;  572.000;  684.960
1109.052;  514.750;  473.000;  612.620
1109.594;  466.150;  408.000;  554.440
1110.136;  540.200;  509.000;  643.220
1110.679;  524.450;  552.000;  633.080
1111.221;  501.900;  462.000;  604.460
1111.763;  462.300;  444.000;  559.220
1112.304;  447.950;  428.000;  547.140
1112.846;  554.550;  564.000;  666.240
1113.388;  795.300;  770.000;  942.180
1113.930;  580.650;  589.000;  694.200
1114.472;  508.100;  488.000;  606.540
1115.013;  451.350;  424.000;  551.280
1115.555;  488.000;  486.000;  587.100
1116.097;  479.100;  459.000;  579.480
1116.638;  577.500;  582.000;  684.600
1117.180;  546.900;  526.000;  667.740
1117.721;  478.400;  456.000;  568.580
1118.262;  568.550;  521.000;  677.960
1118.804;  533.850;  529.000;  637.340
1119.345;  480.850;  461.000;  578.400
1119.886;  585.900;  601.000;  704.040
1120.427;  493.600;  478.000;  589.020
1120.969;  503.650;  480.000;  597.920
1121.510;  471.900;  442.000;  563.060
1122.051;  603.350;  598.000;  723.580
1122.592;  546.100;  514.000;  655.420
1123.133;  451.050;  473.000;  547.940
1123.673;  587.400;  586.000;  706.480
1124.214;  513.000;  511.000;  612.460
1124.755;  541.150;  537.000;  639.460
1125.296;  518.400;  505.000;  627.320
1125.836;  573.200;  570.000;  691.500
1126.377;  492.950;  467.000;  599.660
1126.918;  506.950;  505.000;  614.980
1127.458;  506.750;  528.000;  622.220
1127.999;  547.900;  548.000;  656.980
1128.539;  584.050;  545.000;  694.240
1129.079;  528.700;  527.000;  632.720
1129.620;  460.700;  440.000;  558.100
1130.160;  444.850;  456.000;  539.480
1130.700;  528.350;  512.000;  640.840
1131.240;  535.150;  546.000;  643.700
1131.781;  518.950;  535.000;  619.680
1132.321;  498.950;  504.000;  599.120
1132.861;  466.300;  446.000;  564.200
1133.401;  494.400;  484.000;  593.940
1133.941;  518.250;  551.000;  626.280
1134.481;  503.050;  505.000;  597.580
1135.020;  505.750;  488.000;  609.160
1135.560;  566.950;  567.000;  674.940
1136.100;  418.100;  398.000;  501.160
1136.640;  419.000;  411.000;  510.480
1137.179;  446.600;  428.000;  537.960
1137.719;  501.200;  486.000;  605.400
1138.258;  486.000;  501.000;  587.360
1138.798;  556.250;  547.000;  663.780
1139.337;  397.650;  369.000;  482.840
1139.877;  539.950;  524.000;  642.360
1140.416;  742.200;  763.000;  878.060
1140.955;  433.250;  404.000;  535.380
1141.494;  560.300;  559.000;  669.280
1142.034;  485.500;  482.000;  583.520
1142.573;  550.450;  560.000;  646.280
1143.112;  459.350;  469.000;  553.480
1143.651;  448.700;  452.000;  536.480
1144.190;  573.800;  551.000;  691.640
1144.729;  497.950;  479.000;  607.420
1145.267;  484.050;  500.000;  584.900
1145.806;  531.900;  544.000;  637.040
1146.345;  520.850;  528.000;  635.020
1146.884;  523.250;  499.000;  622.500
1147.422;  439.200;  443.000;  533.060
1147.961;  594.950;  580.000;  708.460
1148.500;  561.050;  556.000;  669.720
1149.038;  530.550;  532.000;  632.500
1149.577;  583.000;  607.000;  698.640
1150.115;  372.800;  325.000;  452.280
1150.653;  500.950;  512.000;  607.340
1151.192;  459.550;  456.000;  552.920
1151.730;  541.350;  562.000;  652.560
1152.268;  492.050;  471.000;  589.520
1152.806;  478.100;  494.000;  571.180
1153.344;  475.350;  484.000;  577.640
1153.882;  496.500;  494.000;  600.060
1154.421;  383.900;  363.000;  470.620
1154.958;  498.050;  501.000;  595.240
1155.496;  537.000;  553.000;  645.280
1156.034;  602.950;  600.000;  721.880
1156.572;  559.800;  537.000;  667.060
1157.110;  389.750;  367.000;  473.940
1157.647;  571.400;  576.000;  676.960
1158.185;  463.300;  484.000;  564.320
1158.723;  414.000;  412.000;  509.200
1159.260;  579.700;  588.000;  701.700
1159.798;  552.900;  555.000;  658.160
1160.335;  513.700;  536.000;  631.820

