gmr_right
Integration time [ms]: 384.568
Averaging Nr. [scans]: 20
Smoothing Nr. [pixels]: 0
Data measured with spectrometer [name]: 7414430SP
Wave   ;Sample   ;Dark     ;Reference
[nm]   ;[counts] ;[counts] ;[counts] 

288.544;  635.820;  568.515;  793.890
289.143;  541.628;  409.561;  681.602
289.742;  666.789;  554.563;  828.814
290.341;  652.854;  505.621;  789.841
290.940;  600.962;  470.651;  730.702
291.538;  711.379;  638.612;  881.108
292.137;  644.330;  534.599;  792.581
292.736;  812.404;  681.621;  975.101
293.335;  609.393;  510.669;  735.086
293.934;  639.919;  495.663;  781.677
294.532;  862.875;  741.656; 1031.958
295.131;  700.429;  595.746;  834.394
295.730;  677.095;  598.740;  809.588
296.328;  649.010;  543.748;  783.442
296.927;  653.968;  597.761;  779.652
297.525;  654.769;  550.746;  781.236
298.124;  550.785;  421.822;  654.009
298.722;  632.083;  559.769;  761.933
299.321;  598.064;  487.787;  708.597
299.919;  635.585;  498.805;  751.918
300.518;  580.258;  469.828;  689.338
301.116;  591.043;  504.786;  691.381
301.715;  617.147;  511.760;  730.222
302.313;  607.654;  453.771;  704.943
302.911;  626.148;  513.844;  733.830
303.509;  792.783;  690.770;  925.627
304.108;  654.932;  544.767;  760.383
304.706;  686.309;  555.763;  801.664
305.304;  693.937;  584.826;  796.707
305.902;  674.487;  580.759;  784.484
306.500;  638.746;  507.790;  728.200
307.098;  656.960;  522.797;  746.560
307.696;  689.030;  583.814;  780.432
308.294;  644.240;  558.798;  731.359
308.892;  669.081;  546.766;  759.769
309.490;  626.817;  509.809;  712.161
310.088;  705.900;  605.831;  788.444
310.686;  722.668;  599.777;  821.749
311.284;  678.189;  545.812;  766.040
311.882;  648.720;  537.830;  731.225
312.480;  622.053;  498.852;  697.167
313.078;  715.439;  628.829;  808.331
313.675;  619.646;  501.790;  691.600
314.273;  719.704;  596.854;  797.837
314.871;  539.786;  410.841;  589.829
315.468;  589.348;  515.844;  652.090
316.066;  625.457;  490.792;  694.427
316.664;  591.755;  490.855;  656.351
317.261;  813.865;  738.822;  910.128
317.859;  694.405;  589.840;  768.735
318.456;  743.295;  653.806;  830.096
319.054;  693.772;  615.833;  787.828
319.651;  680.143;  575.818;  759.928
320.249;  721.343;  657.818;  810.188
320.846;  641.324;  532.804;  714.286
321.443;  740.012;  658.817;  832.135
322.041;  724.469;  623.828;  812.315
322.638;  622.774;  561.821;  701.456
323.235;  600.654;  516.771;  665.683
323.833;  674.846;  582.791;  740.354
324.430;  562.025;  431.805;  615.900
325.027;  782.466;  719.791;  876.855
325.624;  588.939;  430.747;  644.532
326.221;  637.890;  470.764;  689.717
326.818;  761.114;  639.788;  818.332
327.415;  682.801;  529.732;  748.828
328.012;  645.527;  477.725;  690.585
328.609;  668.607;  521.743;  731.389
329.206;  729.877;  601.760;  778.621
329.803;  685.392;  539.767;  737.841
330.400;  659.306;  498.741;  704.260
330.997;  761.869;  568.762;  817.147
331.594;  744.111;  600.815;  788.185
332.191;  675.412;  534.767;  728.722
332.787;  775.433;  605.786;  844.463
333.384;  715.616;  523.840;  763.093
333.981;  747.000;  572.897;  815.687
334.578;  660.468;  498.876;  708.378
335.174;  678.239;  497.878;  731.469
335.771;  768.403;  594.918;  836.456
336.367;  660.433;  505.953;  710.631
336.964;  722.988;  578.927;  793.266
337.561;  672.617;  529.941;  731.112
338.157;  826.172;  709.000;  911.916
338.754;  728.904;  608.020;  796.589
339.350;  655.869;  535.012;  722.493
339.946;  693.829;  575.978;  773.135
340.543;  762.918;  657.060;  846.136
341.139;  648.329;  529.094;  720.836
341.735;  694.833;  610.102;  772.593
342.332;  626.704;  532.087;  691.472
342.928;  713.538;  574.076;  795.394
343.524;  683.897;  581.108;  761.684
344.120;  661.371;  531.115;  738.562
344.716;  630.438;  541.060;  723.717
345.313;  712.560;  584.063;  795.342
345.909;  552.405;  435.072;  627.336
346.505;  656.388;  573.043;  740.247
347.101;  724.819;  594.029;  827.864
347.697;  687.076;  585.008;  785.398
348.293;  547.392;  442.033;  627.244
348.889;  650.176;  578.023;  745.914
349.485;  588.838;  517.010;  688.205
350.081;  667.735;  577.005;  772.592
350.676;  600.796;  521.040;  691.606
351.272;  702.194;  594.987;  809.530
351.868;  668.154;  566.970;  780.497
352.464;  619.056;  564.990;  723.932
353.059;  566.371;  473.015;  646.017
353.655;  666.010;  584.980;  777.063
354.251;  646.556;  553.958;  759.845
354.846;  633.566;  534.006;  740.646
355.442;  635.945;  561.039;  753.071
356.038;  631.191;  554.998;  751.708
356.633;  620.068;  546.993;  728.594
357.229;  614.907;  547.008;  724.757
357.824;  596.575;  515.022;  703.600
358.420;  562.152;  529.017;  679.726
359.015;  573.314;  508.004;  695.357
359.610;  653.287;  579.992;  763.920
360.206;  502.577;  418.041;  603.240
360.801;  530.584;  482.003;  646.503
361.396;  606.029;  522.978;  725.975
361.992;  560.925;  504.022;  668.220
362.587;  546.641;  512.048;  670.160
363.182;  572.366;  531.024;  689.631
363.777;  615.728;  559.010;  738.242
364.372;  610.511;  578.016;  737.314
364.967;  559.721;  518.048;  680.744
365.563;  675.099;  623.995;  815.567
366.158;  554.936;  502.007;  685.161
366.753;  528.697;  489.992;  649.263
367.348;  610.666;  579.023;  746.056
367.942;  566.776;  519.008;  697.298
368.537;  610.389;  552.029;  754.245
369.132;  574.992;  517.017;  703.428
369.727;  511.313;  477.052;  638.079
370.322;  470.631;  430.032;  580.186
370.917;  573.146;  528.040;  710.646
371.511;  712.834;  666.020;  861.834
372.106;  639.571;  615.048;  776.964
372.701;  457.259;  439.062;  585.988
373.296;  699.889;  671.012;  863.135
373.890;  519.891;  486.048;  647.840
374.485;  565.765;  535.071;  691.199
375.079;  594.225;  582.021;  738.685
375.674;  661.432;  650.017;  812.970
376.268;  554.671;  528.049;  691.759
376.863;  458.584;  451.103;  580.327
377.457;  524.361;  514.031;  662.490
378.052;  603.507;  601.059;  764.884
378.646;  602.967;  571.058;  741.167
379.240;  580.441;  552.064;  721.176
379.835;  513.965;  532.037;  636.978
380.429;  440.109;  427.045;  562.557
381.023;  632.814;  597.070;  779.205
381.617;  543.471;  514.081;  680.106
382.212;  550.464;  518.036;  685.303
382.806;  608.261;  610.031;  760.690
383.400;  548.912;  550.067;  672.281
383.994;  534.636;  557.073;  664.870
384.588;  561.610;  535.029;  697.701
385.182;  580.281;  584.999;  726.624
385.776;  582.904;  539.019;  706.875
386.370;  549.945;  545.054;  681.968
386.964;  548.390;  553.031;  684.155
387.558;  482.374;  448.003;  598.360
388.152;  550.149;  545.045;  681.959
388.745;  668.916;  664.039;  814.707
389.339;  604.101;  623.014;  747.642
389.933;  557.681;  552.998;  695.370
390.527;  695.427;  720.024;  859.029
391.120;  476.445;  481.071;  595.318
391.714;  564.765;  588.039;  711.633
392.308;  630.977;  622.008;  780.253
392.901;  518.904;  497.037;  642.460
393.495;  478.136;  508.057;  595.414
394.089;  620.210;  649.046;  760.452
394.682;  558.900;  534.047;  697.188
395.275;  582.180;  577.047;  719.927
395.869;  537.378;  567.061;  667.314
396.462;  495.006;  512.039;  616.609
397.056;  631.144;  631.003;  776.621
397.649;  599.056;  601.057;  731.575
398.242;  587.097;  583.025;  712.645
398.836;  617.420;  630.013;  766.408
399.429;  507.281;  486.015;  631.041
400.022;  540.618;  536.059;  665.902
400.615;  659.478;  675.043;  805.609
401.208;  559.587;  580.009;  691.451
401.802;  570.413;  569.036;  699.329
402.395;  557.968;  535.059;  683.502
402.988;  568.754;  588.070;  696.627
403.581;  523.786;  560.023;  646.878
404.174;  557.619;  573.994;  686.568
404.767;  532.736;  529.040;  638.583
405.360;  505.550;  506.062;  621.445
405.953;  620.797;  648.008;  759.034
406.545;  594.749;  583.996;  725.342
407.138;  505.525;  507.039;  618.350
407.731;  503.299;  507.029;  613.303
408.324;  540.167;  560.975;  660.554
408.917;  560.131;  577.999;  681.864
409.509;  620.338;  618.027;  740.396
410.102;  532.472;  542.051;  643.948
410.695;  543.474;  557.970;  665.758
411.287;  490.420;  482.981;  599.821
411.880;  481.835;  456.988;  585.421
412.472;  498.358;  511.027;  613.092
413.065;  516.655;  563.006;  629.408
413.657;  475.709;  484.963;  576.678
414.250;  538.141;  525.966;  646.681
414.842;  558.740;  576.997;  676.353
415.434;  472.753;  475.969;  570.463
416.027;  536.995;  535.922;  652.196
416.619;  598.949;  592.962;  713.400
417.211;  490.640;  500.964;  599.352
417.804;  513.840;  540.914;  628.499
418.396;  509.031;  513.965;  607.643
418.988;  542.908;  525.944;  659.238
419.580;  472.999;  484.978;  568.276
420.172;  442.768;  456.944;  536.196
420.764;  564.130;  578.913;  672.482
421.356;  537.157;  544.925;  636.898
421.948;  559.790;  552.947;  677.661
422.540;  561.606;  580.890;  680.027
423.132;  500.164;  498.887;  600.641
423.724;  469.630;  455.931;  561.267
424.316;  519.632;  504.916;  621.345
424.908;  491.233;  498.869;  591.517
425.500;  544.203;  548.869;  647.978
426.092;  554.632;  551.867;  648.268
426.683;  586.679;  583.896;  684.836
427.275;  538.540;  540.848;  641.471
427.867;  553.166;  557.841;  668.948
428.458;  619.057;  592.842;  732.344
429.050;  580.152;  569.867;  680.749
429.642;  626.929;  615.845;  743.124
430.233;  469.461;  460.832;  569.356
430.825;  614.764;  584.837;  724.809
431.416;  586.713;  594.868;  698.241
432.008;  537.185;  538.823;  651.723
432.599;  546.800;  555.814;  656.073
433.190;  535.957;  534.859;  637.670
433.782;  494.607;  480.858;  590.395
434.373;  747.582;  771.800;  884.765
434.964;  505.310;  467.798;  602.920
435.556;  533.303;  533.836;  634.537
436.147;  636.255;  617.822;  758.490
436.738;  587.291;  584.816;  701.099
437.329;  606.639;  599.763;  721.723
437.920;  563.823;  563.852;  666.688
438.511;  469.969;  440.845;  564.526
439.103;  515.505;  524.772;  623.998
439.694;  566.617;  546.759;  681.583
440.285;  642.205;  607.773;  764.432
440.876;  716.020;  709.798;  845.738
441.466;  484.113;  436.786;  575.162
442.057;  556.650;  554.731;  665.814
442.648;  626.615;  617.772;  746.255
443.239;  523.036;  531.791;  620.477
443.830;  597.167;  578.742;  704.958
444.421;  549.691;  482.716;  655.474
445.011;  589.389;  529.779;  693.619
445.602;  628.173;  592.785;  743.126
446.193;  405.282;  379.734;  488.117
446.783;  537.630;  497.697;  640.397
447.374;  578.024;  563.772;  692.759
447.964;  590.965;  602.773;  713.770
448.555;  696.857;  654.692;  822.742
449.145;  557.808;  533.728;  662.853
449.736;  675.286;  656.742;  803.179
450.326;  601.176;  545.740;  713.626
450.917;  567.232;  549.684;  675.324
451.507;  504.787;  455.692;  600.661
452.097;  631.537;  600.710;  746.267
452.688;  615.781;  534.700;  742.160
453.278;  470.767;  444.693;  566.840
453.868;  680.630;  618.665;  793.550
454.458;  548.309;  473.696;  651.141
455.048;  596.463;  546.703;  711.783
455.639;  475.999;  439.663;  567.096
456.229;  596.981;  544.649;  710.694
456.819;  629.910;  579.648;  751.158
457.409;  655.975;  604.657;  773.993
457.999;  617.348;  557.628;  737.505
458.589;  565.190;  525.632;  686.606
459.179;  605.896;  550.641;  717.658
459.769;  523.359;  487.663;  627.099
460.358;  666.324;  644.621;  797.262
460.948;  570.666;  522.625;  689.503
461.538;  556.052;  488.618;  660.677
462.128;  558.931;  481.649;  664.934
462.717;  592.494;  569.572;  710.326
463.307;  596.693;  556.553;  705.846
463.897;  552.309;  479.614;  656.942
464.486;  703.896;  640.657;  837.128
465.076;  618.867;  582.592;  733.776
465.666;  543.279;  516.547;  652.900
466.255;  665.274;  592.604;  785.651
466.845;  564.399;  481.612;  666.749
467.434;  608.335;  576.589;  725.873
468.023;  554.785;  457.573;  658.357
468.613;  607.940;  526.632;  713.946
469.202;  542.779;  470.579;  646.507
469.791;  616.520;  542.548;  737.811
470.381;  623.718;  556.544;  742.813
470.970;  599.281;  486.551;  711.099
471.559;  618.344;  565.571;  733.291
472.148;  559.383;  481.536;  675.737
472.738;  638.697;  569.527;  765.466
473.327;  527.551;  430.534;  637.529
473.916;  618.650;  547.564;  737.446
474.505;  632.323;  552.520;  751.703
475.094;  684.141;  578.500;  806.570
475.683;  667.243;  568.521;  797.699
476.272;  614.246;  507.526;  730.632
476.861;  589.348;  481.495;  706.754
477.449;  616.105;  502.441;  728.487
478.038;  580.616;  477.526;  692.513
478.627;  603.961;  504.533;  714.852
479.216;  648.902;  583.468;  769.441
479.805;  659.301;  548.450;  783.375
480.393;  851.497;  759.493; 1008.945
480.982;  738.969;  614.513;  874.501
481.571;  723.389;  628.447;  858.333
482.159;  587.128;  453.444;  705.386
482.748;  698.068;  548.478;  821.385
483.336;  727.096;  621.459;  858.209
483.925;  660.435;  539.473;  774.373
484.513;  642.245;  520.408;  758.962
485.102;  671.910;  554.482;  810.965
485.690;  849.514;  716.421; 1011.050
486.278;  835.994;  684.421;  979.329
486.867;  678.119;  541.430;  809.662
487.455;  762.109;  578.448;  898.229
488.043;  623.550;  447.449;  748.361
488.631;  850.313;  712.404; 1005.079
489.220;  766.768;  584.396;  908.626
489.808;  630.022;  424.435;  741.415
490.396;  782.214;  593.422;  914.645
490.984;  714.155;  505.423;  830.161
491.572;  813.884;  618.405;  940.315
492.160;  801.600;  526.449;  919.081
492.748;  778.993;  526.453;  884.341
493.336;  902.594;  620.406; 1019.693
493.924;  868.680;  534.383;  958.077
494.512;  993.117;  599.427; 1066.638
495.100; 1044.880;  569.449; 1103.280
495.687; 1161.443;  637.387; 1206.373
496.275; 1154.189;  490.398; 1150.796
496.863; 1306.485;  517.440; 1281.171
497.451; 1427.858;  507.445; 1386.805
498.038; 1590.577;  560.377; 1556.729
498.626; 1829.351;  520.384; 1741.407
499.214; 2237.344;  543.421; 2016.609
499.801; 2539.432;  548.436; 2220.633
500.389; 2742.985;  465.391; 2312.494
500.976; 3240.828;  564.395; 2744.849
501.564; 3526.243;  530.437; 3148.565
502.151; 3689.288;  369.446; 3515.999
502.738; 4265.714;  520.406; 3971.274
503.326; 4907.066;  490.375; 4403.796
503.913; 5616.907;  530.410; 5161.749
504.500; 6214.949;  553.430; 5986.420
505.088; 6946.777;  476.427; 6381.201
505.675; 8045.837;  520.377; 6925.547
506.262; 9055.608;  513.446; 7619.060
506.849;10028.979;  535.414; 8733.969
507.436;10785.602;  590.385; 9790.121
508.023;10827.646;  518.391; 9985.472
508.610;11418.358;  592.412;10434.618
509.197;12736.183;  546.469;11198.435
509.784;13932.771;  543.417;12391.194
510.371;14799.292;  433.368;13603.713
510.958;15375.513;  505.437;14426.586
511.545;15300.885;  634.424;15243.775
512.132;16068.638;  547.379;15945.876
512.719;17162.857;  475.410;16340.369
513.305;19029.178;  478.430;18011.766
513.892;20800.043;  600.455;19754.971
514.479;22109.719;  549.396;20967.805
515.066;23165.201;  615.402;22299.793
515.652;24448.434;  523.404;22908.660
516.239;25894.963;  603.420;23798.875
516.825;27311.355;  464.409;25567.275
517.412;28505.127;  686.393;28154.959
517.998;27716.971;  501.432;28344.111
518.585;26181.889;  509.446;27134.219
519.171;26463.131;  535.383;27268.576
519.758;27155.998;  440.395;28964.129
520.344;28531.221;  573.417;30664.494
520.930;30343.336;  456.459;32550.605
521.516;33648.941;  596.383;35422.895
522.103;35426.145;  639.408;38280.004
522.689;35573.191;  498.450;37835.117
523.275;35472.496;  614.439;37288.613
523.861;36137.270;  552.413;37281.395
524.447;37706.012;  614.384;37846.949
525.033;37715.793;  601.436;38321.949
525.619;35585.004;  461.452;38579.285
526.205;35005.102;  483.435;40622.875
526.791;36292.270;  528.398;42258.836
527.377;37553.609;  509.449;42966.902
527.963;38847.754;  570.470;42018.949
528.549;40183.344;  580.452;42476.828
529.135;39678.336;  481.428;41854.852
529.721;37900.141;  524.432;41237.711
530.306;37988.242;  714.452;41259.445
530.892;39158.691;  517.433;41506.047
531.478;41912.832;  526.417;43559.613
532.063;43589.227;  462.445;47695.563
532.649;45794.727;  662.479;50808.324
533.235;46122.086;  487.442;51787.500
533.820;46236.047;  612.394;52145.035
534.406;44896.066;  511.477;51133.488
534.991;44245.531;  497.448;49996.805
535.576;42608.109;  517.432;48882.852
536.162;41158.227;  729.426;46942.285
536.747;42070.941;  444.482;45711.746
537.333;44103.457;  487.479;48510.180
537.918;46118.652;  520.466;50439.891
538.503;45344.813;  498.421;50863.711
539.088;44037.047;  570.460;50906.922
539.673;46393.313;  530.467;52621.965
540.259;47925.848;  483.443;52368.094
540.844;47453.844;  434.436;50879.109
541.429;47287.625;  655.487;52077.777
542.014;47970.754;  451.502;52716.695
542.599;46427.191;  569.453;52363.281
543.184;46036.820;  489.483;53187.137
543.769;47669.051;  467.486;54697.605
544.354;46944.957;  493.480;53913.914
544.938;44483.500;  571.467;49680.164
545.523;42252.449;  652.446;47386.277
546.108;44333.523;  518.488;49151.949
546.693;46830.008;  533.513;51384.637
547.278;44908.105;  570.458;51853.254
547.862;43396.008;  517.429;51173.750
548.447;43767.566;  574.495;51691.395
549.031;43821.215;  497.523;52456.703
549.616;43540.859;  562.461;52714.516
550.201;44404.395;  489.473;52414.598
550.785;47596.805;  590.491;52355.059
551.370;50289.441;  465.503;54589.453
551.954;51644.586;  594.493;58267.348
552.538;50402.676;  577.473;59062.176
553.123;49517.832;  462.501;58115.285
553.707;50208.563;  511.538;56556.285
554.291;49681.863;  614.485;56201.668
554.876;48681.941;  623.498;55335.762
555.460;48009.922;  508.520;54155.703
556.044;48104.504;  493.553;53721.484
556.628;47412.984;  527.507;53731.016
557.212;46213.859;  603.462;54312.531
557.796;44831.066;  537.507;53797.773
558.380;44216.801;  548.549;56145.984
558.964;45280.758;  560.481;57277.930
559.548;47510.641;  445.483;56459.641
560.132;48484.297;  485.524;54434.543
560.716;48765.340;  460.547;54800.617
561.300;49855.125;  460.475;57606.945
561.884;48844.648;  560.512;58972.445
562.467;48487.508;  560.545;57327.570
563.051;48618.355;  540.544;54962.434
563.635;47116.063;  540.533;52594.473
564.219;44089.758;  504.511;50610.410
564.802;44435.102;  572.550;49551.180
565.386;45276.754;  516.541;48370.953
565.969;45277.793;  604.488;48178.871
566.553;45599.496;  698.527;49957.305
567.136;44484.723;  608.551;50369.594
567.720;45286.063;  542.569;49492.004
568.303;46868.746;  564.544;50616.352
568.887;48122.113;  548.534;50727.148
569.470;48209.859;  555.580;51698.379
570.053;45294.406;  572.573;52122.078
570.637;42578.688;  491.514;52536.438
571.220;41447.168;  588.510;51186.098
571.803;41100.551;  680.584;51032.762
572.386;41640.457;  495.561;49609.887
572.969;42764.402;  526.538;48285.926
573.552;44637.441;  531.549;47624.285
574.135;43824.816;  458.591;45498.641
574.718;40533.746;  474.559;41970.434
575.301;39757.688;  487.068;41447.137
575.884;38981.629;  499.577;40923.836
576.467;40681.313;  559.569;45267.723
577.050;40692.570;  575.580;48175.543
577.633;39889.273;  663.538;47729.328
578.216;41194.484;  503.574;47579.793
578.799;46086.461;  523.600;47820.996
579.381;47027.801;  669.567;48115.551
579.964;42702.113;  503.538;47333.766
580.547;40517.277;  537.579;46668.969
581.129;40666.898;  621.610;44466.141
581.712;40902.043;  551.621;44164.922
582.294;42491.863;  522.570;46477.855
582.877;41031.367;  703.563;48244.254
583.459;39803.512;  544.619;47437.895
584.042;41620.492;  520.618;46943.219
584.624;41677.965;  507.624;46792.227
585.206;41904.875;  407.575;46557.250
585.789;40884.598;  477.611;45793.773
586.371;39552.086;  552.638;43836.391
586.953;37954.816;  598.608;42972.492
587.536;36511.586;  635.574;42487.211
588.118;37197.910;  543.679;42086.414
588.700;38717.750;  662.631;43389.930
589.282;40418.492;  586.599;43646.039
589.864;39780.418;  523.612;43438.109
590.446;39752.668;  407.647;43151.926
591.028;39080.504;  543.639;42781.867
591.610;39022.480;  439.615;42839.098
592.192;38619.680;  565.599;42820.402
592.774;36516.379;  475.629;40724.277
593.356;35680.820;  501.668;39874.789
593.937;34824.766;  523.605;39980.648
594.519;35143.359;  611.612;42069.633
595.101;34798.957;  460.657;42976.031
595.683;33942.352;  509.666;44084.441
596.264;34693.887;  540.611;43478.797
596.846;37553.410;  517.630;43803.672
597.427;38474.598;  487.679;42986.934
598.009;39407.832;  472.681;42832.219
598.591;39063.719;  598.632;42580.086
599.172;38415.344;  500.640;43061.805
599.753;38094.379;  454.676;41691.469
600.335;38120.117;  637.693;40692.520
600.916;37979.609;  552.666;39982.422
601.498;38605.664;  559.652;40318.617
602.079;39516.086;  534.676;40670.609
602.660;38368.051;  531.685;41450.898
603.241;37455.203;  434.637;41137.738
603.823;37751.711;  514.648;38868.797
604.404;39198.926;  451.688;38182.785
604.985;41402.129;  509.695;38078.047
605.566;42199.371;  595.634;38056.633
606.147;40835.105;  537.708;37020.418
606.728;39301.801;  457.716;37883.359
607.309;38641.340;  483.697;38748.273
607.890;38607.207;  526.661;38850.230
608.471;38616.332;  469.685;37457.918
609.051;38460.746;  536.742;36066.457
609.632;37830.543;  458.735;35991.074
610.213;38749.867;  541.693;37402.641
610.794;40587.109;  503.699;38383.363
611.374;39067.426;  568.707;40562.387
611.955;38522.578;  444.725;38533.727
612.536;40594.676;  573.691;36951.789
613.116;40108.391;  524.698;37197.891
613.697;39749.148;  515.744;38411.125
614.277;39438.523;  494.753;38673.938
614.858;36117.469;  516.696;37075.863
615.438;34166.355;  536.691;35092.906
616.019;33873.574;  622.756;33666.301
616.599;35030.691;  423.733;34189.023
617.179;38016.789;  475.710;36952.047
617.760;38357.133;  708.686;39582.574
618.340;36615.898;  498.765;38943.977
618.920;36175.465;  653.742;37594.156
619.500;36087.313;  495.768;37866.938
620.080;36118.164;  479.741;37869.043
620.660;36411.621;  468.802;36868.617
621.241;36605.219;  491.762;36352.309
621.821;36215.500;  592.749;35459.520
622.401;36582.105;  587.742;35207.414
622.980;38363.730;  463.779;35980.422
623.560;37886.117;  460.758;37351.328
624.140;35216.676;  557.741;34388.582
624.720;35414.629;  554.748;32368.764
625.300;37352.207;  485.743;32638.629
625.880;38307.988;  503.780;34599.035
626.459;36824.785;  556.753;36831.738
627.039;35452.184;  444.772;38299.098
627.619;36865.031;  703.802;38289.574
628.198;38759.246;  572.791;37220.695
628.778;40240.031;  551.748;37632.563
629.357;40682.742;  448.751;38003.012
629.937;39219.211;  496.798;38402.039
630.516;36219.586;  605.794;37868.801
631.096;35255.172;  498.751;35760.410
631.675;34354.223;  625.817;35225.219
632.254;33985.820;  508.833;35130.289
632.834;35223.605;  534.822;35794.570
633.413;36476.613;  638.771;35788.922
633.992;36493.375;  587.820;34532.863
634.571;36784.508;  576.844;33590.113
635.151;36171.250;  476.831;34943.863
635.730;35269.875;  511.775;35352.523
636.309;35540.719;  583.793;35366.605
636.888;35481.695;  593.820;36165.637
637.467;35790.316;  450.842;37515.902
638.046;36858.168;  646.791;39288.695
638.625;37331.113;  649.820;38279.699
639.204;37287.531;  541.850;37741.598
639.782;38179.457;  526.878;38364.551
640.361;38262.449;  639.809;36740.621
640.940;37641.168;  503.807;34950.082
641.519;37205.035;  532.805;34137.398
642.097;35788.305;  556.804;35654.258
642.676;35850.973;  571.802;35637.957
643.255;35865.793;  489.800;36567.074
643.833;37459.059;  569.799;37809.434
644.412;39154.777;  490.797;37337.293
644.990;39489.098;  534.795;37018.531
645.569;38827.066;  555.793;36518.469
646.147;37301.184;  588.792;36186.430
646.726;36221.453;  552.790;36267.688
647.304;35900.371;  509.788;36647.625
647.882;35790.789;  425.787;39286.742
648.461;35346.906;  559.785;39157.703
649.039;35573.727;  588.783;35412.883
649.617;35100.844;  570.781;34744.918
650.195;34888.563;  570.780;35403.098
650.773;34970.980;  470.778;35053.797
651.352;34833.301;  391.776;33756.816
651.930;34049.020;  420.775;31868.773
652.508;33543.637;  603.773;33121.551
653.086;33036.305;  545.771;33564.793
653.663;34898.723;  497.770;34054.668
654.241;35596.641;  453.768;35693.309
654.819;36560.160;  476.766;36422.906
655.397;38212.379;  443.764;38213.484
655.975;39396.297;  530.763;39507.625
656.553;40796.367;  618.761;39498.223
657.130;40070.484;  478.759;40395.480
657.708;40530.352;  552.758;39242.020
658.286;39354.020;  525.756;38920.020
658.863;38197.488;  545.754;40202.898
659.441;37928.109;  541.752;39677.938
660.018;38759.527;  509.751;40413.355
660.596;39322.297;  406.749;39931.414
661.173;39902.313;  500.747;39604.531
661.750;39462.781;  486.746;39700.070
662.328;39140.152;  564.744;39292.809
662.905;37915.918;  510.742;38235.648
663.482;36055.188;  513.741;36212.305
664.060;35797.258;  514.739;35944.945
664.637;35580.926;  585.737;35170.785
665.214;35591.395;  550.735;34197.523
665.791;37016.410;  529.734;34549.520
666.368;37543.078;  530.732;35118.578
666.945;35768.848;  585.730;36019.418
667.522;35434.266;  470.729;36048.438
668.099;36907.035;  505.727;36243.914
668.676;37125.004;  532.725;35958.875
669.253;36967.621;  629.723;37384.730
669.830;35468.891;  578.722;36779.629
670.407;33952.711;  537.720;35231.289
670.984;33182.078;  544.718;35544.270
671.560;33900.098;  560.717;35466.867
672.137;33158.016;  498.715;34280.863
672.714;33566.434;  579.713;34632.863
673.290;34646.102;  548.711;35135.422
673.867;33190.371;  482.710;36114.480
674.443;33229.789;  428.708;36152.859
675.020;35216.355;  541.706;35327.238
675.596;36204.477;  521.705;35795.176
676.173;35163.445;  436.703;35430.355
676.749;35319.512;  385.701;33549.516
677.326;34897.281;  432.700;32210.012
677.902;36000.551;  468.698;32068.871
678.478;35234.367;  424.696;32583.891
679.054;33855.637;  772.694;32088.928
679.631;33540.605;  548.693;30978.848
680.207;34332.172;  660.691;33160.887
680.783;34340.441;  412.689;35570.363
681.359;34767.012;  522.688;36125.184
681.935;34577.777;  540.686;35240.922
682.511;34038.047;  540.684;34429.961
683.087;33168.266;  558.682;34463.680
683.663;32436.084;  498.681;34648.898
684.239;32281.102;  433.679;34546.457
684.815;32111.971;  576.677;35586.375
685.390;32667.289;  664.676;35821.895
685.966;33003.008;  527.674;35085.871
686.542;32403.727;  491.672;34198.230
687.118;32627.094;  520.671;32847.707
687.693;32850.363;  578.669;32794.027
688.269;31917.781;  516.667;33072.367
688.844;31189.400;  567.665;33141.664
689.420;31856.768;  519.664;33965.742
689.995;31671.188;  626.662;34655.523
690.571;31551.355;  615.660;33576.742
691.146;33081.875;  510.659;32657.219
691.722;32378.143;  535.657;32526.979
692.297;31086.611;  459.655;33014.617
692.872;30999.729;  475.654;34012.254
693.448;30478.598;  459.652;34237.434
694.023;30339.467;  537.650;34142.672
694.598;30908.234;  531.648;34132.031
695.173;31119.703;  519.647;34205.250
695.748;30183.521;  415.645;32882.488
696.323;31108.141;  537.643;32864.906
696.898;31883.959;  566.642;33170.004
697.473;31111.477;  437.640;32432.984
698.048;30762.545;  517.638;31649.303
698.623;31827.213;  453.636;30778.141
699.198;32843.730;  536.635;31140.119
699.773;33596.652;  455.633;31764.299
700.348;32505.568;  474.631;31780.816
700.922;32184.838;  520.630;32046.375
701.497;31837.256;  512.628;32603.574
702.072;31762.824;  594.626;34799.871
702.646;32391.393;  601.625;35793.172
703.221;32678.211;  531.623;35201.590
703.795;32070.129;  466.621;34764.527
704.370;32565.148;  386.619;34307.367
704.944;32519.316;  523.618;33509.887
705.519;32944.586;  558.616;31388.584
706.093;33935.754;  467.614;31340.104
706.668;34107.422;  533.613;32630.281
707.242;33718.641;  587.611;32728.779
707.816;32540.709;  511.609;32947.238
708.390;32101.328;  521.607;33277.855
708.965;32898.547;  565.606;33834.336
709.539;32859.363;  518.604;33709.273
710.113;31876.434;  525.602;33044.313
710.687;32800.852;  551.601;31953.992
711.261;33175.270;  468.599;30505.949
711.835;32458.139;  462.597;30262.369
712.409;31946.557;  413.595;31254.447
712.983;33193.477;  424.594;32754.986
713.557;35200.695;  423.592;34018.824
714.131;35206.164;  500.590;34579.625
714.704;34099.680;  495.589;33890.262
715.278;33285.348;  530.587;33531.102
715.852;33385.016;  564.585;33601.660
716.425;33110.637;  663.584;33515.117
716.999;32612.254;  432.582;33185.555
717.573;33251.074;  567.580;33905.996
718.146;34149.492;  615.578;35199.293
718.720;34200.012;  518.577;35060.551
719.293;34301.680;  565.575;34973.230
719.867;34071.695;  470.573;36394.449
720.440;34367.266;  603.572;36663.008
721.013;34819.582;  519.570;35102.426
721.587;33494.852;  405.568;33985.266
722.160;33281.672;  562.566;33524.965
722.733;32726.189;  547.565;32987.043
723.306;34129.957;  513.563;33066.301
723.880;35650.027;  565.561;33399.500
724.453;35511.293;  640.560;33468.297
725.026;34304.863;  497.558;33816.637
725.599;32780.730;  539.556;32797.996
726.172;32621.551;  558.555;33187.434
726.745;34409.566;  538.553;35136.613
727.318;34753.535;  584.551;35751.730
727.891;33552.555;  534.549;35890.430
728.463;32444.123;  535.548;34822.090
729.036;31761.393;  447.546;32895.086
729.609;30693.811;  473.544;31823.225
730.182;30652.930;  580.543;31445.283
730.754;31835.197;  407.541;32373.223
731.327;34158.266;  545.539;33676.820
731.900;33634.184;  421.537;33417.000
732.472;32920.652;  542.536;31978.498
733.045;32830.871;  502.534;30368.777
733.617;31116.590;  437.532;30574.215
734.190;30189.309;  572.531;31280.975
734.762;29863.627;  534.529;31674.412
735.334;30056.195;  527.527;31247.291
735.907;30409.463;  547.526;29876.211
736.479;30209.383;  576.524;29808.488
737.051;30971.602;  544.522;30233.547
737.623;32961.070;  559.520;31469.086
738.195;34267.738;  477.519;31784.225
738.768;34706.855;  389.517;32120.523
739.340;33862.773;  500.515;32094.342
739.912;33778.043;  596.514;31312.680
740.484;33046.613;  543.512;31946.238
741.056;32979.031;  498.510;32984.059
741.628;34399.297;  476.508;33897.715
742.199;33226.867;  596.507;33213.016
742.771;31923.984;  444.505;31369.113
743.343;32169.953;  475.503;31865.473
743.915;32150.271;  503.502;32388.631
744.487;31480.941;  586.500;31079.568
745.058;29986.908;  562.498;30570.107
745.630;28972.928;  564.497;29970.127
746.201;28501.496;  475.495;29186.766
746.773;27889.814;  553.493;28805.723
747.344;27091.883;  515.491;29591.223
747.916;26542.502;  541.490;31412.201
748.487;27051.721;  572.488;32194.898
749.059;28293.688;  453.486;32533.719
749.630;28756.707;  480.485;32158.518
750.201;28117.975;  523.483;30855.395
750.773;27608.793;  478.481;28622.555
751.344;26517.262;  514.479;28405.732
751.915;25204.980;  512.478;28461.551
752.486;25355.049;  462.476;27842.850
753.057;26400.068;  533.474;27845.008
753.628;26343.137;  485.473;27728.107
754.199;25434.004;  483.471;27381.086
754.770;24604.072;  560.469;25882.203
755.341;24253.041;  609.468;25886.184
755.912;23887.910;  508.466;26050.861
756.483;23834.828;  564.464;26798.779
757.054;23243.646;  533.462;27048.238
757.625;23191.516;  470.461;26294.838
758.195;23884.684;  436.459;26142.076
758.766;23749.953;  534.457;26392.234
759.337;23740.371;  432.456;26334.594
759.907;24431.689;  436.454;27579.652
760.478;24918.207;  497.452;28352.770
761.048;24905.775;  566.450;27325.088
761.619;25059.945;  553.449;26460.428
762.189;24057.514;  490.447;26029.826
762.760;23103.631;  588.445;26430.145
763.330;21574.850;  548.444;26670.902
763.900;20929.768;  537.442;26603.021
764.471;21324.688;  468.440;25542.740
765.041;21609.404;  599.438;24358.459
765.611;22241.225;  540.437;23991.297
766.181;23081.742;  538.435;24470.236
766.751;22973.311;  542.433;24845.975
767.321;21944.930;  474.432;24533.633
767.891;21431.197;  499.430;24916.492
768.461;21162.166;  532.428;24776.771
769.031;20050.285;  503.427;24757.988
769.601;18817.004;  591.425;24181.088
770.171;17879.371;  421.423;23670.387
770.741;18148.590;  467.421;22960.045
771.311;18801.309;  568.420;22917.523
771.880;19172.826;  445.418;23562.941
772.450;19381.746;  487.416;24216.500
773.020;19547.664;  424.415;24140.398
773.589;18817.482;  493.413;24414.857
774.159;18678.102;  462.411;23858.717
774.729;18462.420;  480.409;22942.135
775.298;16719.738;  485.408;22324.033
775.867;16061.856;  494.406;21140.313
776.437;16397.574;  512.404;20838.092
777.006;16571.242;  443.403;20599.510
777.576;16331.411;  528.401;20508.809
778.145;16232.380;  558.399;20732.947
778.714;16737.648;  529.398;21062.465
779.283;16928.666;  558.396;20949.664
779.853;17077.734;  481.394;20508.623
780.422;17844.854;  526.392;20649.082
780.991;17343.021;  553.391;21527.520
781.560;16626.090;  606.389;22632.658
782.129;16361.409;  543.387;23048.277
782.698;16305.878;  606.386;23438.555
783.267;16771.547;  519.384;23267.734
783.836;17504.014;  536.382;22415.133
784.404;16940.434;  443.380;20443.152
784.973;16177.201;  387.379;19699.150
785.542;15789.870;  495.377;19763.828
786.111;16400.238;  591.375;20341.408
786.679;16713.107;  534.374;20207.967
787.248;16102.575;  423.372;19516.465
787.817;16216.844;  503.370;18900.363
788.385;16644.611;  571.369;17879.121
788.954;15805.480;  423.367;17658.301
789.522;15715.099;  605.365;17788.879
790.090;16335.518;  433.363;18118.277
790.659;16650.736;  493.362;18338.736
791.227;16651.904;  505.360;18508.615
791.795;16273.223;  533.358;17898.254
792.364;14936.191;  476.357;17295.133
792.932;14598.610;  532.355;16822.051
793.500;15143.128;  508.353;17040.148
794.068;15926.597;  416.352;17179.787
794.636;15806.266;  478.350;16664.246
795.204;14508.534;  432.348;16524.545
795.772;14208.902;  462.346;17274.564
796.340;14639.121;  484.345;17891.002
796.908;14702.339;  442.343;17648.561
797.476;14751.508;  447.341;17064.080
798.044;14909.476;  400.340;16672.777
798.612;14755.595;  499.338;17023.996
799.180;14344.063;  534.336;16561.615
799.747;14168.031;  503.334;15962.773
800.315;14234.000;  439.333;15296.992
800.883;14333.368;  398.331;14801.771
801.450;13948.537;  515.329;14534.430
802.018;13682.355;  525.328;14173.248
802.585;13929.074;  497.326;14029.547
803.153;13831.393;  497.324;13836.846
803.720;13749.211;  507.322;13567.324
804.287;14031.279;  479.321;13360.622
804.855;14165.998;  582.319;13681.981
805.422;13575.716;  490.317;13536.560
805.989;13470.185;  482.316;13355.958
806.556;13838.953;  479.314;13747.896
807.124;14113.371;  525.312;13987.376
807.691;13791.590;  443.311;14038.674
808.258;13456.759;  505.309;14120.152
808.825;13584.677;  541.307;13860.111
809.392;13805.896;  625.305;13268.790
809.959;13815.464;  562.304;12680.389
810.526;13368.183;  651.302;12427.308
811.093;12763.051;  582.300;12030.105
811.659;12563.619;  502.299;11653.664
812.226;12673.188;  500.297;11637.183
812.793;12879.806;  539.295;11611.521
813.360;12814.375;  467.293;11885.181
813.926;12745.843;  535.292;12770.539
814.493;12733.562;  441.290;12677.638
815.060;12425.080;  420.288;11974.336
815.626;12186.998;  421.287;11594.715
816.193;12125.267;  517.285;11579.474
816.759;12139.585;  453.283;11666.972
817.325;12134.354;  404.282;11325.530
817.892;12190.822;  526.280;11105.369
818.458;11844.391;  534.278;10843.928
819.024;11867.609;  578.276;10714.406
819.591;11163.077;  528.275;10469.165
820.157;10707.496;  434.273;10235.523
820.723;11223.965;  525.271;10847.563
821.289;11744.833;  791.270;11040.980
821.855;11193.302;  537.268;10357.100
822.421;10892.270;  444.266; 9978.918
822.987;10763.139;  433.264; 9754.177
823.553;10349.257;  512.263;10065.755
824.119;10517.426;  543.261;10036.294
824.685;10552.544;  600.259;10029.192
825.251;10473.763;  542.258;10199.230
825.816;10291.831;  622.256; 9820.189
826.382; 9644.699;  556.254; 9297.248
826.948; 9306.168;  585.253; 9381.347
827.513; 9363.986;  504.251; 9450.726
828.079; 9477.104;  469.249; 9472.444
828.645; 9645.023;  543.247; 9292.643
829.210; 9517.791;  434.246; 9065.341
829.776; 9183.710;  570.244; 9132.620
830.341; 8723.878;  564.242; 9092.878
830.906; 8658.697;  584.241; 9078.557
831.472; 8516.415;  449.239; 8534.535
832.037; 8568.483;  581.237; 8677.874
832.602; 8211.302;  467.235; 8628.692
833.167; 8201.221;  540.234; 8879.031
833.733; 8178.189;  556.232; 9189.790
834.298; 8071.208;  412.230; 9052.608
834.863; 8084.376;  522.229; 8895.087
835.428; 7991.345;  565.227; 8824.266
835.993; 8025.563;  546.225; 8845.385
836.558; 7945.832;  548.224; 8888.563
837.123; 7915.750;  686.222; 8966.582
837.688; 7531.418;  521.220; 8617.860
838.253; 7346.787;  510.218; 8590.699
838.817; 7373.205;  487.217; 8443.797
839.382; 7871.624;  608.215; 8799.356
839.947; 8078.142;  537.213; 8810.595
840.511; 7973.761;  610.212; 8796.394
841.076; 7443.279;  413.210; 8347.231
841.641; 7438.397;  549.208; 8224.330
842.205; 7412.666;  548.206; 8223.349
842.770; 7451.984;  632.205; 8622.107
843.334; 7435.503;  493.203; 8410.386
843.898; 7410.472;  500.201; 8337.465
844.463; 7482.540;  598.200; 8506.283
845.027; 7308.309;  512.198; 8280.962
845.591; 7195.777;  562.196; 8231.141
846.156; 7112.345;  490.195; 7969.179
846.720; 7206.414;  592.193; 7768.278
847.284; 7005.732;  497.191; 7630.957
847.848; 6797.701;  570.189; 7472.395
848.412; 6849.269;  553.188; 7437.394
848.976; 6913.837;  637.186; 7674.592
849.540; 6840.256;  660.184; 7836.011
850.104; 6864.774;  600.183; 7913.669
850.668; 6751.743;  405.181; 7694.508
851.232; 6738.111;  426.179; 7756.887
851.796; 6581.930;  506.177; 7926.545
852.359; 6427.249;  596.176; 7827.844
852.923; 6336.017;  574.174; 7641.163
853.487; 6321.485;  578.172; 7342.501
854.050; 6186.254;  371.171; 7042.820
854.614; 6045.272;  501.169; 7151.338
855.177; 5958.941;  542.167; 7105.077
855.741; 5884.409;  555.166; 6989.675
856.304; 5904.478;  575.164; 6596.634
856.868; 5575.096;  453.162; 6356.272
857.431; 5329.714;  522.160; 6468.571
857.995; 5390.883;  497.159; 6373.210
858.558; 5543.551;  551.157; 6324.448
859.121; 5514.320;  567.155; 6408.327
859.684; 5443.338;  516.154; 6347.886
860.247; 5461.507;  519.152; 6321.264
860.810; 5465.975;  486.150; 6301.903
861.374; 5673.094;  667.148; 6607.881
861.937; 5783.712;  465.147; 6408.200
862.500; 5967.531;  506.145; 6572.639
863.062; 5705.299;  431.143; 6387.297
863.625; 5622.618;  541.142; 6190.836
864.188; 5410.386;  497.140; 5807.254
864.751; 5247.104;  498.138; 5682.413
865.314; 5182.373;  535.136; 5547.492
865.876; 5267.191;  555.135; 5500.150
866.439; 5211.010;  556.133; 5415.909
867.002; 5070.628;  688.131; 5501.567
867.564; 4915.697;  595.130; 5413.946
868.127; 4882.265;  527.128; 5160.325
868.689; 4747.984;  549.126; 5133.183
869.252; 4863.902;  596.125; 5252.382
869.814; 4891.421;  474.123; 5297.141
870.377; 4896.989;  533.121; 5390.919
870.939; 5123.808;  773.119; 5599.898
871.501; 5043.326;  550.118; 5248.336
872.063; 4746.944;  398.116; 4854.235
872.626; 4702.513;  419.114; 4817.074
873.188; 4766.981;  534.113; 4987.732
873.750; 4649.650;  532.111; 4868.651
874.312; 4658.269;  525.109; 4779.330
874.874; 4745.387;  635.107; 4866.348
875.436; 4523.005;  571.106; 4718.887
875.998; 4337.174;  631.104; 4660.005
876.560; 4102.492;  552.102; 4462.964
877.122; 3868.011;  466.101; 4145.042
877.683; 3715.229;  609.099; 4056.481
878.245; 3657.548;  493.097; 3950.740
878.807; 3694.616;  561.096; 4058.958
879.369; 3614.935;  448.094; 3954.677
879.930; 3635.353;  447.092; 3941.495
880.492; 3788.671;  620.090; 4067.014
881.053; 3657.440;  462.089; 3859.633
881.615; 3658.858;  468.087; 3776.071
882.176; 3614.377;  518.085; 3734.750
882.738; 3604.895;  603.084; 3678.489
883.299; 3268.864;  378.082; 3405.407
883.860; 3156.332;  423.080; 3351.106
884.422; 3151.451;  552.078; 3394.044
884.983; 2968.969;  481.077; 3166.443
885.544; 3015.588;  559.075; 3189.802
886.105; 2937.206;  525.073; 3160.360
886.666; 2884.625;  513.072; 3093.059
887.227; 2759.543;  450.070; 2941.957
887.788; 2786.261;  528.068; 2974.836
888.349; 2563.880;  437.067; 2721.214
888.910; 2536.848;  596.065; 2696.493
889.471; 2410.317;  546.063; 2560.172
890.032; 2393.135;  541.061; 2558.190
890.593; 2443.904;  574.060; 2567.669
891.153; 2305.922;  504.058; 2460.307
891.714; 2093.091;  434.056; 2372.046
892.275; 2031.459;  417.055; 2309.505
892.835; 2088.778;  590.053; 2382.543
893.396; 2012.996;  565.051; 2295.502
893.956; 1881.265;  484.049; 2162.420
894.517; 1829.833;  533.048; 2125.439
895.077; 1806.151;  534.046; 2086.978
895.638; 1829.070;  637.044; 2126.316
896.198; 1601.089;  486.043; 1838.275
896.758; 1632.557;  580.041; 1892.813
897.319; 1542.575;  512.039; 1792.232
897.879; 1502.294;  535.038; 1762.751
898.439; 1390.262;  418.036; 1661.149
898.999; 1467.431;  543.034; 1781.468
899.559; 1405.699;  534.032; 1703.347
900.119; 1255.868;  450.031; 1537.525
900.679; 1368.336;  647.029; 1638.384
901.239; 1268.455;  565.027; 1527.902
901.799; 1218.573;  493.026; 1456.441
902.359; 1148.342;  463.024; 1357.140
902.919; 1125.410;  481.022; 1331.118
903.479; 1112.229;  501.020; 1317.257
904.038; 1057.647;  436.019; 1262.595
904.598;  957.615;  380.017; 1152.034
905.158; 1028.884;  497.015; 1240.893
905.717; 1047.902;  492.014; 1233.691
906.277; 1038.971;  518.012; 1217.330
906.836; 1039.389;  544.010; 1222.408
907.396; 1010.258;  552.009; 1193.047
907.955; 1005.776;  574.007; 1182.526
908.515;  934.095;  476.005; 1099.364
909.074;  920.613;  497.003; 1092.863
909.633;  911.182;  514.002; 1069.121
910.192; 1025.450;  642.000; 1196.460
910.752;  885.550;  493.000; 1029.960
911.311;  864.500;  464.000; 1009.780
911.870;  839.950;  506.000;  971.460
912.429;  945.650;  575.000; 1094.080
912.988;  929.850;  599.000; 1081.060
913.547;  808.700;  460.000;  940.380
914.106;  864.250;  552.000;  999.420
914.665;  850.950;  519.000;  984.020
915.224;  908.900;  619.000; 1035.760
915.782;  796.600;  487.000;  922.560
916.341;  903.850;  600.000; 1049.840
916.900;  798.050;  510.000;  925.260
917.458;  773.700;  455.000;  884.220
918.017;  810.600;  535.000;  942.600
918.576;  798.800;  513.000;  904.440
919.134;  731.250;  450.000;  837.980
919.693;  777.500;  491.000;  893.060
920.251;  767.650;  503.000;  876.500
920.809;  735.650;  471.000;  839.580
921.368;  764.700;  478.000;  885.360
921.926;  745.350;  443.000;  842.940
922.484;  793.900;  529.000;  903.360
923.042;  768.850;  491.000;  880.340
923.601;  875.400;  585.000;  998.680
924.159;  821.950;  547.000;  935.560
924.717;  735.350;  485.000;  841.080
925.275;  786.700;  524.000;  903.240
925.833;  685.000;  377.000;  779.320
926.391;  828.850;  520.000;  938.380
926.949;  764.050;  479.000;  857.680
927.506;  797.850;  552.000;  903.500
928.064;  773.900;  504.000;  877.580
928.622;  786.750;  500.000;  880.100
929.180;  721.800;  446.000;  814.180
929.737;  723.250;  435.000;  808.540
930.295;  823.300;  532.000;  928.480
930.853;  748.900;  448.000;  849.100
931.410;  727.000;  426.000;  821.120
931.968;  835.250;  539.000;  940.660
932.525;  809.900;  517.000;  909.380
933.082;  730.450;  406.000;  811.440
933.640;  814.050;  538.000;  925.900
934.197;  787.450;  503.000;  886.360
934.754;  782.400;  461.000;  897.780
935.312;  772.800;  466.000;  863.340
935.869;  894.300;  577.000; 1012.980
936.426;  776.700;  497.000;  872.800
936.983;  798.150;  465.000;  889.020
937.540;  753.250;  422.000;  838.280
938.097;  840.300;  529.000;  940.120
938.654;  804.650;  502.000;  898.860
939.211;  853.600;  512.000;  952.480
939.768;  817.400;  478.000;  915.420
940.324;  799.100;  467.000;  904.200
940.881;  781.350;  476.000;  878.500
941.438;  897.200;  581.000; 1021.200
941.995;  895.500;  560.000;  992.560
942.551;  779.100;  439.000;  875.620
943.108;  828.150;  529.000;  937.920
943.664;  785.200;  450.000;  869.340
944.221;  969.200;  628.000; 1088.140
944.777;  776.750;  418.000;  869.680
945.334;  790.500;  471.000;  884.840
945.890;  848.550;  486.000;  946.480
946.446;  837.800;  505.000;  947.020
947.003;  860.500;  508.000;  964.940
947.559;  946.000;  643.000; 1063.040
948.115;  907.900;  581.000; 1026.540
948.671;  867.150;  511.000;  967.300
949.227;  771.800;  412.000;  859.560
949.783;  760.600;  428.000;  858.900
950.339;  871.750;  531.000;  991.000
950.895;  900.250;  552.000; 1023.840
951.451;  817.500;  501.000;  925.280
952.007;  868.350;  544.000;  998.540
952.563;  809.700;  498.000;  937.780
953.118;  806.200;  475.000;  904.940
953.674;  837.950;  504.000;  935.780
954.230;  836.750;  500.000;  949.640
954.785;  830.600;  484.000;  936.640
955.341;  879.000;  535.000;  998.160
955.897;  734.550;  393.000;  834.660
956.452;  848.950;  524.000;  953.840
957.008;  955.150;  616.000; 1083.640
957.563;  888.950;  554.000; 1009.540
958.118;  771.200;  473.000;  877.700
958.674;  828.900;  524.000;  946.780
959.229;  881.150;  572.000; 1013.980
959.784;  719.700;  402.000;  832.400
960.339;  866.950;  563.000; 1001.280
960.894;  821.100;  532.000;  963.760
961.449;  725.150;  452.000;  859.960
962.004; 1028.150;  790.000; 1212.840
962.559;  722.050;  455.000;  860.140
963.114;  627.500;  347.000;  742.480
963.669;  767.850;  502.000;  915.500
964.224;  752.550;  452.000;  874.340
964.779;  707.400;  409.000;  828.420
965.334;  864.550;  609.000; 1017.860
965.888;  746.850;  475.000;  875.360
966.443;  829.500;  549.000;  972.380
966.998;  695.650;  396.000;  819.460
967.552;  779.100;  480.000;  908.380
968.107;  744.850;  482.000;  868.300
968.661;  788.600;  539.000;  922.440
969.216;  728.900;  484.000;  856.280
969.770;  786.850;  516.000;  917.200
970.324;  789.300;  530.000;  923.140
970.879;  822.200;  579.000;  947.180
971.433;  813.150;  549.000;  952.720
971.987;  762.650;  520.000;  895.340
972.541;  785.500;  520.000;  917.100
973.095;  864.800;  583.000; 1009.460
973.649;  690.600;  449.000;  809.480
974.203;  701.950;  446.000;  829.040
974.757;  727.000;  492.000;  855.220
975.311;  739.200;  480.000;  872.600
975.865;  751.850;  511.000;  881.820
976.419;  728.850;  504.000;  857.400
976.973;  720.650;  461.000;  849.620
977.526;  821.650;  556.000;  949.920
978.080;  680.650;  424.000;  796.780
978.634;  791.950;  567.000;  921.320
979.187;  767.850;  526.000;  905.400
979.741;  878.500;  608.000; 1018.380
980.294;  684.100;  412.000;  789.160
980.848;  612.600;  396.000;  717.220
981.401;  698.250;  475.000;  816.540
981.955;  737.150;  513.000;  844.300
982.508;  639.450;  410.000;  746.340
983.061;  785.950;  556.000;  915.260
983.615;  687.450;  454.000;  798.800
984.168;  665.500;  425.000;  770.080
984.721;  756.750;  508.000;  880.760
985.274;  739.300;  533.000;  867.500
985.827;  719.100;  518.000;  834.220
986.380;  624.600;  385.000;  721.340
986.933;  745.050;  524.000;  864.800
987.486;  727.150;  522.000;  861.920
988.039;  730.650;  558.000;  863.100
988.591;  771.300;  575.000;  893.260
989.144;  627.500;  434.000;  737.260
989.697;  642.950;  452.000;  758.740
990.250;  735.450;  543.000;  858.100
990.802;  650.650;  437.000;  755.860
991.355;  834.150;  669.000;  974.880
991.907;  741.225;  572.500;  864.320
992.460;  648.300;  476.000;  753.760
993.012;  638.400;  481.000;  749.540
993.565;  600.200;  436.000;  711.360
994.117;  800.200;  670.000;  950.780
994.669;  600.900;  441.000;  701.320
995.221;  681.250;  512.000;  791.920
995.774;  666.650;  512.000;  787.580
996.326;  634.300;  496.000;  740.220
996.878;  707.250;  571.000;  838.420
997.430;  597.700;  464.000;  699.860
997.982;  633.850;  508.000;  750.140
998.534;  633.000;  486.000;  739.060
999.086;  622.800;  486.000;  738.220
999.638;  564.500;  423.000;  661.380
1000.190;  592.200;  492.000;  699.320
1000.741;  626.100;  536.000;  742.700
1001.293;  582.700;  431.000;  686.020
1001.845;  577.050;  465.000;  676.640
1002.396;  629.300;  539.000;  743.400
1002.948;  627.100;  528.000;  737.400
1003.500;  614.050;  494.000;  723.780
1004.051;  771.700;  675.000;  907.580
1004.603;  671.800;  574.000;  791.820
1005.154;  511.100;  419.000;  608.980
1005.705;  618.650;  524.000;  723.960
1006.257;  602.550;  501.000;  707.220
1006.808;  575.450;  507.000;  685.460
1007.359;  645.200;  575.000;  763.240
1007.910;  553.300;  453.000;  646.640
1008.461;  630.350;  542.000;  732.940
1009.013;  501.750;  412.000;  588.340
1009.564;  673.400;  619.000;  793.520
1010.115;  502.800;  427.000;  597.040
1010.665;  518.600;  434.000;  602.160
1011.216;  569.850;  497.000;  667.920
1011.767;  584.900;  512.000;  697.920
1012.318;  619.650;  549.000;  736.980
1012.869;  572.350;  497.000;  679.000
1013.419;  509.450;  411.000;  603.120
1013.970;  562.000;  490.000;  666.640
1014.521;  516.750;  456.000;  620.620
1015.071;  573.050;  476.000;  670.380
1015.622;  534.450;  496.000;  635.460
1016.172;  509.050;  455.000;  596.820
1016.723;  516.750;  473.000;  614.380
1017.273;  516.000;  454.000;  604.160
1017.823;  537.900;  496.000;  650.340
1018.374;  512.400;  440.000;  611.760
1018.924;  603.300;  559.000;  716.880
1019.474;  607.500;  544.000;  718.880
1020.024;  553.500;  487.000;  657.580
1020.574;  609.350;  570.000;  726.160
1021.124;  567.100;  528.000;  673.580
1021.674;  481.550;  401.000;  559.120
1022.224;  599.500;  522.000;  708.940
1022.774;  566.700;  489.000;  668.820
1023.324;  642.900;  593.000;  753.520
1023.874;  751.450;  660.000;  875.760
1024.423;  528.300;  456.000;  613.700
1024.973;  511.750;  487.000;  610.760
1025.523;  520.400;  452.000;  620.960
1026.072;  520.700;  448.000;  606.420
1026.622;  563.450;  518.000;  675.740
1027.172;  600.950;  580.000;  715.660
1027.721;  503.500;  437.000;  601.220
1028.270;  565.950;  500.000;  663.400
1028.820;  541.250;  494.000;  638.080
1029.369;  515.600;  477.000;  612.700
1029.918;  548.000;  464.000;  649.840
1030.468;  475.800;  402.000;  564.780
1031.017;  539.650;  494.000;  634.800
1031.566;  514.350;  491.000;  608.900
1032.115;  589.850;  536.000;  694.500
1032.664;  503.600;  418.000;  596.480
1033.213;  613.150;  567.000;  735.420
1033.762;  537.200;  497.000;  635.620
1034.311;  572.200;  507.000;  677.220
1034.860;  588.950;  534.000;  691.000
1035.408;  605.700;  543.000;  722.720
1035.957;  603.000;  537.000;  719.540
1036.506;  450.050;  374.000;  530.800
1037.055;  716.500;  665.000;  844.320
1037.603;  560.700;  507.000;  664.000
1038.152;  439.450;  395.000;  534.760
1038.700;  493.350;  410.000;  585.740
1039.249;  578.100;  531.000;  681.220
1039.797;  533.850;  482.000;  633.360
1040.345;  595.550;  545.000;  705.420
1040.894;  536.750;  461.000;  625.300
1041.442;  537.550;  503.000;  632.200
1041.990;  474.700;  399.000;  559.160
1042.538;  445.200;  399.000;  536.180
1043.087;  481.700;  464.000;  570.860
1043.635;  565.400;  524.000;  670.500
1044.183;  498.700;  453.000;  586.400
1044.731;  482.000;  427.000;  576.000
1045.279;  564.750;  519.000;  674.920
1045.827;  760.200;  714.000;  892.400
1046.374;  434.150;  398.000;  515.420
1046.922;  495.150;  474.000;  590.580
1047.470;  588.850;  541.000;  691.300
1048.018;  551.950;  509.000;  647.960
1048.565;  601.150;  575.000;  708.600
1049.113;  466.850;  401.000;  557.000
1049.660;  527.750;  485.000;  629.660
1050.208;  570.050;  554.000;  675.640
1050.755;  503.400;  468.000;  606.580
1051.303;  581.050;  547.000;  686.820
1051.850;  539.350;  494.000;  635.120
1052.397;  402.650;  340.000;  473.960
1052.945;  517.200;  513.000;  617.760
1053.492;  626.050;  618.000;  741.840
1054.039;  609.500;  561.000;  720.180
1054.586;  469.900;  397.000;  557.240
1055.133;  589.100;  528.000;  693.140
1055.680;  542.650;  508.000;  646.620
1056.227;  455.550;  385.000;  542.780
1056.774;  672.450;  624.000;  794.980
1057.321;  435.800;  400.000;  523.260
1057.868;  544.450;  536.000;  651.320
1058.415;  548.200;  502.000;  651.980
1058.961;  567.150;  510.000;  678.940
1059.508;  543.500;  472.000;  643.820
1060.055;  486.650;  456.000;  581.780
1060.601;  520.150;  470.000;  624.300
1061.148;  522.450;  495.000;  616.820
1061.694;  500.350;  463.000;  592.580
1062.241;  504.950;  498.000;  596.320
1062.787;  556.600;  554.000;  663.140
1063.334;  682.250;  665.000;  808.560
1063.880;  568.050;  531.000;  668.360
1064.426;  595.200;  583.000;  706.820
1064.972;  501.200;  461.000;  601.340
1065.518;  486.850;  415.000;  566.640
1066.065;  529.900;  502.000;  624.460
1066.611;  503.850;  483.000;  598.800
1067.157;  539.200;  509.000;  641.860
1067.703;  569.500;  514.000;  668.480
1068.249;  507.700;  475.000;  605.220
1068.794;  530.500;  499.000;  626.880
1069.340;  483.100;  447.000;  578.960
1069.886;  503.950;  470.000;  590.700
1070.432;  447.200;  405.000;  541.720
1070.977;  507.200;  477.000;  601.080
1071.523;  473.300;  431.000;  573.060
1072.068;  487.800;  441.000;  582.000
1072.614;  439.550;  387.000;  527.760
1073.160;  570.000;  556.000;  687.040
1073.705;  485.550;  488.000;  572.520
1074.250;  469.250;  479.000;  559.900
1074.796;  548.300;  502.000;  655.160
1075.341;  561.550;  525.000;  664.100
1075.886;  492.150;  470.000;  594.240
1076.431;  548.150;  514.000;  649.880
1076.976;  532.400;  491.000;  639.220
1077.521;  484.450;  463.000;  583.080
1078.067;  484.050;  450.000;  579.400
1078.612;  559.100;  537.000;  661.620
1079.156;  506.900;  481.000;  601.540
1079.701;  581.350;  543.000;  693.260
1080.246;  585.200;  599.000;  696.300
1080.791;  530.950;  485.000;  625.020
1081.336;  549.850;  502.000;  659.320
1081.880;  546.800;  526.000;  649.680
1082.425;  484.850;  421.000;  573.480
1082.970;  605.450;  577.000;  717.040
1083.514;  504.800;  482.000;  597.000
1084.059;  483.350;  455.000;  586.720
1084.603;  472.000;  437.000;  565.840
1085.147;  548.750;  496.000;  645.220
1085.692;  601.200;  566.000;  716.800
1086.236;  422.550;  419.000;  503.140
1086.780;  633.350;  621.000;  751.440
1087.325;  557.350;  518.000;  654.620
1087.869;  513.750;  482.000;  610.700
1088.413;  588.700;  567.000;  705.040
1088.957;  453.800;  457.000;  543.400
1089.501;  649.750;  634.000;  766.640
1090.045;  607.350;  611.000;  726.480
1090.589;  473.650;  453.000;  569.920
1091.133;  563.700;  513.000;  673.340
1091.676;  498.350;  450.000;  591.940
1092.220;  508.350;  481.000;  600.920
1092.764;  596.400;  579.000;  706.960
1093.307;  563.050;  526.000;  673.780
1093.851;  470.150;  442.000;  556.540
1094.395;  577.650;  571.000;  683.140
1094.938;  526.050;  516.000;  632.520
1095.482;  468.150;  455.000;  559.800
1096.025;  601.350;  565.000;  710.880
1096.568;  660.800;  631.000;  779.280
1097.112;  424.200;  405.000;  508.180
1097.655;  507.400;  518.000;  603.000
1098.198;  500.800;  473.000;  600.180
1098.741;  514.450;  490.000;  612.860
1099.285;  548.500;  531.000;  657.300
1099.828;  367.650;  330.000;  439.400
1100.371;  515.600;  497.000;  608.160
1100.914;  574.000;  552.000;  682.660
1101.457;  571.650;  555.000;  679.900
1101.999;  486.700;  447.000;  584.680
1102.542;  539.700;  491.000;  641.440
1103.085;  553.600;  548.000;  658.500
1103.628;  629.450;  642.000;  762.060
1104.170;  489.250;  463.000;  588.280
1104.713;  547.150;  529.000;  646.700
1105.256;  460.750;  403.000;  557.440
1105.798;  418.750;  400.000;  499.980
1106.341;  611.800;  603.000;  728.900
1106.883;  437.350;  393.000;  521.340
1107.425;  560.950;  534.000;  668.180
1107.968;  515.050;  517.000;  612.380
1108.510;  582.700;  572.000;  684.960
1109.052;  517.500;  473.000;  612.620
1109.594;  458.200;  408.000;  554.440
1110.136;  539.450;  509.000;  643.220
1110.679;  531.100;  552.000;  633.080
1111.221;  513.650;  462.000;  604.460
1111.763;  458.700;  444.000;  559.220
1112.304;  459.000;  428.000;  547.140
1112.846;  554.750;  564.000;  666.240
1113.388;  792.550;  770.000;  942.180
1113.930;  582.250;  589.000;  694.200
1114.472;  503.050;  488.000;  606.540
1115.013;  461.900;  424.000;  551.280
1115.555;  498.800;  486.000;  587.100
1116.097;  487.300;  459.000;  579.480
1116.638;  574.300;  582.000;  684.600
1117.180;  559.050;  526.000;  667.740
1117.721;  480.550;  456.000;  568.580
1118.262;  566.100;  521.000;  677.960
1118.804;  530.150;  529.000;  637.340
1119.345;  489.550;  461.000;  578.400
1119.886;  593.000;  601.000;  704.040
1120.427;  488.200;  478.000;  589.020
1120.969;  503.200;  480.000;  597.920
1121.510;  472.100;  442.000;  563.060
1122.051;  611.000;  598.000;  723.580
1122.592;  553.550;  514.000;  655.420
1123.133;  452.100;  473.000;  547.940
1123.673;  593.000;  586.000;  706.480
1124.214;  517.350;  511.000;  612.460
1124.755;  537.050;  537.000;  639.460
1125.296;  520.700;  505.000;  627.320
1125.836;  577.300;  570.000;  691.500
1126.377;  504.750;  467.000;  599.660
1126.918;  509.600;  505.000;  614.980
1127.458;  513.500;  528.000;  622.220
1127.999;  549.400;  548.000;  656.980
1128.539;  583.150;  545.000;  694.240
1129.079;  532.700;  527.000;  632.720
1129.620;  463.200;  440.000;  558.100
1130.160;  446.150;  456.000;  539.480
1130.700;  533.750;  512.000;  640.840
1131.240;  538.250;  546.000;  643.700
1131.781;  516.150;  535.000;  619.680
1132.321;  497.000;  504.000;  599.120
1132.861;  472.900;  446.000;  564.200
1133.401;  495.950;  484.000;  593.940
1133.941;  522.750;  551.000;  626.280
1134.481;  502.200;  505.000;  597.580
1135.020;  514.350;  488.000;  609.160
1135.560;  567.350;  567.000;  674.940
1136.100;  405.050;  398.000;  501.160
1136.640;  427.300;  411.000;  510.480
1137.179;  450.450;  428.000;  537.960
1137.719;  501.900;  486.000;  605.400
1138.258;  488.050;  501.000;  587.360
1138.798;  557.050;  547.000;  663.780
1139.337;  394.950;  369.000;  482.840
1139.877;  544.200;  524.000;  642.360
1140.416;  735.300;  763.000;  878.060
1140.955;  442.750;  404.000;  535.380
1141.494;  566.350;  559.000;  669.280
1142.034;  477.950;  482.000;  583.520
1142.573;  539.500;  560.000;  646.280
1143.112;  462.200;  469.000;  553.480
1143.651;  449.750;  452.000;  536.480
1144.190;  572.800;  551.000;  691.640
1144.729;  506.000;  479.000;  607.420
1145.267;  481.850;  500.000;  584.900
1145.806;  539.700;  544.000;  637.040
1146.345;  534.650;  528.000;  635.020
1146.884;  522.050;  499.000;  622.500
1147.422;  441.650;  443.000;  533.060
1147.961;  594.100;  580.000;  708.460
1148.500;  562.300;  556.000;  669.720
1149.038;  530.150;  532.000;  632.500
1149.577;  591.900;  607.000;  698.640
1150.115;  373.400;  325.000;  452.280
1150.653;  505.750;  512.000;  607.340
1151.192;  455.600;  456.000;  552.920
1151.730;  551.700;  562.000;  652.560
1152.268;  497.500;  471.000;  589.520
1152.806;  475.750;  494.000;  571.180
1153.344;  477.100;  484.000;  577.640
1153.882;  502.600;  494.000;  600.060
1154.421;  393.400;  363.000;  470.620
1154.958;  495.100;  501.000;  595.240
1155.496;  542.450;  553.000;  645.280
1156.034;  605.950;  600.000;  721.880
1156.572;  563.150;  537.000;  667.060
1157.110;  390.350;  367.000;  473.940
1157.647;  571.750;  576.000;  676.960
1158.185;  471.800;  484.000;  564.320
1158.723;  424.650;  412.000;  509.200
1159.260;  581.500;  588.000;  701.700
1159.798;  552.900;  555.000;  658.160
1160.335;  528.600;  536.000;  631.820

