membrane
Integration time [ms]: 384.568
Averaging Nr. [scans]: 20
Smoothing Nr. [pixels]: 0
Data measured with spectrometer [name]: 7414430SP
Wave   ;Sample   ;Dark     ;Reference
[nm]   ;[counts] ;[counts] ;[counts] 

288.544;  637.859;  568.515;  793.890
289.143;  544.470;  409.561;  681.602
289.742;  674.036;  554.563;  828.814
290.341;  646.243;  505.621;  789.841
290.940;  596.849;  470.651;  730.702
291.538;  721.889;  638.612;  881.108
292.137;  642.845;  534.599;  792.581
292.736;  812.043;  681.621;  975.101
293.335;  601.888;  510.669;  735.086
293.934;  636.846;  495.663;  781.677
294.532;  863.876;  741.656; 1031.958
295.131;  692.328;  595.746;  834.394
295.730;  671.874;  598.740;  809.588
296.328;  649.566;  543.748;  783.442
296.927;  652.667;  597.761;  779.652
297.525;  653.066;  550.746;  781.236
298.124;  535.783;  421.822;  654.009
298.722;  638.906;  559.769;  761.933
299.321;  598.896;  487.787;  708.597
299.919;  630.478;  498.805;  751.918
300.518;  584.625;  469.828;  689.338
301.116;  594.173;  504.786;  691.381
301.715;  623.040;  511.760;  730.222
302.313;  606.633;  453.771;  704.943
302.911;  626.519;  513.844;  733.830
303.509;  798.160;  690.770;  925.627
304.108;  654.348;  544.767;  760.383
304.706;  695.664;  555.763;  801.664
305.304;  698.198;  584.826;  796.707
305.902;  678.479;  580.759;  784.484
306.500;  633.688;  507.790;  728.200
307.098;  654.527;  522.797;  746.560
307.696;  683.501;  583.814;  780.432
308.294;  639.658;  558.798;  731.359
308.892;  666.245;  546.766;  759.769
309.490;  618.970;  509.809;  712.161
310.088;  699.725;  605.831;  788.444
310.686;  717.768;  599.777;  821.749
311.284;  678.305;  545.812;  766.040
311.882;  654.995;  537.830;  731.225
312.480;  621.700;  498.852;  697.167
313.078;  715.760;  628.829;  808.331
313.675;  623.038;  501.790;  691.600
314.273;  712.558;  596.854;  797.837
314.871;  536.945;  410.841;  589.829
315.468;  584.469;  515.844;  652.090
316.066;  624.458;  490.792;  694.427
316.664;  591.262;  490.855;  656.351
317.261;  808.963;  738.822;  910.128
317.859;  686.961;  589.840;  768.735
318.456;  740.689;  653.806;  830.096
319.054;  701.356;  615.833;  787.828
319.651;  676.579;  575.818;  759.928
320.249;  716.679;  657.818;  810.188
320.846;  637.912;  532.804;  714.286
321.443;  739.194;  658.817;  832.135
322.041;  723.237;  623.828;  812.315
322.638;  622.317;  561.821;  701.456
323.235;  598.833;  516.771;  665.683
323.833;  669.992;  582.791;  740.354
324.430;  556.166;  431.805;  615.900
325.027;  786.761;  719.791;  876.855
325.624;  589.339;  430.747;  644.532
326.221;  635.098;  470.764;  689.717
326.818;  759.400;  639.788;  818.332
327.415;  687.754;  529.732;  748.828
328.012;  647.557;  477.725;  690.585
328.609;  685.247;  521.743;  731.389
329.206;  719.071;  601.760;  778.621
329.803;  685.360;  539.767;  737.841
330.400;  667.239;  498.741;  704.260
330.997;  758.521;  568.762;  817.147
331.594;  728.486;  600.815;  788.185
332.191;  682.229;  534.767;  728.722
332.787;  777.611;  605.786;  844.463
333.384;  707.622;  523.840;  763.093
333.981;  750.195;  572.897;  815.687
334.578;  658.044;  498.876;  708.378
335.174;  668.271;  497.878;  731.469
335.771;  764.866;  594.918;  836.456
336.367;  655.860;  505.953;  710.631
336.964;  722.082;  578.927;  793.266
337.561;  673.806;  529.941;  731.112
338.157;  820.855;  709.000;  911.916
338.754;  719.603;  608.020;  796.589
339.350;  653.541;  535.012;  722.493
339.946;  696.189;  575.978;  773.135
340.543;  758.548;  657.060;  846.136
341.139;  645.219;  529.094;  720.836
341.735;  685.300;  610.102;  772.593
342.332;  618.472;  532.087;  691.472
342.928;  715.318;  574.076;  795.394
343.524;  681.881;  581.108;  761.684
344.120;  654.232;  531.115;  738.562
344.716;  639.617;  541.060;  723.717
345.313;  693.998;  584.063;  795.342
345.909;  546.521;  435.072;  627.336
346.505;  659.212;  573.043;  740.247
347.101;  722.396;  594.029;  827.864
347.697;  689.733;  585.008;  785.398
348.293;  546.631;  442.033;  627.244
348.889;  646.484;  578.023;  745.914
349.485;  597.402;  517.010;  688.205
350.081;  668.283;  577.005;  772.592
350.676;  602.308;  521.040;  691.606
351.272;  699.581;  594.987;  809.530
351.868;  664.188;  566.970;  780.497
352.464;  626.005;  564.990;  723.932
353.059;  564.503;  473.015;  646.017
353.655;  673.377;  584.980;  777.063
354.251;  648.499;  553.958;  759.845
354.846;  626.717;  534.006;  740.646
355.442;  636.354;  561.039;  753.071
356.038;  631.067;  554.998;  751.708
356.633;  620.778;  546.993;  728.594
357.229;  610.464;  547.008;  724.757
357.824;  593.530;  515.022;  703.600
358.420;  572.541;  529.017;  679.726
359.015;  582.859;  508.004;  695.357
359.610;  643.993;  579.992;  763.920
360.206;  503.593;  418.041;  603.240
360.801;  535.375;  482.003;  646.503
361.396;  606.939;  522.978;  725.975
361.992;  555.080;  504.022;  668.220
362.587;  554.732;  512.048;  670.160
363.182;  570.276;  531.024;  689.631
363.777;  609.745;  559.010;  738.242
364.372;  610.895;  578.016;  737.314
364.967;  566.208;  518.048;  680.744
365.563;  659.613;  623.995;  815.567
366.158;  563.840;  502.007;  685.161
366.753;  534.801;  489.992;  649.263
367.348;  614.572;  579.023;  746.056
367.942;  559.383;  519.008;  697.298
368.537;  611.165;  552.029;  754.245
369.132;  572.580;  517.017;  703.428
369.727;  514.816;  477.052;  638.079
370.322;  473.219;  430.032;  580.186
370.917;  573.908;  528.040;  710.646
371.511;  707.730;  666.020;  861.834
372.106;  630.458;  615.048;  776.964
372.701;  464.844;  439.062;  585.988
373.296;  698.710;  671.012;  863.135
373.890;  514.632;  486.048;  647.840
374.485;  564.179;  535.071;  691.199
375.079;  598.826;  582.021;  738.685
375.674;  661.268;  650.017;  812.970
376.268;  551.412;  528.049;  691.759
376.863;  457.454;  451.103;  580.327
377.457;  524.896;  514.031;  662.490
378.052;  612.432;  601.059;  764.884
378.646;  605.440;  571.058;  741.167
379.240;  572.533;  552.064;  721.176
379.835;  506.519;  532.037;  636.978
380.429;  449.389;  427.045;  562.557
381.023;  628.475;  597.070;  779.205
381.617;  539.818;  514.081;  680.106
382.212;  542.115;  518.036;  685.303
382.806;  615.946;  610.031;  760.690
383.400;  541.363;  550.067;  672.281
383.994;  521.806;  557.073;  664.870
384.588;  564.238;  535.029;  697.701
385.182;  586.759;  584.999;  726.624
385.776;  571.649;  539.019;  706.875
386.370;  535.705;  545.054;  681.968
386.964;  552.973;  553.031;  684.155
387.558;  476.017;  448.003;  598.360
388.152;  553.477;  545.045;  681.959
388.745;  659.077;  664.039;  814.707
389.339;  609.379;  623.014;  747.642
389.933;  569.305;  552.998;  695.370
390.527;  702.288;  720.024;  859.029
391.120;  476.860;  481.071;  595.318
391.714;  569.473;  588.039;  711.633
392.308;  637.887;  622.008;  780.253
392.901;  525.058;  497.037;  642.460
393.495;  481.405;  508.057;  595.414
394.089;  620.143;  649.046;  760.452
394.682;  562.135;  534.047;  697.188
395.275;  592.166;  577.047;  719.927
395.869;  536.859;  567.061;  667.314
396.462;  494.616;  512.039;  616.609
397.056;  630.786;  631.003;  776.621
397.649;  601.524;  601.057;  731.575
398.242;  584.561;  583.025;  712.645
398.836;  625.145;  630.013;  766.408
399.429;  509.510;  486.015;  631.041
400.022;  537.244;  536.059;  665.902
400.615;  659.300;  675.043;  805.609
401.208;  555.948;  580.009;  691.451
401.802;  563.112;  569.036;  699.329
402.395;  557.694;  535.059;  683.502
402.988;  556.764;  588.070;  696.627
403.581;  529.041;  560.023;  646.878
404.174;  562.082;  573.994;  686.568
404.767;  520.850;  529.040;  638.583
405.360;  501.886;  506.062;  621.445
405.953;  622.306;  648.008;  759.034
406.545;  594.367;  583.996;  725.342
407.138;  501.985;  507.039;  618.350
407.731;  502.376;  507.029;  613.303
408.324;  540.665;  560.975;  660.554
408.917;  557.659;  577.999;  681.864
409.509;  614.257;  618.027;  740.396
410.102;  532.070;  542.051;  643.948
410.695;  541.507;  557.970;  665.758
411.287;  491.689;  482.981;  599.821
411.880;  483.078;  456.988;  585.421
412.472;  498.980;  511.027;  613.092
413.065;  520.756;  563.006;  629.408
413.657;  474.418;  484.963;  576.678
414.250;  533.611;  525.966;  646.681
414.842;  557.413;  576.997;  676.353
415.434;  475.334;  475.969;  570.463
416.027;  545.020;  535.922;  652.196
416.619;  592.257;  592.962;  713.400
417.211;  486.603;  500.964;  599.352
417.804;  515.788;  540.914;  628.499
418.396;  510.999;  513.965;  607.643
418.988;  543.656;  525.944;  659.238
419.580;  467.108;  484.978;  568.276
420.172;  455.317;  456.944;  536.196
420.764;  560.077;  578.913;  672.482
421.356;  528.593;  544.925;  636.898
421.948;  562.148;  552.947;  677.661
422.540;  567.725;  580.890;  680.027
423.132;  504.475;  498.887;  600.641
423.724;  465.636;  455.931;  561.267
424.316;  514.789;  504.916;  621.345
424.908;  490.986;  498.869;  591.517
425.500;  540.305;  548.869;  647.978
426.092;  540.978;  551.867;  648.268
426.683;  583.818;  583.896;  684.836
427.275;  543.923;  540.848;  641.471
427.867;  565.276;  557.841;  668.948
428.458;  617.618;  592.842;  732.344
429.050;  583.847;  569.867;  680.749
429.642;  624.103;  615.845;  743.124
430.233;  467.841;  460.832;  569.356
430.825;  618.211;  584.837;  724.809
431.416;  588.962;  594.868;  698.241
432.008;  539.987;  538.823;  651.723
432.599;  550.871;  555.814;  656.073
433.190;  542.677;  534.859;  637.670
433.782;  495.573;  480.858;  590.395
434.373;  755.258;  771.800;  884.765
434.964;  497.177;  467.798;  602.920
435.556;  538.345;  533.836;  634.537
436.147;  637.602;  617.822;  758.490
436.738;  587.321;  584.816;  701.099
437.329;  608.644;  599.763;  721.723
437.920;  565.969;  563.852;  666.688
438.511;  476.792;  440.845;  564.526
439.103;  515.837;  524.772;  623.998
439.694;  577.259;  546.759;  681.583
440.285;  650.141;  607.773;  764.432
440.876;  721.539;  709.798;  845.738
441.466;  480.942;  436.786;  575.162
442.057;  557.450;  554.731;  665.814
442.648;  629.749;  617.772;  746.255
443.239;  523.831;  531.791;  620.477
443.830;  600.101;  578.742;  704.958
444.421;  552.191;  482.716;  655.474
445.011;  585.945;  529.779;  693.619
445.602;  628.200;  592.785;  743.126
446.193;  406.443;  379.734;  488.117
446.783;  536.217;  497.697;  640.397
447.374;  581.356;  563.772;  692.759
447.964;  602.103;  602.773;  713.770
448.555;  698.728;  654.692;  822.742
449.145;  562.246;  533.728;  662.853
449.736;  670.170;  656.742;  803.179
450.326;  602.854;  545.740;  713.626
450.917;  565.328;  549.684;  675.324
451.507;  510.509;  455.692;  600.661
452.097;  632.318;  600.710;  746.267
452.688;  621.129;  534.700;  742.160
453.278;  469.340;  444.693;  566.840
453.868;  680.861;  618.665;  793.550
454.458;  547.244;  473.696;  651.141
455.048;  598.921;  546.703;  711.783
455.639;  480.026;  439.663;  567.096
456.229;  600.510;  544.649;  710.694
456.819;  636.287;  579.648;  751.158
457.409;  659.030;  604.657;  773.993
457.999;  619.759;  557.628;  737.505
458.589;  579.863;  525.632;  686.606
459.179;  606.148;  550.641;  717.658
459.769;  528.484;  487.663;  627.099
460.358;  673.162;  644.621;  797.262
460.948;  581.016;  522.625;  689.503
461.538;  562.631;  488.618;  660.677
462.128;  564.160;  481.649;  664.934
462.717;  599.671;  569.572;  710.326
463.307;  600.508;  556.553;  705.846
463.897;  560.373;  479.614;  656.942
464.486;  709.003;  640.657;  837.128
465.076;  623.660;  582.592;  733.776
465.666;  546.423;  516.547;  652.900
466.255;  670.757;  592.604;  785.651
466.845;  558.858;  481.612;  666.749
467.434;  615.718;  576.589;  725.873
468.023;  559.567;  457.573;  658.357
468.613;  607.263;  526.632;  713.946
469.202;  544.179;  470.579;  646.507
469.791;  621.569;  542.548;  737.811
470.381;  631.004;  556.544;  742.813
470.970;  600.689;  486.551;  711.099
471.559;  627.517;  565.571;  733.291
472.148;  569.841;  481.536;  675.737
472.738;  648.276;  569.527;  765.466
473.327;  535.953;  430.534;  637.529
473.916;  619.101;  547.564;  737.446
474.505;  629.579;  552.520;  751.703
475.094;  687.232;  578.500;  806.570
475.683;  676.802;  568.521;  797.699
476.272;  615.372;  507.526;  730.632
476.861;  597.474;  481.495;  706.754
477.449;  616.551;  502.441;  728.487
478.038;  588.541;  477.526;  692.513
478.627;  606.661;  504.533;  714.852
479.216;  649.237;  583.468;  769.441
479.805;  664.028;  548.450;  783.375
480.393;  857.566;  759.493; 1008.945
480.982;  742.402;  614.513;  874.501
481.571;  729.305;  628.447;  858.333
482.159;  599.986;  453.444;  705.386
482.748;  708.238;  548.478;  821.385
483.336;  735.302;  621.459;  858.209
483.925;  668.638;  539.473;  774.373
484.513;  645.983;  520.408;  758.962
485.102;  685.742;  554.482;  810.965
485.690;  860.496;  716.421; 1011.050
486.278;  838.177;  684.421;  979.329
486.867;  685.881;  541.430;  809.662
487.455;  773.928;  578.448;  898.229
488.043;  637.274;  447.449;  748.361
488.631;  864.441;  712.404; 1005.079
489.220;  777.367;  584.396;  908.626
489.808;  650.651;  424.435;  741.415
490.396;  793.300;  593.422;  914.645
490.984;  710.292;  505.423;  830.161
491.572;  816.414;  618.405;  940.315
492.160;  805.625;  526.449;  919.081
492.748;  790.879;  526.453;  884.341
493.336;  924.876;  620.406; 1019.693
493.924;  886.236;  534.383;  958.077
494.512; 1019.169;  599.427; 1066.638
495.100; 1069.555;  569.449; 1103.280
495.687; 1188.913;  637.387; 1206.373
496.275; 1196.994;  490.398; 1150.796
496.863; 1355.428;  517.440; 1281.171
497.451; 1492.667;  507.445; 1386.805
498.038; 1679.212;  560.377; 1556.729
498.626; 1925.113;  520.384; 1741.407
499.214; 2341.177;  543.421; 2016.609
499.801; 2679.612;  548.436; 2220.633
500.389; 2887.067;  465.391; 2312.494
500.976; 3407.025;  564.395; 2744.849
501.564; 3697.778;  530.437; 3148.565
502.151; 3927.651;  369.446; 3515.999
502.738; 4520.545;  520.406; 3971.274
503.326; 5213.647;  490.375; 4403.796
503.913; 5983.253;  530.410; 5161.749
504.500; 6609.012;  553.430; 5986.420
505.088; 7384.277;  476.427; 6381.201
505.675; 8575.474;  520.377; 6925.547
506.262; 9703.570;  513.446; 7619.060
506.849;10725.237;  535.414; 8733.969
507.436;11538.366;  590.385; 9790.121
508.023;11622.828;  518.391; 9985.472
508.610;12190.261;  592.412;10434.618
509.197;13617.021;  546.469;11198.435
509.784;14874.388;  543.417;12391.194
510.371;15876.400;  433.368;13603.713
510.958;16502.697;  505.437;14426.586
511.545;16412.227;  634.424;15243.775
512.132;17199.432;  547.379;15945.876
512.719;18433.902;  475.410;16340.369
513.305;20387.039;  478.430;18011.766
513.892;22371.736;  600.455;19754.971
514.479;23793.217;  549.396;20967.805
515.066;24923.971;  615.402;22299.793
515.652;26323.910;  523.404;22908.660
516.239;27865.842;  603.420;23798.875
516.825;29480.148;  464.409;25567.275
517.412;30789.018;  686.393;28154.959
517.998;29976.088;  501.432;28344.111
518.585;28262.502;  509.446;27134.219
519.171;28580.785;  535.383;27268.576
519.758;29349.943;  440.395;28964.129
520.344;30820.438;  573.417;30664.494
520.930;32885.195;  456.459;32550.605
521.516;36417.695;  596.383;35422.895
522.103;38383.133;  639.408;38280.004
522.689;38585.066;  498.450;37835.117
523.275;38460.934;  614.439;37288.613
523.861;39157.121;  552.413;37281.395
524.447;40867.621;  614.384;37846.949
525.033;40826.922;  601.436;38321.949
525.619;38558.484;  461.452;38579.285
526.205;38065.180;  483.435;40622.875
526.791;39491.477;  528.398;42258.836
527.377;40836.934;  509.449;42966.902
527.963;42196.945;  570.470;42018.949
528.549;43697.727;  580.452;42476.828
529.135;43091.094;  481.428;41854.852
529.721;41169.406;  524.432;41237.711
530.306;41263.926;  714.452;41259.445
530.892;42595.160;  517.433;41506.047
531.478;45571.750;  526.417;43559.613
532.063;47452.840;  462.445;47695.563
532.649;49813.598;  662.479;50808.324
533.235;50092.887;  487.442;51787.500
533.820;50223.039;  612.394;52145.035
534.406;48840.934;  511.477;51133.488
534.991;48118.953;  497.448;49996.805
535.576;46471.129;  517.432;48882.852
536.162;44866.871;  729.426;46942.285
536.747;45838.223;  444.482;45711.746
537.333;48127.930;  487.479;48510.180
537.918;50303.129;  520.466;50439.891
538.503;49452.945;  498.421;50863.711
539.088;48105.508;  570.460;50906.922
539.673;50539.395;  530.467;52621.965
540.259;52270.199;  483.443;52368.094
540.844;51716.523;  434.436;50879.109
541.429;51559.672;  655.487;52077.777
542.014;52315.051;  451.502;52716.695
542.599;50631.328;  569.453;52363.281
543.184;50168.859;  489.483;53187.137
543.769;52047.695;  467.486;54697.605
544.354;51208.684;  493.480;53913.914
544.938;48356.934;  571.467;49680.164
545.523;45894.414;  652.446;47386.277
546.108;48157.879;  518.488;49151.949
546.693;50764.695;  533.513;51384.637
547.278;48754.660;  570.458;51853.254
547.862;47182.566;  517.429;51173.750
548.447;47539.844;  574.495;51691.395
549.031;47686.031;  497.523;52456.703
549.616;47370.473;  562.461;52714.516
550.201;48213.496;  489.473;52414.598
550.785;51600.066;  590.491;52355.059
551.370;54534.594;  465.503;54589.453
551.954;55951.203;  594.493;58267.348
552.538;54621.277;  577.473;59062.176
553.123;53675.273;  462.501;58115.285
553.707;54303.281;  511.538;56556.285
554.291;53758.902;  614.485;56201.668
554.876;52700.375;  623.498;55335.762
555.460;51890.980;  508.520;54155.703
556.044;52076.668;  493.553;53721.484
556.628;51196.199;  527.507;53731.016
557.212;49831.523;  603.462;54312.531
557.796;48458.727;  537.507;53797.773
558.380;47729.004;  548.549;56145.984
558.964;48898.188;  560.481;57277.930
559.548;51194.578;  445.483;56459.641
560.132;52290.313;  485.524;54434.543
560.716;52633.785;  460.547;54800.617
561.300;53679.582;  460.475;57606.945
561.884;52597.527;  560.512;58972.445
562.467;52085.297;  560.545;57327.570
563.051;52344.293;  540.544;54962.434
563.635;50655.910;  540.533;52594.473
564.219;47483.285;  504.511;50610.410
564.802;47828.906;  572.550;49551.180
565.386;48673.680;  516.541;48370.953
565.969;48699.145;  604.488;48178.871
566.553;48967.227;  698.527;49957.305
567.136;47841.383;  608.551;50369.594
567.720;48768.477;  542.569;49492.004
568.303;50685.184;  564.544;50616.352
568.887;52082.816;  548.534;50727.148
569.470;52428.063;  555.580;51698.379
570.053;49494.938;  572.573;52122.078
570.637;47171.977;  491.514;52536.438
571.220;46950.738;  588.510;51186.098
571.803;47243.418;  680.584;51032.762
572.386;47696.398;  495.561;49609.887
572.969;48012.617;  526.538;48285.926
573.552;48674.094;  531.549;47624.285
574.135;46817.758;  458.591;45498.641
574.718;42823.832;  474.559;41970.434
575.301;41857.426;  487.068;41447.137
575.884;40891.020;  499.577;40923.836
576.467;42640.629;  559.569;45267.723
577.050;42714.770;  575.580;48175.543
577.633;41908.738;  663.538;47729.328
578.216;43158.973;  503.574;47579.793
578.799;48322.180;  523.600;47820.996
579.381;49227.914;  669.567;48115.551
579.964;44717.629;  503.538;47333.766
580.547;42524.230;  537.579;46668.969
581.129;42678.500;  621.610;44466.141
581.712;42898.832;  551.621;44164.922
582.294;44643.434;  522.570;46477.855
582.877;43154.766;  703.563;48244.254
583.459;41836.043;  544.619;47437.895
584.042;43601.070;  520.618;46943.219
584.624;43609.063;  507.624;46792.227
585.206;43854.414;  407.575;46557.250
585.789;42738.805;  477.611;45793.773
586.371;41403.328;  552.638;43836.391
586.953;39750.762;  598.608;42972.492
587.536;38166.223;  635.574;42487.211
588.118;38884.035;  543.679;42086.414
588.700;40546.969;  662.631;43389.930
589.282;42317.809;  586.599;43646.039
589.864;41630.777;  523.612;43438.109
590.446;41709.941;  407.647;43151.926
591.028;41072.402;  543.639;42781.867
591.610;41056.695;  439.615;42839.098
592.192;40690.344;  565.599;42820.402
592.774;38662.945;  475.629;40724.277
593.356;38003.867;  501.668;39874.789
593.937;37483.051;  523.605;39980.648
594.519;38602.816;  611.612;42069.633
595.101;39581.512;  460.657;42976.031
595.683;39899.539;  509.666;44084.441
596.264;40967.793;  540.611;43478.797
596.846;42915.379;  517.630;43803.672
597.427;42022.379;  487.679;42986.934
598.009;41625.566;  472.681;42832.219
598.591;40425.293;  598.632;42580.086
599.172;39398.094;  500.640;43061.805
599.753;38935.746;  454.676;41691.469
600.335;38974.090;  637.693;40692.520
600.916;38777.598;  552.666;39982.422
601.498;39499.953;  559.652;40318.617
602.079;40469.152;  534.676;40670.609
602.660;39259.500;  531.685;41450.898
603.241;38311.145;  434.637;41137.738
603.823;38626.938;  514.648;38868.797
604.404;40073.184;  451.688;38182.785
604.985;42329.109;  509.695;38078.047
605.566;43161.000;  595.634;38056.633
606.147;41745.027;  537.708;37020.418
606.728;40211.301;  457.716;37883.359
607.309;39535.129;  483.697;38748.273
607.890;39501.375;  526.661;38850.230
608.471;39499.633;  469.685;37457.918
609.051;39312.883;  536.742;36066.457
609.632;38601.203;  458.735;35991.074
610.213;39552.039;  541.693;37402.641
610.794;41498.555;  503.699;38383.363
611.374;40029.395;  568.707;40562.387
611.955;39406.207;  444.725;38533.727
612.536;41543.242;  573.691;36951.789
613.116;41131.434;  524.698;37197.891
613.697;40741.988;  515.744;38411.125
614.277;40335.043;  494.753;38673.938
614.858;37052.852;  516.696;37075.863
615.438;35042.973;  536.691;35092.906
616.019;34776.406;  622.756;33666.301
616.599;35921.297;  423.733;34189.023
617.179;38936.066;  475.710;36952.047
617.760;39234.285;  708.686;39582.574
618.340;37413.512;  498.765;38943.977
618.920;37045.551;  653.742;37594.156
619.500;37024.133;  495.768;37866.938
620.080;37032.695;  479.741;37869.043
620.660;37393.504;  468.802;36868.617
621.241;37507.570;  491.762;36352.309
621.821;37072.707;  592.749;35459.520
622.401;37411.543;  587.742;35207.414
622.980;39315.883;  463.779;35980.422
623.560;38839.004;  460.758;37351.328
624.140;36101.559;  557.741;34388.582
624.720;36369.387;  554.748;32368.764
625.300;38332.547;  485.743;32638.629
625.880;39269.500;  503.780;34599.035
626.459;37743.555;  556.753;36831.738
627.039;36305.219;  444.772;38299.098
627.619;37778.766;  703.802;38289.574
628.198;39734.742;  572.791;37220.695
628.778;41209.637;  551.748;37632.563
629.357;41736.953;  448.751;38003.012
629.937;40193.078;  496.798;38402.039
630.516;37126.992;  605.794;37868.801
631.096;36173.086;  498.751;35760.410
631.675;35223.152;  625.817;35225.219
632.254;34786.105;  508.833;35130.289
632.834;36024.051;  534.822;35794.570
633.413;37249.293;  638.771;35788.922
633.992;37316.563;  587.820;34532.863
634.571;37597.875;  576.844;33590.113
635.151;36907.977;  476.831;34943.863
635.730;36015.020;  511.775;35352.523
636.309;36252.121;  583.793;35366.605
636.888;36211.785;  593.820;36165.637
637.467;36506.230;  450.842;37515.902
638.046;37538.813;  646.791;39288.695
638.625;38039.855;  649.820;38279.699
639.204;37904.672;  541.850;37741.598
639.782;38882.191;  526.878;38364.551
640.361;38904.102;  639.809;36740.621
640.940;38279.367;  503.807;34950.082
641.519;37862.379;  532.805;34137.398
642.097;36361.141;  556.804;35654.258
642.676;36374.906;  571.802;35637.957
643.255;36418.816;  489.800;36567.074
643.833;38021.332;  569.799;37809.434
644.412;39675.844;  490.797;37337.293
644.990;40016.805;  534.795;37018.531
645.569;39310.617;  555.793;36518.469
646.147;37798.934;  588.792;36186.430
646.726;36723.844;  552.790;36267.688
647.304;36444.559;  509.788;36647.625
647.882;36325.172;  425.787;39286.742
648.461;35835.734;  559.785;39157.703
649.039;35937.547;  588.783;35412.883
649.617;35407.758;  570.781;34744.918
650.195;35153.023;  570.780;35403.098
650.773;35277.836;  470.778;35053.797
651.352;35161.547;  391.776;33756.816
651.930;34353.609;  420.775;31868.773
652.508;33720.922;  603.773;33121.551
653.086;33229.637;  545.771;33564.793
653.663;35058.098;  497.770;34054.668
654.241;35839.863;  453.768;35693.309
654.819;36945.426;  476.766;36422.906
655.397;38688.289;  443.764;38213.484
655.975;39785.949;  530.763;39507.625
656.553;41153.363;  618.761;39498.223
657.130;40425.676;  478.759;40395.480
657.708;40922.289;  552.758;39242.020
658.286;39631.953;  525.756;38920.020
658.863;38657.816;  545.754;40202.898
659.441;38191.328;  541.752;39677.938
660.018;39066.789;  509.751;40413.355
660.596;39646.652;  406.749;39931.414
661.173;40231.066;  500.747;39604.531
661.750;39807.027;  486.746;39700.070
662.328;39439.594;  564.744;39292.809
662.905;38165.453;  510.742;38235.648
663.482;36302.219;  513.741;36212.305
664.060;36062.379;  514.739;35944.945
664.637;35820.242;  585.737;35170.785
665.214;35903.508;  550.735;34197.523
665.791;37356.367;  529.734;34549.520
666.368;37755.934;  530.732;35118.578
666.945;35944.344;  585.730;36019.418
667.522;35543.457;  470.729;36048.438
668.099;37097.719;  505.727;36243.914
668.676;37266.383;  532.725;35958.875
669.253;37163.797;  629.723;37384.730
669.830;35582.109;  578.722;36779.629
670.407;34019.023;  537.720;35231.289
670.984;33200.336;  544.718;35544.270
671.560;33864.449;  560.717;35466.867
672.137;33190.012;  498.715;34280.863
672.714;33616.273;  579.713;34632.863
673.290;34695.035;  548.711;35135.422
673.867;33312.801;  482.710;36114.480
674.443;33356.961;  428.708;36152.859
675.020;35365.125;  541.706;35327.238
675.596;36399.539;  521.705;35795.176
676.173;35328.199;  436.703;35430.355
676.749;35478.363;  385.701;33549.516
677.326;35007.625;  432.700;32210.012
677.902;36087.891;  468.698;32068.871
678.478;35228.953;  424.696;32583.891
679.054;33818.215;  772.694;32088.928
679.631;33508.828;  548.693;30978.848
680.207;34326.539;  660.691;33160.887
680.783;34416.902;  412.689;35570.363
681.359;34893.418;  522.688;36125.184
681.935;34730.480;  540.686;35240.922
682.511;34171.992;  540.684;34429.961
683.087;33267.004;  558.682;34463.680
683.663;32458.469;  498.681;34648.898
684.239;32272.930;  433.679;34546.457
684.815;32054.744;  576.677;35586.375
685.390;32653.557;  664.676;35821.895
685.966;32928.371;  527.674;35085.871
686.542;32365.633;  491.672;34198.230
687.118;32605.895;  520.671;32847.707
687.693;32917.758;  578.669;32794.027
688.269;31934.871;  516.667;33072.367
688.844;31176.033;  567.665;33141.664
689.420;31821.596;  519.664;33965.742
689.995;31643.910;  626.662;34655.523
690.571;31441.771;  615.660;33576.742
691.146;32821.336;  510.659;32657.219
691.722;32234.098;  535.657;32526.979
692.297;30917.111;  459.655;33014.617
692.872;30884.123;  475.654;34012.254
693.448;30353.486;  459.652;34237.434
694.023;30249.949;  537.650;34142.672
694.598;30844.662;  531.648;34132.031
695.173;30997.475;  519.647;34205.250
695.748;29873.838;  415.645;32882.488
696.323;30881.801;  537.643;32864.906
696.898;31687.814;  566.642;33170.004
697.473;30808.377;  437.640;32432.984
698.048;30388.689;  517.638;31649.303
698.623;31535.803;  453.636;30778.141
699.198;32702.416;  536.635;31140.119
699.773;33468.629;  455.633;31764.299
700.348;32346.240;  474.631;31780.816
700.922;31966.254;  520.630;32046.375
701.497;31642.416;  512.628;32603.574
702.072;31595.779;  594.626;34799.871
702.646;32263.242;  601.625;35793.172
703.221;32525.105;  531.623;35201.590
703.795;31895.668;  466.621;34764.527
704.370;32357.281;  386.619;34307.367
704.944;32340.594;  523.618;33509.887
705.519;32660.607;  558.616;31388.584
706.093;33622.070;  467.614;31340.104
706.668;33794.383;  533.613;32630.281
707.242;33279.344;  587.611;32728.779
707.816;32091.459;  511.609;32947.238
708.390;31770.221;  521.607;33277.855
708.965;32690.033;  565.606;33834.336
709.539;32662.396;  518.604;33709.273
710.113;31595.160;  525.602;33044.313
710.687;32432.172;  551.601;31953.992
711.261;32758.734;  468.599;30505.949
711.835;31916.447;  462.597;30262.369
712.409;31600.012;  413.595;31254.447
712.983;32932.875;  424.594;32754.986
713.557;34787.535;  423.592;34018.824
714.131;34732.750;  500.590;34579.625
714.704;33715.461;  495.589;33890.262
715.278;32991.977;  530.587;33531.102
715.852;33069.137;  564.585;33601.660
716.425;32812.301;  663.584;33515.117
716.999;32120.914;  432.582;33185.555
717.573;32724.227;  567.580;33905.996
718.146;33609.738;  615.578;35199.293
718.720;33626.453;  518.577;35060.551
719.293;33698.316;  565.575;34973.230
719.867;33400.430;  470.573;36394.449
720.440;33632.242;  603.572;36663.008
721.013;34072.355;  519.570;35102.426
721.587;32882.266;  405.568;33985.266
722.160;32763.180;  562.566;33524.965
722.733;32191.742;  547.565;32987.043
723.306;33595.605;  513.563;33066.301
723.880;35022.168;  565.561;33399.500
724.453;35003.281;  640.560;33468.297
725.026;33674.594;  497.558;33816.637
725.599;31945.557;  539.556;32797.996
726.172;31926.869;  558.555;33187.434
726.745;33795.484;  538.553;35136.613
727.318;34054.297;  584.551;35751.730
727.891;32904.109;  534.549;35890.430
728.463;31614.521;  535.548;34822.090
729.036;31194.334;  447.546;32895.086
729.609;30371.996;  473.544;31823.225
730.182;30286.609;  580.543;31445.283
730.754;31421.623;  407.541;32373.223
731.327;33447.984;  545.539;33676.820
731.900;33119.297;  421.537;33417.000
732.472;32487.461;  542.536;31978.498
733.045;32306.824;  502.534;30368.777
733.617;30691.438;  437.532;30574.215
734.190;29717.400;  572.531;31280.975
734.762;29357.863;  534.529;31674.412
735.334;29893.375;  527.527;31247.291
735.907;30067.088;  547.526;29876.211
736.479;29761.102;  576.524;29808.488
737.051;30487.814;  544.522;30233.547
737.623;32254.027;  559.520;31469.086
738.195;33293.590;  477.519;31784.225
738.768;33729.754;  389.517;32120.523
739.340;33359.816;  500.515;32094.342
739.912;33476.527;  596.514;31312.680
740.484;32504.791;  543.512;31946.238
741.056;32629.555;  498.510;32984.059
741.628;34027.816;  476.508;33897.715
742.199;32593.129;  596.507;33213.016
742.771;31077.992;  444.505;31369.113
743.343;31476.555;  475.503;31865.473
743.915;31593.818;  503.502;32388.631
744.487;31146.182;  586.500;31079.568
745.058;29812.994;  562.498;30570.107
745.630;28475.656;  564.497;29970.127
746.201;27720.820;  475.495;29186.766
746.773;27241.283;  553.493;28805.723
747.344;26428.246;  515.491;29591.223
747.916;25836.309;  541.490;31412.201
748.487;26378.021;  572.488;32194.898
749.059;27753.334;  453.486;32533.719
749.630;28087.797;  480.485;32158.518
750.201;27247.160;  523.483;30855.395
750.773;26815.072;  478.481;28622.555
751.344;25616.686;  514.479;28405.732
751.915;24471.398;  512.478;28461.551
752.486;24798.711;  462.476;27842.850
753.057;25803.975;  533.474;27845.008
753.628;25631.338;  485.473;27728.107
754.199;24297.150;  483.471;27381.086
754.770;23773.463;  560.469;25882.203
755.341;23565.625;  609.468;25886.184
755.912;23138.789;  508.466;26050.861
756.483;22930.900;  564.464;26798.779
757.054;22301.465;  533.462;27048.238
757.625;22238.178;  470.461;26294.838
758.195;23045.641;  436.459;26142.076
758.766;22793.303;  534.457;26392.234
759.337;22452.916;  432.456;26334.594
759.907;23182.078;  436.454;27579.652
760.478;23731.441;  497.452;28352.770
761.048;24251.754;  566.450;27325.088
761.619;24322.367;  553.449;26460.428
762.189;23398.430;  490.447;26029.826
762.760;22624.943;  588.445;26430.145
763.330;21003.906;  548.444;26670.902
763.900;19871.119;  537.442;26603.021
764.471;20092.531;  468.440;25542.740
765.041;20708.193;  599.438;24358.459
765.611;21543.508;  540.437;23991.297
766.181;22397.020;  538.435;24470.236
766.751;22207.582;  542.433;24845.975
767.321;21020.996;  474.432;24533.633
767.891;20340.158;  499.430;24916.492
768.461;20038.371;  532.428;24776.771
769.031;19083.734;  503.427;24757.988
769.601;17963.797;  591.425;24181.088
770.171;17208.010;  421.423;23670.387
770.741;17399.424;  467.421;22960.045
771.311;17845.387;  568.420;22917.523
771.880;18047.148;  445.418;23562.941
772.450;18182.711;  487.416;24216.500
773.020;18178.975;  424.415;24140.398
773.589;17665.537;  493.413;24414.857
774.159;17346.750;  462.411;23858.717
774.729;17057.813;  480.409;22942.135
775.298;15542.976;  485.408;22324.033
775.867;14906.589;  494.406;21140.313
776.437;15421.302;  512.404;20838.092
777.006;15405.265;  443.403;20599.510
777.576;15414.327;  528.401;20508.809
778.145;15443.990;  558.399;20732.947
778.714;15711.253;  529.398;21062.465
779.283;15878.016;  558.396;20949.664
779.853;16155.679;  481.394;20508.623
780.422;16815.092;  526.392;20649.082
780.991;16683.004;  553.391;21527.520
781.560;16089.617;  606.389;22632.658
782.129;15923.880;  543.387;23048.277
782.698;15797.943;  606.386;23438.555
783.267;15797.355;  519.384;23267.734
783.836;16455.119;  536.382;22415.133
784.404;15927.632;  443.380;20443.152
784.973;15370.645;  387.379;19699.150
785.542;14951.407;  495.377;19763.828
786.111;15223.970;  591.375;20341.408
786.679;15314.383;  534.374;20207.967
787.248;14704.846;  423.372;19516.465
787.817;14838.608;  503.370;18900.363
788.385;15342.472;  571.369;17879.121
788.954;14620.984;  423.367;17658.301
789.522;14848.647;  605.365;17788.879
790.090;15459.860;  433.363;18118.277
790.659;15836.273;  493.362;18338.736
791.227;15813.436;  505.360;18508.615
791.795;15445.799;  533.358;17898.254
792.364;14668.662;  476.357;17295.133
792.932;14203.675;  532.355;16822.051
793.500;14325.388;  508.353;17040.148
794.068;14917.000;  416.352;17179.787
794.636;14644.713;  478.350;16664.246
795.204;13407.526;  432.348;16524.545
795.772;13097.789;  462.346;17274.564
796.340;13863.952;  484.345;17891.002
796.908;13951.765;  442.343;17648.561
797.476;14100.928;  447.341;17064.080
798.044;13906.391;  400.340;16672.777
798.612;13683.203;  499.338;17023.996
799.180;13487.966;  534.336;16561.615
799.747;13490.529;  503.334;15962.773
800.315;13572.092;  439.333;15296.992
800.883;13912.505;  398.331;14801.771
801.450;13290.018;  515.329;14534.430
802.018;12879.780;  525.328;14173.248
802.585;13075.493;  497.326;14029.547
803.153;12972.956;  497.324;13836.846
803.720;12926.419;  507.322;13567.324
804.287;13063.932;  479.321;13360.622
804.855;12930.145;  582.319;13681.981
805.422;12638.357;  490.317;13536.560
805.989;12447.170;  482.316;13355.958
806.556;12872.483;  479.314;13747.896
807.124;13201.146;  525.312;13987.376
807.691;13098.309;  443.311;14038.674
808.258;12957.521;  505.309;14120.152
808.825;13030.835;  541.307;13860.111
809.392;13122.998;  625.305;13268.790
809.959;13149.261;  562.304;12680.389
810.526;12793.423;  651.302;12427.308
811.093;12056.286;  582.300;12030.105
811.659;11752.649;  502.299;11653.664
812.226;12045.812;  500.297;11637.183
812.793;11971.925;  539.295;11611.521
813.360;11869.237;  467.293;11885.181
813.926;11921.051;  535.292;12770.539
814.493;11743.113;  441.290;12677.638
815.060;11656.076;  420.288;11974.336
815.626;11468.789;  421.287;11594.715
816.193;11387.452;  517.285;11579.474
816.759;11526.814;  453.283;11666.972
817.325;11492.027;  404.282;11325.530
817.892;11500.540;  526.280;11105.369
818.458;11488.203;  534.278;10843.928
819.024;11350.666;  578.276;10714.406
819.591;10484.979;  528.275;10469.165
820.157;10041.792;  434.273;10235.523
820.723;10770.655;  525.271;10847.563
821.289;11108.868;  791.270;11040.980
821.855;10375.330;  537.268;10357.100
822.421;10037.443;  444.266; 9978.918
822.987;10161.856;  433.264; 9754.177
823.553; 9874.020;  512.263;10065.755
824.119; 9980.782;  543.261;10036.294
824.685;10080.045;  600.259;10029.192
825.251; 9903.758;  542.258;10199.230
825.816; 9709.971;  622.256; 9820.189
826.382; 9167.783;  556.254; 9297.248
826.948; 8792.597;  585.253; 9381.347
827.513; 9043.509;  504.251; 9450.726
828.079; 9298.072;  469.249; 9472.444
828.645; 9288.435;  543.247; 9292.643
829.210; 8992.897;  434.246; 9065.341
829.776; 8793.360;  570.244; 9132.620
830.341; 8497.674;  564.242; 9092.878
830.906; 8631.036;  584.241; 9078.557
831.472; 8470.850;  449.239; 8534.535
832.037; 8283.313;  581.237; 8677.874
832.602; 7908.125;  467.235; 8628.692
833.167; 7979.688;  540.234; 8879.031
833.733; 7914.051;  556.232; 9189.790
834.298; 7483.063;  412.230; 9052.608
834.863; 7434.376;  522.229; 8895.087
835.428; 7549.039;  565.227; 8824.266
835.993; 7667.302;  546.225; 8845.385
836.558; 7500.215;  548.224; 8888.563
837.123; 7495.428;  686.222; 8966.582
837.688; 7190.541;  521.220; 8617.860
838.253; 7048.753;  510.218; 8590.699
838.817; 7070.866;  487.217; 8443.797
839.382; 7537.329;  608.215; 8799.356
839.947; 7717.892;  537.213; 8810.595
840.511; 7613.905;  610.212; 8796.394
841.076; 6867.718;  413.210; 8347.231
841.641; 6869.531;  549.208; 8224.330
842.205; 6842.194;  548.206; 8223.349
842.770; 6898.506;  632.205; 8622.107
843.334; 6916.770;  493.203; 8410.386
843.898; 7023.982;  500.201; 8337.465
844.463; 7173.195;  598.200; 8506.283
845.027; 6832.608;  512.198; 8280.962
845.591; 6642.121;  562.196; 8231.141
846.156; 6632.583;  490.195; 7969.179
846.720; 6729.347;  592.193; 7768.278
847.284; 6462.560;  497.191; 7630.957
847.848; 6369.622;  570.189; 7472.395
848.412; 6374.935;  553.188; 7437.394
848.976; 6461.698;  637.186; 7674.592
849.540; 6505.511;  660.184; 7836.011
850.104; 6650.524;  600.183; 7913.669
850.668; 6476.787;  405.181; 7694.508
851.232; 6359.049;  426.179; 7756.887
851.796; 6135.662;  506.177; 7926.545
852.359; 6027.975;  596.176; 7827.844
852.923; 6006.138;  574.174; 7641.163
853.487; 6095.051;  578.172; 7342.501
854.050; 5854.164;  371.171; 7042.820
854.614; 5606.677;  501.169; 7151.338
855.177; 5598.040;  542.167; 7105.077
855.741; 5560.052;  555.166; 6989.675
856.304; 5488.965;  575.164; 6596.634
856.868; 5191.528;  453.162; 6356.272
857.431; 5096.841;  522.160; 6468.571
857.995; 5229.504;  497.159; 6373.210
858.558; 5450.816;  551.157; 6324.448
859.121; 5350.930;  567.155; 6408.327
859.684; 5303.592;  516.154; 6347.886
860.247; 5242.355;  519.152; 6321.264
860.810; 5165.568;  486.150; 6301.903
861.374; 5454.281;  667.148; 6607.881
861.937; 5555.894;  465.147; 6408.200
862.500; 5590.457;  506.145; 6572.639
863.062; 5353.020;  431.143; 6387.297
863.625; 5295.532;  541.142; 6190.836
864.188; 5074.595;  497.140; 5807.254
864.751; 4920.508;  498.138; 5682.413
865.314; 4840.671;  535.136; 5547.492
865.876; 4832.134;  555.135; 5500.150
866.439; 4836.697;  556.133; 5415.909
867.002; 4837.310;  688.131; 5501.567
867.564; 4773.822;  595.130; 5413.946
868.127; 4696.885;  527.128; 5160.325
868.689; 4486.848;  549.126; 5133.183
869.252; 4420.611;  596.125; 5252.382
869.814; 4438.974;  474.123; 5297.141
870.377; 4590.787;  533.121; 5390.919
870.939; 4873.100;  773.119; 5599.898
871.501; 4638.862;  550.118; 5248.336
872.063; 4408.025;  398.116; 4854.235
872.626; 4285.738;  419.114; 4817.074
873.188; 4417.501;  534.113; 4987.732
873.750; 4386.114;  532.111; 4868.651
874.312; 4404.027;  525.109; 4779.330
874.874; 4530.140;  635.107; 4866.348
875.436; 4354.053;  571.106; 4718.887
875.998; 4132.515;  631.104; 4660.005
876.560; 3909.578;  552.102; 4462.964
877.122; 3570.391;  466.101; 4145.042
877.683; 3544.404;  609.099; 4056.481
878.245; 3495.567;  493.097; 3950.740
878.807; 3507.980;  561.096; 4058.958
879.369; 3458.492;  448.094; 3954.677
879.930; 3459.406;  447.092; 3941.495
880.492; 3598.868;  620.090; 4067.014
881.053; 3493.381;  462.089; 3859.633
881.615; 3448.594;  468.087; 3776.071
882.176; 3372.557;  518.085; 3734.750
882.738; 3351.970;  603.084; 3678.489
883.299; 3060.583;  378.082; 3405.407
883.860; 2986.946;  423.080; 3351.106
884.422; 3009.058;  552.078; 3394.044
884.983; 2846.121;  481.077; 3166.443
885.544; 2874.884;  559.075; 3189.802
886.105; 2815.097;  525.073; 3160.360
886.666; 2752.960;  513.072; 3093.059
887.227; 2578.073;  450.070; 2941.957
887.788; 2589.736;  528.068; 2974.836
888.349; 2418.248;  437.067; 2721.214
888.910; 2444.361;  596.065; 2696.493
889.471; 2340.124;  546.063; 2560.172
890.032; 2293.337;  541.061; 2558.190
890.593; 2293.300;  574.060; 2567.669
891.153; 2197.263;  504.058; 2460.307
891.714; 2021.226;  434.056; 2372.046
892.275; 1939.038;  417.055; 2309.505
892.835; 1994.451;  590.053; 2382.543
893.396; 1946.214;  565.051; 2295.502
893.956; 1819.877;  484.049; 2162.420
894.517; 1784.040;  533.048; 2125.439
895.077; 1723.203;  534.046; 2086.978
895.638; 1751.166;  637.044; 2126.316
896.198; 1520.028;  486.043; 1838.275
896.758; 1567.591;  580.041; 1892.813
897.319; 1488.904;  512.039; 1792.232
897.879; 1456.567;  535.038; 1762.751
898.439; 1329.230;  418.036; 1661.149
898.999; 1428.893;  543.034; 1781.468
899.559; 1364.206;  534.032; 1703.347
900.119; 1221.518;  450.031; 1537.525
900.679; 1326.231;  647.029; 1638.384
901.239; 1233.594;  565.027; 1527.902
901.799; 1176.457;  493.026; 1456.441
902.359; 1099.220;  463.024; 1357.140
902.919; 1065.233;  481.022; 1331.118
903.479; 1064.896;  501.020; 1317.257
904.038; 1029.308;  436.019; 1262.595
904.598;  921.521;  380.017; 1152.034
905.158; 1004.834;  497.015; 1240.893
905.717; 1007.997;  492.014; 1233.691
906.277; 1003.610;  518.012; 1217.330
906.836; 1014.423;  544.010; 1222.408
907.396;  979.286;  552.009; 1193.047
907.955;  974.049;  574.007; 1182.526
908.515;  915.811;  476.005; 1099.364
909.074;  898.774;  497.003; 1092.863
909.633;  890.887;  514.002; 1069.121
910.192; 1001.350;  642.000; 1196.460
910.752;  859.550;  493.000; 1029.960
911.311;  838.400;  464.000; 1009.780
911.870;  815.150;  506.000;  971.460
912.429;  925.800;  575.000; 1094.080
912.988;  905.850;  599.000; 1081.060
913.547;  796.600;  460.000;  940.380
914.106;  849.050;  552.000;  999.420
914.665;  833.500;  519.000;  984.020
915.224;  879.050;  619.000; 1035.760
915.782;  784.950;  487.000;  922.560
916.341;  893.400;  600.000; 1049.840
916.900;  792.800;  510.000;  925.260
917.458;  760.150;  455.000;  884.220
918.017;  809.100;  535.000;  942.600
918.576;  774.800;  513.000;  904.440
919.134;  721.900;  450.000;  837.980
919.693;  765.500;  491.000;  893.060
920.251;  751.950;  503.000;  876.500
920.809;  724.600;  471.000;  839.580
921.368;  756.800;  478.000;  885.360
921.926;  720.750;  443.000;  842.940
922.484;  768.050;  529.000;  903.360
923.042;  757.050;  491.000;  880.340
923.601;  865.550;  585.000;  998.680
924.159;  812.600;  547.000;  935.560
924.717;  732.250;  485.000;  841.080
925.275;  775.150;  524.000;  903.240
925.833;  674.950;  377.000;  779.320
926.391;  813.750;  520.000;  938.380
926.949;  746.450;  479.000;  857.680
927.506;  774.050;  552.000;  903.500
928.064;  761.900;  504.000;  877.580
928.622;  765.800;  500.000;  880.100
929.180;  708.050;  446.000;  814.180
929.737;  696.600;  435.000;  808.540
930.295;  802.700;  532.000;  928.480
930.853;  739.900;  448.000;  849.100
931.410;  713.950;  426.000;  821.120
931.968;  817.900;  539.000;  940.660
932.525;  788.150;  517.000;  909.380
933.082;  707.000;  406.000;  811.440
933.640;  811.400;  538.000;  925.900
934.197;  776.500;  503.000;  886.360
934.754;  783.050;  461.000;  897.780
935.312;  749.450;  466.000;  863.340
935.869;  887.600;  577.000; 1012.980
936.426;  754.450;  497.000;  872.800
936.983;  769.200;  465.000;  889.020
937.540;  729.300;  422.000;  838.280
938.097;  815.850;  529.000;  940.120
938.654;  776.300;  502.000;  898.860
939.211;  833.400;  512.000;  952.480
939.768;  792.900;  478.000;  915.420
940.324;  778.450;  467.000;  904.200
940.881;  767.150;  476.000;  878.500
941.438;  882.200;  581.000; 1021.200
941.995;  871.600;  560.000;  992.560
942.551;  750.900;  439.000;  875.620
943.108;  810.550;  529.000;  937.920
943.664;  761.450;  450.000;  869.340
944.221;  954.700;  628.000; 1088.140
944.777;  753.150;  418.000;  869.680
945.334;  768.050;  471.000;  884.840
945.890;  826.100;  486.000;  946.480
946.446;  812.750;  505.000;  947.020
947.003;  827.650;  508.000;  964.940
947.559;  916.550;  643.000; 1063.040
948.115;  887.100;  581.000; 1026.540
948.671;  835.000;  511.000;  967.300
949.227;  735.350;  412.000;  859.560
949.783;  725.700;  428.000;  858.900
950.339;  847.300;  531.000;  991.000
950.895;  884.800;  552.000; 1023.840
951.451;  796.300;  501.000;  925.280
952.007;  846.350;  544.000;  998.540
952.563;  795.450;  498.000;  937.780
953.118;  775.450;  475.000;  904.940
953.674;  803.300;  504.000;  935.780
954.230;  806.850;  500.000;  949.640
954.785;  801.050;  484.000;  936.640
955.341;  847.450;  535.000;  998.160
955.897;  700.450;  393.000;  834.660
956.452;  806.900;  524.000;  953.840
957.008;  927.700;  616.000; 1083.640
957.563;  865.200;  554.000; 1009.540
958.118;  741.200;  473.000;  877.700
958.674;  802.300;  524.000;  946.780
959.229;  859.200;  572.000; 1013.980
959.784;  715.350;  402.000;  832.400
960.339;  861.750;  563.000; 1001.280
960.894;  825.150;  532.000;  963.760
961.449;  727.500;  452.000;  859.960
962.004; 1030.400;  790.000; 1212.840
962.559;  731.000;  455.000;  860.140
963.114;  640.050;  347.000;  742.480
963.669;  775.600;  502.000;  915.500
964.224;  743.050;  452.000;  874.340
964.779;  707.150;  409.000;  828.420
965.334;  865.850;  609.000; 1017.860
965.888;  720.550;  475.000;  875.360
966.443;  813.500;  549.000;  972.380
966.998;  687.600;  396.000;  819.460
967.552;  765.950;  480.000;  908.380
968.107;  728.100;  482.000;  868.300
968.661;  779.250;  539.000;  922.440
969.216;  720.850;  484.000;  856.280
969.770;  767.550;  516.000;  917.200
970.324;  781.300;  530.000;  923.140
970.879;  804.900;  579.000;  947.180
971.433;  804.200;  549.000;  952.720
971.987;  753.250;  520.000;  895.340
972.541;  768.950;  520.000;  917.100
973.095;  853.150;  583.000; 1009.460
973.649;  672.150;  449.000;  809.480
974.203;  697.850;  446.000;  829.040
974.757;  712.350;  492.000;  855.220
975.311;  733.850;  480.000;  872.600
975.865;  743.400;  511.000;  881.820
976.419;  716.950;  504.000;  857.400
976.973;  711.800;  461.000;  849.620
977.526;  801.750;  556.000;  949.920
978.080;  666.600;  424.000;  796.780
978.634;  775.450;  567.000;  921.320
979.187;  767.550;  526.000;  905.400
979.741;  866.000;  608.000; 1018.380
980.294;  663.600;  412.000;  789.160
980.848;  603.150;  396.000;  717.220
981.401;  685.300;  475.000;  816.540
981.955;  716.250;  513.000;  844.300
982.508;  633.450;  410.000;  746.340
983.061;  781.050;  556.000;  915.260
983.615;  673.450;  454.000;  798.800
984.168;  645.750;  425.000;  770.080
984.721;  742.950;  508.000;  880.760
985.274;  718.350;  533.000;  867.500
985.827;  700.900;  518.000;  834.220
986.380;  609.900;  385.000;  721.340
986.933;  728.700;  524.000;  864.800
987.486;  713.700;  522.000;  861.920
988.039;  720.250;  558.000;  863.100
988.591;  755.600;  575.000;  893.260
989.144;  617.050;  434.000;  737.260
989.697;  636.850;  452.000;  758.740
990.250;  720.350;  543.000;  858.100
990.802;  628.650;  437.000;  755.860
991.355;  818.200;  669.000;  974.880
991.907;  723.425;  572.500;  864.320
992.460;  628.650;  476.000;  753.760
993.012;  623.000;  481.000;  749.540
993.565;  586.600;  436.000;  711.360
994.117;  792.450;  670.000;  950.780
994.669;  581.700;  441.000;  701.320
995.221;  667.550;  512.000;  791.920
995.774;  661.200;  512.000;  787.580
996.326;  622.200;  496.000;  740.220
996.878;  703.500;  571.000;  838.420
997.430;  588.100;  464.000;  699.860
997.982;  624.250;  508.000;  750.140
998.534;  615.350;  486.000;  739.060
999.086;  615.650;  486.000;  738.220
999.638;  553.000;  423.000;  661.380
1000.190;  586.650;  492.000;  699.320
1000.741;  616.400;  536.000;  742.700
1001.293;  565.450;  431.000;  686.020
1001.845;  564.200;  465.000;  676.640
1002.396;  619.750;  539.000;  743.400
1002.948;  612.800;  528.000;  737.400
1003.500;  603.050;  494.000;  723.780
1004.051;  763.950;  675.000;  907.580
1004.603;  669.400;  574.000;  791.820
1005.154;  511.700;  419.000;  608.980
1005.705;  603.400;  524.000;  723.960
1006.257;  594.200;  501.000;  707.220
1006.808;  572.700;  507.000;  685.460
1007.359;  641.950;  575.000;  763.240
1007.910;  545.350;  453.000;  646.640
1008.461;  614.800;  542.000;  732.940
1009.013;  494.750;  412.000;  588.340
1009.564;  670.300;  619.000;  793.520
1010.115;  499.050;  427.000;  597.040
1010.665;  507.850;  434.000;  602.160
1011.216;  559.150;  497.000;  667.920
1011.767;  578.250;  512.000;  697.920
1012.318;  616.200;  549.000;  736.980
1012.869;  567.450;  497.000;  679.000
1013.419;  503.950;  411.000;  603.120
1013.970;  555.650;  490.000;  666.640
1014.521;  513.350;  456.000;  620.620
1015.071;  558.450;  476.000;  670.380
1015.622;  527.450;  496.000;  635.460
1016.172;  495.600;  455.000;  596.820
1016.723;  514.700;  473.000;  614.380
1017.273;  508.950;  454.000;  604.160
1017.823;  541.150;  496.000;  650.340
1018.374;  506.600;  440.000;  611.760
1018.924;  600.400;  559.000;  716.880
1019.474;  598.950;  544.000;  718.880
1020.024;  543.950;  487.000;  657.580
1020.574;  603.600;  570.000;  726.160
1021.124;  575.000;  528.000;  673.580
1021.674;  470.450;  401.000;  559.120
1022.224;  596.850;  522.000;  708.940
1022.774;  558.400;  489.000;  668.820
1023.324;  633.450;  593.000;  753.520
1023.874;  737.000;  660.000;  875.760
1024.423;  508.050;  456.000;  613.700
1024.973;  508.900;  487.000;  610.760
1025.523;  516.500;  452.000;  620.960
1026.072;  504.250;  448.000;  606.420
1026.622;  560.600;  518.000;  675.740
1027.172;  604.800;  580.000;  715.660
1027.721;  501.000;  437.000;  601.220
1028.270;  554.850;  500.000;  663.400
1028.820;  525.250;  494.000;  638.080
1029.369;  514.400;  477.000;  612.700
1029.918;  547.750;  464.000;  649.840
1030.468;  474.000;  402.000;  564.780
1031.017;  531.150;  494.000;  634.800
1031.566;  509.100;  491.000;  608.900
1032.115;  585.050;  536.000;  694.500
1032.664;  503.100;  418.000;  596.480
1033.213;  616.950;  567.000;  735.420
1033.762;  530.800;  497.000;  635.620
1034.311;  565.350;  507.000;  677.220
1034.860;  579.100;  534.000;  691.000
1035.408;  605.400;  543.000;  722.720
1035.957;  600.650;  537.000;  719.540
1036.506;  439.450;  374.000;  530.800
1037.055;  707.650;  665.000;  844.320
1037.603;  556.200;  507.000;  664.000
1038.152;  443.500;  395.000;  534.760
1038.700;  484.100;  410.000;  585.740
1039.249;  568.800;  531.000;  681.220
1039.797;  531.150;  482.000;  633.360
1040.345;  588.850;  545.000;  705.420
1040.894;  522.650;  461.000;  625.300
1041.442;  526.900;  503.000;  632.200
1041.990;  466.500;  399.000;  559.160
1042.538;  447.950;  399.000;  536.180
1043.087;  470.850;  464.000;  570.860
1043.635;  564.950;  524.000;  670.500
1044.183;  491.850;  453.000;  586.400
1044.731;  482.750;  427.000;  576.000
1045.279;  565.250;  519.000;  674.920
1045.827;  752.450;  714.000;  892.400
1046.374;  425.550;  398.000;  515.420
1046.922;  494.750;  474.000;  590.580
1047.470;  580.800;  541.000;  691.300
1048.018;  534.300;  509.000;  647.960
1048.565;  599.450;  575.000;  708.600
1049.113;  457.450;  401.000;  557.000
1049.660;  519.550;  485.000;  629.660
1050.208;  568.150;  554.000;  675.640
1050.755;  505.250;  468.000;  606.580
1051.303;  564.800;  547.000;  686.820
1051.850;  537.650;  494.000;  635.120
1052.397;  395.250;  340.000;  473.960
1052.945;  517.350;  513.000;  617.760
1053.492;  617.750;  618.000;  741.840
1054.039;  603.550;  561.000;  720.180
1054.586;  463.700;  397.000;  557.240
1055.133;  573.850;  528.000;  693.140
1055.680;  541.450;  508.000;  646.620
1056.227;  440.700;  385.000;  542.780
1056.774;  672.400;  624.000;  794.980
1057.321;  431.200;  400.000;  523.260
1057.868;  530.100;  536.000;  651.320
1058.415;  545.800;  502.000;  651.980
1058.961;  566.900;  510.000;  678.940
1059.508;  535.650;  472.000;  643.820
1060.055;  485.750;  456.000;  581.780
1060.601;  521.300;  470.000;  624.300
1061.148;  516.450;  495.000;  616.820
1061.694;  500.450;  463.000;  592.580
1062.241;  497.900;  498.000;  596.320
1062.787;  546.700;  554.000;  663.140
1063.334;  679.650;  665.000;  808.560
1063.880;  560.500;  531.000;  668.360
1064.426;  587.500;  583.000;  706.820
1064.972;  495.650;  461.000;  601.340
1065.518;  471.000;  415.000;  566.640
1066.065;  524.700;  502.000;  624.460
1066.611;  496.750;  483.000;  598.800
1067.157;  537.800;  509.000;  641.860
1067.703;  562.000;  514.000;  668.480
1068.249;  505.400;  475.000;  605.220
1068.794;  518.350;  499.000;  626.880
1069.340;  476.050;  447.000;  578.960
1069.886;  499.900;  470.000;  590.700
1070.432;  442.400;  405.000;  541.720
1070.977;  496.600;  477.000;  601.080
1071.523;  474.150;  431.000;  573.060
1072.068;  486.850;  441.000;  582.000
1072.614;  430.900;  387.000;  527.760
1073.160;  580.300;  556.000;  687.040
1073.705;  482.800;  488.000;  572.520
1074.250;  459.500;  479.000;  559.900
1074.796;  543.750;  502.000;  655.160
1075.341;  555.200;  525.000;  664.100
1075.886;  489.500;  470.000;  594.240
1076.431;  542.800;  514.000;  649.880
1076.976;  531.700;  491.000;  639.220
1077.521;  477.800;  463.000;  583.080
1078.067;  474.100;  450.000;  579.400
1078.612;  560.300;  537.000;  661.620
1079.156;  501.800;  481.000;  601.540
1079.701;  578.900;  543.000;  693.260
1080.246;  583.450;  599.000;  696.300
1080.791;  526.450;  485.000;  625.020
1081.336;  554.850;  502.000;  659.320
1081.880;  538.600;  526.000;  649.680
1082.425;  476.250;  421.000;  573.480
1082.970;  598.150;  577.000;  717.040
1083.514;  495.850;  482.000;  597.000
1084.059;  485.550;  455.000;  586.720
1084.603;  469.300;  437.000;  565.840
1085.147;  536.250;  496.000;  645.220
1085.692;  596.750;  566.000;  716.800
1086.236;  420.400;  419.000;  503.140
1086.780;  624.050;  621.000;  751.440
1087.325;  550.900;  518.000;  654.620
1087.869;  509.800;  482.000;  610.700
1088.413;  588.850;  567.000;  705.040
1088.957;  441.500;  457.000;  543.400
1089.501;  639.500;  634.000;  766.640
1090.045;  609.100;  611.000;  726.480
1090.589;  469.500;  453.000;  569.920
1091.133;  567.200;  513.000;  673.340
1091.676;  489.300;  450.000;  591.940
1092.220;  492.750;  481.000;  600.920
1092.764;  593.050;  579.000;  706.960
1093.307;  563.350;  526.000;  673.780
1093.851;  459.950;  442.000;  556.540
1094.395;  571.300;  571.000;  683.140
1094.938;  520.200;  516.000;  632.520
1095.482;  459.850;  455.000;  559.800
1096.025;  599.500;  565.000;  710.880
1096.568;  650.950;  631.000;  779.280
1097.112;  420.300;  405.000;  508.180
1097.655;  495.700;  518.000;  603.000
1098.198;  498.000;  473.000;  600.180
1098.741;  507.400;  490.000;  612.860
1099.285;  543.150;  531.000;  657.300
1099.828;  355.600;  330.000;  439.400
1100.371;  510.500;  497.000;  608.160
1100.914;  576.700;  552.000;  682.660
1101.457;  570.400;  555.000;  679.900
1101.999;  474.450;  447.000;  584.680
1102.542;  534.800;  491.000;  641.440
1103.085;  545.400;  548.000;  658.500
1103.628;  633.700;  642.000;  762.060
1104.170;  479.950;  463.000;  588.280
1104.713;  540.050;  529.000;  646.700
1105.256;  455.650;  403.000;  557.440
1105.798;  410.500;  400.000;  499.980
1106.341;  604.550;  603.000;  728.900
1106.883;  430.850;  393.000;  521.340
1107.425;  555.900;  534.000;  668.180
1107.968;  512.000;  517.000;  612.380
1108.510;  572.850;  572.000;  684.960
1109.052;  511.850;  473.000;  612.620
1109.594;  462.300;  408.000;  554.440
1110.136;  529.350;  509.000;  643.220
1110.679;  527.500;  552.000;  633.080
1111.221;  506.850;  462.000;  604.460
1111.763;  456.000;  444.000;  559.220
1112.304;  444.600;  428.000;  547.140
1112.846;  551.450;  564.000;  666.240
1113.388;  790.900;  770.000;  942.180
1113.930;  572.750;  589.000;  694.200
1114.472;  499.700;  488.000;  606.540
1115.013;  452.000;  424.000;  551.280
1115.555;  494.550;  486.000;  587.100
1116.097;  466.850;  459.000;  579.480
1116.638;  563.950;  582.000;  684.600
1117.180;  561.750;  526.000;  667.740
1117.721;  477.150;  456.000;  568.580
1118.262;  563.400;  521.000;  677.960
1118.804;  534.600;  529.000;  637.340
1119.345;  476.500;  461.000;  578.400
1119.886;  588.750;  601.000;  704.040
1120.427;  484.500;  478.000;  589.020
1120.969;  502.750;  480.000;  597.920
1121.510;  464.300;  442.000;  563.060
1122.051;  607.000;  598.000;  723.580
1122.592;  550.250;  514.000;  655.420
1123.133;  447.550;  473.000;  547.940
1123.673;  589.650;  586.000;  706.480
1124.214;  511.000;  511.000;  612.460
1124.755;  542.900;  537.000;  639.460
1125.296;  515.500;  505.000;  627.320
1125.836;  577.050;  570.000;  691.500
1126.377;  497.750;  467.000;  599.660
1126.918;  515.800;  505.000;  614.980
1127.458;  514.900;  528.000;  622.220
1127.999;  542.550;  548.000;  656.980
1128.539;  572.950;  545.000;  694.240
1129.079;  525.600;  527.000;  632.720
1129.620;  460.800;  440.000;  558.100
1130.160;  452.450;  456.000;  539.480
1130.700;  530.850;  512.000;  640.840
1131.240;  539.350;  546.000;  643.700
1131.781;  512.350;  535.000;  619.680
1132.321;  500.600;  504.000;  599.120
1132.861;  466.550;  446.000;  564.200
1133.401;  499.350;  484.000;  593.940
1133.941;  512.600;  551.000;  626.280
1134.481;  506.500;  505.000;  597.580
1135.020;  502.550;  488.000;  609.160
1135.560;  563.050;  567.000;  674.940
1136.100;  410.250;  398.000;  501.160
1136.640;  420.450;  411.000;  510.480
1137.179;  447.350;  428.000;  537.960
1137.719;  499.450;  486.000;  605.400
1138.258;  475.250;  501.000;  587.360
1138.798;  545.000;  547.000;  663.780
1139.337;  399.950;  369.000;  482.840
1139.877;  538.900;  524.000;  642.360
1140.416;  736.050;  763.000;  878.060
1140.955;  431.000;  404.000;  535.380
1141.494;  565.850;  559.000;  669.280
1142.034;  481.200;  482.000;  583.520
1142.573;  538.950;  560.000;  646.280
1143.112;  460.450;  469.000;  553.480
1143.651;  444.400;  452.000;  536.480
1144.190;  572.850;  551.000;  691.640
1144.729;  495.500;  479.000;  607.420
1145.267;  479.600;  500.000;  584.900
1145.806;  533.400;  544.000;  637.040
1146.345;  529.850;  528.000;  635.020
1146.884;  514.800;  499.000;  622.500
1147.422;  432.550;  443.000;  533.060
1147.961;  595.950;  580.000;  708.460
1148.500;  555.000;  556.000;  669.720
1149.038;  532.200;  532.000;  632.500
1149.577;  577.400;  607.000;  698.640
1150.115;  366.400;  325.000;  452.280
1150.653;  498.050;  512.000;  607.340
1151.192;  455.700;  456.000;  552.920
1151.730;  542.850;  562.000;  652.560
1152.268;  488.550;  471.000;  589.520
1152.806;  471.450;  494.000;  571.180
1153.344;  470.450;  484.000;  577.640
1153.882;  498.750;  494.000;  600.060
1154.421;  378.450;  363.000;  470.620
1154.958;  491.000;  501.000;  595.240
1155.496;  530.500;  553.000;  645.280
1156.034;  598.300;  600.000;  721.880
1156.572;  561.750;  537.000;  667.060
1157.110;  384.900;  367.000;  473.940
1157.647;  566.450;  576.000;  676.960
1158.185;  470.650;  484.000;  564.320
1158.723;  421.600;  412.000;  509.200
1159.260;  574.850;  588.000;  701.700
1159.798;  547.200;  555.000;  658.160
1160.335;  512.700;  536.000;  631.820

