
Integration time [ms]:   3.276
Averaging Nr. [scans]: 1000
Smoothing Nr. [pixels]: 0
Data measured with spectrometer [name]: 7414430SP
Wave   ;Sample   ;Dark     ;Reference
[nm]   ;[counts] ;[counts] ;[counts] 

288.544;  149.423;    7.793;  793.890
289.143;  154.512;    7.462;  681.602
289.742;  153.513;    8.602;  828.814
290.341;  139.082;    1.321;  789.841
290.940;  128.437;   -0.709;  730.702
291.538;  129.574;    0.881;  881.108
292.137;  129.645;    0.122;  792.581
292.736;  133.009;   -1.929;  975.101
293.335;  130.975;   -8.229;  735.086
293.934;  131.652;   -5.279;  781.677
294.532;  128.897;   -1.369; 1031.958
295.131;  115.624;   -7.641;  834.394
295.730;  114.920;   -8.420;  809.588
296.328;  114.733;   -5.611;  783.442
296.927;  115.325;   -5.781;  779.652
297.525;  115.777;   -6.361;  781.236
298.124;  106.286;  -11.382;  654.009
298.722;  110.382;   -7.641;  761.933
299.321;  107.657;   -6.811;  708.597
299.919;  105.940;   -6.991;  751.918
300.518;  103.322;  -10.362;  689.338
301.116;  104.840;   -9.581;  691.381
301.715;  104.777;   -4.891;  730.222
302.313;  103.720;   -8.801;  704.943
302.911;   98.961;   -8.522;  733.830
303.509;  103.755;   -6.171;  925.627
304.108;  101.929;   -7.311;  760.383
304.706;  100.981;   -8.321;  801.664
305.304;   95.819;  -10.222;  796.707
305.902;  101.163;   -6.021;  784.484
306.500;   96.194;   -4.971;  728.200
307.098;   95.314;   -7.061;  746.560
307.696;   93.518;   -8.801;  780.432
308.294;   93.415;   -6.411;  731.359
308.892;   95.576;   -2.901;  759.769
309.490;   91.838;   -5.041;  712.161
310.088;   90.784;   -5.002;  788.444
310.686;   94.445;   -2.041;  821.749
311.284;   89.477;   -2.351;  766.040
311.882;   88.053;   -4.422;  731.225
312.480;   84.830;   -4.192;  697.167
313.078;   86.899;   -1.172;  808.331
313.675;   86.480;   -2.601;  691.600
314.273;   81.723;   -1.312;  797.837
314.871;   81.593;   -3.942;  589.829
315.468;   79.281;   -2.802;  652.090
316.066;   82.159;   -0.701;  694.427
316.664;   75.066;   -4.362;  656.351
317.261;   79.726;   -2.872;  910.128
317.859;   74.776;   -2.022;  768.735
318.456;   74.843;   -0.531;  830.096
319.054;   71.368;   -3.912;  787.828
319.651;   70.569;   -4.752;  759.928
320.249;   69.335;   -2.602;  810.188
320.846;   66.303;   -0.821;  714.286
321.443;   63.951;   -4.642;  832.135
322.041;   61.280;   -5.002;  812.315
322.638;   59.137;   -3.982;  701.456
323.235;   60.255;   -3.411;  665.683
323.833;   57.489;   -7.361;  740.354
324.430;   53.053;   -8.611;  615.900
325.027;   53.826;   -4.061;  876.855
325.624;   53.273;   -4.031;  644.532
326.221;   49.926;   -7.481;  689.717
326.818;   50.108;   -5.281;  818.332
327.415;   54.010;   -7.460;  748.828
328.012;   52.759;   -5.510;  690.585
328.609;   50.431;   -7.880;  731.389
329.206;   50.005;   -8.331;  778.621
329.803;   49.260;   -5.121;  737.841
330.400;   51.897;   -4.510;  704.260
330.997;   53.076;   -6.441;  817.147
331.594;   52.498;   -8.831;  788.185
332.191;   57.753;   -7.621;  728.722
332.787;   60.139;   -4.591;  844.463
333.384;   58.385;   -7.412;  763.093
333.981;   57.867;   -8.293;  815.687
334.578;   61.165;   -7.052;  708.378
335.174;   63.338;   -3.102;  731.469
335.771;   62.582;   -5.943;  836.456
336.367;   60.232;   -7.393;  710.631
336.964;   63.204;   -4.063;  793.266
337.561;   61.443;   -3.813;  731.112
338.157;   57.644;   -4.654;  911.916
338.754;   54.656;   -7.934;  796.589
339.350;   52.861;   -4.414;  722.493
339.946;   55.246;   -4.664;  773.135
340.543;   46.673;   -6.375;  846.136
341.139;   42.236;   -9.815;  720.836
341.735;   39.934;   -4.526;  772.593
342.332;   38.046;   -4.895;  691.472
342.928;   38.849;   -4.295;  795.394
343.524;   32.222;   -5.476;  761.684
344.120;   28.729;   -5.856;  738.562
344.716;   31.795;   -2.155;  723.717
345.313;   29.526;   -6.275;  795.342
345.909;   24.281;   -8.815;  627.336
346.505;   26.213;   -5.305;  740.247
347.101;   27.019;   -2.674;  827.864
347.697;   26.837;   -4.344;  785.398
348.293;   21.326;   -9.975;  627.244
348.889;   23.287;   -5.774;  745.914
349.485;   22.116;   -5.004;  688.205
350.081;   22.918;   -4.704;  772.592
350.676;   18.422;   -6.635;  691.606
351.272;   22.528;   -4.504;  809.530
351.868;   21.966;   -3.914;  780.497
352.464;   19.071;   -9.044;  723.932
353.059;   15.431;   -8.314;  646.017
353.655;   19.143;   -7.024;  777.063
354.251;   19.620;   -5.343;  759.845
354.846;   13.588;   -8.604;  740.646
355.442;   12.099;   -6.945;  753.071
356.038;   14.036;   -7.564;  751.708
356.633;   13.953;   -5.814;  728.594
357.229;   11.484;   -7.364;  724.757
357.824;   10.363;   -8.024;  703.600
358.420;    9.293;   -9.384;  679.726
359.015;    9.683;   -5.104;  695.357
359.610;   11.040;   -6.854;  763.920
360.206;    5.040;  -10.185;  603.240
360.801;    7.622;   -7.054;  646.503
361.396;   10.217;   -5.034;  725.975
361.992;    4.942;   -8.284;  668.220
362.587;    2.717;   -8.625;  670.160
363.182;    4.882;   -7.674;  689.631
363.777;    5.622;   -5.164;  738.242
364.372;    5.231;   -8.604;  737.314
364.967;    1.176;   -9.055;  680.744
365.563;    5.901;   -6.114;  815.567
366.158;    2.931;   -5.814;  685.161
366.753;    2.928;   -7.854;  649.263
367.348;    2.347;   -7.804;  746.056
367.942;    1.771;   -7.954;  697.298
368.537;    0.178;   -4.984;  754.245
369.132;    0.316;   -8.564;  703.428
369.727;   -3.538;   -8.855;  638.079
370.322;   -2.281;   -6.245;  580.186
370.917;   -2.695;   -6.425;  710.646
371.511;    0.283;   -6.294;  861.834
372.106;   -2.960;   -7.685;  776.964
372.701;   -5.684;   -7.335;  585.988
373.296;   -0.121;   -4.564;  863.135
373.890;   -5.442;  -10.235;  647.840
374.485;   -7.196;   -7.885;  691.199
375.079;   -3.358;   -7.324;  738.685
375.674;   -2.640;   -3.494;  812.970
376.268;   -6.525;   -8.525;  691.759
376.863;  -11.808;  -10.086;  580.327
377.457;   -6.435;   -7.025;  662.490
378.052;   -7.870;   -3.585;  764.884
378.646;   -8.949;   -7.595;  741.167
379.240;   -9.111;   -8.335;  721.176
379.835;   -7.988;   -5.785;  636.978
380.429;   -9.971;   -4.335;  562.557
381.023;  -10.025;   -6.805;  779.205
381.617;  -12.105;   -9.195;  680.106
382.212;   -8.694;   -6.905;  685.303
382.806;   -8.541;   -3.745;  760.690
383.400;  -12.890;   -7.745;  672.281
383.994;  -13.298;   -9.765;  664.870
384.588;   -9.460;   -6.564;  697.701
385.182;   -8.905;   -5.344;  726.624
385.776;  -10.483;   -8.514;  706.875
386.370;  -12.880;   -9.555;  681.968
386.964;  -11.372;   -8.715;  684.155
387.558;  -10.660;   -6.174;  598.360
388.152;  -13.665;   -8.725;  681.959
388.745;  -11.694;   -7.965;  814.707
389.339;   -9.880;   -5.924;  747.642
389.933;   -9.479;   -5.524;  695.370
390.527;  -10.181;   -7.114;  859.029
391.120;  -16.904;  -10.725;  595.318
391.714;  -13.633;   -8.035;  711.633
392.308;  -10.785;   -3.574;  780.253
392.901;  -14.379;   -7.245;  642.460
393.495;  -16.367;   -9.285;  595.414
394.089;  -13.689;   -5.895;  760.452
394.682;  -13.996;   -4.295;  697.188
395.275;  -15.021;   -9.875;  719.927
395.869;  -16.111;   -8.485;  667.314
396.462;  -14.350;   -7.455;  616.609
397.056;  -11.498;   -5.424;  776.621
397.649;  -16.337;   -6.605;  731.575
398.242;  -13.721;   -8.224;  712.645
398.836;  -12.527;   -7.474;  766.408
399.429;  -13.349;   -7.094;  631.041
400.022;  -16.774;   -9.475;  665.902
400.615;  -14.657;   -7.145;  805.609
401.208;  -12.139;   -7.174;  691.451
401.802;  -15.289;   -5.515;  699.329
402.395;  -15.600;   -9.875;  683.502
402.988;  -16.784;   -8.845;  696.627
403.581;  -12.890;   -8.874;  646.878
404.174;  -11.732;   -5.324;  686.568
404.767;  -14.756;   -9.575;  638.583
405.360;  -17.025;  -10.965;  621.445
405.953;  -11.946;   -8.764;  759.034
406.545;  -11.257;   -7.514;  725.342
407.138;  -14.965;  -10.025;  618.350
407.731;  -14.549;  -10.034;  613.303
408.324;   -9.757;   -9.374;  660.554
408.917;  -11.097;   -6.534;  681.864
409.509;  -12.202;   -8.004;  740.396
410.102;  -14.532;   -9.875;  643.948
410.695;   -8.313;   -8.604;  665.758
411.287;  -10.125;   -6.794;  599.821
411.880;  -11.090;   -9.334;  585.421
412.472;  -13.696;  -10.254;  613.092
413.065;  -10.982;   -6.714;  629.408
413.657;   -9.365;   -7.234;  576.678
414.250;   -8.677;  -10.544;  646.681
414.842;  -10.666;   -9.744;  676.353
415.434;   -8.042;   -6.994;  570.463
416.027;   -4.935;   -5.893;  652.196
416.619;   -7.136;   -7.264;  713.400
417.211;   -7.049;  -10.374;  599.352
417.804;   -3.290;   -7.993;  628.499
418.396;   -8.057;   -7.234;  607.643
418.988;   -5.406;   -9.443;  659.238
419.580;   -8.312;  -10.724;  568.276
420.172;   -5.682;  -10.323;  536.196
420.764;   -2.215;   -8.793;  672.482
421.356;   -3.147;  -11.143;  636.898
421.948;   -4.235;   -8.293;  677.661
422.540;    1.627;   -7.893;  680.027
423.132;    0.321;   -7.082;  600.641
423.724;   -3.469;   -8.653;  561.267
424.316;   -1.179;  -10.213;  621.345
424.908;    2.722;   -9.762;  591.517
425.500;    3.063;   -5.572;  647.978
426.092;    2.951;   -8.422;  648.268
426.683;    2.116;   -9.283;  684.836
427.275;    5.154;   -7.852;  641.471
427.867;    6.967;   -5.272;  668.948
428.458;    7.135;   -7.682;  732.344
429.050;    5.810;  -10.612;  680.749
429.642;    7.357;   -9.882;  743.124
430.233;    8.881;   -6.962;  569.356
430.825;    9.196;   -6.842;  724.809
431.416;    6.986;   -9.672;  698.241
432.008;   10.858;   -6.552;  651.723
432.599;   10.829;   -6.891;  656.073
433.190;    7.748;  -10.912;  637.670
433.782;    7.712;  -11.172;  590.395
434.373;   15.325;   -6.061;  884.765
434.964;   13.458;   -8.251;  602.920
435.556;   11.089;   -9.722;  634.537
436.147;   14.263;   -9.082;  758.490
436.738;   14.639;   -8.041;  701.099
437.329;   18.994;   -7.341;  721.723
437.920;   12.038;   -8.162;  666.688
438.511;   12.435;  -11.802;  564.526
439.103;   18.764;  -10.191;  623.998
439.694;   19.655;   -7.601;  681.583
440.285;   20.441;   -8.541;  764.432
440.876;   19.123;   -9.751;  845.738
441.466;   18.609;   -9.401;  575.162
442.057;   23.656;   -7.760;  665.814
442.648;   23.606;   -9.971;  746.255
443.239;   20.998;  -11.001;  620.477
443.830;   26.822;   -7.990;  704.958
444.421;   27.750;   -7.910;  655.474
445.011;   24.562;   -8.131;  693.619
445.602;   23.514;   -7.111;  743.126
446.193;   25.808;  -10.920;  488.117
446.783;   30.346;   -6.500;  640.397
447.374;   26.272;   -8.671;  692.759
447.964;   25.987;  -10.781;  713.770
448.555;   34.957;   -9.650;  822.742
449.145;   31.309;   -8.660;  662.853
449.736;   31.614;   -8.990;  803.179
450.326;   32.141;   -9.500;  713.626
450.917;   36.964;   -8.680;  675.324
451.507;   36.155;   -7.520;  600.661
452.097;   36.763;   -8.590;  746.267
452.688;   37.917;  -11.340;  742.160
453.278;   37.786;  -10.100;  566.840
453.868;   41.817;   -6.019;  793.550
454.458;   39.724;   -9.440;  651.141
455.048;   40.372;  -10.560;  711.783
455.639;   42.260;  -11.799;  567.096
456.229;   45.101;   -6.899;  710.694
456.819;   46.232;   -7.389;  751.158
457.409;   47.545;  -11.119;  773.993
457.999;   49.850;   -9.289;  737.505
458.589;   49.883;   -6.139;  686.606
459.179;   49.760;   -8.729;  717.658
459.769;   47.869;   -9.789;  627.099
460.358;   52.330;  -10.259;  797.262
460.948;   52.545;   -7.299;  689.503
461.538;   53.875;  -10.289;  660.677
462.128;   51.898;  -11.269;  664.934
462.717;   58.948;   -9.368;  710.326
463.307;   60.980;   -7.908;  705.846
463.897;   57.431;   -9.599;  656.942
464.486;   56.874;   -9.769;  837.128
465.076;   61.298;   -8.048;  733.776
465.666;   64.875;   -9.358;  652.900
466.255;   62.652;   -7.919;  785.651
466.845;   61.632;  -11.689;  666.749
467.434;   64.659;   -7.818;  725.873
468.023;   65.441;   -7.678;  658.357
468.613;   63.216;  -10.939;  713.946
469.202;   67.608;  -10.118;  646.507
469.791;   71.795;   -9.108;  737.811
470.381;   74.065;   -6.058;  742.813
470.970;   72.798;  -10.428;  711.099
471.559;   72.677;  -10.268;  733.291
472.148;   76.599;   -8.448;  675.737
472.738;   78.449;   -6.917;  765.466
473.327;   77.990;  -11.978;  637.529
473.916;   77.815;  -11.888;  737.446
474.505;   82.905;   -9.437;  751.703
475.094;   84.337;   -6.747;  806.570
475.683;   84.150;   -9.367;  797.699
476.272;   85.358;  -12.637;  730.632
476.861;   88.234;  -10.027;  706.754
477.449;   95.284;   -8.716;  728.487
478.038;   88.524;   -9.577;  692.513
478.627;   89.683;   -9.718;  714.852
479.216;   96.637;   -8.947;  769.441
479.805;   99.267;   -6.256;  783.375
480.393;   98.831;   -7.937; 1008.945
480.982;   97.550;   -7.717;  874.501
481.571;  105.123;   -9.266;  858.333
482.159;  104.353;   -7.636;  705.386
482.748;  104.160;   -9.667;  821.385
483.336;  108.900;  -10.376;  858.209
483.925;  110.635;   -7.147;  774.373
484.513;  116.787;   -7.996;  758.962
485.102;  113.050;  -10.027;  810.965
485.690;  121.223;  -10.446; 1011.050
486.278;  123.459;   -8.446;  979.329
486.867;  123.606;   -6.356;  809.662
487.455;  125.627;   -9.136;  898.229
488.043;  127.830;  -10.646;  748.361
488.631;  136.109;   -7.456; 1005.079
489.220;  139.330;   -6.636;  908.626
489.808;  139.448;  -11.036;  741.415
490.396;  147.371;  -10.246;  914.645
490.984;  153.251;   -8.556;  830.161
491.572;  162.669;   -5.886;  940.315
492.160;  167.741;   -9.486;  919.081
492.748;  179.052;  -10.976;  884.341
493.336;  202.620;   -8.776; 1019.693
493.924;  226.704;   -5.465;  958.077
494.512;  253.413;   -9.986; 1066.638
495.100;  289.470;  -10.636; 1103.280
495.687;  343.474;  -10.885; 1206.373
496.275;  404.171;   -8.126; 1150.796
496.863;  469.320;  -10.586; 1281.171
497.451;  567.918;  -11.926; 1386.805
498.038;  695.278;  -10.885; 1556.729
498.626;  795.511;   -6.315; 1741.407
499.214;  929.824;   -7.326; 2016.609
499.801; 1129.054;  -11.906; 2220.633
500.389; 1363.466;  -10.466; 2312.494
500.976; 1671.377;   -5.236; 2744.849
501.564; 2086.077;   -8.936; 3148.565
502.151; 2463.645;  -13.176; 3515.999
502.738; 2907.481;  -10.646; 3971.274
503.326; 3264.694;   -9.525; 4403.796
503.913; 3622.477;  -10.856; 5161.749
504.500; 3969.908;  -11.586; 5986.420
505.088; 4345.495;  -10.336; 6381.201
505.675; 4865.428;   -6.355; 6925.547
506.262; 5552.458;   -9.046; 7619.060
506.849; 6207.575;  -10.416; 8733.969
507.436; 6664.571;  -10.305; 9790.121
508.023; 7241.000;   -5.496; 9985.472
508.610; 7476.341;   -7.856;10434.618
509.197; 8089.911;  -10.097;11198.435
509.784; 9436.015;  -10.886;12391.194
510.371;10391.803;   -9.315;13603.713
510.958;11043.069;   -9.936;14426.586
511.545;11796.757;   -9.326;15243.775
512.132;12752.173;  -10.075;15945.876
512.719;13448.219;   -7.796;16340.369
513.305;14324.465;  -10.606;18011.766
513.892;15052.968;  -11.486;19754.971
514.479;16324.688;   -9.126;20967.805
515.066;17578.967;   -6.026;22299.793
515.652;18734.141;   -8.466;22908.660
516.239;20188.809;  -10.886;23798.875
516.825;21383.969;  -11.496;25567.275
517.412;22551.502;   -5.796;28154.959
517.998;23056.549;  -10.506;28344.111
518.585;22963.408;  -10.076;27134.219
519.171;23487.984;   -8.315;27268.576
519.758;24955.682;   -8.596;28964.129
520.344;26533.805;   -8.466;30664.494
520.930;26566.037;  -11.006;32550.605
521.516;28455.439;  -10.495;35422.895
522.103;30831.051;   -5.526;38280.004
522.689;31557.455;   -8.746;37835.117
523.275;30690.514;  -11.376;37288.613
523.861;31320.273;  -11.156;37281.395
524.447;32655.428;   -8.135;37846.949
525.033;32507.590;   -7.896;38321.949
525.619;32646.803;  -12.476;38579.285
526.205;34438.844;   -9.516;40622.875
526.791;36731.758;   -6.926;42258.836
527.377;36900.520;   -8.346;42966.902
527.963;38550.191;   -8.717;42018.949
528.549;36876.336;  -11.016;42476.828
529.135;35756.137;   -8.536;41854.852
529.721;35475.887;   -9.666;41237.711
530.306;35011.723;  -10.066;41259.445
530.892;34713.895;  -11.356;41506.047
531.478;36071.324;   -6.596;43559.613
532.063;38786.258;   -8.836;47695.563
532.649;38781.063;  -10.047;50808.324
533.235;39955.418;   -9.746;51787.500
533.820;41111.844;   -6.566;52145.035
534.406;42459.066;  -10.817;51133.488
534.991;42326.551;   -9.416;49996.805
535.576;40986.281;   -9.036;48882.852
536.162;41261.176;   -6.156;46942.285
536.747;42371.965;  -11.607;45711.746
537.333;46433.758;  -11.787;48510.180
537.918;48732.734;  -12.437;50439.891
538.503;47028.898;   -7.196;50863.711
539.088;44482.289;  -10.556;50906.922
539.673;44528.273;   -8.767;52621.965
540.259;44089.512;  -10.026;52368.094
540.844;41372.129;   -7.416;50879.109
541.429;42486.434;   -9.467;52077.777
542.014;45484.809;   -9.527;52716.695
542.599;44830.473;   -9.946;52363.281
543.184;42897.082;   -7.927;53187.137
543.769;44732.234;   -9.297;54697.605
544.354;43793.715;  -10.127;53913.914
544.938;42546.672;   -9.267;49680.164
545.523;44263.512;   -6.506;47386.277
546.108;46327.543;   -9.787;49151.949
546.693;48570.332;  -11.587;51384.637
547.278;48622.340;  -10.986;51853.254
547.862;45633.242;   -8.206;51173.750
548.447;41173.207;  -10.067;51691.395
549.031;40821.754;   -9.637;52456.703
549.616;45656.031;   -9.926;52714.516
550.201;44439.027;   -6.347;52414.598
550.785;45564.781;   -7.917;52355.059
551.370;44932.590;  -10.867;54589.453
551.954;45265.324;   -9.047;58267.348
552.538;46023.770;   -7.827;59062.176
553.123;44521.820;  -10.287;58115.285
553.707;42774.172;  -12.178;56556.285
554.291;43744.895;   -8.717;56201.668
554.876;45444.051;   -7.457;55335.762
555.460;45960.109;  -10.387;54155.703
556.044;47292.211;   -9.618;53721.484
556.628;45750.082;  -11.567;53731.016
557.212;44304.484;   -8.097;54312.531
557.796;42969.352;  -11.077;53797.773
558.380;42586.754;  -11.108;56145.984
558.964;42838.672;   -9.057;57277.930
559.548;43632.313;   -6.977;56459.641
560.132;42405.965;  -11.457;54434.543
560.716;41509.723;  -11.378;54800.617
561.300;42818.691;   -9.577;57606.945
561.884;43770.680;   -7.127;58972.445
562.467;42495.992;   -7.118;57327.570
563.051;41559.480;  -13.358;54962.434
563.635;42202.066;  -10.178;52594.473
564.219;42779.109;   -7.837;50610.410
564.802;43719.254;  -11.398;49551.180
565.386;43932.496;  -12.788;48370.953
565.969;43449.598;   -9.077;48178.871
566.553;43187.098;   -6.207;49957.305
567.136;43097.672;   -8.568;50369.594
567.720;39090.844;  -11.868;49492.004
568.303;37166.492;   -8.268;50616.352
568.887;37393.594;   -8.698;50727.148
569.470;37511.789;   -6.808;51698.379
570.053;36132.184;  -13.188;52122.078
570.637;34650.773;  -12.037;52536.438
571.220;34290.410;   -8.577;51186.098
571.803;34635.973;   -8.498;51032.762
572.386;37261.492;  -10.498;49609.887
572.969;39549.629;   -9.388;48285.926
573.552;37297.305;   -8.338;47624.285
574.135;36054.535;   -8.518;45498.641
574.718;33727.109;  -13.628;41970.434
575.301;32414.416;  -10.893;41447.137
575.884;31101.723;   -8.158;40923.836
576.467;32443.342;  -10.328;45267.723
577.050;34941.402;  -13.058;48175.543
577.633;35919.387;   -9.458;47729.328
578.216;34076.570;   -8.928;47579.793
578.799;32706.066;   -9.358;47820.996
579.381;31489.752;  -11.388;48115.551
579.964;31009.100;  -11.718;47333.766
580.547;33183.105;   -8.588;46668.969
581.129;34473.828;   -8.859;44466.141
581.712;34860.473;  -10.729;44164.922
582.294;35504.684;  -11.118;46477.855
582.877;35438.477;   -5.218;48244.254
583.459;32899.004;   -8.679;47437.895
584.042;31250.383;  -10.709;46943.219
584.624;32245.023;  -11.669;46792.227
585.206;31555.404;   -8.218;46557.250
585.789;31587.303;  -10.569;45793.773
586.371;33842.004;  -11.859;43836.391
586.953;33441.688;  -10.719;42972.492
587.536;33695.262;   -7.198;42487.211
588.118;31629.857;   -8.720;42086.414
588.700;27083.514;  -10.439;43389.930
589.282;26114.875;   -9.198;43646.039
589.864;28983.789;   -9.199;43438.109
590.446;32217.328;  -11.319;43151.926
591.028;33274.027;  -11.159;42781.867
591.610;32937.336;  -11.779;42839.098
592.192;30974.385;   -7.668;42820.402
592.774;29729.123;  -11.949;40724.277
593.356;28494.066;  -12.129;39874.789
593.937;27556.750;  -10.669;39980.648
594.519;29816.883;   -6.509;42069.633
595.101;31859.701;  -10.849;42976.031
595.683;31774.813;  -11.679;44084.441
596.264;32921.570;   -9.049;43478.797
596.846;32026.510;   -8.849;43803.672
597.427;31689.529;   -9.570;42986.934
598.009;33349.746;  -12.620;42832.219
598.591;33579.379;  -10.039;42580.086
599.172;32401.115;  -10.369;43061.805
599.753;32469.750;   -9.140;41691.469
600.335;34062.164;  -11.430;40692.520
600.916;32624.838;   -9.939;39982.422
601.498;30318.113;   -8.479;40318.617
602.079;28882.361;  -10.920;40670.609
602.660;29121.287;  -11.480;41450.898
603.241;30542.961;  -11.699;41137.738
603.823;29362.760;   -9.579;38868.797
604.404;29580.549;  -10.620;38182.785
604.985;30771.297;  -10.450;38078.047
605.566;30065.703;   -9.129;38056.633
606.147;30235.635;   -7.510;37020.418
606.728;32061.484;  -10.660;37883.359
607.309;30822.014;  -11.740;38748.273
607.890;30173.430;   -9.759;38850.230
608.471;29697.033;   -8.250;37457.918
609.051;28661.270;   -9.240;36066.457
609.632;27691.465;  -12.120;35991.074
610.213;28705.730;   -9.110;37402.641
610.794;29191.174;   -8.030;38383.363
611.374;28556.596;   -8.110;40562.387
611.955;28843.029;  -13.560;38533.727
612.536;30086.047;  -11.400;36951.789
613.116;30324.434;   -8.070;37197.891
613.697;30452.285;  -10.830;38411.125
614.277;29228.100;  -11.641;38673.938
614.858;30143.602;  -13.310;37075.863
615.438;29121.744;   -7.460;35092.906
616.019;26256.748;   -7.601;33666.301
616.599;27120.088;  -12.020;34189.023
617.179;28889.396;  -11.780;36952.047
617.760;29668.664;   -8.570;39582.574
618.340;30774.965;  -11.471;38943.977
618.920;32083.902;  -11.170;37594.156
619.500;31968.082;  -11.071;37866.938
620.080;31368.168;   -7.750;37869.043
620.660;32534.521;  -12.711;36868.617
621.241;33876.305;  -10.211;36352.309
621.821;33947.695;  -10.961;35459.520
622.401;32886.711;   -7.720;35207.414
622.980;32116.199;   -8.981;35980.422
623.560;30811.781;   -9.331;37351.328
624.140;29869.906;   -9.850;34388.582
624.720;24559.029;   -7.451;32368.764
625.300;21028.555;   -9.070;32638.629
625.880;24395.930;  -12.601;34599.035
626.459;28466.967;  -11.751;36831.738
627.039;31624.016;   -9.281;38299.098
627.619;31556.912;   -8.801;38289.574
628.198;29807.572;  -12.071;37220.695
628.778;28915.934;   -9.461;37632.563
629.357;29700.127;   -8.491;38003.012
629.937;29825.572;   -9.721;38402.039
630.516;29110.457;   -9.951;37868.801
631.096;28601.021;  -11.731;35760.410
631.675;32024.971;   -8.572;35225.219
632.254;36925.566;  -11.282;35130.289
632.834;36240.410;  -13.322;35794.570
633.413;34152.387;  -10.301;35788.922
633.992;30997.287;   -8.582;34532.863
634.571;31912.393;   -8.352;33590.113
635.151;34653.293;  -11.912;34943.863
635.730;33110.984;  -10.511;35352.523
636.309;30047.590;   -7.731;35366.605
636.888;27954.074;   -9.952;36165.637
637.467;29115.191;  -11.672;37515.902
638.046;30685.607;   -8.901;39288.695
638.625;33747.887;   -7.912;38279.699
639.204;33377.922;  -10.022;37741.598
639.782;31744.559;  -12.252;38364.551
640.361;27807.688;  -10.041;36740.621
640.940;25024.010;  -11.161;34950.082
641.519;25625.996;   -9.701;34137.398
642.097;28796.838;  -11.271;35654.258
642.676;31634.428;   -8.651;35637.957
643.255;31869.150;   -8.711;36567.074
643.833;30959.428;   -9.581;37809.434
644.412;31229.559;  -13.711;37337.293
644.990;30683.545;  -11.811;37018.531
645.569;31179.695;   -9.411;36518.469
646.147;29815.670;  -10.291;36186.430
646.726;28867.170;  -12.401;36267.688
647.304;29752.654;  -10.411;36647.625
647.882;32023.791;   -9.651;39286.742
648.461;33873.184;   -9.631;39157.703
649.039;31821.094;  -11.881;35412.883
649.617;31178.846;   -9.661;34744.918
650.195;30930.471;   -9.301;35403.098
650.773;29355.580;  -10.511;35053.797
651.352;27171.932;  -11.521;33756.816
651.930;24970.729;  -12.211;31868.773
652.508;23358.014;   -9.171;33121.551
653.086;27276.002;   -9.371;33564.793
653.663;29802.402;  -13.161;34054.668
654.241;29043.012;  -13.031;35693.309
654.819;30809.047;   -9.371;36422.906
655.397;30843.578;  -10.511;38213.484
655.975;30714.475;  -10.371;39507.625
656.553;30193.781;  -10.051;39498.223
657.130;28596.287;  -10.061;40395.480
657.708;28209.891;   -9.561;39242.020
658.286;28165.729;  -11.511;38920.020
658.863;29177.543;  -10.261;40202.898
659.441;32161.809;   -7.531;39677.938
660.018;31467.949;   -9.501;40413.355
660.596;30475.920;  -13.301;39931.414
661.173;32619.766;  -11.211;39604.531
661.750;32833.645;   -9.951;39700.070
662.328;31898.859;   -9.390;39292.809
662.905;30752.512;  -11.330;38235.648
663.482;26034.994;   -9.050;36212.305
664.060;24261.477;   -8.240;35944.945
664.637;27124.732;  -10.050;35170.785
665.214;29052.771;  -11.760;34197.523
665.791;30217.000;  -10.530;34549.520
666.368;28931.039;   -9.690;35118.578
666.945;30174.813;   -9.320;36019.418
667.522;31670.627;  -11.860;36048.438
668.099;31508.334;  -10.770;36243.914
668.676;30472.008;   -6.260;35958.875
669.253;29085.391;   -7.000;37384.730
669.830;29763.488;  -10.190;36779.629
670.407;29424.762;   -9.550;35231.289
670.984;29799.748;   -9.260;35544.270
671.560;30114.803;   -9.280;35466.867
672.137;28865.236;  -11.810;34280.863
672.714;29618.955;  -11.490;34632.863
673.290;30078.035;   -7.740;35135.422
673.867;30454.414;  -10.660;36114.480
674.443;30047.383;  -12.230;36152.859
675.020;28502.467;  -10.450;35327.238
675.596;29809.412;   -9.260;35795.176
676.173;30299.826;  -10.780;35430.355
676.749;30264.881;  -13.690;33549.516
677.326;30338.498;  -11.980;32210.012
677.902;30226.887;   -8.630;32068.871
678.478;29390.801;  -10.730;32583.891
679.054;29044.746;  -10.520;32088.928
679.631;29263.313;  -11.920;30978.848
680.207;30742.314;   -7.490;33160.887
680.783;32375.922;   -9.860;35570.363
681.359;31466.531;  -13.380;36125.184
681.935;30766.400;  -12.480;35240.922
682.511;29625.830;   -7.900;34429.961
683.087;29720.555;   -7.710;34463.680
683.663;29576.680;  -11.480;34648.898
684.239;28254.652;  -14.090;34546.457
684.815;28026.344;   -7.560;35586.375
685.390;28469.957;   -9.910;35821.895
685.966;28945.270;  -11.159;35085.871
686.542;31518.965;  -11.169;34198.230
687.118;33304.523;   -5.959;32847.707
687.693;33139.461;  -10.329;32794.027
688.269;32885.535;  -12.059;33072.367
688.844;31062.182;  -10.909;33141.664
689.420;28809.779;   -8.019;33965.742
689.995;26428.555;   -8.399;34655.523
690.571;25256.576;  -10.949;33576.742
691.146;25900.455;   -9.619;32657.219
691.722;25313.352;   -8.999;32526.979
692.297;25728.941;  -11.589;33014.617
692.872;27664.518;  -11.739;34012.254
693.448;26876.016;  -11.059;34237.434
694.023;26106.111;  -10.139;34142.672
694.598;28223.352;   -9.029;34132.031
695.173;28345.461;  -13.319;34205.250
695.748;27719.939;  -10.169;32882.488
696.323;27637.529;   -8.339;32864.906
696.898;27921.936;   -8.169;33170.004
697.473;27589.504;  -12.309;32432.984
698.048;27009.920;  -10.989;31649.303
698.623;27303.734;   -9.329;30778.141
699.198;29432.301;   -9.849;31140.119
699.773;29976.000;  -12.329;31764.299
700.348;28272.773;  -10.389;31780.816
700.922;28252.727;   -9.269;32046.375
701.497;28749.551;   -9.329;32603.574
702.072;28674.168;  -10.789;34799.871
702.646;27581.570;  -10.839;35793.172
703.221;26137.816;   -9.099;35201.590
703.795;28104.639;  -10.939;34764.527
704.370;28262.018;  -12.859;34307.367
704.944;28785.547;  -11.559;33509.887
705.519;29784.012;   -7.939;31388.584
706.093;31397.146;  -10.499;31340.104
706.668;31441.121;  -11.289;32630.281
707.242;30392.928;  -11.509;32728.779
707.816;28860.301;   -9.639;32947.238
708.390;27308.893;  -11.429;33277.855
708.965;28131.955;  -11.869;33834.336
709.539;28714.797;  -11.689;33709.273
710.113;29261.529;  -10.478;33044.313
710.687;28175.928;  -10.228;31953.992
711.261;26313.785;  -13.698;30505.949
711.835;26338.449;  -13.378;30262.369
712.409;27354.129;   -9.698;31254.447
712.983;28979.480;  -11.898;32754.986
713.557;29680.172;  -15.138;34018.824
714.131;29299.674;  -14.098;34579.625
714.704;28386.271;   -9.958;33890.262
715.278;26249.066;  -10.028;33531.102
715.852;25568.273;  -11.148;33601.660
716.425;26581.566;   -9.068;33515.117
716.999;27190.625;  -10.038;33185.555
717.573;28161.346;   -9.798;33905.996
718.146;29203.789;  -12.378;35199.293
718.720;28819.410;  -11.918;35060.551
719.293;28258.496;   -8.088;34973.230
719.867;31185.926;  -10.888;36394.449
720.440;30549.297;  -11.938;36663.008
721.013;28750.721;  -12.818;35102.426
721.587;27591.125;  -10.298;33985.266
722.160;26909.000;  -10.048;33524.965
722.733;25981.992;  -12.108;32987.043
723.306;26376.498;  -10.818;33066.301
723.880;28555.307;   -8.908;33399.500
724.453;29783.203;   -9.878;33468.297
725.026;28588.818;  -11.188;33816.637
725.599;26516.711;  -11.678;32797.996
726.172;27643.316;   -9.618;33187.434
726.745;28885.145;   -8.258;35136.613
727.318;30206.504;  -12.978;35751.730
727.891;30179.473;  -12.148;35890.430
728.463;29747.604;   -8.968;34822.090
729.036;28926.881;  -10.188;32895.086
729.609;29229.578;  -11.788;31823.225
730.182;26130.570;  -11.788;31445.283
730.754;23624.072;  -10.268;32373.223
731.327;23644.758;   -9.998;33676.820
731.900;24190.736;  -12.228;33417.000
732.472;25720.176;  -13.848;31978.498
733.045;27428.762;   -8.698;30368.777
733.617;27518.492;  -10.607;30574.215
734.190;26811.686;  -11.507;31280.975
734.762;23624.783;  -13.647;31674.412
735.334;22234.684;   -9.767;31247.291
735.907;23110.629;   -9.897;29876.211
736.479;23006.703;  -11.637;29808.488
737.051;22573.104;   -9.567;30233.547
737.623;23553.125;   -8.187;31469.086
738.195;24790.400;  -11.187;31784.225
738.768;27052.387;  -12.337;32120.523
739.340;26634.639;  -12.227;32094.342
739.912;25068.432;  -11.057;31312.680
740.484;23725.762;  -10.207;31946.238
741.056;22966.494;  -10.047;32984.059
741.628;24848.320;  -13.627;33897.715
742.199;27070.602;   -7.177;33213.016
742.771;25397.076;  -10.797;31369.113
743.343;23069.420;  -11.997;31865.473
743.915;22108.354;  -12.867;32388.631
744.487;22256.605;   -7.617;31079.568
745.058;22366.682;   -9.557;30570.107
745.630;22862.695;   -9.877;29970.127
746.201;23426.270;  -14.177;29186.766
746.773;23507.248;   -9.237;28805.723
747.344;23417.053;   -9.847;29591.223
747.916;22339.254;  -11.657;31412.201
748.487;22814.439;  -10.587;32194.898
749.059;23967.703;   -8.707;32533.719
749.630;24642.889;  -10.537;32158.518
750.201;23842.619;  -11.687;30855.395
750.773;22135.729;  -11.647;28622.555
751.344;22240.631;   -7.147;28405.732
751.915;23321.557;   -9.757;28461.551
752.486;22659.289;  -12.427;27842.850
753.057;20450.744;  -12.227;27845.008
753.628;19492.637;  -10.417;27728.107
754.199;20780.383;  -11.767;27381.086
754.770;21740.047;  -11.187;25882.203
755.341;21706.979;  -10.507;25886.184
755.912;21483.881;   -9.387;26050.861
756.483;20810.381;  -10.647;26798.779
757.054;18935.012;  -11.837;27048.238
757.625;17769.871;  -12.716;26294.838
758.195;17759.051;   -9.666;26142.076
758.766;17564.691;   -8.656;26392.234
759.337;18403.158;  -12.856;26334.594
759.907;20274.457;  -13.366;27579.652
760.478;21074.023;   -8.576;28352.770
761.048;20231.852;  -10.526;27325.088
761.619;19398.654;  -11.116;26460.428
762.189;19593.748;  -12.136;26029.826
762.760;20954.061;   -9.456;26430.145
763.330;21822.545;   -7.136;26670.902
763.900;20960.645;  -11.786;26603.021
764.471;18299.367;  -11.546;25542.740
765.041;17096.551;   -8.096;24358.459
765.611;17223.783;   -8.876;23991.297
766.181;17670.912;  -12.196;24470.236
766.751;18622.881;  -11.636;24845.975
767.321;18267.184;  -10.156;24533.633
767.891;16193.229;  -11.766;24916.492
768.461;15772.188;  -14.936;24776.771
769.031;16446.889;  -12.356;24757.988
769.601;17897.609;   -7.526;24181.088
770.171;17557.504;  -10.766;23670.387
770.741;16959.393;  -13.176;22960.045
771.311;17322.150;  -10.616;22917.523
771.880;17501.902;   -9.576;23562.941
772.450;17205.354;  -10.336;24216.500
773.020;17460.623;  -13.516;24140.398
773.589;16943.889;  -13.466;24414.857
774.159;16351.756;   -8.686;23858.717
774.729;15880.930;   -9.476;22942.135
775.298;15255.353;  -13.666;22324.033
775.867;14878.207;  -11.716;21140.313
776.437;14883.204;   -9.906;20838.092
777.006;14604.438;  -12.166;20599.510
777.576;14531.761;  -12.356;20508.809
778.145;14795.973;  -11.646;20732.947
778.714;14639.129;   -8.226;21062.465
779.283;13848.628;   -9.556;20949.664
779.853;13460.570;  -14.116;20508.623
780.422;13946.215;  -11.506;20649.082
780.991;13546.391;   -9.556;21527.520
781.560;12419.538;   -9.095;22632.658
782.129;12256.838;  -12.135;23048.277
782.698;12262.709;  -10.865;23438.555
783.267;11842.101;   -9.335;23267.734
783.836;11879.488;  -11.045;22415.133
784.404;12986.097;  -13.865;20443.152
784.973;13459.743;  -13.095;19699.150
785.542;13381.923;  -11.575;19763.828
786.111;13234.308;   -9.705;20341.408
786.679;12633.502;  -12.105;20207.967
787.248;12407.865;  -12.455;19516.465
787.817;12239.242;  -11.535;18900.363
788.385;11790.265;   -9.765;17879.121
788.954;11166.245;  -14.005;17658.301
789.522;10686.923;  -11.955;17788.879
790.090;11268.538;  -10.135;18118.277
790.659;11593.804;  -10.975;18338.736
791.227;11093.692;  -13.375;18508.615
791.795;11570.019;  -12.375;17898.254
792.364;11854.340;  -10.725;17295.133
792.932;12069.913;   -9.715;16822.051
793.500;12300.456;  -12.675;17040.148
794.068;12629.265;  -13.495;17179.787
794.636;12721.974;  -10.885;16664.246
795.204;12263.070;  -11.045;16524.545
795.772;12342.721;  -13.175;17274.564
796.340;11820.724;  -12.445;17891.002
796.908;11642.291;   -9.735;17648.561
797.476;11478.704;   -9.815;17064.080
798.044;11019.189;  -13.985;16672.777
798.612;10229.624;  -13.115;17023.996
799.180; 9856.553;  -10.185;16561.615
799.747; 9787.514;   -9.055;15962.773
800.315; 9546.509;  -12.385;15296.992
800.883; 9149.330;  -15.035;14801.771
801.450; 9084.862;  -10.365;14534.430
802.018; 9145.270;   -9.855;14173.248
802.585; 9330.294;  -11.905;14029.547
803.153; 9435.254;  -11.585;13836.846
803.720; 9242.686;   -9.095;13567.324
804.287; 8752.735;   -9.135;13360.622
804.855; 8345.538;  -11.604;13681.981
805.422; 8237.082;  -11.794;13536.560
805.989; 8207.528;  -10.734;13355.958
806.556; 8437.352;  -10.444;13747.896
807.124; 8731.803;  -12.764;13987.376
807.691; 8704.627;  -12.964;14038.674
808.258; 8446.975;  -11.134;14120.152
808.825; 8039.485;   -9.854;13860.111
809.392; 8069.419;  -10.504;13268.790
809.959; 7619.036;  -13.054;12680.389
810.526; 7255.362;   -8.294;12427.308
811.093; 7345.075;   -8.394;12030.105
811.659; 7890.506;  -12.304;11653.664
812.226; 8307.158;  -13.944;11637.183
812.793; 7927.045;  -10.484;11611.521
813.360; 7284.242;  -10.144;11885.181
813.926; 7018.920;  -11.684;12770.539
814.493; 6825.568;  -13.644;12677.638
815.060; 6477.428;   -9.724;11974.336
815.626; 6545.009;   -9.854;11594.715
816.193; 6967.894;  -13.254;11579.474
816.759; 6993.116;  -13.204;11666.972
817.325; 7083.117;   -9.434;11325.530
817.892; 7426.758;  -10.134;11105.369
818.458; 7804.752;  -13.474;10843.928
819.024; 7325.122;  -11.854;10714.406
819.591; 6972.147;  -10.244;10469.165
820.157; 6799.047;  -10.704;10235.523
820.723; 6381.307;  -12.324;10847.563
821.289; 6108.191;   -9.444;11040.980
821.855; 5978.784;   -8.374;10357.100
822.421; 5864.767;  -10.234; 9978.918
822.987; 5806.196;  -13.294; 9754.177
823.553; 5553.916;  -10.884;10065.755
824.119; 5434.820;   -8.884;10036.294
824.685; 5495.793;   -6.784;10029.192
825.251; 5550.418;  -12.004;10199.230
825.816; 5512.738;  -11.474; 9820.189
826.382; 5317.315;   -9.174; 9297.248
826.948; 5586.352;   -9.214; 9381.347
827.513; 5939.474;  -10.774; 9450.726
828.079; 5706.921;  -11.924; 9472.444
828.645; 5181.681;  -10.543; 9292.643
829.210; 5171.885;  -10.533; 9065.341
829.776; 5148.674;  -10.753; 9132.620
830.341; 5011.591;  -10.173; 9092.878
830.906; 5205.039;  -10.743; 9078.557
831.472; 5501.885;  -11.113; 8534.535
832.037; 5151.096;  -10.603; 8677.874
832.602; 4581.696;  -13.323; 8628.692
833.167; 4357.182;  -10.823; 8879.031
833.733; 4308.569;  -10.113; 9189.790
834.298; 4422.822;  -13.583; 9052.608
834.863; 4453.804;  -12.703; 8895.087
835.428; 4442.703;  -10.523; 8824.266
835.993; 4353.662;   -6.963; 8845.385
836.558; 4246.760;  -10.763; 8888.563
837.123; 4410.005;   -9.903; 8966.582
837.688; 4625.019;   -9.913; 8617.860
838.253; 4804.785;  -10.283; 8590.699
838.817; 4963.570;  -12.963; 8443.797
839.382; 4842.167;  -14.243; 8799.356
839.947; 4508.117;  -10.733; 8810.595
840.511; 4184.769;   -9.383; 8796.394
841.076; 3839.565;  -12.563; 8347.231
841.641; 3951.732;  -12.953; 8224.330
842.205; 4070.049;   -7.043; 8223.349
842.770; 4226.818;   -8.163; 8622.107
843.334; 4424.143;  -12.503; 8410.386
843.898; 4398.664;  -11.693; 8337.465
844.463; 4427.373;  -10.203; 8506.283
845.027; 4191.566;   -9.533; 8280.962
845.591; 4017.360;  -13.443; 8231.141
846.156; 3956.489;  -13.143; 7969.179
846.720; 3808.990;   -9.433; 7768.278
847.284; 3671.453;  -11.033; 7630.957
847.848; 3534.285;  -10.403; 7472.395
848.412; 3421.082;  -11.553; 7437.394
848.976; 3447.396;   -8.393; 7674.592
849.540; 3414.937;   -8.713; 7836.011
850.104; 3574.316;  -12.463; 7913.669
850.668; 3915.847;  -12.973; 7694.508
851.232; 3983.172;  -10.793; 7756.887
851.796; 3809.340;  -10.662; 7926.545
852.359; 3519.718;  -13.082; 7827.844
852.923; 3374.221;  -12.192; 7641.163
853.487; 3201.797;  -11.912; 7342.501
854.050; 3139.279;  -10.892; 7042.820
854.614; 3252.137;  -13.992; 7151.338
855.177; 3360.548;  -11.732; 7105.077
855.741; 3396.896;   -8.962; 6989.675
856.304; 3305.039;   -9.442; 6596.634
856.868; 3258.748;  -14.192; 6356.272
857.431; 3381.722;  -12.702; 6468.571
857.995; 3524.510;   -9.942; 6373.210
858.558; 3526.736;   -9.112; 6324.448
859.121; 3246.966;  -12.932; 6408.327
859.684; 3130.981;  -13.442; 6347.886
860.247; 3217.104;  -10.632; 6321.264
860.810; 3183.451;  -11.272; 6301.903
861.374; 2922.617;   -9.832; 6607.881
861.937; 2681.516;  -11.762; 6408.200
862.500; 2696.779;   -9.722; 6572.639
863.062; 2883.720;  -10.512; 6387.297
863.625; 3047.105;  -11.232; 6190.836
864.188; 3200.397;  -14.112; 5807.254
864.751; 3261.856;  -11.302; 5682.413
865.314; 3139.749;  -10.112; 5547.492
865.876; 2953.021;  -12.182; 5500.150
866.439; 2961.366;  -10.722; 5415.909
867.002; 2895.058;   -9.252; 5501.567
867.564; 2669.289;   -9.572; 5413.946
868.127; 2431.634;  -13.142; 5160.325
868.689; 2323.011;  -12.902; 5133.183
869.252; 2214.940;   -9.732; 5252.382
869.814; 2122.315;   -9.432; 5297.141
870.377; 2152.734;  -11.552; 5390.919
870.939; 2240.630;   -9.052; 5599.898
871.501; 2294.140;  -10.982; 5248.336
872.063; 2283.224;  -12.292; 4854.235
872.626; 2250.163;  -14.912; 4817.074
873.188; 2286.805;  -13.112; 4987.732
873.750; 2251.767;  -13.442; 4868.651
874.312; 2164.612;   -9.402; 4779.330
874.874; 2066.324;  -11.062; 4866.348
875.436; 1971.064;  -13.931; 4718.887
875.998; 1955.174;   -9.561; 4660.005
876.560; 1969.752;  -11.321; 4462.964
877.122; 1913.072;  -12.221; 4145.042
877.683; 1831.695;  -12.191; 4056.481
878.245; 1763.538;  -12.101; 3950.740
878.807; 1808.602;   -8.971; 4058.958
879.369; 1828.250;  -12.071; 3954.677
879.930; 1728.727;  -14.621; 3941.495
880.492; 1669.706;  -10.311; 4067.014
881.053; 1618.442;  -10.901; 3859.633
881.615; 1496.616;  -14.411; 3776.071
882.176; 1405.187;  -13.761; 3734.750
882.738; 1364.615;   -9.181; 3678.489
883.299; 1341.359;  -11.791; 3405.407
883.860; 1354.545;  -13.121; 3351.106
884.422; 1352.410;  -11.211; 3394.044
884.983; 1297.536;  -10.091; 3166.443
885.544; 1208.524;   -8.461; 3189.802
886.105; 1127.937;  -12.361; 3160.360
886.666; 1063.916;  -14.141; 3093.059
887.227; 1008.320;  -11.361; 2941.957
887.788;  944.761;  -11.401; 2974.836
888.349;  881.718;  -13.791; 2721.214
888.910;  882.495;  -13.191; 2696.493
889.471;  892.888;   -9.881; 2560.172
890.032;  869.105;   -9.881; 2558.190
890.593;  844.905;  -10.371; 2567.669
891.153;  819.107;  -13.301; 2460.307
891.714;  767.187;  -11.431; 2372.046
892.275;  722.668;  -11.291; 2309.505
892.835;  676.995;  -11.471; 2382.543
893.396;  619.042;  -11.541; 2295.502
893.956;  561.327;  -11.181; 2162.420
894.517;  527.652;  -11.741; 2125.439
895.077;  527.047;  -11.671; 2086.978
895.638;  527.967;  -11.311; 2126.316
896.198;  497.815;   -9.831; 1838.275
896.758;  454.846;   -8.421; 1892.813
897.319;  423.389;  -12.351; 1792.232
897.879;  407.080;  -13.511; 1762.751
898.439;  379.854;  -12.001; 1661.149
898.999;  355.424;  -10.180; 1781.468
899.559;  345.326;  -12.030; 1703.347
900.119;  340.279;  -15.710; 1537.525
900.679;  336.222;   -8.900; 1638.384
901.239;  320.945;   -8.340; 1527.902
901.799;  311.656;  -13.910; 1456.441
902.359;  306.190;  -13.460; 1357.140
902.919;  298.964;  -11.490; 1331.118
903.479;  285.960;  -12.110; 1317.257
904.038;  264.367;  -11.720; 1262.595
904.598;  251.047;  -13.610; 1152.034
905.158;  247.312;  -11.040; 1240.893
905.717;  238.676;  -10.900; 1233.691
906.277;  227.519;  -15.080; 1217.330
906.836;  216.967;  -13.380; 1222.408
907.396;  207.856;  -10.780; 1193.047
907.955;  200.641;   -8.500; 1182.526
908.515;  195.483;  -12.760; 1099.364
909.074;  191.016;  -11.900; 1092.863
909.633;  184.485;   -8.950; 1069.121
910.192;  179.103;   -8.770; 1196.460
910.752;  173.155;  -12.390; 1029.960
911.311;  170.257;  -13.680; 1009.780
911.870;  167.048;  -12.370;  971.460
912.429;  168.665;  -10.900; 1094.080
912.988;  168.468;  -11.690; 1081.060
913.547;  163.416;  -13.240;  940.380
914.106;  157.293;  -11.990;  999.420
914.665;  154.114;   -9.990;  984.020
915.224;  153.887;  -12.880; 1035.760
915.782;  154.330;  -12.350;  922.560
916.341;  153.998;   -9.110; 1049.840
916.900;  149.193;   -9.270;  925.260
917.458;  147.612;  -13.240;  884.220
918.017;  147.395;  -13.550;  942.600
918.576;  146.050;  -12.320;  904.440
919.134;  144.560;  -11.490;  837.980
919.693;  142.228;  -13.670;  893.060
920.251;  140.944;  -15.470;  876.500
920.809;  140.026;  -11.290;  839.580
921.368;  139.304;  -10.210;  885.360
921.926;  137.935;  -12.140;  842.940
922.484;  136.436;  -13.080;  903.360
923.042;  136.972;  -11.720;  880.340
923.601;  139.693;   -7.480;  998.680
924.159;  137.903;  -11.570;  935.560
924.717;  133.772;  -13.840;  841.080
925.275;  134.339;  -10.640;  903.240
925.833;  134.918;  -11.540;  779.320
926.391;  135.844;  -12.960;  938.380
926.949;  133.278;  -14.130;  857.680
927.506;  133.549;  -11.750;  903.500
928.064;  133.825;  -10.250;  877.580
928.622;  133.012;  -13.030;  880.100
929.180;  133.426;  -13.400;  814.180
929.737;  134.760;  -10.700;  808.540
930.295;  138.683;  -10.070;  928.480
930.853;  139.205;  -11.960;  849.100
931.410;  140.372;  -13.120;  821.120
931.968;  141.015;  -10.770;  940.660
932.525;  140.346;  -10.680;  909.380
933.082;  140.088;  -13.130;  811.440
933.640;  141.352;  -13.210;  925.900
934.197;  139.909;  -11.060;  886.360
934.754;  140.134;   -9.580;  897.780
935.312;  143.194;  -14.000;  863.340
935.869;  148.008;  -10.710; 1012.980
936.426;  148.779;   -9.860;  872.800
936.983;  149.900;   -9.710;  889.020
937.540;  148.358;  -13.990;  838.280
938.097;  146.311;  -14.040;  940.120
938.654;  146.520;  -10.310;  898.860
939.211;  149.629;  -10.560;  952.480
939.768;  153.673;  -13.900;  915.420
940.324;  157.415;  -14.760;  904.200
940.881;  158.312;  -10.370;  878.500
941.438;  158.443;   -8.260; 1021.200
941.995;  155.029;  -12.540;  992.560
942.551;  151.473;  -14.670;  875.620
943.108;  152.705;  -10.450;  937.920
943.664;  155.416;  -10.750;  869.340
944.221;  159.116;  -11.550; 1088.140
944.777;  157.115;  -14.770;  869.680
945.334;  158.018;  -12.820;  884.840
945.890;  159.203;  -10.130;  946.480
946.446;  159.575;  -13.470;  947.020
947.003;  161.406;  -12.120;  964.940
947.559;  164.410;   -9.980; 1063.040
948.115;  163.559;   -9.080; 1026.540
948.671;  161.543;  -10.830;  967.300
949.227;  159.410;  -12.440;  859.560
949.783;  157.296;  -12.910;  858.900
950.339;  157.950;  -10.270;  991.000
950.895;  158.672;  -13.630; 1023.840
951.451;  158.547;  -15.100;  925.280
952.007;  159.240;  -11.330;  998.540
952.563;  159.125;  -10.580;  937.780
953.118;  158.095;  -13.440;  904.940
953.674;  158.092;  -12.710;  935.780
954.230;  157.718;  -10.350;  949.640
954.785;  155.171;   -9.190;  936.640
955.341;  152.294;  -11.200;  998.160
955.897;  151.419;  -16.560;  834.660
956.452;  152.823;  -12.570;  953.840
957.008;  152.432;   -7.970; 1083.640
957.563;  150.218;  -11.940; 1009.540
958.118;  145.433;  -13.450;  877.700
958.674;  146.220;  -12.030;  946.780
959.229;  147.020;   -9.410; 1013.980
959.784;  145.497;  -12.000;  832.400
960.339;  144.304;  -14.780; 1001.280
960.894;  140.721;   -9.860;  963.760
961.449;  136.610;   -9.970;  859.960
962.004;  136.473;  -10.900; 1212.840
962.559;  131.137;  -13.150;  860.140
963.114;  127.984;  -13.740;  742.480
963.669;  127.967;   -9.820;  915.500
964.224;  126.654;  -13.890;  874.340
964.779;  125.963;  -12.600;  828.420
965.334;  126.844;  -10.950; 1017.860
965.888;  126.852;  -11.170;  875.360
966.443;  128.597;  -12.540;  972.380
966.998;  129.250;  -15.780;  819.460
967.552;  127.686;   -9.760;  908.380
968.107;  124.381;   -9.060;  868.300
968.661;  125.154;  -11.950;  922.440
969.216;  127.758;  -12.800;  856.280
969.770;  127.653;  -11.210;  917.200
970.324;  125.300;  -11.610;  923.140
970.879;  121.574;  -11.370;  947.180
971.433;  118.666;  -12.540;  952.720
971.987;  114.156;  -11.320;  895.340
972.541;  111.438;  -10.720;  917.100
973.095;  111.777;   -9.680; 1009.460
973.649;  108.415;  -11.440;  809.480
974.203;  101.951;  -11.210;  829.040
974.757;   94.174;  -10.240;  855.220
975.311;   87.808;  -13.720;  872.600
975.865;   81.782;  -13.770;  881.820
976.419;   79.293;  -11.690;  857.400
976.973;   80.631;   -9.510;  849.620
977.526;   84.033;  -12.620;  949.920
978.080;   85.644;  -12.010;  796.780
978.634;   88.134;  -10.170;  921.320
979.187;   88.050;   -9.020;  905.400
979.741;   87.276;   -9.820; 1018.380
980.294;   84.854;  -14.870;  789.160
980.848;   83.204;  -12.380;  717.220
981.401;   85.670;  -10.350;  816.540
981.955;   87.132;  -13.720;  844.300
982.508;   87.106;  -11.490;  746.340
983.061;   88.050;  -10.000;  915.260
983.615;   84.049;  -11.480;  798.800
984.168;   81.644;  -13.220;  770.080
984.721;   81.572;  -13.960;  880.760
985.274;   81.655;  -10.870;  867.500
985.827;   80.279;   -9.790;  834.220
986.380;   77.575;  -13.120;  721.340
986.933;   78.045;  -12.450;  864.800
987.486;   76.505;  -10.210;  861.920
988.039;   75.553;   -8.430;  863.100
988.591;   73.553;  -10.520;  893.260
989.144;   71.213;  -14.860;  737.260
989.697;   70.765;  -13.080;  758.740
990.250;   72.035;  -10.150;  858.100
990.802;   70.513;  -13.430;  755.860
991.355;   72.737;  -12.750;  974.880
991.907;   70.252;  -12.040;  864.320
992.460;   67.766;  -11.330;  753.760
993.012;   66.726;  -13.610;  749.540
993.565;   66.232;  -13.460;  711.360
994.117;   68.534;   -9.360;  950.780
994.669;   64.140;  -11.300;  701.320
995.221;   62.178;  -13.540;  791.920
995.774;   59.725;  -13.430;  787.580
996.326;   59.308;  -12.520;  740.220
996.878;   58.390;  -10.950;  838.420
997.430;   54.074;  -14.300;  699.860
997.982;   53.107;  -13.760;  750.140
998.534;   52.547;  -11.530;  739.060
999.086;   51.536;  -10.310;  738.220
999.638;   50.852;  -12.530;  661.380
1000.190;   51.252;  -11.840;  699.320
1000.741;   50.646;  -10.260;  742.700
1001.293;   50.360;   -8.860;  686.020
1001.845;   48.642;  -13.700;  676.640
1002.396;   49.236;  -12.100;  743.400
1002.948;   48.450;  -12.760;  737.400
1003.500;   47.724;  -10.380;  723.780
1004.051;   48.257;  -11.900;  907.580
1004.603;   46.163;  -12.250;  791.820
1005.154;   42.987;  -13.210;  608.980
1005.705;   41.780;  -10.950;  723.960
1006.257;   41.784;  -13.880;  707.220
1006.808;   40.782;  -12.840;  685.460
1007.359;   40.914;  -10.570;  763.240
1007.910;   40.019;   -9.620;  646.640
1008.461;   39.842;  -13.630;  732.940
1009.013;   38.200;  -17.200;  588.340
1009.564;   39.397;  -10.200;  793.520
1010.115;   37.497;  -12.570;  597.040
1010.665;   36.833;  -15.150;  602.160
1011.216;   37.516;  -14.480;  667.920
1011.767;   36.451;  -11.340;  697.920
1012.318;   37.027;   -9.780;  736.980
1012.869;   35.616;  -12.380;  679.000
1013.419;   34.602;  -15.560;  603.120
1013.970;   35.480;  -11.010;  666.640
1014.521;   34.730;  -11.610;  620.620
1015.071;   34.494;  -13.450;  670.380
1015.622;   34.592;  -13.870;  635.460
1016.172;   34.047;  -11.610;  596.820
1016.723;   34.045;  -12.120;  614.380
1017.273;   33.457;  -13.620;  604.160
1017.823;   33.795;  -14.140;  650.340
1018.374;   33.191;  -12.800;  611.760
1018.924;   33.047;  -12.340;  716.880
1019.474;   34.020;  -11.410;  718.880
1020.024;   32.405;  -14.770;  657.580
1020.574;   32.660;   -9.780;  726.160
1021.124;   32.574;   -8.560;  673.580
1021.674;   31.098;  -15.190;  559.120
1022.224;   32.665;  -13.530;  708.940
1022.774;   32.375;  -13.280;  668.820
1023.324;   31.593;  -10.690;  753.520
1023.874;   33.802;  -10.240;  875.760
1024.423;   30.880;  -12.540;  613.700
1024.973;   30.308;  -10.010;  610.760
1025.523;   29.719;  -10.550;  620.960
1026.072;   29.481;  -13.560;  606.420
1026.622;   29.818;  -15.120;  675.740
1027.172;   30.676;  -11.260;  715.660
1027.721;   28.972;  -11.410;  601.220
1028.270;   29.795;  -13.530;  663.400
1028.820;   29.555;  -13.680;  638.080
1029.369;   29.041;  -13.520;  612.700
1029.918;   28.940;  -10.980;  649.840
1030.468;   28.452;  -13.530;  564.780
1031.017;   28.494;  -13.170;  634.800
1031.566;   27.853;  -12.200;  608.900
1032.115;   28.450;   -9.960;  694.500
1032.664;   26.263;  -13.210;  596.480
1033.213;   28.148;  -12.500;  735.420
1033.762;   27.869;  -11.910;  635.620
1034.311;   27.515;   -9.640;  677.220
1034.860;   27.189;  -13.310;  691.000
1035.408;   27.219;  -11.830;  722.720
1035.957;   27.285;  -12.000;  719.540
1036.506;   25.277;  -11.690;  530.800
1037.055;   27.907;  -10.990;  844.320
1037.603;   26.457;  -15.120;  664.000
1038.152;   25.111;  -12.450;  534.760
1038.700;   25.232;  -10.560;  585.740
1039.249;   25.009;  -11.080;  681.220
1039.797;   25.267;  -12.540;  633.360
1040.345;   25.461;  -11.920;  705.420
1040.894;   25.905;  -11.410;  625.300
1041.442;   25.197;  -14.320;  632.200
1041.990;   24.065;  -16.240;  559.160
1042.538;   24.327;  -11.680;  536.180
1043.087;   23.581;  -10.760;  570.860
1043.635;   24.769;  -11.850;  670.500
1044.183;   24.220;  -15.480;  586.400
1044.731;   23.159;  -11.770;  576.000
1045.279;   23.289;  -13.090;  674.920
1045.827;   24.669;  -12.440;  892.400
1046.374;   23.004;  -13.840;  515.420
1046.922;   22.641;  -13.220;  590.580
1047.470;   24.068;  -10.230;  691.300
1048.018;   23.016;  -14.590;  647.960
1048.565;   23.932;  -12.050;  708.600
1049.113;   22.022;  -11.650;  557.000
1049.660;   21.874;  -10.510;  629.660
1050.208;   22.262;  -13.310;  675.640
1050.755;   20.879;  -15.900;  606.580
1051.303;   21.942;  -11.430;  686.820
1051.850;   20.808;   -8.480;  635.120
1052.397;   20.115;  -15.010;  473.960
1052.945;   21.060;  -13.960;  617.760
1053.492;   22.532;  -13.150;  741.840
1054.039;   21.444;   -9.630;  720.180
1054.586;   20.054;  -13.680;  557.240
1055.133;   21.514;  -14.570;  693.140
1055.680;   21.390;  -13.820;  646.620
1056.227;   20.193;  -11.730;  542.780
1056.774;   20.848;  -12.480;  794.980
1057.321;   20.432;  -13.930;  523.260
1057.868;   20.553;  -11.690;  651.320
1058.415;   18.477;   -9.520;  651.980
1058.961;   20.214;  -13.160;  678.940
1059.508;   20.213;  -12.920;  643.820
1060.055;   20.202;  -11.920;  581.780
1060.601;   19.661;  -11.500;  624.300
1061.148;   18.856;  -14.330;  616.820
1061.694;   18.666;  -16.870;  592.580
1062.241;   19.300;  -10.330;  596.320
1062.787;   19.709;  -10.620;  663.140
1063.334;   20.240;  -10.110;  808.560
1063.880;   18.924;  -13.400;  668.360
1064.426;   18.650;  -10.680;  706.820
1064.972;   17.482;   -9.920;  601.340
1065.518;   16.766;  -10.980;  566.640
1066.065;   18.477;  -14.890;  624.460
1066.611;   17.204;  -12.870;  598.800
1067.157;   18.362;  -12.950;  641.860
1067.703;   17.694;  -13.540;  668.480
1068.249;   17.487;  -13.540;  605.220
1068.794;   17.670;  -12.600;  626.880
1069.340;   16.696;  -10.620;  578.960
1069.886;   16.682;  -12.830;  590.700
1070.432;   16.119;  -14.870;  541.720
1070.977;   16.098;  -11.980;  601.080
1071.523;   16.126;   -8.200;  573.060
1072.068;   16.485;  -12.330;  582.000
1072.614;   16.047;  -16.370;  527.760
1073.160;   17.055;  -11.100;  687.040
1073.705;   15.834;  -10.480;  572.520
1074.250;   15.895;  -14.520;  559.900
1074.796;   16.565;  -11.460;  655.160
1075.341;   17.320;  -11.950;  664.100
1075.886;   15.896;  -11.460;  594.240
1076.431;   15.547;  -13.770;  649.880
1076.976;   15.532;  -12.680;  639.220
1077.521;   15.170;  -13.170;  583.080
1078.067;   14.611;  -10.860;  579.400
1078.612;   14.806;  -13.920;  661.620
1079.156;   15.192;  -13.880;  601.540
1079.701;   15.205;  -13.120;  693.260
1080.246;   15.685;   -9.940;  696.300
1080.791;   14.980;  -14.740;  625.020
1081.336;   14.612;  -13.750;  659.320
1081.880;   14.217;  -13.400;  649.680
1082.425;   13.775;  -12.220;  573.480
1082.970;   15.106;  -11.610;  717.040
1083.514;   14.376;  -13.580;  597.000
1084.059;   13.432;  -12.810;  586.720
1084.603;   13.235;  -12.320;  565.840
1085.147;   13.069;  -13.190;  645.220
1085.692;   14.931;  -12.480;  716.800
1086.236;   12.632;  -13.020;  503.140
1086.780;   14.222;   -9.190;  751.440
1087.325;   14.266;  -12.480;  654.620
1087.869;   13.015;  -12.450;  610.700
1088.413;   14.416;  -12.240;  705.040
1088.957;   11.776;   -9.020;  543.400
1089.501;   13.610;  -10.320;  766.640
1090.045;   12.534;  -12.720;  726.480
1090.589;   11.288;  -13.690;  569.920
1091.133;   12.576;  -10.020;  673.340
1091.676;   12.446;  -12.330;  591.940
1092.220;   11.743;  -14.970;  600.920
1092.764;   12.950;  -12.430;  706.960
1093.307;   12.673;   -9.800;  673.780
1093.851;   11.084;  -14.970;  556.540
1094.395;   12.367;  -15.310;  683.140
1094.938;   11.526;  -10.370;  632.520
1095.482;   11.689;  -11.050;  559.800
1096.025;   11.811;  -11.840;  710.880
1096.568;   12.371;  -12.840;  779.280
1097.112;    9.893;  -14.700;  508.180
1097.655;   11.847;   -8.720;  603.000
1098.198;    9.119;  -13.610;  600.180
1098.741;   10.525;  -13.350;  612.860
1099.285;   11.161;  -11.230;  657.300
1099.828;    9.363;  -11.840;  439.400
1100.371;   10.112;  -10.840;  608.160
1100.914;   10.938;  -14.190;  682.660
1101.457;   10.177;  -11.240;  679.900
1101.999;    8.622;  -11.270;  584.680
1102.542;    9.566;  -11.480;  641.440
1103.085;   10.068;  -11.750;  658.500
1103.628;   10.576;  -11.400;  762.060
1104.170;    9.407;  -10.490;  588.280
1104.713;   10.222;  -10.600;  646.700
1105.256;    9.397;  -14.360;  557.440
1105.798;    8.613;  -13.210;  499.980
1106.341;   10.253;  -10.270;  728.900
1106.883;    9.073;  -12.200;  521.340
1107.425;    9.593;  -13.110;  668.180
1107.968;    8.954;  -12.840;  612.380
1108.510;    9.611;   -6.480;  684.960
1109.052;    7.788;  -13.940;  612.620
1109.594;    7.560;  -13.690;  554.440
1110.136;    8.460;  -11.880;  643.220
1110.679;    8.128;   -9.500;  633.080
1111.221;    8.804;  -14.160;  604.460
1111.763;    8.194;  -13.980;  559.220
1112.304;    7.617;  -13.880;  547.140
1112.846;    8.533;  -12.210;  666.240
1113.388;   10.382;  -11.390;  942.180
1113.930;    8.250;  -14.540;  694.200
1114.472;    7.372;  -12.640;  606.540
1115.013;    5.991;  -11.620;  551.280
1115.555;    6.290;  -13.640;  587.100
1116.097;    5.819;  -15.380;  579.480
1116.638;    7.024;  -12.640;  684.600
1117.180;    7.283;   -9.850;  667.740
1117.721;    7.002;  -13.690;  568.580
1118.262;    7.891;  -12.680;  677.960
1118.804;    7.228;  -12.530;  637.340
1119.345;    6.748;  -11.690;  578.400
1119.886;    7.121;  -13.380;  704.040
1120.427;    6.074;  -14.070;  589.020
1120.969;    5.959;  -13.500;  597.920
1121.510;    5.712;  -11.480;  563.060
1122.051;    6.279;  -12.830;  723.580
1122.592;    5.774;  -14.290;  655.420
1123.133;    5.410;  -12.400;  547.940
1123.673;    6.662;  -10.130;  706.480
1124.214;    5.391;  -12.930;  612.460
1124.755;    6.241;  -14.380;  639.460
1125.296;    5.900;  -14.000;  627.320
1125.836;    6.297;  -10.070;  691.500
1126.377;    5.359;  -12.640;  599.660
1126.918;    5.499;  -12.960;  614.980
1127.458;    4.582;  -13.350;  622.220
1127.999;    5.439;  -10.750;  656.980
1128.539;    5.461;  -12.350;  694.240
1129.079;    4.969;  -14.860;  632.720
1129.620;    4.337;  -13.840;  558.100
1130.160;    4.239;  -12.330;  539.480
1130.700;    4.755;  -14.530;  640.840
1131.240;    5.574;  -12.530;  643.700
1131.781;    4.142;  -14.450;  619.680
1132.321;    4.180;   -9.790;  599.120
1132.861;    3.409;  -14.860;  564.200
1133.401;    3.097;  -14.290;  593.940
1133.941;    4.519;  -11.750;  626.280
1134.481;    3.015;   -9.920;  597.580
1135.020;    3.012;  -12.290;  609.160
1135.560;    4.345;  -11.650;  674.940
1136.100;    3.551;  -16.270;  501.160
1136.640;    2.583;  -10.890;  510.480
1137.179;    3.068;  -14.180;  537.960
1137.719;    2.848;  -16.250;  605.400
1138.258;    3.962;  -14.230;  587.360
1138.798;    3.507;   -9.090;  663.780
1139.337;    2.407;  -15.130;  482.840
1139.877;    3.304;  -13.680;  642.360
1140.416;    4.826;  -11.320;  878.060
1140.955;    1.915;  -10.860;  535.380
1141.494;    3.046;  -12.920;  669.280
1142.034;    2.514;  -13.930;  583.520
1142.573;    3.444;  -11.440;  646.280
1143.112;    1.699;  -12.000;  553.480
1143.651;    2.039;  -13.670;  536.480
1144.190;    3.453;  -12.730;  691.640
1144.729;    2.385;  -14.560;  607.420
1145.267;    2.367;  -11.830;  584.900
1145.806;    2.333;  -12.230;  637.040
1146.345;    2.084;  -14.130;  635.020
1146.884;    2.123;  -11.590;  622.500
1147.422;    1.252;  -12.550;  533.060
1147.961;    2.896;  -11.180;  708.460
1148.500;    2.941;  -11.510;  669.720
1149.038;    2.797;  -11.640;  632.500
1149.577;    2.347;  -10.130;  698.640
1150.115;    0.207;  -13.970;  452.280
1150.653;    2.743;  -14.520;  607.340
1151.192;    1.793;  -12.810;  552.920
1151.730;    2.006;   -9.100;  652.560
1152.268;    0.569;  -12.220;  589.520
1152.806;    1.190;  -14.140;  571.180
1153.344;    0.090;  -12.350;  577.640
1153.882;    1.218;   -8.980;  600.060
1154.421;   -0.479;  -15.190;  470.620
1154.958;   -0.467;  -15.210;  595.240
1155.496;    1.749;  -12.850;  645.280
1156.034;    1.445;   -9.940;  721.880
1156.572;    1.802;  -13.570;  667.060
1157.110;   -0.104;  -14.590;  473.940
1157.647;    0.976;  -13.030;  676.960
1158.185;   -0.001;  -12.140;  564.320
1158.723;   -0.842;  -14.390;  509.200
1159.260;    0.199;  -14.090;  701.700
1159.798;    1.114;  -11.920;  658.160
1160.335;    0.438;  -11.110;  631.820

