
Integration time [ms]:   3.276
Averaging Nr. [scans]: 1000
Smoothing Nr. [pixels]: 0
Data measured with spectrometer [name]: 7414430SP
Wave   ;Sample   ;Dark     ;Reference
[nm]   ;[counts] ;[counts] ;[counts] 

288.544;  152.470;    7.793;  793.890
289.143;  155.510;    7.462;  681.602
289.742;  156.950;    8.602;  828.814
290.341;  144.517;    1.321;  789.841
290.940;  135.290;   -0.709;  730.702
291.538;  136.858;    0.881;  881.108
292.137;  135.863;    0.122;  792.581
292.736;  138.235;   -1.929;  975.101
293.335;  135.079;   -8.229;  735.086
293.934;  134.005;   -5.279;  781.677
294.532;  134.397;   -1.369; 1031.958
295.131;  121.831;   -7.641;  834.394
295.730;  122.063;   -8.420;  809.588
296.328;  121.328;   -5.611;  783.442
296.927;  119.285;   -5.781;  779.652
297.525;  119.477;   -6.361;  781.236
298.124;  111.684;  -11.382;  654.009
298.722;  114.963;   -7.641;  761.933
299.321;  113.579;   -6.811;  708.597
299.919;  110.307;   -6.991;  751.918
300.518;  107.213;  -10.362;  689.338
301.116;  108.269;   -9.581;  691.381
301.715;  109.754;   -4.891;  730.222
302.313;  108.552;   -8.801;  704.943
302.911;  103.177;   -8.522;  733.830
303.509;  108.093;   -6.171;  925.627
304.108;  105.348;   -7.311;  760.383
304.706;  104.729;   -8.321;  801.664
305.304;   99.863;  -10.222;  796.707
305.902;  104.974;   -6.021;  784.484
306.500;  100.968;   -4.971;  728.200
307.098;   99.446;   -7.061;  746.560
307.696;   97.193;   -8.801;  780.432
308.294;   97.425;   -6.411;  731.359
308.892;   99.631;   -2.901;  759.769
309.490;   95.572;   -5.041;  712.161
310.088;   93.726;   -5.002;  788.444
310.686;   97.054;   -2.041;  821.749
311.284;   94.024;   -2.351;  766.040
311.882;   91.099;   -4.422;  731.225
312.480;   88.144;   -4.192;  697.167
313.078;   89.297;   -1.172;  808.331
313.675;   91.014;   -2.601;  691.600
314.273;   85.088;   -1.312;  797.837
314.871;   84.669;   -3.942;  589.829
315.468;   83.570;   -2.802;  652.090
316.066;   86.605;   -0.701;  694.427
316.664;   78.696;   -4.362;  656.351
317.261;   82.923;   -2.872;  910.128
317.859;   78.024;   -2.022;  768.735
318.456;   78.380;   -0.531;  830.096
319.054;   74.020;   -3.912;  787.828
319.651;   74.385;   -4.752;  759.928
320.249;   72.358;   -2.602;  810.188
320.846;   70.168;   -0.821;  714.286
321.443;   67.666;   -4.642;  832.135
322.041;   65.239;   -5.002;  812.315
322.638;   62.279;   -3.982;  701.456
323.235;   63.197;   -3.411;  665.683
323.833;   60.094;   -7.361;  740.354
324.430;   55.788;   -8.611;  615.900
325.027;   57.099;   -4.061;  876.855
325.624;   56.835;   -4.031;  644.532
326.221;   53.433;   -7.481;  689.717
326.818;   53.708;   -5.281;  818.332
327.415;   55.839;   -7.460;  748.828
328.012;   55.190;   -5.510;  690.585
328.609;   54.230;   -7.880;  731.389
329.206;   52.744;   -8.331;  778.621
329.803;   53.063;   -5.121;  737.841
330.400;   55.560;   -4.510;  704.260
330.997;   57.312;   -6.441;  817.147
331.594;   56.059;   -8.831;  788.185
332.191;   60.462;   -7.621;  728.722
332.787;   63.820;   -4.591;  844.463
333.384;   62.296;   -7.412;  763.093
333.981;   61.288;   -8.293;  815.687
334.578;   63.564;   -7.052;  708.378
335.174;   66.368;   -3.102;  731.469
335.771;   66.074;   -5.943;  836.456
336.367;   63.344;   -7.393;  710.631
336.964;   65.498;   -4.063;  793.266
337.561;   64.661;   -3.813;  731.112
338.157;   61.149;   -4.654;  911.916
338.754;   60.249;   -7.934;  796.589
339.350;   58.149;   -4.414;  722.493
339.946;   59.013;   -4.664;  773.135
340.543;   51.808;   -6.375;  846.136
341.139;   46.389;   -9.815;  720.836
341.735;   43.341;   -4.526;  772.593
342.332;   42.828;   -4.895;  691.472
342.928;   42.668;   -4.295;  795.394
343.524;   36.510;   -5.476;  761.684
344.120;   33.015;   -5.856;  738.562
344.716;   36.235;   -2.155;  723.717
345.313;   33.628;   -6.275;  795.342
345.909;   28.479;   -8.815;  627.336
346.505;   30.399;   -5.305;  740.247
347.101;   31.139;   -2.674;  827.864
347.697;   31.086;   -4.344;  785.398
348.293;   25.323;   -9.975;  627.244
348.889;   26.184;   -5.774;  745.914
349.485;   25.577;   -5.004;  688.205
350.081;   27.033;   -4.704;  772.592
350.676;   21.413;   -6.635;  691.606
351.272;   26.080;   -4.504;  809.530
351.868;   25.051;   -3.914;  780.497
352.464;   22.378;   -9.044;  723.932
353.059;   19.073;   -8.314;  646.017
353.655;   22.762;   -7.024;  777.063
354.251;   23.506;   -5.343;  759.845
354.846;   17.857;   -8.604;  740.646
355.442;   16.922;   -6.945;  753.071
356.038;   17.365;   -7.564;  751.708
356.633;   18.256;   -5.814;  728.594
357.229;   15.387;   -7.364;  724.757
357.824;   14.126;   -8.024;  703.600
358.420;   13.467;   -9.384;  679.726
359.015;   13.723;   -5.104;  695.357
359.610;   15.173;   -6.854;  763.920
360.206;    9.068;  -10.185;  603.240
360.801;   11.774;   -7.054;  646.503
361.396;   14.151;   -5.034;  725.975
361.992;    9.504;   -8.284;  668.220
362.587;    7.012;   -8.625;  670.160
363.182;    8.614;   -7.674;  689.631
363.777;    8.938;   -5.164;  738.242
364.372;    8.860;   -8.604;  737.314
364.967;    5.021;   -9.055;  680.744
365.563;    9.431;   -6.114;  815.567
366.158;    5.995;   -5.814;  685.161
366.753;    7.181;   -7.854;  649.263
367.348;    5.551;   -7.804;  746.056
367.942;    5.530;   -7.954;  697.298
368.537;    4.995;   -4.984;  754.245
369.132;    5.116;   -8.564;  703.428
369.727;    1.641;   -8.855;  638.079
370.322;    2.229;   -6.245;  580.186
370.917;    2.118;   -6.425;  710.646
371.511;    4.259;   -6.294;  861.834
372.106;    1.004;   -7.685;  776.964
372.701;   -2.374;   -7.335;  585.988
373.296;    3.208;   -4.564;  863.135
373.890;   -2.023;  -10.235;  647.840
374.485;   -2.662;   -7.885;  691.199
375.079;    0.334;   -7.324;  738.685
375.674;    1.815;   -3.494;  812.970
376.268;   -2.020;   -8.525;  691.759
376.863;   -7.279;  -10.086;  580.327
377.457;   -3.145;   -7.025;  662.490
378.052;   -4.094;   -3.585;  764.884
378.646;   -4.523;   -7.595;  741.167
379.240;   -5.620;   -8.335;  721.176
379.835;   -4.601;   -5.785;  636.978
380.429;   -6.071;   -4.335;  562.557
381.023;   -6.254;   -6.805;  779.205
381.617;   -8.400;   -9.195;  680.106
382.212;   -5.281;   -6.905;  685.303
382.806;   -3.379;   -3.745;  760.690
383.400;   -9.152;   -7.745;  672.281
383.994;   -9.316;   -9.765;  664.870
384.588;   -5.526;   -6.564;  697.701
385.182;   -4.597;   -5.344;  726.624
385.776;   -6.193;   -8.514;  706.875
386.370;   -8.114;   -9.555;  681.968
386.964;   -8.069;   -8.715;  684.155
387.558;   -6.366;   -6.174;  598.360
388.152;   -9.658;   -8.725;  681.959
388.745;   -7.251;   -7.965;  814.707
389.339;   -6.880;   -5.924;  747.642
389.933;   -6.022;   -5.524;  695.370
390.527;   -6.545;   -7.114;  859.029
391.120;  -12.404;  -10.725;  595.318
391.714;   -9.554;   -8.035;  711.633
392.308;   -6.264;   -3.574;  780.253
392.901;   -9.497;   -7.245;  642.460
393.495;  -11.548;   -9.285;  595.414
394.089;   -9.716;   -5.895;  760.452
394.682;   -9.981;   -4.295;  697.188
395.275;  -10.652;   -9.875;  719.927
395.869;  -11.344;   -8.485;  667.314
396.462;  -10.318;   -7.455;  616.609
397.056;   -6.648;   -5.424;  776.621
397.649;  -10.498;   -6.605;  731.575
398.242;   -8.449;   -8.224;  712.645
398.836;   -8.030;   -7.474;  766.408
399.429;   -9.208;   -7.094;  631.041
400.022;  -12.823;   -9.475;  665.902
400.615;   -9.980;   -7.145;  805.609
401.208;   -8.706;   -7.174;  691.451
401.802;  -10.540;   -5.515;  699.329
402.395;  -10.875;   -9.875;  683.502
402.988;  -12.234;   -8.845;  696.627
403.581;   -9.621;   -8.874;  646.878
404.174;   -6.532;   -5.324;  686.568
404.767;  -10.413;   -9.575;  638.583
405.360;  -12.038;  -10.965;  621.445
405.953;   -6.793;   -8.764;  759.034
406.545;   -6.700;   -7.514;  725.342
407.138;   -9.971;  -10.025;  618.350
407.731;   -8.945;  -10.034;  613.303
408.324;   -5.667;   -9.374;  660.554
408.917;   -6.487;   -6.534;  681.864
409.509;   -8.692;   -8.004;  740.396
410.102;  -10.097;   -9.875;  643.948
410.695;   -4.895;   -8.604;  665.758
411.287;   -5.368;   -6.794;  599.821
411.880;   -6.986;   -9.334;  585.421
412.472;   -9.064;  -10.254;  613.092
413.065;   -6.960;   -6.714;  629.408
413.657;   -4.471;   -7.234;  576.678
414.250;   -3.749;  -10.544;  646.681
414.842;   -5.901;   -9.744;  676.353
415.434;   -4.104;   -6.994;  570.463
416.027;    0.073;   -5.893;  652.196
416.619;   -1.677;   -7.264;  713.400
417.211;   -2.871;  -10.374;  599.352
417.804;    0.932;   -7.993;  628.499
418.396;   -2.644;   -7.234;  607.643
418.988;   -0.764;   -9.443;  659.238
419.580;   -4.151;  -10.724;  568.276
420.172;   -2.249;  -10.323;  536.196
420.764;    2.598;   -8.793;  672.482
421.356;    1.704;  -11.143;  636.898
421.948;    1.119;   -8.293;  677.661
422.540;    5.580;   -7.893;  680.027
423.132;    4.435;   -7.082;  600.641
423.724;    1.580;   -8.653;  561.267
424.316;    4.016;  -10.213;  621.345
424.908;    6.657;   -9.762;  591.517
425.500;    7.248;   -5.572;  647.978
426.092;    8.909;   -8.422;  648.268
426.683;    7.298;   -9.283;  684.836
427.275;    9.598;   -7.852;  641.471
427.867;   11.116;   -5.272;  668.948
428.458;   10.655;   -7.682;  732.344
429.050;   10.490;  -10.612;  680.749
429.642;   12.568;   -9.882;  743.124
430.233;   12.422;   -6.962;  569.356
430.825;   13.664;   -6.842;  724.809
431.416;   11.600;   -9.672;  698.241
432.008;   14.674;   -6.552;  651.723
432.599;   16.084;   -6.891;  656.073
433.190;   12.616;  -10.912;  637.670
433.782;   12.564;  -11.172;  590.395
434.373;   19.485;   -6.061;  884.765
434.964;   19.147;   -8.251;  602.920
435.556;   16.531;   -9.722;  634.537
436.147;   19.249;   -9.082;  758.490
436.738;   19.150;   -8.041;  701.099
437.329;   24.334;   -7.341;  721.723
437.920;   16.781;   -8.162;  666.688
438.511;   17.475;  -11.802;  564.526
439.103;   22.728;  -10.191;  623.998
439.694;   25.065;   -7.601;  681.583
440.285;   26.499;   -8.541;  764.432
440.876;   24.894;   -9.751;  845.738
441.466;   23.978;   -9.401;  575.162
442.057;   29.205;   -7.760;  665.814
442.648;   27.172;   -9.971;  746.255
443.239;   26.273;  -11.001;  620.477
443.830;   31.050;   -7.990;  704.958
444.421;   33.542;   -7.910;  655.474
445.011;   29.242;   -8.131;  693.619
445.602;   29.590;   -7.111;  743.126
446.193;   30.706;  -10.920;  488.117
446.783;   35.968;   -6.500;  640.397
447.374;   31.068;   -8.671;  692.759
447.964;   31.610;  -10.781;  713.770
448.555;   39.230;   -9.650;  822.742
449.145;   37.020;   -8.660;  662.853
449.736;   37.386;   -8.990;  803.179
450.326;   37.776;   -9.500;  713.626
450.917;   41.348;   -8.680;  675.324
451.507;   41.066;   -7.520;  600.661
452.097;   41.372;   -8.590;  746.267
452.688;   43.348;  -11.340;  742.160
453.278;   42.827;  -10.100;  566.840
453.868;   47.212;   -6.019;  793.550
454.458;   44.863;   -9.440;  651.141
455.048;   45.423;  -10.560;  711.783
455.639;   47.517;  -11.799;  567.096
456.229;   50.757;   -6.899;  710.694
456.819;   52.365;   -7.389;  751.158
457.409;   52.498;  -11.119;  773.993
457.999;   55.638;   -9.289;  737.505
458.589;   54.963;   -6.139;  686.606
459.179;   54.318;   -8.729;  717.658
459.769;   53.951;   -9.789;  627.099
460.358;   57.942;  -10.259;  797.262
460.948;   57.844;   -7.299;  689.503
461.538;   59.471;  -10.289;  660.677
462.128;   58.852;  -11.269;  664.934
462.717;   63.568;   -9.368;  710.326
463.307;   67.845;   -7.908;  705.846
463.897;   63.307;   -9.599;  656.942
464.486;   63.316;   -9.769;  837.128
465.076;   66.745;   -8.048;  733.776
465.666;   70.575;   -9.358;  652.900
466.255;   67.946;   -7.919;  785.651
466.845;   67.538;  -11.689;  666.749
467.434;   70.916;   -7.818;  725.873
468.023;   72.614;   -7.678;  658.357
468.613;   69.727;  -10.939;  713.946
469.202;   74.380;  -10.118;  646.507
469.791;   78.134;   -9.108;  737.811
470.381;   80.572;   -6.058;  742.813
470.970;   79.685;  -10.428;  711.099
471.559;   79.798;  -10.268;  733.291
472.148;   82.592;   -8.448;  675.737
472.738;   85.682;   -6.917;  765.466
473.327;   84.916;  -11.978;  637.529
473.916;   85.539;  -11.888;  737.446
474.505;   89.897;   -9.437;  751.703
475.094;   92.145;   -6.747;  806.570
475.683;   91.749;   -9.367;  797.699
476.272;   93.055;  -12.637;  730.632
476.861;   96.233;  -10.027;  706.754
477.449;  102.327;   -8.716;  728.487
478.038;   96.545;   -9.577;  692.513
478.627;   98.881;   -9.718;  714.852
479.216;  105.009;   -8.947;  769.441
479.805;  108.830;   -6.256;  783.375
480.393;  107.797;   -7.937; 1008.945
480.982;  107.667;   -7.717;  874.501
481.571;  114.035;   -9.266;  858.333
482.159;  114.978;   -7.636;  705.386
482.748;  115.480;   -9.667;  821.385
483.336;  120.228;  -10.376;  858.209
483.925;  121.180;   -7.147;  774.373
484.513;  128.351;   -7.996;  758.962
485.102;  124.650;  -10.027;  810.965
485.690;  134.401;  -10.446; 1011.050
486.278;  136.921;   -8.446;  979.329
486.867;  138.055;   -6.356;  809.662
487.455;  141.282;   -9.136;  898.229
488.043;  143.717;  -10.646;  748.361
488.631;  153.033;   -7.456; 1005.079
489.220;  158.292;   -6.636;  908.626
489.808;  160.505;  -11.036;  741.415
490.396;  171.435;  -10.246;  914.645
490.984;  182.666;   -8.556;  830.161
491.572;  198.377;   -5.886;  940.315
492.160;  211.391;   -9.486;  919.081
492.748;  230.182;  -10.976;  884.341
493.336;  266.331;   -8.776; 1019.693
493.924;  321.326;   -5.465;  958.077
494.512;  385.840;   -9.986; 1066.638
495.100;  456.840;  -10.636; 1103.280
495.687;  564.702;  -10.885; 1206.373
496.275;  680.501;   -8.126; 1150.796
496.863;  792.771;  -10.586; 1281.171
497.451;  965.941;  -11.926; 1386.805
498.038; 1113.922;  -10.885; 1556.729
498.626; 1313.180;   -6.315; 1741.407
499.214; 1637.785;   -7.326; 2016.609
499.801; 2009.731;  -11.906; 2220.633
500.389; 2459.365;  -10.466; 2312.494
500.976; 2818.082;   -5.236; 2744.849
501.564; 3453.572;   -8.936; 3148.565
502.151; 4335.186;  -13.176; 3515.999
502.738; 4996.177;  -10.646; 3971.274
503.326; 5491.056;   -9.525; 4403.796
503.913; 5892.546;  -10.856; 5161.749
504.500; 6552.899;  -11.586; 5986.420
505.088; 7347.195;  -10.336; 6381.201
505.675; 8405.733;   -6.355; 6925.547
506.262; 9053.839;   -9.046; 7619.060
506.849; 9481.469;  -10.416; 8733.969
507.436;10336.696;  -10.305; 9790.121
508.023;10970.633;   -5.496; 9985.472
508.610;10892.600;   -7.856;10434.618
509.197;11756.521;  -10.097;11198.435
509.784;13431.112;  -10.886;12391.194
510.371;15130.431;   -9.315;13603.713
510.958;16610.191;   -9.936;14426.586
511.545;17289.975;   -9.326;15243.775
512.132;17185.994;  -10.075;15945.876
512.719;17752.480;   -7.796;16340.369
513.305;19064.553;  -10.606;18011.766
513.892;21015.752;  -11.486;19754.971
514.479;22710.180;   -9.126;20967.805
515.066;23547.873;   -6.026;22299.793
515.652;22928.043;   -8.466;22908.660
516.239;23349.381;  -10.886;23798.875
516.825;24643.301;  -11.496;25567.275
517.412;26344.100;   -5.796;28154.959
517.998;27593.473;  -10.506;28344.111
518.585;28492.289;  -10.076;27134.219
519.171;27670.627;   -8.315;27268.576
519.758;28921.408;   -8.596;28964.129
520.344;31345.428;   -8.466;30664.494
520.930;30434.703;  -11.006;32550.605
521.516;29116.090;  -10.495;35422.895
522.103;31090.771;   -5.526;38280.004
522.689;32811.402;   -8.746;37835.117
523.275;33605.281;  -11.376;37288.613
523.861;35663.160;  -11.156;37281.395
524.447;35846.781;   -8.135;37846.949
525.033;36194.590;   -7.896;38321.949
525.619;36773.840;  -12.476;38579.285
526.205;37059.801;   -9.516;40622.875
526.791;36355.402;   -6.926;42258.836
527.377;35440.465;   -8.346;42966.902
527.963;37191.859;   -8.717;42018.949
528.549;38649.188;  -11.016;42476.828
529.135;36989.039;   -8.536;41854.852
529.721;37470.242;   -9.666;41237.711
530.306;36250.684;  -10.066;41259.445
530.892;35846.434;  -11.356;41506.047
531.478;37826.172;   -6.596;43559.613
532.063;40278.242;   -8.836;47695.563
532.649;39105.660;  -10.047;50808.324
533.235;39922.867;   -9.746;51787.500
533.820;41677.008;   -6.566;52145.035
534.406;42979.695;  -10.817;51133.488
534.991;44683.938;   -9.416;49996.805
535.576;42519.305;   -9.036;48882.852
536.162;39520.566;   -6.156;46942.285
536.747;40303.734;  -11.607;45711.746
537.333;42465.492;  -11.787;48510.180
537.918;43469.793;  -12.437;50439.891
538.503;43674.879;   -7.196;50863.711
539.088;44604.191;  -10.556;50906.922
539.673;45084.301;   -8.767;52621.965
540.259;41878.156;  -10.026;52368.094
540.844;41974.457;   -7.416;50879.109
541.429;41903.547;   -9.467;52077.777
542.014;40762.648;   -9.527;52716.695
542.599;43733.984;   -9.946;52363.281
543.184;44965.551;   -7.927;53187.137
543.769;45923.129;   -9.297;54697.605
544.354;46310.352;  -10.127;53913.914
544.938;43819.332;   -9.267;49680.164
545.523;42207.340;   -6.506;47386.277
546.108;45095.352;   -9.787;49151.949
546.693;45203.137;  -11.587;51384.637
547.278;44195.102;  -10.986;51853.254
547.862;45013.535;   -8.206;51173.750
548.447;43503.887;  -10.067;51691.395
549.031;43103.035;   -9.637;52456.703
549.616;43242.070;   -9.926;52714.516
550.201;42764.098;   -6.347;52414.598
550.785;43286.980;   -7.917;52355.059
551.370;44134.063;  -10.867;54589.453
551.954;45988.805;   -9.047;58267.348
552.538;44971.602;   -7.827;59062.176
553.123;43173.953;  -10.287;58115.285
553.707;41854.715;  -12.178;56556.285
554.291;40304.047;   -8.717;56201.668
554.876;42507.168;   -7.457;55335.762
555.460;44882.602;  -10.387;54155.703
556.044;46508.027;   -9.618;53721.484
556.628;46679.188;  -11.567;53731.016
557.212;47041.586;   -8.097;54312.531
557.796;48816.805;  -11.077;53797.773
558.380;47513.566;  -11.108;56145.984
558.964;45708.879;   -9.057;57277.930
559.548;43210.301;   -6.977;56459.641
560.132;40832.238;  -11.457;54434.543
560.716;42143.844;  -11.378;54800.617
561.300;43222.469;   -9.577;57606.945
561.884;41668.535;   -7.127;58972.445
562.467;41877.098;   -7.118;57327.570
563.051;40131.871;  -13.358;54962.434
563.635;37546.148;  -10.178;52594.473
564.219;39302.922;   -7.837;50610.410
564.802;43398.523;  -11.398;49551.180
565.386;44285.809;  -12.788;48370.953
565.969;44721.203;   -9.077;48178.871
566.553;44108.508;   -6.207;49957.305
567.136;42828.758;   -8.568;50369.594
567.720;43543.066;  -11.868;49492.004
568.303;44502.434;   -8.268;50616.352
568.887;43588.773;   -8.698;50727.148
569.470;41605.289;   -6.808;51698.379
570.053;39457.262;  -13.188;52122.078
570.637;36695.945;  -12.037;52536.438
571.220;37205.781;   -8.577;51186.098
571.803;37430.883;   -8.498;51032.762
572.386;39389.719;  -10.498;49609.887
572.969;40833.707;   -9.388;48285.926
573.552;41934.680;   -8.338;47624.285
574.135;41888.977;   -8.518;45498.641
574.718;37760.082;  -13.628;41970.434
575.301;37207.129;  -10.893;41447.137
575.884;36654.180;   -8.158;40923.836
576.467;41824.723;  -10.328;45267.723
577.050;42521.242;  -13.058;48175.543
577.633;41044.656;   -9.458;47729.328
578.216;37630.617;   -8.928;47579.793
578.799;35378.910;   -9.358;47820.996
579.381;36156.301;  -11.388;48115.551
579.964;36112.598;  -11.718;47333.766
580.547;34774.285;   -8.588;46668.969
581.129;35181.613;   -8.859;44466.141
581.712;37106.758;  -10.729;44164.922
582.294;37348.395;  -11.118;46477.855
582.877;37520.367;   -5.218;48244.254
583.459;37479.633;   -8.679;47437.895
584.042;38981.688;  -10.709;46943.219
584.624;37453.805;  -11.669;46792.227
585.206;36606.242;   -8.218;46557.250
585.789;37412.414;  -10.569;45793.773
586.371;37757.398;  -11.859;43836.391
586.953;38506.043;  -10.719;42972.492
587.536;40378.445;   -7.198;42487.211
588.118;39514.598;   -8.720;42086.414
588.700;38422.418;  -10.439;43389.930
589.282;36048.965;   -9.198;43646.039
589.864;33524.844;   -9.199;43438.109
590.446;33033.371;  -11.319;43151.926
591.028;33309.148;  -11.159;42781.867
591.610;33419.609;  -11.779;42839.098
592.192;34532.523;   -7.668;42820.402
592.774;33710.914;  -11.949;40724.277
593.356;31945.359;  -12.129;39874.789
593.937;32263.426;  -10.669;39980.648
594.519;34194.852;   -6.509;42069.633
595.101;33633.508;  -10.849;42976.031
595.683;32278.639;  -11.679;44084.441
596.264;31775.814;   -9.049;43478.797
596.846;31343.162;   -8.849;43803.672
597.427;31509.857;   -9.570;42986.934
598.009;33636.223;  -12.620;42832.219
598.591;33817.047;  -10.039;42580.086
599.172;35496.965;  -10.369;43061.805
599.753;37232.914;   -9.140;41691.469
600.335;36622.512;  -11.430;40692.520
600.916;33963.016;   -9.939;39982.422
601.498;30949.994;   -8.479;40318.617
602.079;30019.383;  -10.920;40670.609
602.660;30046.035;  -11.480;41450.898
603.241;31787.910;  -11.699;41137.738
603.823;32559.738;   -9.579;38868.797
604.404;32228.426;  -10.620;38182.785
604.985;34898.223;  -10.450;38078.047
605.566;35778.348;   -9.129;38056.633
606.147;36712.000;   -7.510;37020.418
606.728;35225.215;  -10.660;37883.359
607.309;33073.266;  -11.740;38748.273
607.890;32970.676;   -9.759;38850.230
608.471;31849.848;   -8.250;37457.918
609.051;31215.234;   -9.240;36066.457
609.632;30330.539;  -12.120;35991.074
610.213;30377.898;   -9.110;37402.641
610.794;31792.641;   -8.030;38383.363
611.374;30696.730;   -8.110;40562.387
611.955;30583.506;  -13.560;38533.727
612.536;31245.348;  -11.400;36951.789
613.116;30482.260;   -8.070;37197.891
613.697;31683.752;  -10.830;38411.125
614.277;31542.596;  -11.641;38673.938
614.858;31053.535;  -13.310;37075.863
615.438;31384.764;   -7.460;35092.906
616.019;29072.859;   -7.601;33666.301
616.599;29819.939;  -12.020;34189.023
617.179;29942.732;  -11.780;36952.047
617.760;28814.664;   -8.570;39582.574
618.340;28835.219;  -11.471;38943.977
618.920;28412.184;  -11.170;37594.156
619.500;29219.867;  -11.071;37866.938
620.080;30180.537;   -7.750;37869.043
620.660;30809.002;  -12.711;36868.617
621.241;31511.754;  -10.211;36352.309
621.821;30552.945;  -10.961;35459.520
622.401;30637.238;   -7.720;35207.414
622.980;32811.969;   -8.981;35980.422
623.560;31308.264;   -9.331;37351.328
624.140;27427.162;   -9.850;34388.582
624.720;23780.953;   -7.451;32368.764
625.300;23066.172;   -9.070;32638.629
625.880;27271.980;  -12.601;34599.035
626.459;30542.277;  -11.751;36831.738
627.039;30296.268;   -9.281;38299.098
627.619;29856.355;   -8.801;38289.574
628.198;29530.152;  -12.071;37220.695
628.778;29426.834;   -9.461;37632.563
629.357;30037.990;   -8.491;38003.012
629.937;29901.219;   -9.721;38402.039
630.516;30791.963;   -9.951;37868.801
631.096;32546.313;  -11.731;35760.410
631.675;35236.148;   -8.572;35225.219
632.254;34631.527;  -11.282;35130.289
632.834;33141.137;  -13.322;35794.570
633.413;33830.574;  -10.301;35788.922
633.992;34429.531;   -8.582;34532.863
634.571;35204.168;   -8.352;33590.113
635.151;34104.703;  -11.912;34943.863
635.730;32598.402;  -10.511;35352.523
636.309;32527.645;   -7.731;35366.605
636.888;32087.715;   -9.952;36165.637
637.467;31682.896;  -11.672;37515.902
638.046;30034.996;   -8.901;39288.695
638.625;29208.064;   -7.912;38279.699
639.204;28406.316;  -10.022;37741.598
639.782;30382.533;  -12.252;38364.551
640.361;32013.191;  -10.041;36740.621
640.940;30890.570;  -11.161;34950.082
641.519;30525.795;   -9.701;34137.398
642.097;31555.680;  -11.271;35654.258
642.676;31046.506;   -8.651;35637.957
643.255;30466.393;   -8.711;36567.074
643.833;31178.666;   -9.581;37809.434
644.412;31619.910;  -13.711;37337.293
644.990;32676.617;  -11.811;37018.531
645.569;34973.113;   -9.411;36518.469
646.147;35855.797;  -10.291;36186.430
646.726;34961.391;  -12.401;36267.688
647.304;33764.938;  -10.411;36647.625
647.882;34276.691;   -9.651;39286.742
648.461;33620.941;   -9.631;39157.703
649.039;30481.127;  -11.881;35412.883
649.617;30037.268;   -9.661;34744.918
650.195;30542.387;   -9.301;35403.098
650.773;30088.996;  -10.511;35053.797
651.352;29725.023;  -11.521;33756.816
651.930;29080.113;  -12.211;31868.773
652.508;28786.469;   -9.171;33121.551
653.086;29840.197;   -9.371;33564.793
653.663;32149.879;  -13.161;34054.668
654.241;30778.869;  -13.031;35693.309
654.819;28427.404;   -9.371;36422.906
655.397;28916.225;  -10.511;38213.484
655.975;29078.033;  -10.371;39507.625
656.553;30218.990;  -10.051;39498.223
657.130;30927.031;  -10.061;40395.480
657.708;27310.264;   -9.561;39242.020
658.286;24420.865;  -11.511;38920.020
658.863;24671.295;  -10.261;40202.898
659.441;27429.250;   -7.531;39677.938
660.018;30269.701;   -9.501;40413.355
660.596;31087.246;  -13.301;39931.414
661.173;33486.832;  -11.211;39604.531
661.750;32573.744;   -9.951;39700.070
662.328;29949.498;   -9.390;39292.809
662.905;28359.057;  -11.330;38235.648
663.482;25460.514;   -9.050;36212.305
664.060;23835.273;   -8.240;35944.945
664.637;27750.186;  -10.050;35170.785
665.214;31616.258;  -11.760;34197.523
665.791;30486.420;  -10.530;34549.520
666.368;31069.668;   -9.690;35118.578
666.945;32211.408;   -9.320;36019.418
667.522;32706.941;  -11.860;36048.438
668.099;32146.090;  -10.770;36243.914
668.676;33232.613;   -6.260;35958.875
669.253;34773.273;   -7.000;37384.730
669.830;34219.180;  -10.190;36779.629
670.407;32519.383;   -9.550;35231.289
670.984;31807.523;   -9.260;35544.270
671.560;30729.867;   -9.280;35466.867
672.137;28966.365;  -11.810;34280.863
672.714;28709.299;  -11.490;34632.863
673.290;29390.744;   -7.740;35135.422
673.867;29340.084;  -10.660;36114.480
674.443;28324.404;  -12.230;36152.859
675.020;27121.592;  -10.450;35327.238
675.596;25835.098;   -9.260;35795.176
676.173;26642.020;  -10.780;35430.355
676.749;27369.379;  -13.690;33549.516
677.326;28157.736;  -11.980;32210.012
677.902;26016.686;   -8.630;32068.871
678.478;24834.791;  -10.730;32583.891
679.054;26824.168;  -10.520;32088.928
679.631;27777.406;  -11.920;30978.848
680.207;28312.953;   -7.490;33160.887
680.783;29662.096;   -9.860;35570.363
681.359;31380.162;  -13.380;36125.184
681.935;31792.420;  -12.480;35240.922
682.511;31654.867;   -7.900;34429.961
683.087;30996.248;   -7.710;34463.680
683.663;31616.592;  -11.480;34648.898
684.239;31843.412;  -14.090;34546.457
684.815;33264.195;   -7.560;35586.375
685.390;33202.016;   -9.910;35821.895
685.966;32439.424;  -11.159;35085.871
686.542;32856.621;  -11.169;34198.230
687.118;31392.230;   -5.959;32847.707
687.693;31274.324;  -10.329;32794.027
688.269;30737.955;  -12.059;33072.367
688.844;31314.846;  -10.909;33141.664
689.420;32097.535;   -8.019;33965.742
689.995;28859.555;   -8.399;34655.523
690.571;27854.086;  -10.949;33576.742
691.146;27232.201;   -9.619;32657.219
691.722;25646.580;   -8.999;32526.979
692.297;25457.588;  -11.589;33014.617
692.872;26140.826;  -11.739;34012.254
693.448;26328.701;  -11.059;34237.434
694.023;28191.391;  -10.139;34142.672
694.598;30399.195;   -9.029;34132.031
695.173;29805.182;  -13.319;34205.250
695.748;27242.004;  -10.169;32882.488
696.323;25396.977;   -8.339;32864.906
696.898;25790.832;   -8.169;33170.004
697.473;28592.256;  -12.309;32432.984
698.048;27627.729;  -10.989;31649.303
698.623;26409.238;   -9.329;30778.141
699.198;27539.867;   -9.849;31140.119
699.773;28787.525;  -12.329;31764.299
700.348;28495.639;  -10.389;31780.816
700.922;26691.631;   -9.269;32046.375
701.497;25704.740;   -9.329;32603.574
702.072;27608.043;  -10.789;34799.871
702.646;27891.990;  -10.839;35793.172
703.221;28779.813;   -9.099;35201.590
703.795;29049.313;  -10.939;34764.527
704.370;27298.078;  -12.859;34307.367
704.944;28421.043;  -11.559;33509.887
705.519;29449.672;   -7.939;31388.584
706.093;30882.793;  -10.499;31340.104
706.668;31945.490;  -11.289;32630.281
707.242;31042.596;  -11.509;32728.779
707.816;29931.967;   -9.639;32947.238
708.390;29357.680;  -11.429;33277.855
708.965;30260.098;  -11.869;33834.336
709.539;30589.660;  -11.689;33709.273
710.113;30485.705;  -10.478;33044.313
710.687;27958.340;  -10.228;31953.992
711.261;26892.627;  -13.698;30505.949
711.835;26560.012;  -13.378;30262.369
712.409;26899.670;   -9.698;31254.447
712.983;26003.555;  -11.898;32754.986
713.557;24671.420;  -15.138;34018.824
714.131;26307.332;  -14.098;34579.625
714.704;26252.410;   -9.958;33890.262
715.278;25881.557;  -10.028;33531.102
715.852;25341.590;  -11.148;33601.660
716.425;24747.572;   -9.068;33515.117
716.999;25772.221;  -10.038;33185.555
717.573;25950.119;   -9.798;33905.996
718.146;27541.658;  -12.378;35199.293
718.720;28509.105;  -11.918;35060.551
719.293;27544.424;   -8.088;34973.230
719.867;26431.029;  -10.888;36394.449
720.440;27131.115;  -11.938;36663.008
721.013;29379.215;  -12.818;35102.426
721.587;31032.791;  -10.298;33985.266
722.160;30539.631;  -10.048;33524.965
722.733;28387.516;  -12.108;32987.043
723.306;26172.561;  -10.818;33066.301
723.880;26639.078;   -8.908;33399.500
724.453;25606.902;   -9.878;33468.297
725.026;25529.357;  -11.188;33816.637
725.599;25746.992;  -11.678;32797.996
726.172;25051.154;   -9.618;33187.434
726.745;25869.266;   -8.258;35136.613
727.318;28718.322;  -12.978;35751.730
727.891;30375.578;  -12.148;35890.430
728.463;31356.063;   -8.968;34822.090
729.036;31294.738;  -10.188;32895.086
729.609;29178.113;  -11.788;31823.225
730.182;27811.100;  -11.788;31445.283
730.754;27359.266;  -10.268;32373.223
731.327;27186.080;   -9.998;33676.820
731.900;26187.096;  -12.228;33417.000
732.472;25167.039;  -13.848;31978.498
733.045;25221.650;   -8.698;30368.777
733.617;24845.109;  -10.607;30574.215
734.190;22926.684;  -11.507;31280.975
734.762;23139.096;  -13.647;31674.412
735.334;24623.516;   -9.767;31247.291
735.907;24348.998;   -9.897;29876.211
736.479;22252.369;  -11.637;29808.488
737.051;22334.064;   -9.567;30233.547
737.623;23137.865;   -8.187;31469.086
738.195;24414.082;  -11.187;31784.225
738.768;24939.518;  -12.337;32120.523
739.340;24665.330;  -12.227;32094.342
739.912;24421.713;  -11.057;31312.680
740.484;25128.350;  -10.207;31946.238
741.056;26287.805;  -10.047;32984.059
741.628;25893.789;  -13.627;33897.715
742.199;26308.209;   -7.177;33213.016
742.771;24609.029;  -10.797;31369.113
743.343;23127.627;  -11.997;31865.473
743.915;22816.352;  -12.867;32388.631
744.487;23241.602;   -7.617;31079.568
745.058;24465.139;   -9.557;30570.107
745.630;24133.658;   -9.877;29970.127
746.201;22728.330;  -14.177;29186.766
746.773;22515.002;   -9.237;28805.723
747.344;22973.598;   -9.847;29591.223
747.916;22655.213;  -11.657;31412.201
748.487;21547.957;  -10.587;32194.898
749.059;21410.748;   -8.707;32533.719
749.630;20564.383;  -10.537;32158.518
750.201;20534.908;  -11.687;30855.395
750.773;21082.275;  -11.647;28622.555
751.344;22673.676;   -7.147;28405.732
751.915;22701.031;   -9.757;28461.551
752.486;22326.477;  -12.427;27842.850
753.057;21000.533;  -12.227;27845.008
753.628;20356.148;  -10.417;27728.107
754.199;20191.414;  -11.767;27381.086
754.770;19736.299;  -11.187;25882.203
755.341;19254.457;  -10.507;25886.184
755.912;19470.357;   -9.387;26050.861
756.483;19851.645;  -10.647;26798.779
757.054;19078.203;  -11.837;27048.238
757.625;17497.848;  -12.716;26294.838
758.195;17269.021;   -9.666;26142.076
758.766;18106.713;   -8.656;26392.234
759.337;17639.396;  -12.856;26334.594
759.907;16730.490;  -13.366;27579.652
760.478;15972.206;   -8.576;28352.770
761.048;16371.167;  -10.526;27325.088
761.619;16927.980;  -11.116;26460.428
762.189;16570.537;  -12.136;26029.826
762.760;16346.672;   -9.456;26430.145
763.330;16368.012;   -7.136;26670.902
763.900;16234.197;  -11.786;26603.021
764.471;15750.180;  -11.546;25542.740
765.041;15626.848;   -8.096;24358.459
765.611;15490.854;   -8.876;23991.297
766.181;15629.109;  -12.196;24470.236
766.751;16482.688;  -11.636;24845.975
767.321;16404.221;  -10.156;24533.633
767.891;15987.613;  -11.766;24916.492
768.461;15745.188;  -14.936;24776.771
769.031;15086.695;  -12.356;24757.988
769.601;14848.068;   -7.526;24181.088
770.171;15075.247;  -10.766;23670.387
770.741;15800.104;  -13.176;22960.045
771.311;15561.139;  -10.616;22917.523
771.880;14274.899;   -9.576;23562.941
772.450;13726.995;  -10.336;24216.500
773.020;14034.676;  -13.516;24140.398
773.589;14207.902;  -13.466;24414.857
774.159;13743.854;   -8.686;23858.717
774.729;12903.817;   -9.476;22942.135
775.298;12844.734;  -13.666;22324.033
775.867;12842.577;  -11.716;21140.313
776.437;12184.251;   -9.906;20838.092
777.006;12055.611;  -12.166;20599.510
777.576;13202.371;  -12.356;20508.809
778.145;12877.445;  -11.646;20732.947
778.714;12219.537;   -8.226;21062.465
779.283;12082.120;   -9.556;20949.664
779.853;11829.049;  -14.116;20508.623
780.422;11648.089;  -11.506;20649.082
780.991;11965.123;   -9.556;21527.520
781.560;12507.553;   -9.095;22632.658
782.129;11681.520;  -12.135;23048.277
782.698;11010.112;  -10.865;23438.555
783.267;10650.891;   -9.335;23267.734
783.836;10786.883;  -11.045;22415.133
784.404;11268.155;  -13.865;20443.152
784.973;11446.097;  -13.095;19699.150
785.542;11252.152;  -11.575;19763.828
786.111;11092.254;   -9.705;20341.408
786.679;11088.018;  -12.105;20207.967
787.248;11043.489;  -12.455;19516.465
787.817;11072.267;  -11.535;18900.363
788.385;10917.458;   -9.765;17879.121
788.954;10804.371;  -14.005;17658.301
789.522;10696.437;  -11.955;17788.879
790.090; 9935.090;  -10.135;18118.277
790.659; 9291.257;  -10.975;18338.736
791.227; 9542.216;  -13.375;18508.615
791.795; 9995.863;  -12.375;17898.254
792.364;10244.223;  -10.725;17295.133
792.932;10615.042;   -9.715;16822.051
793.500;10638.233;  -12.675;17040.148
794.068;11141.898;  -13.495;17179.787
794.636;11330.513;  -10.885;16664.246
795.204;11115.597;  -11.045;16524.545
795.772;11176.603;  -13.175;17274.564
796.340;10841.531;  -12.445;17891.002
796.908;10892.726;   -9.735;17648.561
797.476;11227.135;   -9.815;17064.080
798.044;11024.715;  -13.985;16672.777
798.612;10371.312;  -13.115;17023.996
799.180; 9516.798;  -10.185;16561.615
799.747; 9474.781;   -9.055;15962.773
800.315; 9912.730;  -12.385;15296.992
800.883; 9334.374;  -15.035;14801.771
801.450; 8714.076;  -10.365;14534.430
802.018; 8626.130;   -9.855;14173.248
802.585; 8661.162;  -11.905;14029.547
803.153; 8788.468;  -11.585;13836.846
803.720; 8490.048;   -9.095;13567.324
804.287; 8329.596;   -9.135;13360.622
804.855; 8461.698;  -11.604;13681.981
805.422; 8956.192;  -11.794;13536.560
805.989; 9203.025;  -10.734;13355.958
806.556; 9231.082;  -10.444;13747.896
807.124; 9790.649;  -12.764;13987.376
807.691;10216.499;  -12.964;14038.674
808.258;10126.911;  -11.134;14120.152
808.825;10126.537;   -9.854;13860.111
809.392; 9775.962;  -10.504;13268.790
809.959; 8992.581;  -13.054;12680.389
810.526; 8209.074;   -8.294;12427.308
811.093; 7494.769;   -8.394;12030.105
811.659; 7285.197;  -12.304;11653.664
812.226; 7475.299;  -13.944;11637.183
812.793; 7825.973;  -10.484;11611.521
813.360; 7892.969;  -10.144;11885.181
813.926; 7944.688;  -11.684;12770.539
814.493; 7847.932;  -13.644;12677.638
815.060; 7747.314;   -9.724;11974.336
815.626; 7925.163;   -9.854;11594.715
816.193; 7927.152;  -13.254;11579.474
816.759; 7234.358;  -13.204;11666.972
817.325; 6787.173;   -9.434;11325.530
817.892; 6655.440;  -10.134;11105.369
818.458; 6826.172;  -13.474;10843.928
819.024; 7185.195;  -11.854;10714.406
819.591; 7102.433;  -10.244;10469.165
820.157; 6810.812;  -10.704;10235.523
820.723; 6803.973;  -12.324;10847.563
821.289; 6658.437;   -9.444;11040.980
821.855; 6656.567;   -8.374;10357.100
822.421; 6957.398;  -10.234; 9978.918
822.987; 6955.366;  -13.294; 9754.177
823.553; 6725.495;  -10.884;10065.755
824.119; 6454.350;   -8.884;10036.294
824.685; 5876.536;   -6.784;10029.192
825.251; 5664.749;  -12.004;10199.230
825.816; 5313.976;  -11.474; 9820.189
826.382; 5098.617;   -9.174; 9297.248
826.948; 5435.894;   -9.214; 9381.347
827.513; 5825.738;  -10.774; 9450.726
828.079; 5806.557;  -11.924; 9472.444
828.645; 5557.875;  -10.543; 9292.643
829.210; 5363.567;  -10.533; 9065.341
829.776; 5261.228;  -10.753; 9132.620
830.341; 5403.598;  -10.173; 9092.878
830.906; 5462.493;  -10.743; 9078.557
831.472; 5295.598;  -11.113; 8534.535
832.037; 4979.730;  -10.603; 8677.874
832.602; 4832.261;  -13.323; 8628.692
833.167; 4574.438;  -10.823; 8879.031
833.733; 4406.773;  -10.113; 9189.790
834.298; 4196.496;  -13.583; 9052.608
834.863; 4362.868;  -12.703; 8895.087
835.428; 4532.771;  -10.523; 8824.266
835.993; 4460.493;   -6.963; 8845.385
836.558; 4429.559;  -10.763; 8888.563
837.123; 4592.444;   -9.903; 8966.582
837.688; 4975.725;   -9.913; 8617.860
838.253; 5006.599;  -10.283; 8590.699
838.817; 4685.185;  -12.963; 8443.797
839.382; 4569.734;  -14.243; 8799.356
839.947; 4609.503;  -10.733; 8810.595
840.511; 4576.780;   -9.383; 8796.394
841.076; 4449.857;  -12.563; 8347.231
841.641; 4315.449;  -12.953; 8224.330
842.205; 4207.428;   -7.043; 8223.349
842.770; 3989.817;   -8.163; 8622.107
843.334; 4157.638;  -12.503; 8410.386
843.898; 4371.261;  -11.693; 8337.465
844.463; 3972.167;  -10.203; 8506.283
845.027; 3661.544;   -9.533; 8280.962
845.591; 3669.605;  -13.443; 8231.141
846.156; 3686.142;  -13.143; 7969.179
846.720; 3525.381;   -9.433; 7768.278
847.284; 3503.425;  -11.033; 7630.957
847.848; 3578.283;  -10.403; 7472.395
848.412; 3430.559;  -11.553; 7437.394
848.976; 3271.428;   -8.393; 7674.592
849.540; 3224.218;   -8.713; 7836.011
850.104; 3246.023;  -12.463; 7913.669
850.668; 3334.384;  -12.973; 7694.508
851.232; 3303.604;  -10.793; 7756.887
851.796; 3357.857;  -10.662; 7926.545
852.359; 3463.658;  -13.082; 7827.844
852.923; 3473.462;  -12.192; 7641.163
853.487; 3468.698;  -11.912; 7342.501
854.050; 3282.850;  -10.892; 7042.820
854.614; 3355.266;  -13.992; 7151.338
855.177; 3440.085;  -11.732; 7105.077
855.741; 3290.733;   -8.962; 6989.675
856.304; 3136.641;   -9.442; 6596.634
856.868; 2996.809;  -14.192; 6356.272
857.431; 2969.391;  -12.702; 6468.571
857.995; 3039.952;   -9.942; 6373.210
858.558; 3157.276;   -9.112; 6324.448
859.121; 3066.968;  -12.932; 6408.327
859.684; 2957.530;  -13.442; 6347.886
860.247; 2906.249;  -10.632; 6321.264
860.810; 2851.359;  -11.272; 6301.903
861.374; 2777.575;   -9.832; 6607.881
861.937; 2682.499;  -11.762; 6408.200
862.500; 2658.184;   -9.722; 6572.639
863.062; 2610.811;  -10.512; 6387.297
863.625; 2592.260;  -11.232; 6190.836
864.188; 2639.002;  -14.112; 5807.254
864.751; 2660.711;  -11.302; 5682.413
865.314; 2559.378;  -10.112; 5547.492
865.876; 2439.487;  -12.182; 5500.150
866.439; 2323.341;  -10.722; 5415.909
867.002; 2236.841;   -9.252; 5501.567
867.564; 2304.425;   -9.572; 5413.946
868.127; 2337.594;  -13.142; 5160.325
868.689; 2377.976;  -12.902; 5133.183
869.252; 2465.490;   -9.732; 5252.382
869.814; 2398.460;   -9.432; 5297.141
870.377; 2312.526;  -11.552; 5390.919
870.939; 2299.441;   -9.052; 5599.898
871.501; 2230.249;  -10.982; 5248.336
872.063; 2132.573;  -12.292; 4854.235
872.626; 2074.820;  -14.912; 4817.074
873.188; 1994.803;  -13.112; 4987.732
873.750; 1967.564;  -13.442; 4868.651
874.312; 1939.439;   -9.402; 4779.330
874.874; 1915.467;  -11.062; 4866.348
875.436; 1805.624;  -13.931; 4718.887
875.998; 1687.154;   -9.561; 4660.005
876.560; 1667.530;  -11.321; 4462.964
877.122; 1726.928;  -12.221; 4145.042
877.683; 1831.276;  -12.191; 4056.481
878.245; 1870.060;  -12.101; 3950.740
878.807; 1904.764;   -8.971; 4058.958
879.369; 1850.813;  -12.071; 3954.677
879.930; 1714.345;  -14.621; 3941.495
880.492; 1629.228;  -10.311; 4067.014
881.053; 1620.459;  -10.901; 3859.633
881.615; 1591.244;  -14.411; 3776.071
882.176; 1522.721;  -13.761; 3734.750
882.738; 1465.204;   -9.181; 3678.489
883.299; 1459.811;  -11.791; 3405.407
883.860; 1472.250;  -13.121; 3351.106
884.422; 1408.851;  -11.211; 3394.044
884.983; 1321.885;  -10.091; 3166.443
885.544; 1275.431;   -8.461; 3189.802
886.105; 1206.933;  -12.361; 3160.360
886.666; 1146.525;  -14.141; 3093.059
887.227; 1124.197;  -11.361; 2941.957
887.788; 1063.573;  -11.401; 2974.836
888.349;  964.987;  -13.791; 2721.214
888.910;  924.044;  -13.191; 2696.493
889.471;  898.621;   -9.881; 2560.172
890.032;  906.726;   -9.881; 2558.190
890.593;  883.144;  -10.371; 2567.669
891.153;  791.191;  -13.301; 2460.307
891.714;  695.777;  -11.431; 2372.046
892.275;  661.215;  -11.291; 2309.505
892.835;  667.803;  -11.471; 2382.543
893.396;  652.919;  -11.541; 2295.502
893.956;  622.485;  -11.181; 2162.420
894.517;  580.802;  -11.741; 2125.439
895.077;  528.916;  -11.671; 2086.978
895.638;  492.731;  -11.311; 2126.316
896.198;  483.233;   -9.831; 1838.275
896.758;  468.698;   -8.421; 1892.813
897.319;  447.990;  -12.351; 1792.232
897.879;  427.161;  -13.511; 1762.751
898.439;  393.416;  -12.001; 1661.149
898.999;  372.317;  -10.180; 1781.468
899.559;  365.990;  -12.030; 1703.347
900.119;  356.700;  -15.710; 1537.525
900.679;  345.445;   -8.900; 1638.384
901.239;  325.531;   -8.340; 1527.902
901.799;  297.246;  -13.910; 1456.441
902.359;  276.928;  -13.460; 1357.140
902.919;  269.931;  -11.490; 1331.118
903.479;  270.386;  -12.110; 1317.257
904.038;  262.950;  -11.720; 1262.595
904.598;  253.286;  -13.610; 1152.034
905.158;  241.778;  -11.040; 1240.893
905.717;  227.184;  -10.900; 1233.691
906.277;  219.949;  -15.080; 1217.330
906.836;  218.409;  -13.380; 1222.408
907.396;  215.011;  -10.780; 1193.047
907.955;  206.843;   -8.500; 1182.526
908.515;  201.704;  -12.760; 1099.364
909.074;  201.380;  -11.900; 1092.863
909.633;  199.852;   -8.950; 1069.121
910.192;  197.339;   -8.770; 1196.460
910.752;  187.603;  -12.390; 1029.960
911.311;  177.566;  -13.680; 1009.780
911.870;  168.412;  -12.370;  971.460
912.429;  163.108;  -10.900; 1094.080
912.988;  161.015;  -11.690; 1081.060
913.547;  158.999;  -13.240;  940.380
914.106;  156.909;  -11.990;  999.420
914.665;  155.034;   -9.990;  984.020
915.224;  154.301;  -12.880; 1035.760
915.782;  151.369;  -12.350;  922.560
916.341;  150.150;   -9.110; 1049.840
916.900;  147.002;   -9.270;  925.260
917.458;  145.711;  -13.240;  884.220
918.017;  144.549;  -13.550;  942.600
918.576;  142.804;  -12.320;  904.440
919.134;  140.559;  -11.490;  837.980
919.693;  138.448;  -13.670;  893.060
920.251;  137.365;  -15.470;  876.500
920.809;  137.190;  -11.290;  839.580
921.368;  136.800;  -10.210;  885.360
921.926;  135.405;  -12.140;  842.940
922.484;  132.150;  -13.080;  903.360
923.042;  131.797;  -11.720;  880.340
923.601;  132.242;   -7.480;  998.680
924.159;  129.748;  -11.570;  935.560
924.717;  128.488;  -13.840;  841.080
925.275;  128.650;  -10.640;  903.240
925.833;  126.956;  -11.540;  779.320
926.391;  128.914;  -12.960;  938.380
926.949;  128.140;  -14.130;  857.680
927.506;  128.003;  -11.750;  903.500
928.064;  127.923;  -10.250;  877.580
928.622;  129.285;  -13.030;  880.100
929.180;  131.128;  -13.400;  814.180
929.737;  132.315;  -10.700;  808.540
930.295;  133.748;  -10.070;  928.480
930.853;  135.103;  -11.960;  849.100
931.410;  134.879;  -13.120;  821.120
931.968;  137.072;  -10.770;  940.660
932.525;  137.492;  -10.680;  909.380
933.082;  136.970;  -13.130;  811.440
933.640;  138.011;  -13.210;  925.900
934.197;  138.245;  -11.060;  886.360
934.754;  137.959;   -9.580;  897.780
935.312;  140.052;  -14.000;  863.340
935.869;  140.374;  -10.710; 1012.980
936.426;  138.145;   -9.860;  872.800
936.983;  138.238;   -9.710;  889.020
937.540;  139.563;  -13.990;  838.280
938.097;  144.263;  -14.040;  940.120
938.654;  146.701;  -10.310;  898.860
939.211;  146.387;  -10.560;  952.480
939.768;  146.678;  -13.900;  915.420
940.324;  149.996;  -14.760;  904.200
940.881;  151.708;  -10.370;  878.500
941.438;  155.812;   -8.260; 1021.200
941.995;  154.451;  -12.540;  992.560
942.551;  154.670;  -14.670;  875.620
943.108;  155.742;  -10.450;  937.920
943.664;  155.435;  -10.750;  869.340
944.221;  160.541;  -11.550; 1088.140
944.777;  160.762;  -14.770;  869.680
945.334;  158.420;  -12.820;  884.840
945.890;  153.912;  -10.130;  946.480
946.446;  151.716;  -13.470;  947.020
947.003;  152.730;  -12.120;  964.940
947.559;  153.240;   -9.980; 1063.040
948.115;  150.182;   -9.080; 1026.540
948.671;  147.065;  -10.830;  967.300
949.227;  147.021;  -12.440;  859.560
949.783;  147.374;  -12.910;  858.900
950.339;  151.305;  -10.270;  991.000
950.895;  153.884;  -13.630; 1023.840
951.451;  151.927;  -15.100;  925.280
952.007;  150.406;  -11.330;  998.540
952.563;  145.642;  -10.580;  937.780
953.118;  142.756;  -13.440;  904.940
953.674;  142.191;  -12.710;  935.780
954.230;  144.324;  -10.350;  949.640
954.785;  146.823;   -9.190;  936.640
955.341;  149.369;  -11.200;  998.160
955.897;  145.149;  -16.560;  834.660
956.452;  142.916;  -12.570;  953.840
957.008;  141.009;   -7.970; 1083.640
957.563;  136.466;  -11.940; 1009.540
958.118;  132.420;  -13.450;  877.700
958.674;  130.535;  -12.030;  946.780
959.229;  131.335;   -9.410; 1013.980
959.784;  131.495;  -12.000;  832.400
960.339;  132.739;  -14.780; 1001.280
960.894;  131.224;   -9.860;  963.760
961.449;  126.952;   -9.970;  859.960
962.004;  127.385;  -10.900; 1212.840
962.559;  124.611;  -13.150;  860.140
963.114;  121.968;  -13.740;  742.480
963.669;  121.036;   -9.820;  915.500
964.224;  119.610;  -13.890;  874.340
964.779;  120.115;  -12.600;  828.420
965.334;  120.538;  -10.950; 1017.860
965.888;  117.848;  -11.170;  875.360
966.443;  119.333;  -12.540;  972.380
966.998;  117.868;  -15.780;  819.460
967.552;  115.981;   -9.760;  908.380
968.107;  114.898;   -9.060;  868.300
968.661;  115.220;  -11.950;  922.440
969.216;  111.377;  -12.800;  856.280
969.770;  109.778;  -11.210;  917.200
970.324;  110.435;  -11.610;  923.140
970.879;  110.751;  -11.370;  947.180
971.433;  112.224;  -12.540;  952.720
971.987;  109.612;  -11.320;  895.340
972.541;  108.135;  -10.720;  917.100
973.095;  106.884;   -9.680; 1009.460
973.649;  104.970;  -11.440;  809.480
974.203;  103.285;  -11.210;  829.040
974.757;  102.924;  -10.240;  855.220
975.311;  102.917;  -13.720;  872.600
975.865;  102.038;  -13.770;  881.820
976.419;  100.286;  -11.690;  857.400
976.973;   96.964;   -9.510;  849.620
977.526;   96.125;  -12.620;  949.920
978.080;   93.933;  -12.010;  796.780
978.634;   93.077;  -10.170;  921.320
979.187;   93.917;   -9.020;  905.400
979.741;   93.818;   -9.820; 1018.380
980.294;   91.930;  -14.870;  789.160
980.848;   91.307;  -12.380;  717.220
981.401;   90.963;  -10.350;  816.540
981.955;   90.793;  -13.720;  844.300
982.508;   86.310;  -11.490;  746.340
983.061;   86.893;  -10.000;  915.260
983.615;   85.137;  -11.480;  798.800
984.168;   83.850;  -13.220;  770.080
984.721;   82.671;  -13.960;  880.760
985.274;   80.125;  -10.870;  867.500
985.827;   77.541;   -9.790;  834.220
986.380;   75.857;  -13.120;  721.340
986.933;   75.761;  -12.450;  864.800
987.486;   73.814;  -10.210;  861.920
988.039;   75.094;   -8.430;  863.100
988.591;   73.829;  -10.520;  893.260
989.144;   72.514;  -14.860;  737.260
989.697;   71.244;  -13.080;  758.740
990.250;   70.452;  -10.150;  858.100
990.802;   68.202;  -13.430;  755.860
991.355;   68.577;  -12.750;  974.880
991.907;   66.629;  -12.040;  864.320
992.460;   64.680;  -11.330;  753.760
993.012;   62.889;  -13.610;  749.540
993.565;   60.774;  -13.460;  711.360
994.117;   62.312;   -9.360;  950.780
994.669;   58.730;  -11.300;  701.320
995.221;   59.173;  -13.540;  791.920
995.774;   57.405;  -13.430;  787.580
996.326;   56.045;  -12.520;  740.220
996.878;   55.947;  -10.950;  838.420
997.430;   53.615;  -14.300;  699.860
997.982;   52.498;  -13.760;  750.140
998.534;   52.569;  -11.530;  739.060
999.086;   51.111;  -10.310;  738.220
999.638;   50.426;  -12.530;  661.380
1000.190;   48.862;  -11.840;  699.320
1000.741;   48.637;  -10.260;  742.700
1001.293;   48.725;   -8.860;  686.020
1001.845;   47.093;  -13.700;  676.640
1002.396;   47.650;  -12.100;  743.400
1002.948;   46.119;  -12.760;  737.400
1003.500;   44.062;  -10.380;  723.780
1004.051;   45.065;  -11.900;  907.580
1004.603;   44.373;  -12.250;  791.820
1005.154;   41.781;  -13.210;  608.980
1005.705;   40.041;  -10.950;  723.960
1006.257;   39.909;  -13.880;  707.220
1006.808;   39.408;  -12.840;  685.460
1007.359;   38.570;  -10.570;  763.240
1007.910;   38.700;   -9.620;  646.640
1008.461;   38.016;  -13.630;  732.940
1009.013;   36.831;  -17.200;  588.340
1009.564;   37.765;  -10.200;  793.520
1010.115;   35.926;  -12.570;  597.040
1010.665;   35.237;  -15.150;  602.160
1011.216;   35.471;  -14.480;  667.920
1011.767;   35.215;  -11.340;  697.920
1012.318;   35.402;   -9.780;  736.980
1012.869;   34.477;  -12.380;  679.000
1013.419;   33.942;  -15.560;  603.120
1013.970;   33.984;  -11.010;  666.640
1014.521;   33.902;  -11.610;  620.620
1015.071;   34.045;  -13.450;  670.380
1015.622;   33.794;  -13.870;  635.460
1016.172;   32.594;  -11.610;  596.820
1016.723;   32.077;  -12.120;  614.380
1017.273;   31.396;  -13.620;  604.160
1017.823;   32.225;  -14.140;  650.340
1018.374;   31.475;  -12.800;  611.760
1018.924;   31.680;  -12.340;  716.880
1019.474;   31.846;  -11.410;  718.880
1020.024;   30.226;  -14.770;  657.580
1020.574;   31.757;   -9.780;  726.160
1021.124;   30.870;   -8.560;  673.580
1021.674;   29.692;  -15.190;  559.120
1022.224;   31.079;  -13.530;  708.940
1022.774;   31.283;  -13.280;  668.820
1023.324;   30.827;  -10.690;  753.520
1023.874;   31.498;  -10.240;  875.760
1024.423;   29.426;  -12.540;  613.700
1024.973;   28.771;  -10.010;  610.760
1025.523;   28.730;  -10.550;  620.960
1026.072;   28.261;  -13.560;  606.420
1026.622;   28.480;  -15.120;  675.740
1027.172;   29.300;  -11.260;  715.660
1027.721;   28.371;  -11.410;  601.220
1028.270;   28.251;  -13.530;  663.400
1028.820;   28.019;  -13.680;  638.080
1029.369;   28.009;  -13.520;  612.700
1029.918;   27.558;  -10.980;  649.840
1030.468;   27.319;  -13.530;  564.780
1031.017;   28.369;  -13.170;  634.800
1031.566;   26.196;  -12.200;  608.900
1032.115;   26.916;   -9.960;  694.500
1032.664;   25.250;  -13.210;  596.480
1033.213;   26.857;  -12.500;  735.420
1033.762;   25.993;  -11.910;  635.620
1034.311;   25.603;   -9.640;  677.220
1034.860;   25.986;  -13.310;  691.000
1035.408;   26.232;  -11.830;  722.720
1035.957;   26.104;  -12.000;  719.540
1036.506;   24.278;  -11.690;  530.800
1037.055;   27.171;  -10.990;  844.320
1037.603;   25.575;  -15.120;  664.000
1038.152;   23.636;  -12.450;  534.760
1038.700;   23.710;  -10.560;  585.740
1039.249;   24.293;  -11.080;  681.220
1039.797;   24.127;  -12.540;  633.360
1040.345;   23.662;  -11.920;  705.420
1040.894;   23.400;  -11.410;  625.300
1041.442;   23.817;  -14.320;  632.200
1041.990;   22.814;  -16.240;  559.160
1042.538;   22.297;  -11.680;  536.180
1043.087;   22.157;  -10.760;  570.860
1043.635;   23.325;  -11.850;  670.500
1044.183;   22.452;  -15.480;  586.400
1044.731;   21.894;  -11.770;  576.000
1045.279;   21.878;  -13.090;  674.920
1045.827;   24.448;  -12.440;  892.400
1046.374;   21.172;  -13.840;  515.420
1046.922;   20.902;  -13.220;  590.580
1047.470;   21.830;  -10.230;  691.300
1048.018;   22.470;  -14.590;  647.960
1048.565;   21.973;  -12.050;  708.600
1049.113;   20.484;  -11.650;  557.000
1049.660;   21.178;  -10.510;  629.660
1050.208;   20.325;  -13.310;  675.640
1050.755;   20.086;  -15.900;  606.580
1051.303;   20.749;  -11.430;  686.820
1051.850;   20.388;   -8.480;  635.120
1052.397;   18.991;  -15.010;  473.960
1052.945;   19.404;  -13.960;  617.760
1053.492;   20.319;  -13.150;  741.840
1054.039;   21.175;   -9.630;  720.180
1054.586;   19.474;  -13.680;  557.240
1055.133;   20.163;  -14.570;  693.140
1055.680;   19.808;  -13.820;  646.620
1056.227;   18.176;  -11.730;  542.780
1056.774;   19.970;  -12.480;  794.980
1057.321;   18.796;  -13.930;  523.260
1057.868;   18.781;  -11.690;  651.320
1058.415;   18.299;   -9.520;  651.980
1058.961;   18.727;  -13.160;  678.940
1059.508;   18.771;  -12.920;  643.820
1060.055;   18.509;  -11.920;  581.780
1060.601;   18.266;  -11.500;  624.300
1061.148;   18.233;  -14.330;  616.820
1061.694;   17.473;  -16.870;  592.580
1062.241;   17.125;  -10.330;  596.320
1062.787;   17.795;  -10.620;  663.140
1063.334;   19.432;  -10.110;  808.560
1063.880;   17.710;  -13.400;  668.360
1064.426;   17.430;  -10.680;  706.820
1064.972;   16.718;   -9.920;  601.340
1065.518;   16.396;  -10.980;  566.640
1066.065;   17.291;  -14.890;  624.460
1066.611;   15.481;  -12.870;  598.800
1067.157;   16.911;  -12.950;  641.860
1067.703;   16.676;  -13.540;  668.480
1068.249;   16.615;  -13.540;  605.220
1068.794;   16.102;  -12.600;  626.880
1069.340;   15.545;  -10.620;  578.960
1069.886;   16.050;  -12.830;  590.700
1070.432;   15.440;  -14.870;  541.720
1070.977;   15.158;  -11.980;  601.080
1071.523;   15.371;   -8.200;  573.060
1072.068;   15.673;  -12.330;  582.000
1072.614;   15.848;  -16.370;  527.760
1073.160;   16.097;  -11.100;  687.040
1073.705;   14.295;  -10.480;  572.520
1074.250;   13.712;  -14.520;  559.900
1074.796;   15.077;  -11.460;  655.160
1075.341;   15.174;  -11.950;  664.100
1075.886;   14.542;  -11.460;  594.240
1076.431;   13.626;  -13.770;  649.880
1076.976;   14.083;  -12.680;  639.220
1077.521;   13.767;  -13.170;  583.080
1078.067;   13.308;  -10.860;  579.400
1078.612;   14.074;  -13.920;  661.620
1079.156;   13.804;  -13.880;  601.540
1079.701;   13.322;  -13.120;  693.260
1080.246;   14.221;   -9.940;  696.300
1080.791;   12.894;  -14.740;  625.020
1081.336;   13.438;  -13.750;  659.320
1081.880;   13.410;  -13.400;  649.680
1082.425;   12.563;  -12.220;  573.480
1082.970;   14.716;  -11.610;  717.040
1083.514;   12.964;  -13.580;  597.000
1084.059;   12.748;  -12.810;  586.720
1084.603;   12.341;  -12.320;  565.840
1085.147;   12.233;  -13.190;  645.220
1085.692;   13.469;  -12.480;  716.800
1086.236;   12.003;  -13.020;  503.140
1086.780;   13.191;   -9.190;  751.440
1087.325;   12.686;  -12.480;  654.620
1087.869;   11.785;  -12.450;  610.700
1088.413;   12.278;  -12.240;  705.040
1088.957;   10.008;   -9.020;  543.400
1089.501;   12.160;  -10.320;  766.640
1090.045;   12.437;  -12.720;  726.480
1090.589;   10.010;  -13.690;  569.920
1091.133;   11.126;  -10.020;  673.340
1091.676;   11.415;  -12.330;  591.940
1092.220;   11.088;  -14.970;  600.920
1092.764;   11.693;  -12.430;  706.960
1093.307;   11.037;   -9.800;  673.780
1093.851;   10.136;  -14.970;  556.540
1094.395;   11.280;  -15.310;  683.140
1094.938;   10.723;  -10.370;  632.520
1095.482;    9.957;  -11.050;  559.800
1096.025;   11.200;  -11.840;  710.880
1096.568;   11.504;  -12.840;  779.280
1097.112;    8.490;  -14.700;  508.180
1097.655;    9.862;   -8.720;  603.000
1098.198;    8.965;  -13.610;  600.180
1098.741;    9.299;  -13.350;  612.860
1099.285;    9.960;  -11.230;  657.300
1099.828;    7.797;  -11.840;  439.400
1100.371;    8.980;  -10.840;  608.160
1100.914;    9.391;  -14.190;  682.660
1101.457;    9.232;  -11.240;  679.900
1101.999;    7.632;  -11.270;  584.680
1102.542;    8.989;  -11.480;  641.440
1103.085;    8.701;  -11.750;  658.500
1103.628;    9.117;  -11.400;  762.060
1104.170;    7.623;  -10.490;  588.280
1104.713;    8.690;  -10.600;  646.700
1105.256;    7.977;  -14.360;  557.440
1105.798;    7.047;  -13.210;  499.980
1106.341;    8.838;  -10.270;  728.900
1106.883;    7.201;  -12.200;  521.340
1107.425;    7.594;  -13.110;  668.180
1107.968;    7.319;  -12.840;  612.380
1108.510;    8.436;   -6.480;  684.960
1109.052;    6.408;  -13.940;  612.620
1109.594;    7.583;  -13.690;  554.440
1110.136;    7.894;  -11.880;  643.220
1110.679;    6.848;   -9.500;  633.080
1111.221;    7.627;  -14.160;  604.460
1111.763;    7.065;  -13.980;  559.220
1112.304;    6.608;  -13.880;  547.140
1112.846;    7.128;  -12.210;  666.240
1113.388;    9.046;  -11.390;  942.180
1113.930;    7.137;  -14.540;  694.200
1114.472;    6.255;  -12.640;  606.540
1115.013;    5.230;  -11.620;  551.280
1115.555;    5.792;  -13.640;  587.100
1116.097;    5.829;  -15.380;  579.480
1116.638;    6.168;  -12.640;  684.600
1117.180;    6.333;   -9.850;  667.740
1117.721;    6.461;  -13.690;  568.580
1118.262;    6.851;  -12.680;  677.960
1118.804;    6.137;  -12.530;  637.340
1119.345;    5.166;  -11.690;  578.400
1119.886;    6.024;  -13.380;  704.040
1120.427;    5.686;  -14.070;  589.020
1120.969;    4.817;  -13.500;  597.920
1121.510;    4.647;  -11.480;  563.060
1122.051;    5.309;  -12.830;  723.580
1122.592;    4.873;  -14.290;  655.420
1123.133;    4.077;  -12.400;  547.940
1123.673;    5.612;  -10.130;  706.480
1124.214;    5.119;  -12.930;  612.460
1124.755;    5.292;  -14.380;  639.460
1125.296;    5.066;  -14.000;  627.320
1125.836;    5.336;  -10.070;  691.500
1126.377;    3.974;  -12.640;  599.660
1126.918;    4.499;  -12.960;  614.980
1127.458;    3.678;  -13.350;  622.220
1127.999;    4.953;  -10.750;  656.980
1128.539;    4.673;  -12.350;  694.240
1129.079;    4.562;  -14.860;  632.720
1129.620;    3.515;  -13.840;  558.100
1130.160;    3.218;  -12.330;  539.480
1130.700;    3.797;  -14.530;  640.840
1131.240;    4.438;  -12.530;  643.700
1131.781;    3.748;  -14.450;  619.680
1132.321;    3.094;   -9.790;  599.120
1132.861;    2.140;  -14.860;  564.200
1133.401;    2.212;  -14.290;  593.940
1133.941;    2.994;  -11.750;  626.280
1134.481;    2.545;   -9.920;  597.580
1135.020;    2.461;  -12.290;  609.160
1135.560;    3.682;  -11.650;  674.940
1136.100;    1.769;  -16.270;  501.160
1136.640;    1.474;  -10.890;  510.480
1137.179;    2.161;  -14.180;  537.960
1137.719;    2.580;  -16.250;  605.400
1138.258;    2.499;  -14.230;  587.360
1138.798;    2.524;   -9.090;  663.780
1139.337;    1.165;  -15.130;  482.840
1139.877;    3.110;  -13.680;  642.360
1140.416;    3.809;  -11.320;  878.060
1140.955;    1.359;  -10.860;  535.380
1141.494;    2.221;  -12.920;  669.280
1142.034;    2.122;  -13.930;  583.520
1142.573;    2.586;  -11.440;  646.280
1143.112;    0.838;  -12.000;  553.480
1143.651;    1.343;  -13.670;  536.480
1144.190;    2.140;  -12.730;  691.640
1144.729;    1.339;  -14.560;  607.420
1145.267;    1.819;  -11.830;  584.900
1145.806;    2.813;  -12.230;  637.040
1146.345;    1.466;  -14.130;  635.020
1146.884;    1.362;  -11.590;  622.500
1147.422;    0.501;  -12.550;  533.060
1147.961;    2.641;  -11.180;  708.460
1148.500;    2.038;  -11.510;  669.720
1149.038;    1.692;  -11.640;  632.500
1149.577;    1.510;  -10.130;  698.640
1150.115;   -0.444;  -13.970;  452.280
1150.653;    0.764;  -14.520;  607.340
1151.192;    0.672;  -12.810;  552.920
1151.730;    0.480;   -9.100;  652.560
1152.268;   -0.316;  -12.220;  589.520
1152.806;    1.139;  -14.140;  571.180
1153.344;   -0.550;  -12.350;  577.640
1153.882;    0.382;   -8.980;  600.060
1154.421;   -0.522;  -15.190;  470.620
1154.958;   -0.068;  -15.210;  595.240
1155.496;    0.680;  -12.850;  645.280
1156.034;    0.005;   -9.940;  721.880
1156.572;    1.362;  -13.570;  667.060
1157.110;   -0.749;  -14.590;  473.940
1157.647;    0.666;  -13.030;  676.960
1158.185;   -0.494;  -12.140;  564.320
1158.723;   -1.406;  -14.390;  509.200
1159.260;    0.239;  -14.090;  701.700
1159.798;    0.240;  -11.920;  658.160
1160.335;    0.045;  -11.110;  631.820

