
Integration time [ms]:   3.276
Averaging Nr. [scans]: 1000
Smoothing Nr. [pixels]: 0
Data measured with spectrometer [name]: 7414430SP
Wave   ;Sample   ;Dark     ;Reference
[nm]   ;[counts] ;[counts] ;[counts] 

288.544;  148.685;    7.793;  793.890
289.143;  152.944;    7.462;  681.602
289.742;  153.318;    8.602;  828.814
290.341;  139.113;    1.321;  789.841
290.940;  128.534;   -0.709;  730.702
291.538;  129.178;    0.881;  881.108
292.137;  129.480;    0.122;  792.581
292.736;  134.302;   -1.929;  975.101
293.335;  130.185;   -8.229;  735.086
293.934;  130.332;   -5.279;  781.677
294.532;  128.924;   -1.369; 1031.958
295.131;  115.417;   -7.641;  834.394
295.730;  114.857;   -8.420;  809.588
296.328;  114.169;   -5.611;  783.442
296.927;  114.324;   -5.781;  779.652
297.525;  116.124;   -6.361;  781.236
298.124;  106.595;  -11.382;  654.009
298.722;  110.046;   -7.641;  761.933
299.321;  107.730;   -6.811;  708.597
299.919;  106.472;   -6.991;  751.918
300.518;  103.511;  -10.362;  689.338
301.116;  104.230;   -9.581;  691.381
301.715;  103.983;   -4.891;  730.222
302.313;  103.448;   -8.801;  704.943
302.911;   98.721;   -8.522;  733.830
303.509;  104.097;   -6.171;  925.627
304.108;  100.694;   -7.311;  760.383
304.706;  101.634;   -8.321;  801.664
305.304;   95.348;  -10.222;  796.707
305.902;   99.762;   -6.021;  784.484
306.500;   95.863;   -4.971;  728.200
307.098;   95.426;   -7.061;  746.560
307.696;   94.162;   -8.801;  780.432
308.294;   93.323;   -6.411;  731.359
308.892;   95.656;   -2.901;  759.769
309.490;   92.420;   -5.041;  712.161
310.088;   90.035;   -5.002;  788.444
310.686;   93.827;   -2.041;  821.749
311.284;   90.463;   -2.351;  766.040
311.882;   87.805;   -4.422;  731.225
312.480;   84.234;   -4.192;  697.167
313.078;   85.845;   -1.172;  808.331
313.675;   86.690;   -2.601;  691.600
314.273;   82.027;   -1.312;  797.837
314.871;   81.431;   -3.942;  589.829
315.468;   79.232;   -2.802;  652.090
316.066;   81.404;   -0.701;  694.427
316.664;   75.285;   -4.362;  656.351
317.261;   79.106;   -2.872;  910.128
317.859;   73.841;   -2.022;  768.735
318.456;   74.972;   -0.531;  830.096
319.054;   71.117;   -3.912;  787.828
319.651;   69.942;   -4.752;  759.928
320.249;   68.878;   -2.602;  810.188
320.846;   66.907;   -0.821;  714.286
321.443;   64.365;   -4.642;  832.135
322.041;   61.012;   -5.002;  812.315
322.638;   58.725;   -3.982;  701.456
323.235;   59.707;   -3.411;  665.683
323.833;   57.408;   -7.361;  740.354
324.430;   53.003;   -8.611;  615.900
325.027;   54.207;   -4.061;  876.855
325.624;   53.435;   -4.031;  644.532
326.221;   51.438;   -7.481;  689.717
326.818;   50.145;   -5.281;  818.332
327.415;   53.105;   -7.460;  748.828
328.012;   52.095;   -5.510;  690.585
328.609;   51.112;   -7.880;  731.389
329.206;   49.666;   -8.331;  778.621
329.803;   48.811;   -5.121;  737.841
330.400;   52.201;   -4.510;  704.260
330.997;   54.180;   -6.441;  817.147
331.594;   51.887;   -8.831;  788.185
332.191;   56.685;   -7.621;  728.722
332.787;   60.352;   -4.591;  844.463
333.384;   58.281;   -7.412;  763.093
333.981;   57.928;   -8.293;  815.687
334.578;   60.252;   -7.052;  708.378
335.174;   62.812;   -3.102;  731.469
335.771;   63.487;   -5.943;  836.456
336.367;   59.581;   -7.393;  710.631
336.964;   62.643;   -4.063;  793.266
337.561;   61.193;   -3.813;  731.112
338.157;   57.091;   -4.654;  911.916
338.754;   54.866;   -7.934;  796.589
339.350;   52.677;   -4.414;  722.493
339.946;   54.558;   -4.664;  773.135
340.543;   47.027;   -6.375;  846.136
341.139;   41.870;   -9.815;  720.836
341.735;   38.868;   -4.526;  772.593
342.332;   37.837;   -4.895;  691.472
342.928;   38.820;   -4.295;  795.394
343.524;   32.156;   -5.476;  761.684
344.120;   28.409;   -5.856;  738.562
344.716;   31.408;   -2.155;  723.717
345.313;   29.900;   -6.275;  795.342
345.909;   24.410;   -8.815;  627.336
346.505;   26.330;   -5.305;  740.247
347.101;   26.244;   -2.674;  827.864
347.697;   26.793;   -4.344;  785.398
348.293;   22.488;   -9.975;  627.244
348.889;   22.053;   -5.774;  745.914
349.485;   21.893;   -5.004;  688.205
350.081;   22.820;   -4.704;  772.592
350.676;   17.641;   -6.635;  691.606
351.272;   21.334;   -4.504;  809.530
351.868;   21.428;   -3.914;  780.497
352.464;   19.118;   -9.044;  723.932
353.059;   14.224;   -8.314;  646.017
353.655;   17.135;   -7.024;  777.063
354.251;   19.511;   -5.343;  759.845
354.846;   14.316;   -8.604;  740.646
355.442;   11.975;   -6.945;  753.071
356.038;   13.565;   -7.564;  751.708
356.633;   13.923;   -5.814;  728.594
357.229;   12.000;   -7.364;  724.757
357.824;   10.556;   -8.024;  703.600
358.420;    8.685;   -9.384;  679.726
359.015;    9.838;   -5.104;  695.357
359.610;   10.532;   -6.854;  763.920
360.206;    5.443;  -10.185;  603.240
360.801;    7.492;   -7.054;  646.503
361.396;    9.821;   -5.034;  725.975
361.992;    5.900;   -8.284;  668.220
362.587;    2.215;   -8.625;  670.160
363.182;    4.242;   -7.674;  689.631
363.777;    5.003;   -5.164;  738.242
364.372;    4.825;   -8.604;  737.314
364.967;    1.095;   -9.055;  680.744
365.563;    4.893;   -6.114;  815.567
366.158;    2.310;   -5.814;  685.161
366.753;    2.937;   -7.854;  649.263
367.348;    1.670;   -7.804;  746.056
367.942;    0.754;   -7.954;  697.298
368.537;    0.329;   -4.984;  754.245
369.132;    0.854;   -8.564;  703.428
369.727;   -3.030;   -8.855;  638.079
370.322;   -2.269;   -6.245;  580.186
370.917;   -2.258;   -6.425;  710.646
371.511;    0.699;   -6.294;  861.834
372.106;   -3.820;   -7.685;  776.964
372.701;   -6.521;   -7.335;  585.988
373.296;   -0.595;   -4.564;  863.135
373.890;   -5.619;  -10.235;  647.840
374.485;   -7.957;   -7.885;  691.199
375.079;   -3.724;   -7.324;  738.685
375.674;   -2.976;   -3.494;  812.970
376.268;   -6.912;   -8.525;  691.759
376.863;  -12.460;  -10.086;  580.327
377.457;   -7.284;   -7.025;  662.490
378.052;   -8.222;   -3.585;  764.884
378.646;   -8.653;   -7.595;  741.167
379.240;   -8.588;   -8.335;  721.176
379.835;   -9.511;   -5.785;  636.978
380.429;  -10.731;   -4.335;  562.557
381.023;  -10.154;   -6.805;  779.205
381.617;  -13.304;   -9.195;  680.106
382.212;   -9.572;   -6.905;  685.303
382.806;   -8.385;   -3.745;  760.690
383.400;  -13.573;   -7.745;  672.281
383.994;  -13.546;   -9.765;  664.870
384.588;  -10.685;   -6.564;  697.701
385.182;   -8.812;   -5.344;  726.624
385.776;  -10.530;   -8.514;  706.875
386.370;  -13.957;   -9.555;  681.968
386.964;  -12.641;   -8.715;  684.155
387.558;  -10.356;   -6.174;  598.360
388.152;  -14.328;   -8.725;  681.959
388.745;  -11.987;   -7.965;  814.707
389.339;  -10.838;   -5.924;  747.642
389.933;  -10.444;   -5.524;  695.370
390.527;  -10.374;   -7.114;  859.029
391.120;  -16.304;  -10.725;  595.318
391.714;  -14.379;   -8.035;  711.633
392.308;  -10.975;   -3.574;  780.253
392.901;  -14.975;   -7.245;  642.460
393.495;  -15.783;   -9.285;  595.414
394.089;  -14.418;   -5.895;  760.452
394.682;  -15.362;   -4.295;  697.188
395.275;  -15.088;   -9.875;  719.927
395.869;  -16.111;   -8.485;  667.314
396.462;  -15.469;   -7.455;  616.609
397.056;  -11.362;   -5.424;  776.621
397.649;  -15.162;   -6.605;  731.575
398.242;  -12.989;   -8.224;  712.645
398.836;  -12.953;   -7.474;  766.408
399.429;  -13.062;   -7.094;  631.041
400.022;  -17.723;   -9.475;  665.902
400.615;  -14.383;   -7.145;  805.609
401.208;  -12.719;   -7.174;  691.451
401.802;  -14.921;   -5.515;  699.329
402.395;  -15.824;   -9.875;  683.502
402.988;  -16.886;   -8.845;  696.627
403.581;  -14.530;   -8.874;  646.878
404.174;  -11.835;   -5.324;  686.568
404.767;  -14.552;   -9.575;  638.583
405.360;  -16.711;  -10.965;  621.445
405.953;  -11.470;   -8.764;  759.034
406.545;  -10.907;   -7.514;  725.342
407.138;  -15.045;  -10.025;  618.350
407.731;  -14.287;  -10.034;  613.303
408.324;  -10.588;   -9.374;  660.554
408.917;  -11.792;   -6.534;  681.864
409.509;  -12.913;   -8.004;  740.396
410.102;  -14.797;   -9.875;  643.948
410.695;   -9.224;   -8.604;  665.758
411.287;   -9.866;   -6.794;  599.821
411.880;  -10.817;   -9.334;  585.421
412.472;  -13.858;  -10.254;  613.092
413.065;  -12.116;   -6.714;  629.408
413.657;   -9.277;   -7.234;  576.678
414.250;   -8.999;  -10.544;  646.681
414.842;  -11.376;   -9.744;  676.353
415.434;   -8.791;   -6.994;  570.463
416.027;   -4.473;   -5.893;  652.196
416.619;   -6.467;   -7.264;  713.400
417.211;   -6.922;  -10.374;  599.352
417.804;   -4.398;   -7.993;  628.499
418.396;   -8.010;   -7.234;  607.643
418.988;   -4.930;   -9.443;  659.238
419.580;   -8.976;  -10.724;  568.276
420.172;   -6.976;  -10.323;  536.196
420.764;   -2.247;   -8.793;  672.482
421.356;   -3.137;  -11.143;  636.898
421.948;   -4.155;   -8.293;  677.661
422.540;    0.459;   -7.893;  680.027
423.132;   -0.613;   -7.082;  600.641
423.724;   -3.142;   -8.653;  561.267
424.316;   -1.729;  -10.213;  621.345
424.908;    1.944;   -9.762;  591.517
425.500;    2.649;   -5.572;  647.978
426.092;    3.122;   -8.422;  648.268
426.683;    1.862;   -9.283;  684.836
427.275;    4.788;   -7.852;  641.471
427.867;    6.651;   -5.272;  668.948
428.458;    7.589;   -7.682;  732.344
429.050;    6.157;  -10.612;  680.749
429.642;    6.812;   -9.882;  743.124
430.233;    7.885;   -6.962;  569.356
430.825;    8.760;   -6.842;  724.809
431.416;    6.682;   -9.672;  698.241
432.008;   10.603;   -6.552;  651.723
432.599;   10.789;   -6.891;  656.073
433.190;    8.512;  -10.912;  637.670
433.782;    7.150;  -11.172;  590.395
434.373;   14.221;   -6.061;  884.765
434.964;   12.825;   -8.251;  602.920
435.556;   11.373;   -9.722;  634.537
436.147;   14.074;   -9.082;  758.490
436.738;   13.522;   -8.041;  701.099
437.329;   18.784;   -7.341;  721.723
437.920;   11.822;   -8.162;  666.688
438.511;   11.861;  -11.802;  564.526
439.103;   18.525;  -10.191;  623.998
439.694;   19.983;   -7.601;  681.583
440.285;   21.398;   -8.541;  764.432
440.876;   19.335;   -9.751;  845.738
441.466;   18.276;   -9.401;  575.162
442.057;   24.326;   -7.760;  665.814
442.648;   22.424;   -9.971;  746.255
443.239;   21.100;  -11.001;  620.477
443.830;   25.591;   -7.990;  704.958
444.421;   28.197;   -7.910;  655.474
445.011;   24.431;   -8.131;  693.619
445.602;   24.193;   -7.111;  743.126
446.193;   25.242;  -10.920;  488.117
446.783;   29.818;   -6.500;  640.397
447.374;   25.871;   -8.671;  692.759
447.964;   26.698;  -10.781;  713.770
448.555;   33.761;   -9.650;  822.742
449.145;   31.158;   -8.660;  662.853
449.736;   32.041;   -8.990;  803.179
450.326;   32.374;   -9.500;  713.626
450.917;   36.383;   -8.680;  675.324
451.507;   35.655;   -7.520;  600.661
452.097;   37.101;   -8.590;  746.267
452.688;   38.105;  -11.340;  742.160
453.278;   37.110;  -10.100;  566.840
453.868;   41.280;   -6.019;  793.550
454.458;   39.008;   -9.440;  651.141
455.048;   39.608;  -10.560;  711.783
455.639;   41.463;  -11.799;  567.096
456.229;   44.786;   -6.899;  710.694
456.819;   46.945;   -7.389;  751.158
457.409;   47.040;  -11.119;  773.993
457.999;   49.519;   -9.289;  737.505
458.589;   49.611;   -6.139;  686.606
459.179;   49.400;   -8.729;  717.658
459.769;   47.528;   -9.789;  627.099
460.358;   51.540;  -10.259;  797.262
460.948;   53.089;   -7.299;  689.503
461.538;   54.380;  -10.289;  660.677
462.128;   52.139;  -11.269;  664.934
462.717;   58.479;   -9.368;  710.326
463.307;   62.089;   -7.908;  705.846
463.897;   57.632;   -9.599;  656.942
464.486;   56.223;   -9.769;  837.128
465.076;   60.385;   -8.048;  733.776
465.666;   64.764;   -9.358;  652.900
466.255;   62.205;   -7.919;  785.651
466.845;   61.273;  -11.689;  666.749
467.434;   64.434;   -7.818;  725.873
468.023;   65.125;   -7.678;  658.357
468.613;   63.592;  -10.939;  713.946
469.202;   67.766;  -10.118;  646.507
469.791;   71.207;   -9.108;  737.811
470.381;   73.499;   -6.058;  742.813
470.970;   73.037;  -10.428;  711.099
471.559;   73.484;  -10.268;  733.291
472.148;   75.457;   -8.448;  675.737
472.738;   77.714;   -6.917;  765.466
473.327;   78.094;  -11.978;  637.529
473.916;   77.370;  -11.888;  737.446
474.505;   81.123;   -9.437;  751.703
475.094;   84.513;   -6.747;  806.570
475.683;   85.069;   -9.367;  797.699
476.272;   85.133;  -12.637;  730.632
476.861;   87.316;  -10.027;  706.754
477.449;   94.509;   -8.716;  728.487
478.038;   88.675;   -9.577;  692.513
478.627;   90.443;   -9.718;  714.852
479.216;   95.951;   -8.947;  769.441
479.805;   99.188;   -6.256;  783.375
480.393;   98.527;   -7.937; 1008.945
480.982;   97.561;   -7.717;  874.501
481.571;  103.631;   -9.266;  858.333
482.159;  104.000;   -7.636;  705.386
482.748;  105.646;   -9.667;  821.385
483.336;  109.983;  -10.376;  858.209
483.925;  109.348;   -7.147;  774.373
484.513;  116.770;   -7.996;  758.962
485.102;  113.846;  -10.027;  810.965
485.690;  122.303;  -10.446; 1011.050
486.278;  123.762;   -8.446;  979.329
486.867;  124.498;   -6.356;  809.662
487.455;  125.917;   -9.136;  898.229
488.043;  127.659;  -10.646;  748.361
488.631;  134.991;   -7.456; 1005.079
489.220;  139.877;   -6.636;  908.626
489.808;  140.320;  -11.036;  741.415
490.396;  147.601;  -10.246;  914.645
490.984;  152.733;   -8.556;  830.161
491.572;  162.902;   -5.886;  940.315
492.160;  168.487;   -9.486;  919.081
492.748;  180.362;  -10.976;  884.341
493.336;  201.959;   -8.776; 1019.693
493.924;  227.529;   -5.465;  958.077
494.512;  253.542;   -9.986; 1066.638
495.100;  289.725;  -10.636; 1103.280
495.687;  342.876;  -10.885; 1206.373
496.275;  404.444;   -8.126; 1150.796
496.863;  472.624;  -10.586; 1281.171
497.451;  572.417;  -11.926; 1386.805
498.038;  699.090;  -10.885; 1556.729
498.626;  800.201;   -6.315; 1741.407
499.214;  937.542;   -7.326; 2016.609
499.801; 1132.696;  -11.906; 2220.633
500.389; 1366.946;  -10.466; 2312.494
500.976; 1669.757;   -5.236; 2744.849
501.564; 2086.961;   -8.936; 3148.565
502.151; 2455.702;  -13.176; 3515.999
502.738; 2900.840;  -10.646; 3971.274
503.326; 3265.633;   -9.525; 4403.796
503.913; 3630.231;  -10.856; 5161.749
504.500; 3984.701;  -11.586; 5986.420
505.088; 4391.599;  -10.336; 6381.201
505.675; 4897.920;   -6.355; 6925.547
506.262; 5588.919;   -9.046; 7619.060
506.849; 6259.709;  -10.416; 8733.969
507.436; 6716.058;  -10.305; 9790.121
508.023; 7294.165;   -5.496; 9985.472
508.610; 7528.000;   -7.856;10434.618
509.197; 8145.682;  -10.097;11198.435
509.784; 9482.442;  -10.886;12391.194
510.371;10443.298;   -9.315;13603.713
510.958;11122.050;   -9.936;14426.586
511.545;11910.688;   -9.326;15243.775
512.132;12850.112;  -10.075;15945.876
512.719;13487.704;   -7.796;16340.369
513.305;14365.555;  -10.606;18011.766
513.892;15143.186;  -11.486;19754.971
514.479;16444.078;   -9.126;20967.805
515.066;17757.781;   -6.026;22299.793
515.652;18927.641;   -8.466;22908.660
516.239;20261.621;  -10.886;23798.875
516.825;21419.986;  -11.496;25567.275
517.412;22555.180;   -5.796;28154.959
517.998;23067.578;  -10.506;28344.111
518.585;22970.021;  -10.076;27134.219
519.171;23497.240;   -8.315;27268.576
519.758;25061.357;   -8.596;28964.129
520.344;26740.504;   -8.466;30664.494
520.930;26759.643;  -11.006;32550.605
521.516;28462.584;  -10.495;35422.895
522.103;30817.459;   -5.526;38280.004
522.689;31425.320;   -8.746;37835.117
523.275;30701.938;  -11.376;37288.613
523.861;31598.605;  -11.156;37281.395
524.447;32904.094;   -8.135;37846.949
525.033;32707.773;   -7.896;38321.949
525.619;33020.848;  -12.476;38579.285
526.205;34685.090;   -9.516;40622.875
526.791;36807.723;   -6.926;42258.836
527.377;36871.242;   -8.346;42966.902
527.963;38617.254;   -8.717;42018.949
528.549;37043.707;  -11.016;42476.828
529.135;35872.133;   -8.536;41854.852
529.721;35470.609;   -9.666;41237.711
530.306;34861.781;  -10.066;41259.445
530.892;34625.777;  -11.356;41506.047
531.478;35963.023;   -6.596;43559.613
532.063;38741.891;   -8.836;47695.563
532.649;38856.359;  -10.047;50808.324
533.235;39979.340;   -9.746;51787.500
533.820;41113.223;   -6.566;52145.035
534.406;42549.559;  -10.817;51133.488
534.991;42402.086;   -9.416;49996.805
535.576;41017.293;   -9.036;48882.852
536.162;41288.836;   -6.156;46942.285
536.747;42371.305;  -11.607;45711.746
537.333;46340.574;  -11.787;48510.180
537.918;48884.305;  -12.437;50439.891
538.503;47298.016;   -7.196;50863.711
539.088;44290.078;  -10.556;50906.922
539.673;44296.922;   -8.767;52621.965
540.259;44164.234;  -10.026;52368.094
540.844;41431.961;   -7.416;50879.109
541.429;42441.059;   -9.467;52077.777
542.014;45475.555;   -9.527;52716.695
542.599;44995.336;   -9.946;52363.281
543.184;42840.164;   -7.927;53187.137
543.769;44361.160;   -9.297;54697.605
544.354;43621.965;  -10.127;53913.914
544.938;42361.559;   -9.267;49680.164
545.523;44040.000;   -6.506;47386.277
546.108;46349.070;   -9.787;49151.949
546.693;48537.059;  -11.587;51384.637
547.278;48487.848;  -10.986;51853.254
547.862;45467.852;   -8.206;51173.750
548.447;41043.449;  -10.067;51691.395
549.031;40873.531;   -9.637;52456.703
549.616;45698.266;   -9.926;52714.516
550.201;44610.574;   -6.347;52414.598
550.785;45674.824;   -7.917;52355.059
551.370;44951.660;  -10.867;54589.453
551.954;45101.758;   -9.047;58267.348
552.538;45855.262;   -7.827;59062.176
553.123;44406.492;  -10.287;58115.285
553.707;42683.293;  -12.178;56556.285
554.291;43797.293;   -8.717;56201.668
554.876;45697.711;   -7.457;55335.762
555.460;46006.488;  -10.387;54155.703
556.044;47144.391;   -9.618;53721.484
556.628;45716.160;  -11.567;53731.016
557.212;44356.297;   -8.097;54312.531
557.796;42922.023;  -11.077;53797.773
558.380;42679.145;  -11.108;56145.984
558.964;42995.445;   -9.057;57277.930
559.548;43975.891;   -6.977;56459.641
560.132;42691.809;  -11.457;54434.543
560.716;41603.996;  -11.378;54800.617
561.300;42739.414;   -9.577;57606.945
561.884;43766.895;   -7.127;58972.445
562.467;42410.180;   -7.118;57327.570
563.051;41462.492;  -13.358;54962.434
563.635;42163.887;  -10.178;52594.473
564.219;42705.645;   -7.837;50610.410
564.802;43603.129;  -11.398;49551.180
565.386;43639.039;  -12.788;48370.953
565.969;43122.164;   -9.077;48178.871
566.553;42882.422;   -6.207;49957.305
567.136;43056.785;   -8.568;50369.594
567.720;39166.258;  -11.868;49492.004
568.303;37321.805;   -8.268;50616.352
568.887;37501.969;   -8.698;50727.148
569.470;37631.070;   -6.808;51698.379
570.053;36250.223;  -13.188;52122.078
570.637;34755.289;  -12.037;52536.438
571.220;34462.145;   -8.577;51186.098
571.803;34784.816;   -8.498;51032.762
572.386;37165.398;  -10.498;49609.887
572.969;39489.871;   -9.388;48285.926
573.552;37490.094;   -8.338;47624.285
574.135;36310.957;   -8.518;45498.641
574.718;33877.770;  -13.628;41970.434
575.301;32601.010;  -10.893;41447.137
575.884;31324.252;   -8.158;40923.836
576.467;32581.592;  -10.328;45267.723
577.050;34717.797;  -13.058;48175.543
577.633;35578.691;   -9.458;47729.328
578.216;33792.480;   -8.928;47579.793
578.799;32563.502;   -9.358;47820.996
579.381;31587.967;  -11.388;48115.551
579.964;30945.814;  -11.718;47333.766
580.547;33122.527;   -8.588;46668.969
581.129;34584.816;   -8.859;44466.141
581.712;35260.957;  -10.729;44164.922
582.294;35855.098;  -11.118;46477.855
582.877;35635.027;   -5.218;48244.254
583.459;33103.473;   -8.679;47437.895
584.042;31338.682;  -10.709;46943.219
584.624;32165.611;  -11.669;46792.227
585.206;31605.080;   -8.218;46557.250
585.789;31613.363;  -10.569;45793.773
586.371;33974.469;  -11.859;43836.391
586.953;33989.824;  -10.719;42972.492
587.536;34573.910;   -7.198;42487.211
588.118;32961.008;   -8.720;42086.414
588.700;28207.859;  -10.439;43389.930
589.282;26178.209;   -9.198;43646.039
589.864;27765.541;   -9.199;43438.109
590.446;31197.918;  -11.319;43151.926
591.028;33046.973;  -11.159;42781.867
591.610;33026.660;  -11.779;42839.098
592.192;31037.684;   -7.668;42820.402
592.774;29720.840;  -11.949;40724.277
593.356;28554.545;  -12.129;39874.789
593.937;27633.627;  -10.669;39980.648
594.519;29818.645;   -6.509;42069.633
595.101;31844.793;  -10.849;42976.031
595.683;31883.686;  -11.679;44084.441
596.264;33073.891;   -9.049;43478.797
596.846;32144.764;   -8.849;43803.672
597.427;31789.369;   -9.570;42986.934
598.009;33353.156;  -12.620;42832.219
598.591;33567.633;  -10.039;42580.086
599.172;32506.244;  -10.369;43061.805
599.753;32608.209;   -9.140;41691.469
600.335;34355.035;  -11.430;40692.520
600.916;32927.766;   -9.939;39982.422
601.498;30442.697;   -8.479;40318.617
602.079;29035.977;  -10.920;40670.609
602.660;29255.662;  -11.480;41450.898
603.241;30741.703;  -11.699;41137.738
603.823;29481.691;   -9.579;38868.797
604.404;29432.660;  -10.620;38182.785
604.985;30698.203;  -10.450;38078.047
605.566;30111.898;   -9.129;38056.633
606.147;30262.193;   -7.510;37020.418
606.728;32006.703;  -10.660;37883.359
607.309;30667.566;  -11.740;38748.273
607.890;30003.736;   -9.759;38850.230
608.471;29581.430;   -8.250;37457.918
609.051;28737.184;   -9.240;36066.457
609.632;27871.379;  -12.120;35991.074
610.213;28785.742;   -9.110;37402.641
610.794;29255.014;   -8.030;38383.363
611.374;28746.766;   -8.110;40562.387
611.955;29111.193;  -13.560;38533.727
612.536;30337.230;  -11.400;36951.789
613.116;30429.660;   -8.070;37197.891
613.697;30654.918;  -10.830;38411.125
614.277;29405.609;  -11.641;38673.938
614.858;30286.926;  -13.310;37075.863
615.438;29248.309;   -7.460;35092.906
616.019;26380.785;   -7.601;33666.301
616.599;27112.992;  -12.020;34189.023
617.179;28937.076;  -11.780;36952.047
617.760;29727.045;   -8.570;39582.574
618.340;30762.236;  -11.471;38943.977
618.920;32092.361;  -11.170;37594.156
619.500;31997.588;  -11.071;37866.938
620.080;31277.832;   -7.750;37869.043
620.660;32488.131;  -12.711;36868.617
621.241;33881.766;  -10.211;36352.309
621.821;33967.641;  -10.961;35459.520
622.401;32892.531;   -7.720;35207.414
622.980;32137.268;   -8.981;35980.422
623.560;30751.154;   -9.331;37351.328
624.140;29775.475;   -9.850;34388.582
624.720;24508.549;   -7.451;32368.764
625.300;21028.455;   -9.070;32638.629
625.880;24386.738;  -12.601;34599.035
626.459;28400.172;  -11.751;36831.738
627.039;31585.182;   -9.281;38299.098
627.619;31483.607;   -8.801;38289.574
628.198;29779.543;  -12.071;37220.695
628.778;28885.076;   -9.461;37632.563
629.357;29661.914;   -8.491;38003.012
629.937;29817.717;   -9.721;38402.039
630.516;29260.881;   -9.951;37868.801
631.096;28817.805;  -11.731;35760.410
631.675;31930.906;   -8.572;35225.219
632.254;36931.066;  -11.282;35130.289
632.834;36240.137;  -13.322;35794.570
633.413;34145.727;  -10.301;35788.922
633.992;31031.887;   -8.582;34532.863
634.571;31978.273;   -8.352;33590.113
635.151;34784.094;  -11.912;34943.863
635.730;33209.406;  -10.511;35352.523
636.309;29953.896;   -7.731;35366.605
636.888;27807.545;   -9.952;36165.637
637.467;28917.729;  -11.672;37515.902
638.046;30596.740;   -8.901;39288.695
638.625;33620.055;   -7.912;38279.699
639.204;33141.773;  -10.022;37741.598
639.782;31524.984;  -12.252;38364.551
640.361;27826.762;  -10.041;36740.621
640.940;25044.754;  -11.161;34950.082
641.519;25672.791;   -9.701;34137.398
642.097;28699.803;  -11.271;35654.258
642.676;31426.111;   -8.651;35637.957
643.255;31837.434;   -8.711;36567.074
643.833;30938.271;   -9.581;37809.434
644.412;31163.514;  -13.711;37337.293
644.990;30488.131;  -11.811;37018.531
645.569;30818.273;   -9.411;36518.469
646.147;29530.268;  -10.291;36186.430
646.726;28818.475;  -12.401;36267.688
647.304;29849.154;  -10.411;36647.625
647.882;31931.191;   -9.651;39286.742
648.461;33674.699;   -9.631;39157.703
649.039;31697.992;  -11.881;35412.883
649.617;31055.877;   -9.661;34744.918
650.195;30900.713;   -9.301;35403.098
650.773;29404.170;  -10.511;35053.797
651.352;27082.875;  -11.521;33756.816
651.930;24942.957;  -12.211;31868.773
652.508;23443.826;   -9.171;33121.551
653.086;27392.492;   -9.371;33564.793
653.663;29948.475;  -13.161;34054.668
654.241;29040.652;  -13.031;35693.309
654.819;30797.654;   -9.371;36422.906
655.397;30830.477;  -10.511;38213.484
655.975;30659.748;  -10.371;39507.625
656.553;30261.715;  -10.051;39498.223
657.130;28622.545;  -10.061;40395.480
657.708;28123.172;   -9.561;39242.020
658.286;28095.674;  -11.511;38920.020
658.863;29236.857;  -10.261;40202.898
659.441;32307.295;   -7.531;39677.938
660.018;31674.412;   -9.501;40413.355
660.596;30605.738;  -13.301;39931.414
661.173;32684.973;  -11.211;39604.531
661.750;32841.996;   -9.951;39700.070
662.328;31868.996;   -9.390;39292.809
662.905;30878.607;  -11.330;38235.648
663.482;26217.197;   -9.050;36212.305
664.060;24428.195;   -8.240;35944.945
664.637;27433.029;  -10.050;35170.785
665.214;29331.418;  -11.760;34197.523
665.791;30594.744;  -10.530;34549.520
666.368;29276.348;   -9.690;35118.578
666.945;30248.479;   -9.320;36019.418
667.522;31761.680;  -11.860;36048.438
668.099;31690.205;  -10.770;36243.914
668.676;30630.979;   -6.260;35958.875
669.253;29128.072;   -7.000;37384.730
669.830;29746.223;  -10.190;36779.629
670.407;29486.051;   -9.550;35231.289
670.984;29665.844;   -9.260;35544.270
671.560;29932.572;   -9.280;35466.867
672.137;28928.482;  -11.810;34280.863
672.714;29833.313;  -11.490;34632.863
673.290;30258.975;   -7.740;35135.422
673.867;30674.506;  -10.660;36114.480
674.443;30307.965;  -12.230;36152.859
675.020;28557.820;  -10.450;35327.238
675.596;29767.082;   -9.260;35795.176
676.173;30175.021;  -10.780;35430.355
676.749;30094.264;  -13.690;33549.516
677.326;30260.318;  -11.980;32210.012
677.902;30239.033;   -8.630;32068.871
678.478;29506.197;  -10.730;32583.891
679.054;29080.846;  -10.520;32088.928
679.631;29279.803;  -11.920;30978.848
680.207;30817.832;   -7.490;33160.887
680.783;32409.857;   -9.860;35570.363
681.359;31469.109;  -13.380;36125.184
681.935;30778.486;  -12.480;35240.922
682.511;29733.758;   -7.900;34429.961
683.087;29901.156;   -7.710;34463.680
683.663;29732.678;  -11.480;34648.898
684.239;28424.205;  -14.090;34546.457
684.815;28014.773;   -7.560;35586.375
685.390;28371.000;   -9.910;35821.895
685.966;28805.092;  -11.159;35085.871
686.542;31335.695;  -11.169;34198.230
687.118;33335.188;   -5.959;32847.707
687.693;33409.227;  -10.329;32794.027
688.269;33074.586;  -12.059;33072.367
688.844;31081.383;  -10.909;33141.664
689.420;28732.314;   -8.019;33965.742
689.995;26405.717;   -8.399;34655.523
690.571;25180.625;  -10.949;33576.742
691.146;25794.889;   -9.619;32657.219
691.722;25313.941;   -8.999;32526.979
692.297;25650.424;  -11.589;33014.617
692.872;27645.352;  -11.739;34012.254
693.448;26970.043;  -11.059;34237.434
694.023;26195.000;  -10.139;34142.672
694.598;28249.828;   -9.029;34132.031
695.173;28435.492;  -13.319;34205.250
695.748;27636.578;  -10.169;32882.488
696.323;27495.967;   -8.339;32864.906
696.898;27781.848;   -8.169;33170.004
697.473;27614.611;  -12.309;32432.984
698.048;27092.348;  -10.989;31649.303
698.623;27275.504;   -9.329;30778.141
699.198;29425.334;   -9.849;31140.119
699.773;30148.082;  -12.329;31764.299
700.348;28402.082;  -10.389;31780.816
700.922;28338.178;   -9.269;32046.375
701.497;28943.836;   -9.329;32603.574
702.072;29056.623;  -10.789;34799.871
702.646;27909.762;  -10.839;35793.172
703.221;26184.256;   -9.099;35201.590
703.795;28188.463;  -10.939;34764.527
704.370;28400.107;  -12.859;34307.367
704.944;28916.311;  -11.559;33509.887
705.519;29903.820;   -7.939;31388.584
706.093;31422.404;  -10.499;31340.104
706.668;31452.779;  -11.289;32630.281
707.242;30427.012;  -11.509;32728.779
707.816;28940.809;   -9.639;32947.238
708.390;27327.518;  -11.429;33277.855
708.965;28073.740;  -11.869;33834.336
709.539;28525.215;  -11.689;33709.273
710.113;29021.670;  -10.478;33044.313
710.687;28156.338;  -10.228;31953.992
711.261;26290.578;  -13.698;30505.949
711.835;26228.990;  -13.378;30262.369
712.409;27257.707;   -9.698;31254.447
712.983;29086.479;  -11.898;32754.986
713.557;29863.021;  -15.138;34018.824
714.131;29486.846;  -14.098;34579.625
714.704;28629.064;   -9.958;33890.262
715.278;26415.303;  -10.028;33531.102
715.852;25579.303;  -11.148;33601.660
716.425;26482.752;   -9.068;33515.117
716.999;27118.127;  -10.038;33185.555
717.573;28169.969;   -9.798;33905.996
718.146;29271.246;  -12.378;35199.293
718.720;29065.760;  -11.918;35060.551
719.293;28454.947;   -8.088;34973.230
719.867;31275.359;  -10.888;36394.449
720.440;30674.434;  -11.938;36663.008
721.013;28879.432;  -12.818;35102.426
721.587;27694.336;  -10.298;33985.266
722.160;26942.131;  -10.048;33524.965
722.733;25959.447;  -12.108;32987.043
723.306;26297.584;  -10.818;33066.301
723.880;28573.740;   -8.908;33399.500
724.453;30031.057;   -9.878;33468.297
725.026;28922.412;  -11.188;33816.637
725.599;26645.613;  -11.678;32797.996
726.172;27479.594;   -9.618;33187.434
726.745;28653.092;   -8.258;35136.613
727.318;30077.662;  -12.978;35751.730
727.891;30254.900;  -12.148;35890.430
728.463;29806.826;   -8.968;34822.090
729.036;28935.176;  -10.188;32895.086
729.609;29324.674;  -11.788;31823.225
730.182;26189.787;  -11.788;31445.283
730.754;23696.240;  -10.268;32373.223
731.327;23722.313;   -9.998;33676.820
731.900;24182.479;  -12.228;33417.000
732.472;25634.979;  -13.848;31978.498
733.045;27408.898;   -8.698;30368.777
733.617;27498.826;  -10.607;30574.215
734.190;26916.453;  -11.507;31280.975
734.762;23752.396;  -13.647;31674.412
735.334;22232.338;   -9.767;31247.291
735.907;23108.168;   -9.897;29876.211
736.479;23081.529;  -11.637;29808.488
737.051;22674.492;   -9.567;30233.547
737.623;23666.102;   -8.187;31469.086
738.195;24701.777;  -11.187;31784.225
738.768;26754.758;  -12.337;32120.523
739.340;26533.465;  -12.227;32094.342
739.912;25093.160;  -11.057;31312.680
740.484;23763.377;  -10.207;31946.238
741.056;22971.543;  -10.047;32984.059
741.628;24893.426;  -13.627;33897.715
742.199;27140.477;   -7.177;33213.016
742.771;25374.756;  -10.797;31369.113
743.343;22915.283;  -11.997;31865.473
743.915;21977.697;  -12.867;32388.631
744.487;22230.791;   -7.617;31079.568
745.058;22394.416;   -9.557;30570.107
745.630;22781.139;   -9.877;29970.127
746.201;23374.006;  -14.177;29186.766
746.773;23583.174;   -9.237;28805.723
747.344;23502.631;   -9.847;29591.223
747.916;22409.891;  -11.657;31412.201
748.487;22830.273;  -10.587;32194.898
749.059;24003.629;   -8.707;32533.719
749.630;24703.742;  -10.537;32158.518
750.201;23914.711;  -11.687;30855.395
750.773;22142.779;  -11.647;28622.555
751.344;22072.438;   -7.147;28405.732
751.915;23255.932;   -9.757;28461.551
752.486;22843.314;  -12.427;27842.850
753.057;20576.734;  -12.227;27845.008
753.628;19533.934;  -10.417;27728.107
754.199;20780.475;  -11.767;27381.086
754.770;21720.820;  -11.187;25882.203
755.341;21652.145;  -10.507;25886.184
755.912;21538.936;   -9.387;26050.861
756.483;20972.439;  -10.647;26798.779
757.054;19151.922;  -11.837;27048.238
757.625;17867.377;  -12.716;26294.838
758.195;17756.289;   -9.666;26142.076
758.766;17567.434;   -8.656;26392.234
759.337;18388.643;  -12.856;26334.594
759.907;20197.180;  -13.366;27579.652
760.478;21032.105;   -8.576;28352.770
761.048;20213.137;  -10.526;27325.088
761.619;19381.252;  -11.116;26460.428
762.189;19572.451;  -12.136;26029.826
762.760;20895.432;   -9.456;26430.145
763.330;21858.059;   -7.136;26670.902
763.900;21110.539;  -11.786;26603.021
764.471;18412.275;  -11.546;25542.740
765.041;17117.240;   -8.096;24358.459
765.611;17236.191;   -8.876;23991.297
766.181;17709.578;  -12.196;24470.236
766.751;18662.348;  -11.636;24845.975
767.321;18301.188;  -10.156;24533.633
767.891;16222.178;  -11.766;24916.492
768.461;15758.342;  -14.936;24776.771
769.031;16350.277;  -12.356;24757.988
769.601;17844.717;   -7.526;24181.088
770.171;17653.590;  -10.766;23670.387
770.741;17102.576;  -13.176;22960.045
771.311;17449.607;  -10.616;22917.523
771.880;17698.305;   -9.576;23562.941
772.450;17359.590;  -10.336;24216.500
773.020;17485.652;  -13.516;24140.398
773.589;16856.133;  -13.466;24414.857
774.159;16191.909;   -8.686;23858.717
774.729;15782.548;   -9.476;22942.135
775.298;15247.907;  -13.666;22324.033
775.867;14836.434;  -11.716;21140.313
776.437;14814.694;   -9.906;20838.092
777.006;14559.720;  -12.166;20599.510
777.576;14525.114;  -12.356;20508.809
778.145;14770.387;  -11.646;20732.947
778.714;14615.669;   -8.226;21062.465
779.283;13816.926;   -9.556;20949.664
779.853;13404.137;  -14.116;20508.623
780.422;13900.984;  -11.506;20649.082
780.991;13482.255;   -9.556;21527.520
781.560;12334.930;   -9.095;22632.658
782.129;12165.068;  -12.135;23048.277
782.698;12181.307;  -10.865;23438.555
783.267;11786.024;   -9.335;23267.734
783.836;11805.515;  -11.045;22415.133
784.404;12864.492;  -13.865;20443.152
784.973;13392.064;  -13.095;19699.150
785.542;13326.475;  -11.575;19763.828
786.111;13195.083;   -9.705;20341.408
786.679;12619.520;  -12.105;20207.967
787.248;12345.063;  -12.455;19516.465
787.817;12142.442;  -11.535;18900.363
788.385;11697.444;   -9.765;17879.121
788.954;11102.434;  -14.005;17658.301
789.522;10619.056;  -11.955;17788.879
790.090;11203.626;  -10.135;18118.277
790.659;11558.738;  -10.975;18338.736
791.227;11041.511;  -13.375;18508.615
791.795;11541.780;  -12.375;17898.254
792.364;11876.599;  -10.725;17295.133
792.932;12088.947;   -9.715;16822.051
793.500;12269.813;  -12.675;17040.148
794.068;12546.469;  -13.495;17179.787
794.636;12639.860;  -10.885;16664.246
795.204;12122.912;  -11.045;16524.545
795.772;12203.271;  -13.175;17274.564
796.340;11734.086;  -12.445;17891.002
796.908;11578.338;   -9.735;17648.561
797.476;11448.275;   -9.815;17064.080
798.044;10984.649;  -13.985;16672.777
798.612;10143.864;  -13.115;17023.996
799.180; 9741.657;  -10.185;16561.615
799.747; 9674.476;   -9.055;15962.773
800.315; 9418.539;  -12.385;15296.992
800.883; 9038.477;  -15.035;14801.771
801.450; 9006.487;  -10.365;14534.430
802.018; 9062.411;   -9.855;14173.248
802.585; 9212.947;  -11.905;14029.547
803.153; 9304.693;  -11.585;13836.846
803.720; 9162.220;   -9.095;13567.324
804.287; 8724.664;   -9.135;13360.622
804.855; 8320.620;  -11.604;13681.981
805.422; 8182.661;  -11.794;13536.560
805.989; 8176.610;  -10.734;13355.958
806.556; 8403.784;  -10.444;13747.896
807.124; 8689.698;  -12.764;13987.376
807.691; 8654.564;  -12.964;14038.674
808.258; 8415.031;  -11.134;14120.152
808.825; 8028.412;   -9.854;13860.111
809.392; 8078.266;  -10.504;13268.790
809.959; 7639.273;  -13.054;12680.389
810.526; 7253.829;   -8.294;12427.308
811.093; 7329.243;   -8.394;12030.105
811.659; 7887.855;  -12.304;11653.664
812.226; 8307.685;  -13.944;11637.183
812.793; 7938.853;  -10.484;11611.521
813.360; 7302.896;  -10.144;11885.181
813.926; 7034.996;  -11.684;12770.539
814.493; 6849.968;  -13.644;12677.638
815.060; 6495.149;   -9.724;11974.336
815.626; 6535.429;   -9.854;11594.715
816.193; 6934.112;  -13.254;11579.474
816.759; 6922.265;  -13.204;11666.972
817.325; 6979.853;   -9.434;11325.530
817.892; 7342.067;  -10.134;11105.369
818.458; 7763.052;  -13.474;10843.928
819.024; 7359.803;  -11.854;10714.406
819.591; 7054.402;  -10.244;10469.165
820.157; 6879.706;  -10.704;10235.523
820.723; 6420.807;  -12.324;10847.563
821.289; 6109.480;   -9.444;11040.980
821.855; 5962.439;   -8.374;10357.100
822.421; 5851.150;  -10.234; 9978.918
822.987; 5820.184;  -13.294; 9754.177
823.553; 5559.154;  -10.884;10065.755
824.119; 5422.883;   -8.884;10036.294
824.685; 5501.635;   -6.784;10029.192
825.251; 5579.582;  -12.004;10199.230
825.816; 5545.516;  -11.474; 9820.189
826.382; 5346.251;   -9.174; 9297.248
826.948; 5599.282;   -9.214; 9381.347
827.513; 5954.048;  -10.774; 9450.726
828.079; 5716.175;  -11.924; 9472.444
828.645; 5165.370;  -10.543; 9292.643
829.210; 5144.042;  -10.533; 9065.341
829.776; 5128.860;  -10.753; 9132.620
830.341; 4995.353;  -10.173; 9092.878
830.906; 5191.034;  -10.743; 9078.557
831.472; 5514.513;  -11.113; 8534.535
832.037; 5190.426;  -10.603; 8677.874
832.602; 4614.105;  -13.323; 8628.692
833.167; 4382.248;  -10.823; 8879.031
833.733; 4336.313;  -10.113; 9189.790
834.298; 4455.119;  -13.583; 9052.608
834.863; 4489.068;  -12.703; 8895.087
835.428; 4471.982;  -10.523; 8824.266
835.993; 4363.810;   -6.963; 8845.385
836.558; 4245.982;  -10.763; 8888.563
837.123; 4402.003;   -9.903; 8966.582
837.688; 4623.392;   -9.913; 8617.860
838.253; 4831.262;  -10.283; 8590.699
838.817; 5031.803;  -12.963; 8443.797
839.382; 4922.655;  -14.243; 8799.356
839.947; 4584.060;  -10.733; 8810.595
840.511; 4259.075;   -9.383; 8796.394
841.076; 3872.984;  -12.563; 8347.231
841.641; 3942.262;  -12.953; 8224.330
842.205; 4055.505;   -7.043; 8223.349
842.770; 4213.648;   -8.163; 8622.107
843.334; 4430.103;  -12.503; 8410.386
843.898; 4402.582;  -11.693; 8337.465
844.463; 4414.480;  -10.203; 8506.283
845.027; 4163.094;   -9.533; 8280.962
845.591; 3972.565;  -13.443; 8231.141
846.156; 3930.186;  -13.143; 7969.179
846.720; 3812.042;   -9.433; 7768.278
847.284; 3674.953;  -11.033; 7630.957
847.848; 3537.328;  -10.403; 7472.395
848.412; 3440.538;  -11.553; 7437.394
848.976; 3483.659;   -8.393; 7674.592
849.540; 3433.518;   -8.713; 7836.011
850.104; 3568.010;  -12.463; 7913.669
850.668; 3910.558;  -12.973; 7694.508
851.232; 3992.029;  -10.793; 7756.887
851.796; 3824.226;  -10.662; 7926.545
852.359; 3536.085;  -13.082; 7827.844
852.923; 3381.959;  -12.192; 7641.163
853.487; 3202.589;  -11.912; 7342.501
854.050; 3151.048;  -10.892; 7042.820
854.614; 3272.222;  -13.992; 7151.338
855.177; 3390.636;  -11.732; 7105.077
855.741; 3426.030;   -8.962; 6989.675
856.304; 3320.764;   -9.442; 6596.634
856.868; 3273.569;  -14.192; 6356.272
857.431; 3379.805;  -12.702; 6468.571
857.995; 3502.729;   -9.942; 6373.210
858.558; 3504.704;   -9.112; 6324.448
859.121; 3226.132;  -12.932; 6408.327
859.684; 3111.785;  -13.442; 6347.886
860.247; 3213.881;  -10.632; 6321.264
860.810; 3189.181;  -11.272; 6301.903
861.374; 2927.674;   -9.832; 6607.881
861.937; 2680.624;  -11.762; 6408.200
862.500; 2687.836;   -9.722; 6572.639
863.062; 2879.799;  -10.512; 6387.297
863.625; 3055.484;  -11.232; 6190.836
864.188; 3216.179;  -14.112; 5807.254
864.751; 3277.680;  -11.302; 5682.413
865.314; 3156.700;  -10.112; 5547.492
865.876; 2951.886;  -12.182; 5500.150
866.439; 2949.127;  -10.722; 5415.909
867.002; 2879.423;   -9.252; 5501.567
867.564; 2656.399;   -9.572; 5413.946
868.127; 2428.655;  -13.142; 5160.325
868.689; 2327.877;  -12.902; 5133.183
869.252; 2224.938;   -9.732; 5252.382
869.814; 2132.386;   -9.432; 5297.141
870.377; 2150.663;  -11.552; 5390.919
870.939; 2224.791;   -9.052; 5599.898
871.501; 2280.727;  -10.982; 5248.336
872.063; 2277.993;  -12.292; 4854.235
872.626; 2242.002;  -14.912; 4817.074
873.188; 2276.818;  -13.112; 4987.732
873.750; 2241.996;  -13.442; 4868.651
874.312; 2148.125;   -9.402; 4779.330
874.874; 2050.885;  -11.062; 4866.348
875.436; 1955.215;  -13.931; 4718.887
875.998; 1941.411;   -9.561; 4660.005
876.560; 1956.256;  -11.321; 4462.964
877.122; 1901.330;  -12.221; 4145.042
877.683; 1815.765;  -12.191; 4056.481
878.245; 1747.416;  -12.101; 3950.740
878.807; 1790.027;   -8.971; 4058.958
879.369; 1812.501;  -12.071; 3954.677
879.930; 1716.887;  -14.621; 3941.495
880.492; 1658.503;  -10.311; 4067.014
881.053; 1610.521;  -10.901; 3859.633
881.615; 1492.106;  -14.411; 3776.071
882.176; 1400.072;  -13.761; 3734.750
882.738; 1358.884;   -9.181; 3678.489
883.299; 1334.143;  -11.791; 3405.407
883.860; 1341.755;  -13.121; 3351.106
884.422; 1341.999;  -11.211; 3394.044
884.983; 1289.382;  -10.091; 3166.443
885.544; 1203.910;   -8.461; 3189.802
886.105; 1124.628;  -12.361; 3160.360
886.666; 1058.549;  -14.141; 3093.059
887.227; 1003.831;  -11.361; 2941.957
887.788;  943.115;  -11.401; 2974.836
888.349;  880.630;  -13.791; 2721.214
888.910;  881.270;  -13.191; 2696.493
889.471;  888.920;   -9.881; 2560.172
890.032;  869.167;   -9.881; 2558.190
890.593;  844.338;  -10.371; 2567.669
891.153;  818.943;  -13.301; 2460.307
891.714;  766.828;  -11.431; 2372.046
892.275;  722.309;  -11.291; 2309.505
892.835;  678.533;  -11.471; 2382.543
893.396;  622.539;  -11.541; 2295.502
893.956;  564.274;  -11.181; 2162.420
894.517;  529.609;  -11.741; 2125.439
895.077;  526.281;  -11.671; 2086.978
895.638;  525.837;  -11.311; 2126.316
896.198;  495.973;   -9.831; 1838.275
896.758;  453.710;   -8.421; 1892.813
897.319;  422.900;  -12.351; 1792.232
897.879;  405.834;  -13.511; 1762.751
898.439;  379.313;  -12.001; 1661.149
898.999;  356.459;  -10.180; 1781.468
899.559;  346.329;  -12.030; 1703.347
900.119;  340.799;  -15.710; 1537.525
900.679;  336.979;   -8.900; 1638.384
901.239;  321.968;   -8.340; 1527.902
901.799;  313.402;  -13.910; 1456.441
902.359;  306.500;  -13.460; 1357.140
902.919;  299.583;  -11.490; 1331.118
903.479;  285.931;  -12.110; 1317.257
904.038;  264.781;  -11.720; 1262.595
904.598;  250.401;  -13.610; 1152.034
905.158;  246.197;  -11.040; 1240.893
905.717;  239.466;  -10.900; 1233.691
906.277;  227.352;  -15.080; 1217.330
906.836;  216.593;  -13.380; 1222.408
907.396;  207.304;  -10.780; 1193.047
907.955;  200.849;   -8.500; 1182.526
908.515;  195.678;  -12.760; 1099.364
909.074;  189.072;  -11.900; 1092.863
909.633;  183.722;   -8.950; 1069.121
910.192;  179.266;   -8.770; 1196.460
910.752;  173.167;  -12.390; 1029.960
911.311;  169.570;  -13.680; 1009.780
911.870;  166.527;  -12.370;  971.460
912.429;  168.322;  -10.900; 1094.080
912.988;  168.166;  -11.690; 1081.060
913.547;  161.797;  -13.240;  940.380
914.106;  155.940;  -11.990;  999.420
914.665;  154.075;   -9.990;  984.020
915.224;  153.929;  -12.880; 1035.760
915.782;  153.747;  -12.350;  922.560
916.341;  152.923;   -9.110; 1049.840
916.900;  149.499;   -9.270;  925.260
917.458;  146.742;  -13.240;  884.220
918.017;  146.150;  -13.550;  942.600
918.576;  145.493;  -12.320;  904.440
919.134;  143.876;  -11.490;  837.980
919.693;  141.642;  -13.670;  893.060
920.251;  140.265;  -15.470;  876.500
920.809;  139.148;  -11.290;  839.580
921.368;  138.976;  -10.210;  885.360
921.926;  138.594;  -12.140;  842.940
922.484;  136.280;  -13.080;  903.360
923.042;  135.914;  -11.720;  880.340
923.601;  139.473;   -7.480;  998.680
924.159;  138.367;  -11.570;  935.560
924.717;  133.185;  -13.840;  841.080
925.275;  134.186;  -10.640;  903.240
925.833;  134.198;  -11.540;  779.320
926.391;  135.618;  -12.960;  938.380
926.949;  133.665;  -14.130;  857.680
927.506;  133.604;  -11.750;  903.500
928.064;  134.105;  -10.250;  877.580
928.622;  133.052;  -13.030;  880.100
929.180;  132.430;  -13.400;  814.180
929.737;  133.697;  -10.700;  808.540
930.295;  138.013;  -10.070;  928.480
930.853;  139.794;  -11.960;  849.100
931.410;  140.162;  -13.120;  821.120
931.968;  139.766;  -10.770;  940.660
932.525;  139.570;  -10.680;  909.380
933.082;  140.420;  -13.130;  811.440
933.640;  140.902;  -13.210;  925.900
934.197;  138.379;  -11.060;  886.360
934.754;  139.660;   -9.580;  897.780
935.312;  143.104;  -14.000;  863.340
935.869;  147.655;  -10.710; 1012.980
936.426;  148.379;   -9.860;  872.800
936.983;  149.473;   -9.710;  889.020
937.540;  148.183;  -13.990;  838.280
938.097;  145.477;  -14.040;  940.120
938.654;  145.969;  -10.310;  898.860
939.211;  149.527;  -10.560;  952.480
939.768;  153.638;  -13.900;  915.420
940.324;  157.819;  -14.760;  904.200
940.881;  157.581;  -10.370;  878.500
941.438;  158.914;   -8.260; 1021.200
941.995;  155.152;  -12.540;  992.560
942.551;  151.979;  -14.670;  875.620
943.108;  153.138;  -10.450;  937.920
943.664;  155.553;  -10.750;  869.340
944.221;  158.767;  -11.550; 1088.140
944.777;  156.916;  -14.770;  869.680
945.334;  157.212;  -12.820;  884.840
945.890;  158.496;  -10.130;  946.480
946.446;  158.919;  -13.470;  947.020
947.003;  161.472;  -12.120;  964.940
947.559;  163.052;   -9.980; 1063.040
948.115;  162.740;   -9.080; 1026.540
948.671;  161.715;  -10.830;  967.300
949.227;  158.637;  -12.440;  859.560
949.783;  155.996;  -12.910;  858.900
950.339;  157.336;  -10.270;  991.000
950.895;  158.456;  -13.630; 1023.840
951.451;  158.410;  -15.100;  925.280
952.007;  158.469;  -11.330;  998.540
952.563;  159.346;  -10.580;  937.780
953.118;  158.552;  -13.440;  904.940
953.674;  157.350;  -12.710;  935.780
954.230;  156.815;  -10.350;  949.640
954.785;  154.810;   -9.190;  936.640
955.341;  152.690;  -11.200;  998.160
955.897;  150.381;  -16.560;  834.660
956.452;  151.982;  -12.570;  953.840
957.008;  152.068;   -7.970; 1083.640
957.563;  149.781;  -11.940; 1009.540
958.118;  144.599;  -13.450;  877.700
958.674;  144.889;  -12.030;  946.780
959.229;  145.888;   -9.410; 1013.980
959.784;  144.262;  -12.000;  832.400
960.339;  143.545;  -14.780; 1001.280
960.894;  139.807;   -9.860;  963.760
961.449;  136.237;   -9.970;  859.960
962.004;  135.890;  -10.900; 1212.840
962.559;  130.809;  -13.150;  860.140
963.114;  128.431;  -13.740;  742.480
963.669;  128.034;   -9.820;  915.500
964.224;  127.191;  -13.890;  874.340
964.779;  125.428;  -12.600;  828.420
965.334;  126.880;  -10.950; 1017.860
965.888;  126.263;  -11.170;  875.360
966.443;  128.923;  -12.540;  972.380
966.998;  128.958;  -15.780;  819.460
967.552;  126.442;   -9.760;  908.380
968.107;  123.720;   -9.060;  868.300
968.661;  125.750;  -11.950;  922.440
969.216;  125.456;  -12.800;  856.280
969.770;  125.750;  -11.210;  917.200
970.324;  125.679;  -11.610;  923.140
970.879;  123.491;  -11.370;  947.180
971.433;  120.255;  -12.540;  952.720
971.987;  115.979;  -11.320;  895.340
972.541;  112.664;  -10.720;  917.100
973.095;  108.967;   -9.680; 1009.460
973.649;  102.445;  -11.440;  809.480
974.203;   92.977;  -11.210;  829.040
974.757;   86.514;  -10.240;  855.220
975.311;   82.188;  -13.720;  872.600
975.865;   79.580;  -13.770;  881.820
976.419;   80.612;  -11.690;  857.400
976.973;   83.513;   -9.510;  849.620
977.526;   87.134;  -12.620;  949.920
978.080;   88.192;  -12.010;  796.780
978.634;   90.023;  -10.170;  921.320
979.187;   88.648;   -9.020;  905.400
979.741;   88.147;   -9.820; 1018.380
980.294;   84.837;  -14.870;  789.160
980.848;   83.068;  -12.380;  717.220
981.401;   85.644;  -10.350;  816.540
981.955;   88.512;  -13.720;  844.300
982.508;   87.345;  -11.490;  746.340
983.061;   87.935;  -10.000;  915.260
983.615;   85.165;  -11.480;  798.800
984.168;   82.192;  -13.220;  770.080
984.721;   81.517;  -13.960;  880.760
985.274;   80.968;  -10.870;  867.500
985.827;   80.382;   -9.790;  834.220
986.380;   78.723;  -13.120;  721.340
986.933;   78.195;  -12.450;  864.800
987.486;   75.945;  -10.210;  861.920
988.039;   75.779;   -8.430;  863.100
988.591;   73.498;  -10.520;  893.260
989.144;   71.627;  -14.860;  737.260
989.697;   70.714;  -13.080;  758.740
990.250;   71.824;  -10.150;  858.100
990.802;   71.314;  -13.430;  755.860
991.355;   71.732;  -12.750;  974.880
991.907;   69.582;  -12.040;  864.320
992.460;   67.432;  -11.330;  753.760
993.012;   66.904;  -13.610;  749.540
993.565;   65.875;  -13.460;  711.360
994.117;   67.193;   -9.360;  950.780
994.669;   63.801;  -11.300;  701.320
995.221;   62.425;  -13.540;  791.920
995.774;   60.817;  -13.430;  787.580
996.326;   58.849;  -12.520;  740.220
996.878;   58.982;  -10.950;  838.420
997.430;   55.573;  -14.300;  699.860
997.982;   53.172;  -13.760;  750.140
998.534;   52.596;  -11.530;  739.060
999.086;   50.759;  -10.310;  738.220
999.638;   50.427;  -12.530;  661.380
1000.190;   49.950;  -11.840;  699.320
1000.741;   50.083;  -10.260;  742.700
1001.293;   50.352;   -8.860;  686.020
1001.845;   48.831;  -13.700;  676.640
1002.396;   48.836;  -12.100;  743.400
1002.948;   48.119;  -12.760;  737.400
1003.500;   47.318;  -10.380;  723.780
1004.051;   47.623;  -11.900;  907.580
1004.603;   46.146;  -12.250;  791.820
1005.154;   42.400;  -13.210;  608.980
1005.705;   41.656;  -10.950;  723.960
1006.257;   41.591;  -13.880;  707.220
1006.808;   40.485;  -12.840;  685.460
1007.359;   40.748;  -10.570;  763.240
1007.910;   39.056;   -9.620;  646.640
1008.461;   39.130;  -13.630;  732.940
1009.013;   38.483;  -17.200;  588.340
1009.564;   38.912;  -10.200;  793.520
1010.115;   37.187;  -12.570;  597.040
1010.665;   37.454;  -15.150;  602.160
1011.216;   36.988;  -14.480;  667.920
1011.767;   36.295;  -11.340;  697.920
1012.318;   36.444;   -9.780;  736.980
1012.869;   35.764;  -12.380;  679.000
1013.419;   34.657;  -15.560;  603.120
1013.970;   35.683;  -11.010;  666.640
1014.521;   34.271;  -11.610;  620.620
1015.071;   35.091;  -13.450;  670.380
1015.622;   34.377;  -13.870;  635.460
1016.172;   33.389;  -11.610;  596.820
1016.723;   32.989;  -12.120;  614.380
1017.273;   33.398;  -13.620;  604.160
1017.823;   33.789;  -14.140;  650.340
1018.374;   32.957;  -12.800;  611.760
1018.924;   32.993;  -12.340;  716.880
1019.474;   32.734;  -11.410;  718.880
1020.024;   31.721;  -14.770;  657.580
1020.574;   32.555;   -9.780;  726.160
1021.124;   32.803;   -8.560;  673.580
1021.674;   30.776;  -15.190;  559.120
1022.224;   32.081;  -13.530;  708.940
1022.774;   31.313;  -13.280;  668.820
1023.324;   31.412;  -10.690;  753.520
1023.874;   32.972;  -10.240;  875.760
1024.423;   30.798;  -12.540;  613.700
1024.973;   30.638;  -10.010;  610.760
1025.523;   29.698;  -10.550;  620.960
1026.072;   29.329;  -13.560;  606.420
1026.622;   28.827;  -15.120;  675.740
1027.172;   29.642;  -11.260;  715.660
1027.721;   28.856;  -11.410;  601.220
1028.270;   29.020;  -13.530;  663.400
1028.820;   29.170;  -13.680;  638.080
1029.369;   28.461;  -13.520;  612.700
1029.918;   29.076;  -10.980;  649.840
1030.468;   28.186;  -13.530;  564.780
1031.017;   28.571;  -13.170;  634.800
1031.566;   27.069;  -12.200;  608.900
1032.115;   27.786;   -9.960;  694.500
1032.664;   27.340;  -13.210;  596.480
1033.213;   27.649;  -12.500;  735.420
1033.762;   27.107;  -11.910;  635.620
1034.311;   26.786;   -9.640;  677.220
1034.860;   27.532;  -13.310;  691.000
1035.408;   27.366;  -11.830;  722.720
1035.957;   26.697;  -12.000;  719.540
1036.506;   24.651;  -11.690;  530.800
1037.055;   27.772;  -10.990;  844.320
1037.603;   26.542;  -15.120;  664.000
1038.152;   23.941;  -12.450;  534.760
1038.700;   24.995;  -10.560;  585.740
1039.249;   25.010;  -11.080;  681.220
1039.797;   25.551;  -12.540;  633.360
1040.345;   25.499;  -11.920;  705.420
1040.894;   24.414;  -11.410;  625.300
1041.442;   24.771;  -14.320;  632.200
1041.990;   23.370;  -16.240;  559.160
1042.538;   23.406;  -11.680;  536.180
1043.087;   23.380;  -10.760;  570.860
1043.635;   24.849;  -11.850;  670.500
1044.183;   23.304;  -15.480;  586.400
1044.731;   22.917;  -11.770;  576.000
1045.279;   23.070;  -13.090;  674.920
1045.827;   25.005;  -12.440;  892.400
1046.374;   22.356;  -13.840;  515.420
1046.922;   21.281;  -13.220;  590.580
1047.470;   23.487;  -10.230;  691.300
1048.018;   23.219;  -14.590;  647.960
1048.565;   23.231;  -12.050;  708.600
1049.113;   22.060;  -11.650;  557.000
1049.660;   21.481;  -10.510;  629.660
1050.208;   22.122;  -13.310;  675.640
1050.755;   21.325;  -15.900;  606.580
1051.303;   22.286;  -11.430;  686.820
1051.850;   20.674;   -8.480;  635.120
1052.397;   20.526;  -15.010;  473.960
1052.945;   21.202;  -13.960;  617.760
1053.492;   21.648;  -13.150;  741.840
1054.039;   21.657;   -9.630;  720.180
1054.586;   20.292;  -13.680;  557.240
1055.133;   21.049;  -14.570;  693.140
1055.680;   20.701;  -13.820;  646.620
1056.227;   19.832;  -11.730;  542.780
1056.774;   21.505;  -12.480;  794.980
1057.321;   19.859;  -13.930;  523.260
1057.868;   19.575;  -11.690;  651.320
1058.415;   19.003;   -9.520;  651.980
1058.961;   20.335;  -13.160;  678.940
1059.508;   19.608;  -12.920;  643.820
1060.055;   19.539;  -11.920;  581.780
1060.601;   19.304;  -11.500;  624.300
1061.148;   19.913;  -14.330;  616.820
1061.694;   19.062;  -16.870;  592.580
1062.241;   18.707;  -10.330;  596.320
1062.787;   19.019;  -10.620;  663.140
1063.334;   20.665;  -10.110;  808.560
1063.880;   18.746;  -13.400;  668.360
1064.426;   17.707;  -10.680;  706.820
1064.972;   17.764;   -9.920;  601.340
1065.518;   16.858;  -10.980;  566.640
1066.065;   18.013;  -14.890;  624.460
1066.611;   16.482;  -12.870;  598.800
1067.157;   17.841;  -12.950;  641.860
1067.703;   18.020;  -13.540;  668.480
1068.249;   17.254;  -13.540;  605.220
1068.794;   16.730;  -12.600;  626.880
1069.340;   16.564;  -10.620;  578.960
1069.886;   17.067;  -12.830;  590.700
1070.432;   15.762;  -14.870;  541.720
1070.977;   16.136;  -11.980;  601.080
1071.523;   16.183;   -8.200;  573.060
1072.068;   16.494;  -12.330;  582.000
1072.614;   16.049;  -16.370;  527.760
1073.160;   16.327;  -11.100;  687.040
1073.705;   15.101;  -10.480;  572.520
1074.250;   15.209;  -14.520;  559.900
1074.796;   15.880;  -11.460;  655.160
1075.341;   16.185;  -11.950;  664.100
1075.886;   15.687;  -11.460;  594.240
1076.431;   14.918;  -13.770;  649.880
1076.976;   14.847;  -12.680;  639.220
1077.521;   14.598;  -13.170;  583.080
1078.067;   14.066;  -10.860;  579.400
1078.612;   15.072;  -13.920;  661.620
1079.156;   14.651;  -13.880;  601.540
1079.701;   15.701;  -13.120;  693.260
1080.246;   15.184;   -9.940;  696.300
1080.791;   15.083;  -14.740;  625.020
1081.336;   14.900;  -13.750;  659.320
1081.880;   14.349;  -13.400;  649.680
1082.425;   13.632;  -12.220;  573.480
1082.970;   15.182;  -11.610;  717.040
1083.514;   13.598;  -13.580;  597.000
1084.059;   12.806;  -12.810;  586.720
1084.603;   12.481;  -12.320;  565.840
1085.147;   12.994;  -13.190;  645.220
1085.692;   14.265;  -12.480;  716.800
1086.236;   12.020;  -13.020;  503.140
1086.780;   14.471;   -9.190;  751.440
1087.325;   13.408;  -12.480;  654.620
1087.869;   13.654;  -12.450;  610.700
1088.413;   12.990;  -12.240;  705.040
1088.957;   11.846;   -9.020;  543.400
1089.501;   14.157;  -10.320;  766.640
1090.045;   12.910;  -12.720;  726.480
1090.589;   11.177;  -13.690;  569.920
1091.133;   12.141;  -10.020;  673.340
1091.676;   12.837;  -12.330;  591.940
1092.220;   12.018;  -14.970;  600.920
1092.764;   12.598;  -12.430;  706.960
1093.307;   12.281;   -9.800;  673.780
1093.851;   10.827;  -14.970;  556.540
1094.395;   12.025;  -15.310;  683.140
1094.938;   10.918;  -10.370;  632.520
1095.482;   11.353;  -11.050;  559.800
1096.025;   11.626;  -11.840;  710.880
1096.568;   12.681;  -12.840;  779.280
1097.112;    9.244;  -14.700;  508.180
1097.655;   11.319;   -8.720;  603.000
1098.198;    9.887;  -13.610;  600.180
1098.741;    9.357;  -13.350;  612.860
1099.285;   10.627;  -11.230;  657.300
1099.828;    8.898;  -11.840;  439.400
1100.371;   10.053;  -10.840;  608.160
1100.914;   10.508;  -14.190;  682.660
1101.457;   10.149;  -11.240;  679.900
1101.999;    8.954;  -11.270;  584.680
1102.542;    9.415;  -11.480;  641.440
1103.085;    9.728;  -11.750;  658.500
1103.628;    9.943;  -11.400;  762.060
1104.170;    9.251;  -10.490;  588.280
1104.713;    9.939;  -10.600;  646.700
1105.256;    8.648;  -14.360;  557.440
1105.798;    8.183;  -13.210;  499.980
1106.341;    9.549;  -10.270;  728.900
1106.883;    8.883;  -12.200;  521.340
1107.425;    8.898;  -13.110;  668.180
1107.968;    8.569;  -12.840;  612.380
1108.510;    9.401;   -6.480;  684.960
1109.052;    7.385;  -13.940;  612.620
1109.594;    7.535;  -13.690;  554.440
1110.136;    7.860;  -11.880;  643.220
1110.679;    7.949;   -9.500;  633.080
1111.221;    8.620;  -14.160;  604.460
1111.763;    8.093;  -13.980;  559.220
1112.304;    6.476;  -13.880;  547.140
1112.846;    7.765;  -12.210;  666.240
1113.388;   10.435;  -11.390;  942.180
1113.930;    8.057;  -14.540;  694.200
1114.472;    6.787;  -12.640;  606.540
1115.013;    5.499;  -11.620;  551.280
1115.555;    6.569;  -13.640;  587.100
1116.097;    6.520;  -15.380;  579.480
1116.638;    6.385;  -12.640;  684.600
1117.180;    6.829;   -9.850;  667.740
1117.721;    6.998;  -13.690;  568.580
1118.262;    7.842;  -12.680;  677.960
1118.804;    7.215;  -12.530;  637.340
1119.345;    5.843;  -11.690;  578.400
1119.886;    7.244;  -13.380;  704.040
1120.427;    5.630;  -14.070;  589.020
1120.969;    5.481;  -13.500;  597.920
1121.510;    5.168;  -11.480;  563.060
1122.051;    5.973;  -12.830;  723.580
1122.592;    5.084;  -14.290;  655.420
1123.133;    4.243;  -12.400;  547.940
1123.673;    6.449;  -10.130;  706.480
1124.214;    5.571;  -12.930;  612.460
1124.755;    5.977;  -14.380;  639.460
1125.296;    5.406;  -14.000;  627.320
1125.836;    6.415;  -10.070;  691.500
1126.377;    4.376;  -12.640;  599.660
1126.918;    5.732;  -12.960;  614.980
1127.458;    4.624;  -13.350;  622.220
1127.999;    5.833;  -10.750;  656.980
1128.539;    4.906;  -12.350;  694.240
1129.079;    4.290;  -14.860;  632.720
1129.620;    3.738;  -13.840;  558.100
1130.160;    4.405;  -12.330;  539.480
1130.700;    5.188;  -14.530;  640.840
1131.240;    5.033;  -12.530;  643.700
1131.781;    3.686;  -14.450;  619.680
1132.321;    3.773;   -9.790;  599.120
1132.861;    3.092;  -14.860;  564.200
1133.401;    3.104;  -14.290;  593.940
1133.941;    3.607;  -11.750;  626.280
1134.481;    3.585;   -9.920;  597.580
1135.020;    3.371;  -12.290;  609.160
1135.560;    3.324;  -11.650;  674.940
1136.100;    3.091;  -16.270;  501.160
1136.640;    2.182;  -10.890;  510.480
1137.179;    3.329;  -14.180;  537.960
1137.719;    3.552;  -16.250;  605.400
1138.258;    2.513;  -14.230;  587.360
1138.798;    3.408;   -9.090;  663.780
1139.337;    2.199;  -15.130;  482.840
1139.877;    3.171;  -13.680;  642.360
1140.416;    4.846;  -11.320;  878.060
1140.955;    1.956;  -10.860;  535.380
1141.494;    3.507;  -12.920;  669.280
1142.034;    2.845;  -13.930;  583.520
1142.573;    2.994;  -11.440;  646.280
1143.112;    1.987;  -12.000;  553.480
1143.651;    2.591;  -13.670;  536.480
1144.190;    2.755;  -12.730;  691.640
1144.729;    2.093;  -14.560;  607.420
1145.267;    2.618;  -11.830;  584.900
1145.806;    2.922;  -12.230;  637.040
1146.345;    1.835;  -14.130;  635.020
1146.884;    1.201;  -11.590;  622.500
1147.422;    0.835;  -12.550;  533.060
1147.961;    3.292;  -11.180;  708.460
1148.500;    3.199;  -11.510;  669.720
1149.038;    2.995;  -11.640;  632.500
1149.577;    2.289;  -10.130;  698.640
1150.115;   -0.211;  -13.970;  452.280
1150.653;    1.867;  -14.520;  607.340
1151.192;    1.067;  -12.810;  552.920
1151.730;    0.778;   -9.100;  652.560
1152.268;    0.944;  -12.220;  589.520
1152.806;    0.723;  -14.140;  571.180
1153.344;   -0.376;  -12.350;  577.640
1153.882;    0.943;   -8.980;  600.060
1154.421;   -0.840;  -15.190;  470.620
1154.958;    0.094;  -15.210;  595.240
1155.496;    1.174;  -12.850;  645.280
1156.034;    0.917;   -9.940;  721.880
1156.572;    1.804;  -13.570;  667.060
1157.110;   -0.039;  -14.590;  473.940
1157.647;    1.023;  -13.030;  676.960
1158.185;   -0.226;  -12.140;  564.320
1158.723;   -1.135;  -14.390;  509.200
1159.260;    0.323;  -14.090;  701.700
1159.798;    0.831;  -11.920;  658.160
1160.335;   -0.478;  -11.110;  631.820

