
Integration time [ms]:   3.276
Averaging Nr. [scans]: 1000
Smoothing Nr. [pixels]: 0
Data measured with spectrometer [name]: 7414430SP
Wave   ;Sample   ;Dark     ;Reference
[nm]   ;[counts] ;[counts] ;[counts] 

288.544;  151.738;    7.793;  793.890
289.143;  154.648;    7.462;  681.602
289.742;  154.694;    8.602;  828.814
290.341;  140.168;    1.321;  789.841
290.940;  130.527;   -0.709;  730.702
291.538;  130.955;    0.881;  881.108
292.137;  130.515;    0.122;  792.581
292.736;  135.100;   -1.929;  975.101
293.335;  131.512;   -8.229;  735.086
293.934;  131.790;   -5.279;  781.677
294.532;  129.589;   -1.369; 1031.958
295.131;  116.142;   -7.641;  834.394
295.730;  116.755;   -8.420;  809.588
296.328;  114.747;   -5.611;  783.442
296.927;  115.917;   -5.781;  779.652
297.525;  116.881;   -6.361;  781.236
298.124;  107.911;  -11.382;  654.009
298.722;  111.430;   -7.641;  761.933
299.321;  108.682;   -6.811;  708.597
299.919;  107.286;   -6.991;  751.918
300.518;  104.591;  -10.362;  689.338
301.116;  106.227;   -9.581;  691.381
301.715;  105.585;   -4.891;  730.222
302.313;  104.956;   -8.801;  704.943
302.911;  100.167;   -8.522;  733.830
303.509;  105.524;   -6.171;  925.627
304.108;  103.169;   -7.311;  760.383
304.706;  102.103;   -8.321;  801.664
305.304;   96.703;  -10.222;  796.707
305.902;  102.283;   -6.021;  784.484
306.500;   97.506;   -4.971;  728.200
307.098;   96.243;   -7.061;  746.560
307.696;   95.210;   -8.801;  780.432
308.294;   95.218;   -6.411;  731.359
308.892;   96.424;   -2.901;  759.769
309.490;   92.519;   -5.041;  712.161
310.088;   92.222;   -5.002;  788.444
310.686;   95.316;   -2.041;  821.749
311.284;   90.537;   -2.351;  766.040
311.882;   88.871;   -4.422;  731.225
312.480;   86.138;   -4.192;  697.167
313.078;   87.689;   -1.172;  808.331
313.675;   87.544;   -2.601;  691.600
314.273;   83.985;   -1.312;  797.837
314.871;   84.198;   -3.942;  589.829
315.468;   80.534;   -2.802;  652.090
316.066;   82.869;   -0.701;  694.427
316.664;   77.182;   -4.362;  656.351
317.261;   81.022;   -2.872;  910.128
317.859;   76.190;   -2.022;  768.735
318.456;   76.480;   -0.531;  830.096
319.054;   71.908;   -3.912;  787.828
319.651;   72.145;   -4.752;  759.928
320.249;   69.456;   -2.602;  810.188
320.846;   67.944;   -0.821;  714.286
321.443;   65.363;   -4.642;  832.135
322.041;   62.881;   -5.002;  812.315
322.638;   60.575;   -3.982;  701.456
323.235;   61.884;   -3.411;  665.683
323.833;   59.216;   -7.361;  740.354
324.430;   55.096;   -8.611;  615.900
325.027;   54.751;   -4.061;  876.855
325.624;   54.514;   -4.031;  644.532
326.221;   51.706;   -7.481;  689.717
326.818;   53.161;   -5.281;  818.332
327.415;   54.016;   -7.460;  748.828
328.012;   54.294;   -5.510;  690.585
328.609;   53.277;   -7.880;  731.389
329.206;   51.825;   -8.331;  778.621
329.803;   51.763;   -5.121;  737.841
330.400;   54.271;   -4.510;  704.260
330.997;   55.820;   -6.441;  817.147
331.594;   54.191;   -8.831;  788.185
332.191;   59.224;   -7.621;  728.722
332.787;   61.589;   -4.591;  844.463
333.384;   60.559;   -7.412;  763.093
333.981;   59.915;   -8.293;  815.687
334.578;   62.024;   -7.052;  708.378
335.174;   64.524;   -3.102;  731.469
335.771;   64.364;   -5.943;  836.456
336.367;   62.095;   -7.393;  710.631
336.964;   65.456;   -4.063;  793.266
337.561;   62.753;   -3.813;  731.112
338.157;   59.290;   -4.654;  911.916
338.754;   56.162;   -7.934;  796.589
339.350;   54.201;   -4.414;  722.493
339.946;   55.631;   -4.664;  773.135
340.543;   48.831;   -6.375;  846.136
341.139;   43.943;   -9.815;  720.836
341.735;   40.981;   -4.526;  772.593
342.332;   39.575;   -4.895;  691.472
342.928;   40.803;   -4.295;  795.394
343.524;   34.393;   -5.476;  761.684
344.120;   29.580;   -5.856;  738.562
344.716;   33.699;   -2.155;  723.717
345.313;   31.571;   -6.275;  795.342
345.909;   25.935;   -8.815;  627.336
346.505;   27.815;   -5.305;  740.247
347.101;   28.811;   -2.674;  827.864
347.697;   29.193;   -4.344;  785.398
348.293;   24.379;   -9.975;  627.244
348.889;   24.278;   -5.774;  745.914
349.485;   24.227;   -5.004;  688.205
350.081;   24.347;   -4.704;  772.592
350.676;   20.557;   -6.635;  691.606
351.272;   24.076;   -4.504;  809.530
351.868;   24.094;   -3.914;  780.497
352.464;   20.700;   -9.044;  723.932
353.059;   17.947;   -8.314;  646.017
353.655;   20.583;   -7.024;  777.063
354.251;   21.708;   -5.343;  759.845
354.846;   15.982;   -8.604;  740.646
355.442;   14.876;   -6.945;  753.071
356.038;   15.820;   -7.564;  751.708
356.633;   16.643;   -5.814;  728.594
357.229;   13.678;   -7.364;  724.757
357.824;   12.307;   -8.024;  703.600
358.420;   11.919;   -9.384;  679.726
359.015;   11.765;   -5.104;  695.357
359.610;   13.247;   -6.854;  763.920
360.206;    7.078;  -10.185;  603.240
360.801;    9.968;   -7.054;  646.503
361.396;   11.836;   -5.034;  725.975
361.992;    7.908;   -8.284;  668.220
362.587;    5.075;   -8.625;  670.160
363.182;    7.335;   -7.674;  689.631
363.777;    7.404;   -5.164;  738.242
364.372;    7.804;   -8.604;  737.314
364.967;    3.972;   -9.055;  680.744
365.563;    7.408;   -6.114;  815.567
366.158;    4.876;   -5.814;  685.161
366.753;    5.478;   -7.854;  649.263
367.348;    4.328;   -7.804;  746.056
367.942;    3.857;   -7.954;  697.298
368.537;    3.025;   -4.984;  754.245
369.132;    3.172;   -8.564;  703.428
369.727;   -0.685;   -8.855;  638.079
370.322;    0.502;   -6.245;  580.186
370.917;    0.083;   -6.425;  710.646
371.511;    2.526;   -6.294;  861.834
372.106;   -0.383;   -7.685;  776.964
372.701;   -3.883;   -7.335;  585.988
373.296;    1.516;   -4.564;  863.135
373.890;   -2.971;  -10.235;  647.840
374.485;   -4.583;   -7.885;  691.199
375.079;   -1.169;   -7.324;  738.685
375.674;    1.014;   -3.494;  812.970
376.268;   -4.622;   -8.525;  691.759
376.863;   -9.419;  -10.086;  580.327
377.457;   -3.828;   -7.025;  662.490
378.052;   -5.778;   -3.585;  764.884
378.646;   -6.570;   -7.595;  741.167
379.240;   -5.726;   -8.335;  721.176
379.835;   -5.621;   -5.785;  636.978
380.429;   -8.148;   -4.335;  562.557
381.023;   -7.363;   -6.805;  779.205
381.617;   -9.642;   -9.195;  680.106
382.212;   -6.268;   -6.905;  685.303
382.806;   -5.361;   -3.745;  760.690
383.400;   -9.213;   -7.745;  672.281
383.994;  -11.067;   -9.765;  664.870
384.588;   -7.280;   -6.564;  697.701
385.182;   -5.625;   -5.344;  726.624
385.776;   -7.713;   -8.514;  706.875
386.370;   -9.975;   -9.555;  681.968
386.964;   -9.350;   -8.715;  684.155
387.558;   -7.486;   -6.174;  598.360
388.152;  -11.246;   -8.725;  681.959
388.745;   -8.664;   -7.965;  814.707
389.339;   -7.743;   -5.924;  747.642
389.933;   -6.458;   -5.524;  695.370
390.527;   -7.230;   -7.114;  859.029
391.120;  -13.172;  -10.725;  595.318
391.714;  -10.846;   -8.035;  711.633
392.308;   -8.138;   -3.574;  780.253
392.901;  -11.615;   -7.245;  642.460
393.495;  -12.230;   -9.285;  595.414
394.089;  -11.891;   -5.895;  760.452
394.682;  -11.998;   -4.295;  697.188
395.275;  -12.191;   -9.875;  719.927
395.869;  -12.659;   -8.485;  667.314
396.462;  -11.808;   -7.455;  616.609
397.056;   -8.219;   -5.424;  776.621
397.649;  -12.306;   -6.605;  731.575
398.242;   -9.868;   -8.224;  712.645
398.836;   -8.879;   -7.474;  766.408
399.429;  -10.163;   -7.094;  631.041
400.022;  -13.294;   -9.475;  665.902
400.615;  -10.768;   -7.145;  805.609
401.208;   -9.408;   -7.174;  691.451
401.802;  -11.680;   -5.515;  699.329
402.395;  -12.687;   -9.875;  683.502
402.988;  -13.259;   -8.845;  696.627
403.581;  -10.468;   -8.874;  646.878
404.174;   -7.418;   -5.324;  686.568
404.767;  -10.851;   -9.575;  638.583
405.360;  -13.038;  -10.965;  621.445
405.953;   -7.968;   -8.764;  759.034
406.545;   -8.122;   -7.514;  725.342
407.138;  -12.029;  -10.025;  618.350
407.731;  -10.368;  -10.034;  613.303
408.324;   -5.711;   -9.374;  660.554
408.917;   -7.428;   -6.534;  681.864
409.509;   -8.708;   -8.004;  740.396
410.102;   -9.982;   -9.875;  643.948
410.695;   -5.106;   -8.604;  665.758
411.287;   -6.289;   -6.794;  599.821
411.880;   -6.870;   -9.334;  585.421
412.472;  -10.252;  -10.254;  613.092
413.065;   -7.465;   -6.714;  629.408
413.657;   -5.898;   -7.234;  576.678
414.250;   -5.269;  -10.544;  646.681
414.842;   -6.805;   -9.744;  676.353
415.434;   -4.523;   -6.994;  570.463
416.027;   -0.881;   -5.893;  652.196
416.619;   -2.653;   -7.264;  713.400
417.211;   -2.978;  -10.374;  599.352
417.804;   -0.132;   -7.993;  628.499
418.396;   -4.033;   -7.234;  607.643
418.988;   -1.376;   -9.443;  659.238
419.580;   -4.057;  -10.724;  568.276
420.172;   -2.288;  -10.323;  536.196
420.764;    1.856;   -8.793;  672.482
421.356;    0.979;  -11.143;  636.898
421.948;    0.120;   -8.293;  677.661
422.540;    4.912;   -7.893;  680.027
423.132;    3.996;   -7.082;  600.641
423.724;    0.758;   -8.653;  561.267
424.316;    3.688;  -10.213;  621.345
424.908;    6.749;   -9.762;  591.517
425.500;    6.636;   -5.572;  647.978
426.092;    7.730;   -8.422;  648.268
426.683;    6.901;   -9.283;  684.836
427.275;   10.015;   -7.852;  641.471
427.867;   10.979;   -5.272;  668.948
428.458;   11.286;   -7.682;  732.344
429.050;   10.557;  -10.612;  680.749
429.642;   12.114;   -9.882;  743.124
430.233;   12.187;   -6.962;  569.356
430.825;   13.970;   -6.842;  724.809
431.416;   11.340;   -9.672;  698.241
432.008;   14.727;   -6.552;  651.723
432.599;   15.350;   -6.891;  656.073
433.190;   12.789;  -10.912;  637.670
433.782;   12.784;  -11.172;  590.395
434.373;   18.786;   -6.061;  884.765
434.964;   17.970;   -8.251;  602.920
435.556;   15.454;   -9.722;  634.537
436.147;   19.649;   -9.082;  758.490
436.738;   19.185;   -8.041;  701.099
437.329;   24.159;   -7.341;  721.723
437.920;   17.683;   -8.162;  666.688
438.511;   18.210;  -11.802;  564.526
439.103;   24.075;  -10.191;  623.998
439.694;   25.598;   -7.601;  681.583
440.285;   26.890;   -8.541;  764.432
440.876;   24.889;   -9.751;  845.738
441.466;   24.782;   -9.401;  575.162
442.057;   29.291;   -7.760;  665.814
442.648;   28.305;   -9.971;  746.255
443.239;   27.286;  -11.001;  620.477
443.830;   31.033;   -7.990;  704.958
444.421;   33.169;   -7.910;  655.474
445.011;   30.135;   -8.131;  693.619
445.602;   29.880;   -7.111;  743.126
446.193;   31.469;  -10.920;  488.117
446.783;   35.849;   -6.500;  640.397
447.374;   31.779;   -8.671;  692.759
447.964;   32.482;  -10.781;  713.770
448.555;   40.789;   -9.650;  822.742
449.145;   37.347;   -8.660;  662.853
449.736;   37.933;   -8.990;  803.179
450.326;   38.648;   -9.500;  713.626
450.917;   42.944;   -8.680;  675.324
451.507;   41.671;   -7.520;  600.661
452.097;   43.007;   -8.590;  746.267
452.688;   44.530;  -11.340;  742.160
453.278;   43.277;  -10.100;  566.840
453.868;   47.790;   -6.019;  793.550
454.458;   46.334;   -9.440;  651.141
455.048;   46.124;  -10.560;  711.783
455.639;   47.927;  -11.799;  567.096
456.229;   51.949;   -6.899;  710.694
456.819;   53.408;   -7.389;  751.158
457.409;   54.200;  -11.119;  773.993
457.999;   55.618;   -9.289;  737.505
458.589;   56.478;   -6.139;  686.606
459.179;   56.576;   -8.729;  717.658
459.769;   54.703;   -9.789;  627.099
460.358;   59.673;  -10.259;  797.262
460.948;   59.757;   -7.299;  689.503
461.538;   61.191;  -10.289;  660.677
462.128;   59.650;  -11.269;  664.934
462.717;   65.169;   -9.368;  710.326
463.307;   68.546;   -7.908;  705.846
463.897;   64.242;   -9.599;  656.942
464.486;   64.526;   -9.769;  837.128
465.076;   68.715;   -8.048;  733.776
465.666;   71.994;   -9.358;  652.900
466.255;   68.946;   -7.919;  785.651
466.845;   69.572;  -11.689;  666.749
467.434;   72.379;   -7.818;  725.873
468.023;   73.385;   -7.678;  658.357
468.613;   71.317;  -10.939;  713.946
469.202;   75.602;  -10.118;  646.507
469.791;   79.830;   -9.108;  737.811
470.381;   81.205;   -6.058;  742.813
470.970;   81.607;  -10.428;  711.099
471.559;   80.940;  -10.268;  733.291
472.148;   84.186;   -8.448;  675.737
472.738;   86.735;   -6.917;  765.466
473.327;   86.533;  -11.978;  637.529
473.916;   86.442;  -11.888;  737.446
474.505;   90.207;   -9.437;  751.703
475.094;   93.838;   -6.747;  806.570
475.683;   93.501;   -9.367;  797.699
476.272;   94.430;  -12.637;  730.632
476.861;   97.344;  -10.027;  706.754
477.449;  103.291;   -8.716;  728.487
478.038;   98.343;   -9.577;  692.513
478.627;   99.519;   -9.718;  714.852
479.216;  106.349;   -8.947;  769.441
479.805;  108.278;   -6.256;  783.375
480.393;  108.672;   -7.937; 1008.945
480.982;  108.481;   -7.717;  874.501
481.571;  114.294;   -9.266;  858.333
482.159;  114.200;   -7.636;  705.386
482.748;  114.628;   -9.667;  821.385
483.336;  120.314;  -10.376;  858.209
483.925;  120.740;   -7.147;  774.373
484.513;  127.442;   -7.996;  758.962
485.102;  124.360;  -10.027;  810.965
485.690;  132.607;  -10.446; 1011.050
486.278;  135.985;   -8.446;  979.329
486.867;  136.259;   -6.356;  809.662
487.455;  137.351;   -9.136;  898.229
488.043;  139.878;  -10.646;  748.361
488.631;  148.518;   -7.456; 1005.079
489.220;  151.455;   -6.636;  908.626
489.808;  152.813;  -11.036;  741.415
490.396;  161.275;  -10.246;  914.645
490.984;  168.520;   -8.556;  830.161
491.572;  177.827;   -5.886;  940.315
492.160;  184.218;   -9.486;  919.081
492.748;  197.356;  -10.976;  884.341
493.336;  222.157;   -8.776; 1019.693
493.924;  249.613;   -5.465;  958.077
494.512;  278.702;   -9.986; 1066.638
495.100;  321.169;  -10.636; 1103.280
495.687;  378.001;  -10.885; 1206.373
496.275;  447.235;   -8.126; 1150.796
496.863;  522.649;  -10.586; 1281.171
497.451;  631.590;  -11.926; 1386.805
498.038;  770.001;  -10.885; 1556.729
498.626;  888.808;   -6.315; 1741.407
499.214; 1047.790;   -7.326; 2016.609
499.801; 1257.544;  -11.906; 2220.633
500.389; 1522.418;  -10.466; 2312.494
500.976; 1854.737;   -5.236; 2744.849
501.564; 2332.450;   -8.936; 3148.565
502.151; 2731.561;  -13.176; 3515.999
502.738; 3205.500;  -10.646; 3971.274
503.326; 3621.971;   -9.525; 4403.796
503.913; 4034.454;  -10.856; 5161.749
504.500; 4431.113;  -11.586; 5986.420
505.088; 4888.318;  -10.336; 6381.201
505.675; 5467.607;   -6.355; 6925.547
506.262; 6244.676;   -9.046; 7619.060
506.849; 6996.580;  -10.416; 8733.969
507.436; 7480.811;  -10.305; 9790.121
508.023; 8108.268;   -5.496; 9985.472
508.610; 8414.032;   -7.856;10434.618
509.197; 9119.359;  -10.097;11198.435
509.784;10604.619;  -10.886;12391.194
510.371;11748.197;   -9.315;13603.713
510.958;12517.821;   -9.936;14426.586
511.545;13350.929;   -9.326;15243.775
512.132;14301.582;  -10.075;15945.876
512.719;14887.257;   -7.796;16340.369
513.305;15907.719;  -10.606;18011.766
513.892;16666.773;  -11.486;19754.971
514.479;18096.000;   -9.126;20967.805
515.066;19766.508;   -6.026;22299.793
515.652;21139.826;   -8.466;22908.660
516.239;22520.287;  -10.886;23798.875
516.825;23664.766;  -11.496;25567.275
517.412;24714.373;   -5.796;28154.959
517.998;25345.131;  -10.506;28344.111
518.585;25487.303;  -10.076;27134.219
519.171;26079.324;   -8.315;27268.576
519.758;27550.061;   -8.596;28964.129
520.344;29599.859;   -8.466;30664.494
520.930;29749.916;  -11.006;32550.605
521.516;31095.154;  -10.495;35422.895
522.103;33463.805;   -5.526;38280.004
522.689;34046.996;   -8.746;37835.117
523.275;33591.367;  -11.376;37288.613
523.861;35060.898;  -11.156;37281.395
524.447;36556.742;   -8.135;37846.949
525.033;36265.227;   -7.896;38321.949
525.619;36365.977;  -12.476;38579.285
526.205;38118.426;   -9.516;40622.875
526.791;40703.906;   -6.926;42258.836
527.377;40986.258;   -8.346;42966.902
527.963;42611.875;   -8.717;42018.949
528.549;40924.629;  -11.016;42476.828
529.135;39539.281;   -8.536;41854.852
529.721;38882.309;   -9.666;41237.711
530.306;38095.398;  -10.066;41259.445
530.892;37821.477;  -11.356;41506.047
531.478;39384.441;   -6.596;43559.613
532.063;42486.531;   -8.836;47695.563
532.649;43071.781;  -10.047;50808.324
533.235;43993.043;   -9.746;51787.500
533.820;44489.629;   -6.566;52145.035
534.406;46082.629;  -10.817;51133.488
534.991;46005.594;   -9.416;49996.805
535.576;44428.199;   -9.036;48882.852
536.162;44957.180;   -6.156;46942.285
536.747;45825.484;  -11.607;45711.746
537.333;49734.934;  -11.787;48510.180
537.918;52947.207;  -12.437;50439.891
538.503;51506.570;   -7.196;50863.711
539.088;47848.078;  -10.556;50906.922
539.673;47562.648;   -8.767;52621.965
540.259;47474.141;  -10.026;52368.094
540.844;44844.469;   -7.416;50879.109
541.429;46160.641;   -9.467;52077.777
542.014;49087.273;   -9.527;52716.695
542.599;48401.840;   -9.946;52363.281
543.184;46167.191;   -7.927;53187.137
543.769;47791.953;   -9.297;54697.605
544.354;47154.789;  -10.127;53913.914
544.938;45803.742;   -9.267;49680.164
545.523;47774.484;   -6.506;47386.277
546.108;50530.301;   -9.787;49151.949
546.693;52653.199;  -11.587;51384.637
547.278;52448.887;  -10.986;51853.254
547.862;49523.152;   -8.206;51173.750
548.447;44894.422;  -10.067;51691.395
549.031;44201.012;   -9.637;52456.703
549.616;49271.395;   -9.926;52714.516
550.201;48588.488;   -6.347;52414.598
550.785;49831.996;   -7.917;52355.059
551.370;48791.004;  -10.867;54589.453
551.954;48337.109;   -9.047;58267.348
552.538;49219.598;   -7.827;59062.176
553.123;47481.309;  -10.287;58115.285
553.707;45109.914;  -12.178;56556.285
554.291;46431.949;   -8.717;56201.668
554.876;48823.359;   -7.457;55335.762
555.460;49158.691;  -10.387;54155.703
556.044;50371.973;   -9.618;53721.484
556.628;48997.445;  -11.567;53731.016
557.212;47752.574;   -8.097;54312.531
557.796;46119.324;  -11.077;53797.773
558.380;46127.902;  -11.108;56145.984
558.964;46495.988;   -9.057;57277.930
559.548;47775.301;   -6.977;56459.641
560.132;45970.602;  -11.457;54434.543
560.716;44491.684;  -11.378;54800.617
561.300;45610.137;   -9.577;57606.945
561.884;46741.063;   -7.127;58972.445
562.467;45149.715;   -7.118;57327.570
563.051;44598.586;  -13.358;54962.434
563.635;45722.988;  -10.178;52594.473
564.219;45793.719;   -7.837;50610.410
564.802;46626.145;  -11.398;49551.180
565.386;46620.992;  -12.788;48370.953
565.969;46008.215;   -9.077;48178.871
566.553;45098.109;   -6.207;49957.305
567.136;45651.176;   -8.568;50369.594
567.720;41914.898;  -11.868;49492.004
568.303;39691.969;   -8.268;50616.352
568.887;39720.027;   -8.698;50727.148
569.470;39931.781;   -6.808;51698.379
570.053;38538.297;  -13.188;52122.078
570.637;36929.316;  -12.037;52536.438
571.220;36856.930;   -8.577;51186.098
571.803;37554.734;   -8.498;51032.762
572.386;39911.531;  -10.498;49609.887
572.969;42444.254;   -9.388;48285.926
573.552;40336.242;   -8.338;47624.285
574.135;38812.129;   -8.518;45498.641
574.718;36422.742;  -13.628;41970.434
575.301;35428.270;  -10.893;41447.137
575.884;34433.801;   -8.158;40923.836
576.467;35598.738;  -10.328;45267.723
577.050;37527.008;  -13.058;48175.543
577.633;39006.047;   -9.458;47729.328
578.216;38059.293;   -8.928;47579.793
578.799;37112.570;   -9.358;47820.996
579.381;36001.844;  -11.388;48115.551
579.964;34160.145;  -11.718;47333.766
580.547;35906.719;   -8.588;46668.969
581.129;37019.277;   -8.859;44466.141
581.712;37727.676;  -10.729;44164.922
582.294;38302.570;  -11.118;46477.855
582.877;38190.750;   -5.218;48244.254
583.459;35683.914;   -8.679;47437.895
584.042;33764.191;  -10.709;46943.219
584.624;34340.707;  -11.669;46792.227
585.206;33768.449;   -8.218;46557.250
585.789;33741.203;  -10.569;45793.773
586.371;36699.117;  -11.859;43836.391
586.953;37391.633;  -10.719;42972.492
587.536;38672.895;   -7.198;42487.211
588.118;38683.293;   -8.720;42086.414
588.700;35025.941;  -10.439;43389.930
589.282;34162.586;   -9.198;43646.039
589.864;34872.141;   -9.199;43438.109
590.446;35730.777;  -11.319;43151.926
591.028;35810.891;  -11.159;42781.867
591.610;34831.488;  -11.779;42839.098
592.192;32183.371;   -7.668;42820.402
592.774;30666.471;  -11.949;40724.277
593.356;29348.070;  -12.129;39874.789
593.937;28183.217;  -10.669;39980.648
594.519;30247.314;   -6.509;42069.633
595.101;32543.494;  -10.849;42976.031
595.683;32769.313;  -11.679;44084.441
596.264;33918.773;   -9.049;43478.797
596.846;33390.918;   -8.849;43803.672
597.427;33166.574;   -9.570;42986.934
598.009;34812.227;  -12.620;42832.219
598.591;35220.453;  -10.039;42580.086
599.172;34344.809;  -10.369;43061.805
599.753;34438.586;   -9.140;41691.469
600.335;35917.953;  -11.430;40692.520
600.916;34122.262;   -9.939;39982.422
601.498;31528.768;   -8.479;40318.617
602.079;30025.322;  -10.920;40670.609
602.660;29943.730;  -11.480;41450.898
603.241;31713.420;  -11.699;41137.738
603.823;30538.461;   -9.579;38868.797
604.404;29980.791;  -10.620;38182.785
604.985;31517.838;  -10.450;38078.047
605.566;31328.973;   -9.129;38056.633
606.147;31469.535;   -7.510;37020.418
606.728;33127.750;  -10.660;37883.359
607.309;31808.244;  -11.740;38748.273
607.890;31236.926;   -9.759;38850.230
608.471;30620.914;   -8.250;37457.918
609.051;29722.529;   -9.240;36066.457
609.632;28671.189;  -12.120;35991.074
610.213;29515.084;   -9.110;37402.641
610.794;30265.945;   -8.030;38383.363
611.374;29704.641;   -8.110;40562.387
611.955;30101.363;  -13.560;38533.727
612.536;31428.576;  -11.400;36951.789
613.116;31402.648;   -8.070;37197.891
613.697;31821.846;  -10.830;38411.125
614.277;30258.395;  -11.641;38673.938
614.858;31109.557;  -13.310;37075.863
615.438;30151.766;   -7.460;35092.906
616.019;27456.406;   -7.601;33666.301
616.599;28198.494;  -12.020;34189.023
617.179;30087.748;  -11.780;36952.047
617.760;31069.785;   -8.570;39582.574
618.340;32173.424;  -11.471;38943.977
618.920;33514.508;  -11.170;37594.156
619.500;33225.977;  -11.071;37866.938
620.080;32222.781;   -7.750;37869.043
620.660;33362.063;  -12.711;36868.617
621.241;34695.621;  -10.211;36352.309
621.821;34896.664;  -10.961;35459.520
622.401;33870.691;   -7.720;35207.414
622.980;33206.172;   -8.981;35980.422
623.560;31745.086;   -9.331;37351.328
624.140;30490.189;   -9.850;34388.582
624.720;25265.668;   -7.451;32368.764
625.300;21713.398;   -9.070;32638.629
625.880;25162.025;  -12.601;34599.035
626.459;29178.363;  -11.751;36831.738
627.039;32338.094;   -9.281;38299.098
627.619;32333.629;   -8.801;38289.574
628.198;30750.273;  -12.071;37220.695
628.778;29866.521;   -9.461;37632.563
629.357;30520.361;   -8.491;38003.012
629.937;30462.232;   -9.721;38402.039
630.516;29851.115;   -9.951;37868.801
631.096;29576.385;  -11.731;35760.410
631.675;32198.895;   -8.572;35225.219
632.254;37362.414;  -11.282;35130.289
632.834;36830.762;  -13.322;35794.570
633.413;34973.801;  -10.301;35788.922
633.992;32177.229;   -8.582;34532.863
634.571;32862.316;   -8.352;33590.113
635.151;35918.953;  -11.912;34943.863
635.730;34369.824;  -10.511;35352.523
636.309;30862.486;   -7.731;35366.605
636.888;28338.287;   -9.952;36165.637
637.467;29109.326;  -11.672;37515.902
638.046;30709.416;   -8.901;39288.695
638.625;33815.875;   -7.912;38279.699
639.204;33593.848;  -10.022;37741.598
639.782;32083.109;  -12.252;38364.551
640.361;28423.422;  -10.041;36740.621
640.940;25542.846;  -11.161;34950.082
641.519;26151.699;   -9.701;34137.398
642.097;29091.846;  -11.271;35654.258
642.676;32060.627;   -8.651;35637.957
643.255;32734.197;   -8.711;36567.074
643.833;31888.258;   -9.581;37809.434
644.412;31927.531;  -13.711;37337.293
644.990;30950.072;  -11.811;37018.531
645.569;30880.980;   -9.411;36518.469
646.147;29838.684;  -10.291;36186.430
646.726;29531.818;  -12.401;36267.688
647.304;30771.910;  -10.411;36647.625
647.882;32666.600;   -9.651;39286.742
648.461;34477.031;   -9.631;39157.703
649.039;32750.430;  -11.881;35412.883
649.617;32091.471;   -9.661;34744.918
650.195;31717.873;   -9.301;35403.098
650.773;30271.604;  -10.511;35053.797
651.352;27648.740;  -11.521;33756.816
651.930;25195.354;  -12.211;31868.773
652.508;23763.088;   -9.171;33121.551
653.086;27788.957;   -9.371;33564.793
653.663;30624.064;  -13.161;34054.668
654.241;29417.725;  -13.031;35693.309
654.819;31123.607;   -9.371;36422.906
655.397;31323.834;  -10.511;38213.484
655.975;31008.641;  -10.371;39507.625
656.553;30780.516;  -10.051;39498.223
657.130;29099.520;  -10.061;40395.480
657.708;28247.121;   -9.561;39242.020
658.286;28271.400;  -11.511;38920.020
658.863;29609.768;  -10.261;40202.898
659.441;32683.756;   -7.531;39677.938
660.018;32243.631;   -9.501;40413.355
660.596;31153.637;  -13.301;39931.414
661.173;33208.258;  -11.211;39604.531
661.750;33235.516;   -9.951;39700.070
662.328;31709.766;   -9.390;39292.809
662.905;30768.760;  -11.330;38235.648
663.482;26613.455;   -9.050;36212.305
664.060;24744.158;   -8.240;35944.945
664.637;27602.855;  -10.050;35170.785
665.214;29464.082;  -11.760;34197.523
665.791;30960.059;  -10.530;34549.520
666.368;29861.041;   -9.690;35118.578
666.945;30542.980;   -9.320;36019.418
667.522;32170.563;  -11.860;36048.438
668.099;31865.422;  -10.770;36243.914
668.676;30676.652;   -6.260;35958.875
669.253;29359.836;   -7.000;37384.730
669.830;30064.039;  -10.190;36779.629
670.407;29786.287;   -9.550;35231.289
670.984;29555.693;   -9.260;35544.270
671.560;30101.176;   -9.280;35466.867
672.137;29329.195;  -11.810;34280.863
672.714;30105.248;  -11.490;34632.863
673.290;30725.121;   -7.740;35135.422
673.867;30901.277;  -10.660;36114.480
674.443;30808.063;  -12.230;36152.859
675.020;29114.838;  -10.450;35327.238
675.596;30088.580;   -9.260;35795.176
676.173;30522.752;  -10.780;35430.355
676.749;30336.328;  -13.690;33549.516
677.326;30308.338;  -11.980;32210.012
677.902;30248.578;   -8.630;32068.871
678.478;29551.080;  -10.730;32583.891
679.054;28898.676;  -10.520;32088.928
679.631;29197.229;  -11.920;30978.848
680.207;30830.223;   -7.490;33160.887
680.783;32544.096;   -9.860;35570.363
681.359;31678.188;  -13.380;36125.184
681.935;30948.273;  -12.480;35240.922
682.511;30002.848;   -7.900;34429.961
683.087;30079.213;   -7.710;34463.680
683.663;29655.111;  -11.480;34648.898
684.239;28493.451;  -14.090;34546.457
684.815;28153.984;   -7.560;35586.375
685.390;28491.094;   -9.910;35821.895
685.966;29055.967;  -11.159;35085.871
686.542;31508.104;  -11.169;34198.230
687.118;33559.047;   -5.959;32847.707
687.693;33776.441;  -10.329;32794.027
688.269;33450.609;  -12.059;33072.367
688.844;31656.656;  -10.909;33141.664
689.420;29438.551;   -8.019;33965.742
689.995;27133.846;   -8.399;34655.523
690.571;25783.264;  -10.949;33576.742
691.146;26315.803;   -9.619;32657.219
691.722;25833.152;   -8.999;32526.979
692.297;25598.020;  -11.589;33014.617
692.872;27446.881;  -11.739;34012.254
693.448;27012.045;  -11.059;34237.434
694.023;26154.584;  -10.139;34142.672
694.598;28103.461;   -9.029;34132.031
695.173;28531.820;  -13.319;34205.250
695.748;27834.029;  -10.169;32882.488
696.323;28001.303;   -8.339;32864.906
696.898;28284.840;   -8.169;33170.004
697.473;28044.631;  -12.309;32432.984
698.048;27418.707;  -10.989;31649.303
698.623;27319.445;   -9.329;30778.141
699.198;29236.273;   -9.849;31140.119
699.773;30178.451;  -12.329;31764.299
700.348;28485.631;  -10.389;31780.816
700.922;28433.844;   -9.269;32046.375
701.497;29226.631;   -9.329;32603.574
702.072;29465.584;  -10.789;34799.871
702.646;28209.719;  -10.839;35793.172
703.221;26100.428;   -9.099;35201.590
703.795;28235.279;  -10.939;34764.527
704.370;28675.320;  -12.859;34307.367
704.944;29034.613;  -11.559;33509.887
705.519;29825.541;   -7.939;31388.584
706.093;31302.541;  -10.499;31340.104
706.668;31730.803;  -11.289;32630.281
707.242;30580.990;  -11.509;32728.779
707.816;28928.797;   -9.639;32947.238
708.390;27373.695;  -11.429;33277.855
708.965;27837.408;  -11.869;33834.336
709.539;27804.193;  -11.689;33709.273
710.113;28332.406;  -10.478;33044.313
710.687;27939.938;  -10.228;31953.992
711.261;26403.887;  -13.698;30505.949
711.835;26262.980;  -13.378;30262.369
712.409;27013.572;   -9.698;31254.447
712.983;28860.939;  -11.898;32754.986
713.557;29774.508;  -15.138;34018.824
714.131;29266.580;  -14.098;34579.625
714.704;28224.799;   -9.958;33890.262
715.278;26013.010;  -10.028;33531.102
715.852;25009.570;  -11.148;33601.660
716.425;25830.717;   -9.068;33515.117
716.999;26576.342;  -10.038;33185.555
717.573;27566.105;   -9.798;33905.996
718.146;28706.070;  -12.378;35199.293
718.720;28701.320;  -11.918;35060.551
719.293;28119.877;   -8.088;34973.230
719.867;30999.533;  -10.888;36394.449
720.440;30793.094;  -11.938;36663.008
721.013;29128.844;  -12.818;35102.426
721.587;27646.307;  -10.298;33985.266
722.160;26689.672;  -10.048;33524.965
722.733;25681.006;  -12.108;32987.043
723.306;25894.578;  -10.818;33066.301
723.880;28218.631;   -8.908;33399.500
724.453;30192.443;   -9.878;33468.297
725.026;29243.586;  -11.188;33816.637
725.599;26596.928;  -11.678;32797.996
726.172;26963.824;   -9.618;33187.434
726.745;28038.393;   -8.258;35136.613
727.318;29382.449;  -12.978;35751.730
727.891;29864.916;  -12.148;35890.430
728.463;29577.025;   -8.968;34822.090
729.036;28588.699;  -10.188;32895.086
729.609;28951.615;  -11.788;31823.225
730.182;25937.785;  -11.788;31445.283
730.754;23415.736;  -10.268;32373.223
731.327;23389.947;   -9.998;33676.820
731.900;23682.834;  -12.228;33417.000
732.472;25051.176;  -13.848;31978.498
733.045;27003.471;   -8.698;30368.777
733.617;27077.293;  -10.607;30574.215
734.190;26672.025;  -11.507;31280.975
734.762;23871.744;  -13.647;31674.412
735.334;22128.510;   -9.767;31247.291
735.907;22721.605;   -9.897;29876.211
736.479;22916.123;  -11.637;29808.488
737.051;22624.604;   -9.567;30233.547
737.623;23536.715;   -8.187;31469.086
738.195;24309.074;  -11.187;31784.225
738.768;26206.051;  -12.337;32120.523
739.340;26407.861;  -12.227;32094.342
739.912;25181.982;  -11.057;31312.680
740.484;23731.393;  -10.207;31946.238
741.056;22633.756;  -10.047;32984.059
741.628;24421.145;  -13.627;33897.715
742.199;26644.797;   -7.177;33213.016
742.771;24957.549;  -10.797;31369.113
743.343;22615.842;  -11.997;31865.473
743.915;21616.594;  -12.867;32388.631
744.487;21766.189;   -7.617;31079.568
745.058;22006.996;   -9.557;30570.107
745.630;22446.156;   -9.877;29970.127
746.201;23244.252;  -14.177;29186.766
746.773;23678.135;   -9.237;28805.723
747.344;23499.617;   -9.847;29591.223
747.916;22097.682;  -11.657;31412.201
748.487;22304.789;  -10.587;32194.898
749.059;23434.549;   -8.707;32533.719
749.630;24088.367;  -10.537;32158.518
750.201;23150.430;  -11.687;30855.395
750.773;21396.857;  -11.647;28622.555
751.344;21402.250;   -7.147;28405.732
751.915;22670.500;   -9.757;28461.551
752.486;22600.723;  -12.427;27842.850
753.057;20310.822;  -12.227;27845.008
753.628;19045.666;  -10.417;27728.107
754.199;20152.443;  -11.767;27381.086
754.770;21179.982;  -11.187;25882.203
755.341;21211.785;  -10.507;25886.184
755.912;21226.975;   -9.387;26050.861
756.483;20693.393;  -10.647;26798.779
757.054;18947.563;  -11.837;27048.238
757.625;17703.965;  -12.716;26294.838
758.195;17481.379;   -9.666;26142.076
758.766;17192.213;   -8.656;26392.234
759.337;17912.168;  -12.856;26334.594
759.907;19576.656;  -13.366;27579.652
760.478;20517.084;   -8.576;28352.770
761.048;19947.578;  -10.526;27325.088
761.619;19099.285;  -11.116;26460.428
762.189;19100.701;  -12.136;26029.826
762.760;20142.984;   -9.456;26430.145
763.330;21264.918;   -7.136;26670.902
763.900;20718.203;  -11.786;26603.021
764.471;18212.713;  -11.546;25542.740
765.041;17009.643;   -8.096;24358.459
765.611;17077.822;   -8.876;23991.297
766.181;17445.711;  -12.196;24470.236
766.751;18321.795;  -11.636;24845.975
767.321;18091.877;  -10.156;24533.633
767.891;16232.192;  -11.766;24916.492
768.461;15737.792;  -14.936;24776.771
769.031;16284.481;  -12.356;24757.988
769.601;17831.492;   -7.526;24181.088
770.171;17620.178;  -10.766;23670.387
770.741;16803.574;  -13.176;22960.045
771.311;16951.898;  -10.616;22917.523
771.880;17311.242;   -9.576;23562.941
772.450;16966.166;  -10.336;24216.500
773.020;17002.004;  -13.516;24140.398
773.589;16421.230;  -13.466;24414.857
774.159;15783.733;   -8.686;23858.717
774.729;15335.535;   -9.476;22942.135
775.298;14844.741;  -13.666;22324.033
775.867;14469.660;  -11.716;21140.313
776.437;14579.516;   -9.906;20838.092
777.006;14405.887;  -12.166;20599.510
777.576;14325.731;  -12.356;20508.809
778.145;14450.999;  -11.646;20732.947
778.714;14318.646;   -8.226;21062.465
779.283;13567.390;   -9.556;20949.664
779.853;13053.001;  -14.116;20508.623
780.422;13504.712;  -11.506;20649.082
780.991;13087.145;   -9.556;21527.520
781.560;11926.654;   -9.095;22632.658
782.129;11758.021;  -12.135;23048.277
782.698;11805.303;  -10.865;23438.555
783.267;11433.414;   -9.335;23267.734
783.836;11414.202;  -11.045;22415.133
784.404;12466.658;  -13.865;20443.152
784.973;13049.612;  -13.095;19699.150
785.542;12938.440;  -11.575;19763.828
786.111;12725.083;   -9.705;20341.408
786.679;12218.018;  -12.105;20207.967
787.248;11995.603;  -12.455;19516.465
787.817;11863.310;  -11.535;18900.363
788.385;11456.211;   -9.765;17879.121
788.954;10876.406;  -14.005;17658.301
789.522;10370.265;  -11.955;17788.879
790.090;10934.421;  -10.135;18118.277
790.659;11337.610;  -10.975;18338.736
791.227;10831.197;  -13.375;18508.615
791.795;11233.256;  -12.375;17898.254
792.364;11613.405;  -10.725;17295.133
792.932;11970.085;   -9.715;16822.051
793.500;12120.565;  -12.675;17040.148
794.068;12289.944;  -13.495;17179.787
794.636;12399.949;  -10.885;16664.246
795.204;11847.517;  -11.045;16524.545
795.772;11950.934;  -13.175;17274.564
796.340;11504.274;  -12.445;17891.002
796.908;11324.034;   -9.735;17648.561
797.476;11198.590;   -9.815;17064.080
798.044;10743.478;  -13.985;16672.777
798.612; 9942.933;  -13.115;17023.996
799.180; 9558.709;  -10.185;16561.615
799.747; 9472.218;   -9.055;15962.773
800.315; 9217.370;  -12.385;15296.992
800.883; 8893.403;  -15.035;14801.771
801.450; 8902.185;  -10.365;14534.430
802.018; 8965.526;   -9.855;14173.248
802.585; 9123.820;  -11.905;14029.547
803.153; 9184.817;  -11.585;13836.846
803.720; 8974.686;   -9.095;13567.324
804.287; 8518.820;   -9.135;13360.622
804.855; 8107.404;  -11.604;13681.981
805.422; 7959.043;  -11.794;13536.560
805.989; 7957.168;  -10.734;13355.958
806.556; 8116.996;  -10.444;13747.896
807.124; 8342.036;  -12.764;13987.376
807.691; 8309.971;  -12.964;14038.674
808.258; 8125.750;  -11.134;14120.152
808.825; 7823.278;   -9.854;13860.111
809.392; 7891.441;  -10.504;13268.790
809.959; 7394.538;  -13.054;12680.389
810.526; 6963.928;   -8.294;12427.308
811.093; 7021.465;   -8.394;12030.105
811.659; 7634.673;  -12.304;11653.664
812.226; 8134.759;  -13.944;11637.183
812.793; 7841.916;  -10.484;11611.521
813.360; 7232.288;  -10.144;11885.181
813.926; 6932.912;  -11.684;12770.539
814.493; 6714.423;  -13.644;12677.638
815.060; 6328.769;   -9.724;11974.336
815.626; 6313.873;   -9.854;11594.715
816.193; 6700.736;  -13.254;11579.474
816.759; 6720.961;  -13.204;11666.972
817.325; 6770.930;   -9.434;11325.530
817.892; 7112.091;  -10.134;11105.369
818.458; 7531.241;  -13.474;10843.928
819.024; 7164.678;  -11.854;10714.406
819.591; 6847.183;  -10.244;10469.165
820.157; 6639.779;  -10.704;10235.523
820.723; 6144.335;  -12.324;10847.563
821.289; 5825.501;   -9.444;11040.980
821.855; 5731.156;   -8.374;10357.100
822.421; 5706.658;  -10.234; 9978.918
822.987; 5709.884;  -13.294; 9754.177
823.553; 5423.166;  -10.884;10065.755
824.119; 5254.072;   -8.884;10036.294
824.685; 5334.944;   -6.784;10029.192
825.251; 5422.838;  -12.004;10199.230
825.816; 5368.849;  -11.474; 9820.189
826.382; 5124.487;   -9.174; 9297.248
826.948; 5312.186;   -9.214; 9381.347
827.513; 5704.940;  -10.774; 9450.726
828.079; 5551.318;  -11.924; 9472.444
828.645; 4986.358;  -10.543; 9292.643
829.210; 4893.368;  -10.533; 9065.341
829.776; 4884.369;  -10.753; 9132.620
830.341; 4776.413;  -10.173; 9092.878
830.906; 4957.364;  -10.743; 9078.557
831.472; 5288.972;  -11.113; 8534.535
832.037; 5035.783;  -10.603; 8677.874
832.602; 4506.401;  -13.323; 8628.692
833.167; 4256.514;  -10.823; 8879.031
833.733; 4193.554;  -10.113; 9189.790
834.298; 4324.873;  -13.583; 9052.608
834.863; 4392.686;  -12.703; 8895.087
835.428; 4363.043;  -10.523; 8824.266
835.993; 4219.007;   -6.963; 8845.385
836.558; 4071.713;  -10.763; 8888.563
837.123; 4197.657;   -9.903; 8966.582
837.688; 4410.634;   -9.913; 8617.860
838.253; 4641.663;  -10.283; 8590.699
838.817; 4836.711;  -12.963; 8443.797
839.382; 4746.285;  -14.243; 8799.356
839.947; 4440.694;  -10.733; 8810.595
840.511; 4144.634;   -9.383; 8796.394
841.076; 3777.210;  -12.563; 8347.231
841.641; 3829.404;  -12.953; 8224.330
842.205; 3927.561;   -7.043; 8223.349
842.770; 4030.968;   -8.163; 8622.107
843.334; 4190.438;  -12.503; 8410.386
843.898; 4134.104;  -11.693; 8337.465
844.463; 4154.501;  -10.203; 8506.283
845.027; 3946.278;   -9.533; 8280.962
845.591; 3773.276;  -13.443; 8231.141
846.156; 3755.229;  -13.143; 7969.179
846.720; 3640.442;   -9.433; 7768.278
847.284; 3522.445;  -11.033; 7630.957
847.848; 3403.878;  -10.403; 7472.395
848.412; 3319.957;  -11.553; 7437.394
848.976; 3363.097;   -8.393; 7674.592
849.540; 3295.906;   -8.713; 7836.011
850.104; 3403.687;  -12.463; 7913.669
850.668; 3752.989;  -12.973; 7694.508
851.232; 3849.838;  -10.793; 7756.887
851.796; 3692.730;  -10.662; 7926.545
852.359; 3406.304;  -13.082; 7827.844
852.923; 3237.618;  -12.192; 7641.163
853.487; 3048.709;  -11.912; 7342.501
854.050; 3004.840;  -10.892; 7042.820
854.614; 3146.035;  -13.992; 7151.338
855.177; 3277.453;  -11.732; 7105.077
855.741; 3312.687;   -8.962; 6989.675
856.304; 3204.162;   -9.442; 6596.634
856.868; 3156.633;  -14.192; 6356.272
857.431; 3251.196;  -12.702; 6468.571
857.995; 3370.402;   -9.942; 6373.210
858.558; 3379.249;   -9.112; 6324.448
859.121; 3110.250;  -12.932; 6408.327
859.684; 2985.984;  -13.442; 6347.886
860.247; 3087.620;  -10.632; 6321.264
860.810; 3083.950;  -11.272; 6301.903
861.374; 2833.938;   -9.832; 6607.881
861.937; 2586.962;  -11.762; 6408.200
862.500; 2578.593;   -9.722; 6572.639
863.062; 2754.243;  -10.512; 6387.297
863.625; 2924.209;  -11.232; 6190.836
864.188; 3077.748;  -14.112; 5807.254
864.751; 3136.747;  -11.302; 5682.413
865.314; 3029.562;  -10.112; 5547.492
865.876; 2827.731;  -12.182; 5500.150
866.439; 2812.254;  -10.722; 5415.909
867.002; 2760.057;   -9.252; 5501.567
867.564; 2559.729;   -9.572; 5413.946
868.127; 2341.490;  -13.142; 5160.325
868.689; 2244.504;  -12.902; 5133.183
869.252; 2153.354;   -9.732; 5252.382
869.814; 2064.629;   -9.432; 5297.141
870.377; 2075.324;  -11.552; 5390.919
870.939; 2138.889;   -9.052; 5599.898
871.501; 2196.379;  -10.982; 5248.336
872.063; 2193.515;  -12.292; 4854.235
872.626; 2156.839;  -14.912; 4817.074
873.188; 2188.426;  -13.112; 4987.732
873.750; 2158.394;  -13.442; 4868.651
874.312; 2053.413;   -9.402; 4779.330
874.874; 1963.866;  -11.062; 4866.348
875.436; 1879.488;  -13.931; 4718.887
875.998; 1871.410;   -9.561; 4660.005
876.560; 1895.629;  -11.321; 4462.964
877.122; 1835.552;  -12.221; 4145.042
877.683; 1746.199;  -12.191; 4056.481
878.245; 1678.344;  -12.101; 3950.740
878.807; 1721.623;   -8.971; 4058.958
879.369; 1742.294;  -12.071; 3954.677
879.930; 1643.313;  -14.621; 3941.495
880.492; 1578.803;  -10.311; 4067.014
881.053; 1547.291;  -10.901; 3859.633
881.615; 1444.923;  -14.411; 3776.071
882.176; 1348.530;  -13.761; 3734.750
882.738; 1299.614;   -9.181; 3678.489
883.299; 1272.750;  -11.791; 3405.407
883.860; 1277.803;  -13.121; 3351.106
884.422; 1276.174;  -11.211; 3394.044
884.983; 1231.436;  -10.091; 3166.443
885.544; 1155.317;   -8.461; 3189.802
886.105; 1076.564;  -12.361; 3160.360
886.666; 1011.341;  -14.141; 3093.059
887.227;  954.817;  -11.361; 2941.957
887.788;  894.549;  -11.401; 2974.836
888.349;  836.345;  -13.791; 2721.214
888.910;  834.287;  -13.191; 2696.493
889.471;  842.220;   -9.881; 2560.172
890.032;  825.722;   -9.881; 2558.190
890.593;  802.272;  -10.371; 2567.669
891.153;  775.778;  -13.301; 2460.307
891.714;  726.484;  -11.431; 2372.046
892.275;  689.963;  -11.291; 2309.505
892.835;  652.244;  -11.471; 2382.543
893.396;  601.459;  -11.541; 2295.502
893.956;  545.983;  -11.181; 2162.420
894.517;  511.664;  -11.741; 2125.439
895.077;  504.802;  -11.671; 2086.978
895.638;  505.234;  -11.311; 2126.316
896.198;  476.155;   -9.831; 1838.275
896.758;  434.818;   -8.421; 1892.813
897.319;  406.550;  -12.351; 1792.232
897.879;  391.893;  -13.511; 1762.751
898.439;  364.737;  -12.001; 1661.149
898.999;  342.338;  -10.180; 1781.468
899.559;  333.999;  -12.030; 1703.347
900.119;  328.441;  -15.710; 1537.525
900.679;  325.534;   -8.900; 1638.384
901.239;  311.012;   -8.340; 1527.902
901.799;  300.674;  -13.910; 1456.441
902.359;  295.268;  -13.460; 1357.140
902.919;  288.260;  -11.490; 1331.118
903.479;  275.363;  -12.110; 1317.257
904.038;  255.878;  -11.720; 1262.595
904.598;  240.685;  -13.610; 1152.034
905.158;  236.288;  -11.040; 1240.893
905.717;  230.320;  -10.900; 1233.691
906.277;  219.997;  -15.080; 1217.330
906.836;  211.207;  -13.380; 1222.408
907.396;  202.020;  -10.780; 1193.047
907.955;  195.001;   -8.500; 1182.526
908.515;  189.053;  -12.760; 1099.364
909.074;  183.656;  -11.900; 1092.863
909.633;  177.789;   -8.950; 1069.121
910.192;  173.087;   -8.770; 1196.460
910.752;  168.489;  -12.390; 1029.960
911.311;  165.908;  -13.680; 1009.780
911.870;  162.412;  -12.370;  971.460
912.429;  162.626;  -10.900; 1094.080
912.988;  161.459;  -11.690; 1081.060
913.547;  157.751;  -13.240;  940.380
914.106;  151.920;  -11.990;  999.420
914.665;  149.602;   -9.990;  984.020
915.224;  149.166;  -12.880; 1035.760
915.782;  149.561;  -12.350;  922.560
916.341;  149.064;   -9.110; 1049.840
916.900;  144.374;   -9.270;  925.260
917.458;  143.293;  -13.240;  884.220
918.017;  142.553;  -13.550;  942.600
918.576;  142.068;  -12.320;  904.440
919.134;  140.717;  -11.490;  837.980
919.693;  138.014;  -13.670;  893.060
920.251;  136.282;  -15.470;  876.500
920.809;  135.147;  -11.290;  839.580
921.368;  134.288;  -10.210;  885.360
921.926;  134.365;  -12.140;  842.940
922.484;  133.550;  -13.080;  903.360
923.042;  132.266;  -11.720;  880.340
923.601;  135.068;   -7.480;  998.680
924.159;  134.203;  -11.570;  935.560
924.717;  130.991;  -13.840;  841.080
925.275;  129.633;  -10.640;  903.240
925.833;  129.771;  -11.540;  779.320
926.391;  131.318;  -12.960;  938.380
926.949;  128.887;  -14.130;  857.680
927.506;  129.919;  -11.750;  903.500
928.064;  129.345;  -10.250;  877.580
928.622;  129.078;  -13.030;  880.100
929.180;  129.300;  -13.400;  814.180
929.737;  130.436;  -10.700;  808.540
930.295;  133.603;  -10.070;  928.480
930.853;  135.486;  -11.960;  849.100
931.410;  135.992;  -13.120;  821.120
931.968;  135.013;  -10.770;  940.660
932.525;  134.416;  -10.680;  909.380
933.082;  135.564;  -13.130;  811.440
933.640;  136.360;  -13.210;  925.900
934.197;  134.369;  -11.060;  886.360
934.754;  134.385;   -9.580;  897.780
935.312;  138.212;  -14.000;  863.340
935.869;  141.997;  -10.710; 1012.980
936.426;  143.181;   -9.860;  872.800
936.983;  143.017;   -9.710;  889.020
937.540;  142.789;  -13.990;  838.280
938.097;  141.510;  -14.040;  940.120
938.654;  141.613;  -10.310;  898.860
939.211;  143.790;  -10.560;  952.480
939.768;  147.796;  -13.900;  915.420
940.324;  151.631;  -14.760;  904.200
940.881;  151.481;  -10.370;  878.500
941.438;  152.315;   -8.260; 1021.200
941.995;  149.223;  -12.540;  992.560
942.551;  146.525;  -14.670;  875.620
943.108;  146.500;  -10.450;  937.920
943.664;  148.024;  -10.750;  869.340
944.221;  151.920;  -11.550; 1088.140
944.777;  149.408;  -14.770;  869.680
945.334;  149.994;  -12.820;  884.840
945.890;  151.527;  -10.130;  946.480
946.446;  152.229;  -13.470;  947.020
947.003;  153.951;  -12.120;  964.940
947.559;  156.028;   -9.980; 1063.040
948.115;  154.544;   -9.080; 1026.540
948.671;  153.764;  -10.830;  967.300
949.227;  151.357;  -12.440;  859.560
949.783;  147.942;  -12.910;  858.900
950.339;  149.901;  -10.270;  991.000
950.895;  150.646;  -13.630; 1023.840
951.451;  149.773;  -15.100;  925.280
952.007;  149.208;  -11.330;  998.540
952.563;  150.818;  -10.580;  937.780
953.118;  149.571;  -13.440;  904.940
953.674;  149.713;  -12.710;  935.780
954.230;  148.498;  -10.350;  949.640
954.785;  145.774;   -9.190;  936.640
955.341;  144.319;  -11.200;  998.160
955.897;  142.829;  -16.560;  834.660
956.452;  143.705;  -12.570;  953.840
957.008;  142.206;   -7.970; 1083.640
957.563;  139.632;  -11.940; 1009.540
958.118;  135.429;  -13.450;  877.700
958.674;  134.849;  -12.030;  946.780
959.229;  136.933;   -9.410; 1013.980
959.784;  134.161;  -12.000;  832.400
960.339;  134.441;  -14.780; 1001.280
960.894;  131.305;   -9.860;  963.760
961.449;  127.229;   -9.970;  859.960
962.004;  128.190;  -10.900; 1212.840
962.559;  122.025;  -13.150;  860.140
963.114;  120.029;  -13.740;  742.480
963.669;  119.099;   -9.820;  915.500
964.224;  118.393;  -13.890;  874.340
964.779;  116.530;  -12.600;  828.420
965.334;  117.012;  -10.950; 1017.860
965.888;  116.893;  -11.170;  875.360
966.443;  119.882;  -12.540;  972.380
966.998;  119.381;  -15.780;  819.460
967.552;  118.012;   -9.760;  908.380
968.107;  113.895;   -9.060;  868.300
968.661;  115.679;  -11.950;  922.440
969.216;  116.531;  -12.800;  856.280
969.770;  116.493;  -11.210;  917.200
970.324;  114.486;  -11.610;  923.140
970.879;  112.787;  -11.370;  947.180
971.433;  109.497;  -12.540;  952.720
971.987;  104.330;  -11.320;  895.340
972.541;  101.536;  -10.720;  917.100
973.095;  101.844;   -9.680; 1009.460
973.649;   99.938;  -11.440;  809.480
974.203;   98.861;  -11.210;  829.040
974.757;   98.420;  -10.240;  855.220
975.311;   98.174;  -13.720;  872.600
975.865;   98.373;  -13.770;  881.820
976.419;   94.980;  -11.690;  857.400
976.973;   95.937;   -9.510;  849.620
977.526;   97.349;  -12.620;  949.920
978.080;   97.190;  -12.010;  796.780
978.634;   98.524;  -10.170;  921.320
979.187;   95.593;   -9.020;  905.400
979.741;   93.417;   -9.820; 1018.380
980.294;   88.895;  -14.870;  789.160
980.848;   86.696;  -12.380;  717.220
981.401;   88.763;  -10.350;  816.540
981.955;   90.996;  -13.720;  844.300
982.508;   90.327;  -11.490;  746.340
983.061;   90.332;  -10.000;  915.260
983.615;   85.828;  -11.480;  798.800
984.168;   83.384;  -13.220;  770.080
984.721;   82.779;  -13.960;  880.760
985.274;   82.125;  -10.870;  867.500
985.827;   80.460;   -9.790;  834.220
986.380;   78.169;  -13.120;  721.340
986.933;   78.552;  -12.450;  864.800
987.486;   75.714;  -10.210;  861.920
988.039;   74.842;   -8.430;  863.100
988.591;   73.896;  -10.520;  893.260
989.144;   71.257;  -14.860;  737.260
989.697;   69.520;  -13.080;  758.740
990.250;   69.302;  -10.150;  858.100
990.802;   69.277;  -13.430;  755.860
991.355;   71.326;  -12.750;  974.880
991.907;   68.658;  -12.040;  864.320
992.460;   65.989;  -11.330;  753.760
993.012;   64.997;  -13.610;  749.540
993.565;   64.532;  -13.460;  711.360
994.117;   65.393;   -9.360;  950.780
994.669;   62.155;  -11.300;  701.320
995.221;   60.281;  -13.540;  791.920
995.774;   58.452;  -13.430;  787.580
996.326;   57.507;  -12.520;  740.220
996.878;   56.903;  -10.950;  838.420
997.430;   54.965;  -14.300;  699.860
997.982;   54.954;  -13.760;  750.140
998.534;   53.482;  -11.530;  739.060
999.086;   52.409;  -10.310;  738.220
999.638;   51.176;  -12.530;  661.380
1000.190;   50.865;  -11.840;  699.320
1000.741;   50.094;  -10.260;  742.700
1001.293;   50.523;   -8.860;  686.020
1001.845;   48.968;  -13.700;  676.640
1002.396;   49.256;  -12.100;  743.400
1002.948;   47.562;  -12.760;  737.400
1003.500;   46.378;  -10.380;  723.780
1004.051;   47.177;  -11.900;  907.580
1004.603;   45.742;  -12.250;  791.820
1005.154;   42.017;  -13.210;  608.980
1005.705;   40.473;  -10.950;  723.960
1006.257;   40.516;  -13.880;  707.220
1006.808;   40.122;  -12.840;  685.460
1007.359;   39.761;  -10.570;  763.240
1007.910;   38.851;   -9.620;  646.640
1008.461;   38.900;  -13.630;  732.940
1009.013;   37.836;  -17.200;  588.340
1009.564;   38.525;  -10.200;  793.520
1010.115;   36.741;  -12.570;  597.040
1010.665;   35.241;  -15.150;  602.160
1011.216;   36.422;  -14.480;  667.920
1011.767;   35.660;  -11.340;  697.920
1012.318;   35.361;   -9.780;  736.980
1012.869;   34.433;  -12.380;  679.000
1013.419;   34.627;  -15.560;  603.120
1013.970;   34.755;  -11.010;  666.640
1014.521;   33.438;  -11.610;  620.620
1015.071;   33.729;  -13.450;  670.380
1015.622;   34.104;  -13.870;  635.460
1016.172;   32.849;  -11.610;  596.820
1016.723;   32.546;  -12.120;  614.380
1017.273;   32.449;  -13.620;  604.160
1017.823;   32.702;  -14.140;  650.340
1018.374;   31.888;  -12.800;  611.760
1018.924;   32.129;  -12.340;  716.880
1019.474;   31.876;  -11.410;  718.880
1020.024;   31.283;  -14.770;  657.580
1020.574;   32.100;   -9.780;  726.160
1021.124;   32.263;   -8.560;  673.580
1021.674;   30.092;  -15.190;  559.120
1022.224;   31.357;  -13.530;  708.940
1022.774;   30.895;  -13.280;  668.820
1023.324;   30.927;  -10.690;  753.520
1023.874;   32.049;  -10.240;  875.760
1024.423;   29.878;  -12.540;  613.700
1024.973;   29.065;  -10.010;  610.760
1025.523;   29.093;  -10.550;  620.960
1026.072;   28.282;  -13.560;  606.420
1026.622;   28.739;  -15.120;  675.740
1027.172;   29.744;  -11.260;  715.660
1027.721;   27.777;  -11.410;  601.220
1028.270;   29.165;  -13.530;  663.400
1028.820;   29.019;  -13.680;  638.080
1029.369;   28.045;  -13.520;  612.700
1029.918;   27.659;  -10.980;  649.840
1030.468;   27.960;  -13.530;  564.780
1031.017;   28.276;  -13.170;  634.800
1031.566;   26.838;  -12.200;  608.900
1032.115;   26.645;   -9.960;  694.500
1032.664;   26.839;  -13.210;  596.480
1033.213;   26.949;  -12.500;  735.420
1033.762;   26.741;  -11.910;  635.620
1034.311;   26.757;   -9.640;  677.220
1034.860;   26.462;  -13.310;  691.000
1035.408;   27.085;  -11.830;  722.720
1035.957;   26.286;  -12.000;  719.540
1036.506;   24.179;  -11.690;  530.800
1037.055;   26.978;  -10.990;  844.320
1037.603;   25.356;  -15.120;  664.000
1038.152;   23.740;  -12.450;  534.760
1038.700;   24.554;  -10.560;  585.740
1039.249;   24.665;  -11.080;  681.220
1039.797;   25.219;  -12.540;  633.360
1040.345;   24.676;  -11.920;  705.420
1040.894;   23.949;  -11.410;  625.300
1041.442;   23.794;  -14.320;  632.200
1041.990;   23.044;  -16.240;  559.160
1042.538;   23.225;  -11.680;  536.180
1043.087;   22.217;  -10.760;  570.860
1043.635;   23.629;  -11.850;  670.500
1044.183;   23.719;  -15.480;  586.400
1044.731;   22.635;  -11.770;  576.000
1045.279;   22.243;  -13.090;  674.920
1045.827;   24.238;  -12.440;  892.400
1046.374;   21.952;  -13.840;  515.420
1046.922;   20.667;  -13.220;  590.580
1047.470;   22.374;  -10.230;  691.300
1048.018;   22.259;  -14.590;  647.960
1048.565;   23.793;  -12.050;  708.600
1049.113;   20.831;  -11.650;  557.000
1049.660;   20.814;  -10.510;  629.660
1050.208;   22.069;  -13.310;  675.640
1050.755;   20.510;  -15.900;  606.580
1051.303;   20.985;  -11.430;  686.820
1051.850;   20.161;   -8.480;  635.120
1052.397;   18.942;  -15.010;  473.960
1052.945;   20.784;  -13.960;  617.760
1053.492;   21.411;  -13.150;  741.840
1054.039;   21.076;   -9.630;  720.180
1054.586;   19.598;  -13.680;  557.240
1055.133;   20.869;  -14.570;  693.140
1055.680;   20.409;  -13.820;  646.620
1056.227;   18.598;  -11.730;  542.780
1056.774;   20.788;  -12.480;  794.980
1057.321;   19.142;  -13.930;  523.260
1057.868;   19.627;  -11.690;  651.320
1058.415;   19.381;   -9.520;  651.980
1058.961;   19.920;  -13.160;  678.940
1059.508;   19.168;  -12.920;  643.820
1060.055;   18.389;  -11.920;  581.780
1060.601;   18.812;  -11.500;  624.300
1061.148;   18.431;  -14.330;  616.820
1061.694;   17.931;  -16.870;  592.580
1062.241;   17.780;  -10.330;  596.320
1062.787;   17.741;  -10.620;  663.140
1063.334;   19.277;  -10.110;  808.560
1063.880;   18.452;  -13.400;  668.360
1064.426;   18.140;  -10.680;  706.820
1064.972;   16.879;   -9.920;  601.340
1065.518;   16.082;  -10.980;  566.640
1066.065;   18.130;  -14.890;  624.460
1066.611;   16.502;  -12.870;  598.800
1067.157;   17.248;  -12.950;  641.860
1067.703;   17.415;  -13.540;  668.480
1068.249;   17.616;  -13.540;  605.220
1068.794;   17.071;  -12.600;  626.880
1069.340;   15.649;  -10.620;  578.960
1069.886;   15.871;  -12.830;  590.700
1070.432;   16.343;  -14.870;  541.720
1070.977;   15.560;  -11.980;  601.080
1071.523;   15.373;   -8.200;  573.060
1072.068;   15.624;  -12.330;  582.000
1072.614;   15.658;  -16.370;  527.760
1073.160;   15.679;  -11.100;  687.040
1073.705;   14.654;  -10.480;  572.520
1074.250;   15.062;  -14.520;  559.900
1074.796;   16.142;  -11.460;  655.160
1075.341;   15.982;  -11.950;  664.100
1075.886;   14.848;  -11.460;  594.240
1076.431;   14.781;  -13.770;  649.880
1076.976;   15.042;  -12.680;  639.220
1077.521;   14.700;  -13.170;  583.080
1078.067;   13.932;  -10.860;  579.400
1078.612;   14.579;  -13.920;  661.620
1079.156;   14.584;  -13.880;  601.540
1079.701;   14.887;  -13.120;  693.260
1080.246;   14.458;   -9.940;  696.300
1080.791;   13.973;  -14.740;  625.020
1081.336;   14.530;  -13.750;  659.320
1081.880;   13.825;  -13.400;  649.680
1082.425;   12.830;  -12.220;  573.480
1082.970;   14.333;  -11.610;  717.040
1083.514;   13.214;  -13.580;  597.000
1084.059;   12.793;  -12.810;  586.720
1084.603;   12.282;  -12.320;  565.840
1085.147;   12.728;  -13.190;  645.220
1085.692;   13.848;  -12.480;  716.800
1086.236;   11.878;  -13.020;  503.140
1086.780;   13.899;   -9.190;  751.440
1087.325;   12.378;  -12.480;  654.620
1087.869;   12.788;  -12.450;  610.700
1088.413;   12.557;  -12.240;  705.040
1088.957;   11.030;   -9.020;  543.400
1089.501;   12.850;  -10.320;  766.640
1090.045;   12.839;  -12.720;  726.480
1090.589;   10.469;  -13.690;  569.920
1091.133;   11.392;  -10.020;  673.340
1091.676;   12.059;  -12.330;  591.940
1092.220;   11.815;  -14.970;  600.920
1092.764;   12.067;  -12.430;  706.960
1093.307;   11.027;   -9.800;  673.780
1093.851;   10.671;  -14.970;  556.540
1094.395;   11.931;  -15.310;  683.140
1094.938;   10.763;  -10.370;  632.520
1095.482;   10.529;  -11.050;  559.800
1096.025;   11.163;  -11.840;  710.880
1096.568;   11.907;  -12.840;  779.280
1097.112;    8.742;  -14.700;  508.180
1097.655;   10.963;   -8.720;  603.000
1098.198;    9.052;  -13.610;  600.180
1098.741;   10.155;  -13.350;  612.860
1099.285;   10.800;  -11.230;  657.300
1099.828;    8.270;  -11.840;  439.400
1100.371;    9.108;  -10.840;  608.160
1100.914;   10.106;  -14.190;  682.660
1101.457;    9.412;  -11.240;  679.900
1101.999;    8.488;  -11.270;  584.680
1102.542;    9.375;  -11.480;  641.440
1103.085;    9.420;  -11.750;  658.500
1103.628;    9.966;  -11.400;  762.060
1104.170;    8.540;  -10.490;  588.280
1104.713;    8.855;  -10.600;  646.700
1105.256;    8.990;  -14.360;  557.440
1105.798;    7.630;  -13.210;  499.980
1106.341;    8.720;  -10.270;  728.900
1106.883;    7.722;  -12.200;  521.340
1107.425;    8.780;  -13.110;  668.180
1107.968;    8.202;  -12.840;  612.380
1108.510;    8.468;   -6.480;  684.960
1109.052;    7.065;  -13.940;  612.620
1109.594;    8.172;  -13.690;  554.440
1110.136;    7.911;  -11.880;  643.220
1110.679;    6.967;   -9.500;  633.080
1111.221;    7.985;  -14.160;  604.460
1111.763;    7.732;  -13.980;  559.220
1112.304;    6.093;  -13.880;  547.140
1112.846;    7.336;  -12.210;  666.240
1113.388;    9.998;  -11.390;  942.180
1113.930;    7.648;  -14.540;  694.200
1114.472;    6.553;  -12.640;  606.540
1115.013;    5.328;  -11.620;  551.280
1115.555;    6.138;  -13.640;  587.100
1116.097;    6.421;  -15.380;  579.480
1116.638;    6.905;  -12.640;  684.600
1117.180;    6.864;   -9.850;  667.740
1117.721;    6.318;  -13.690;  568.580
1118.262;    6.879;  -12.680;  677.960
1118.804;    6.634;  -12.530;  637.340
1119.345;    4.944;  -11.690;  578.400
1119.886;    6.458;  -13.380;  704.040
1120.427;    5.596;  -14.070;  589.020
1120.969;    5.299;  -13.500;  597.920
1121.510;    4.302;  -11.480;  563.060
1122.051;    5.301;  -12.830;  723.580
1122.592;    5.280;  -14.290;  655.420
1123.133;    4.253;  -12.400;  547.940
1123.673;    6.147;  -10.130;  706.480
1124.214;    4.512;  -12.930;  612.460
1124.755;    5.507;  -14.380;  639.460
1125.296;    5.998;  -14.000;  627.320
1125.836;    6.309;  -10.070;  691.500
1126.377;    4.225;  -12.640;  599.660
1126.918;    5.590;  -12.960;  614.980
1127.458;    4.274;  -13.350;  622.220
1127.999;    5.214;  -10.750;  656.980
1128.539;    5.037;  -12.350;  694.240
1129.079;    4.476;  -14.860;  632.720
1129.620;    3.969;  -13.840;  558.100
1130.160;    3.700;  -12.330;  539.480
1130.700;    4.174;  -14.530;  640.840
1131.240;    5.382;  -12.530;  643.700
1131.781;    4.385;  -14.450;  619.680
1132.321;    3.732;   -9.790;  599.120
1132.861;    2.671;  -14.860;  564.200
1133.401;    2.678;  -14.290;  593.940
1133.941;    3.931;  -11.750;  626.280
1134.481;    2.653;   -9.920;  597.580
1135.020;    3.309;  -12.290;  609.160
1135.560;    3.546;  -11.650;  674.940
1136.100;    2.692;  -16.270;  501.160
1136.640;    2.372;  -10.890;  510.480
1137.179;    2.715;  -14.180;  537.960
1137.719;    3.027;  -16.250;  605.400
1138.258;    3.174;  -14.230;  587.360
1138.798;    3.870;   -9.090;  663.780
1139.337;    1.749;  -15.130;  482.840
1139.877;    3.509;  -13.680;  642.360
1140.416;    4.347;  -11.320;  878.060
1140.955;    1.590;  -10.860;  535.380
1141.494;    2.407;  -12.920;  669.280
1142.034;    2.539;  -13.930;  583.520
1142.573;    2.712;  -11.440;  646.280
1143.112;    1.937;  -12.000;  553.480
1143.651;    2.229;  -13.670;  536.480
1144.190;    2.578;  -12.730;  691.640
1144.729;    1.663;  -14.560;  607.420
1145.267;    1.913;  -11.830;  584.900
1145.806;    2.791;  -12.230;  637.040
1146.345;    1.948;  -14.130;  635.020
1146.884;    1.323;  -11.590;  622.500
1147.422;    0.643;  -12.550;  533.060
1147.961;    2.833;  -11.180;  708.460
1148.500;    2.469;  -11.510;  669.720
1149.038;    2.267;  -11.640;  632.500
1149.577;    2.367;  -10.130;  698.640
1150.115;   -0.422;  -13.970;  452.280
1150.653;    1.499;  -14.520;  607.340
1151.192;    1.348;  -12.810;  552.920
1151.730;    1.299;   -9.100;  652.560
1152.268;    0.643;  -12.220;  589.520
1152.806;    0.813;  -14.140;  571.180
1153.344;   -0.366;  -12.350;  577.640
1153.882;    0.386;   -8.980;  600.060
1154.421;   -0.750;  -15.190;  470.620
1154.958;    0.082;  -15.210;  595.240
1155.496;    1.512;  -12.850;  645.280
1156.034;    0.370;   -9.940;  721.880
1156.572;    1.336;  -13.570;  667.060
1157.110;    0.450;  -14.590;  473.940
1157.647;    1.103;  -13.030;  676.960
1158.185;   -0.811;  -12.140;  564.320
1158.723;   -1.448;  -14.390;  509.200
1159.260;    0.840;  -14.090;  701.700
1159.798;    0.557;  -11.920;  658.160
1160.335;   -0.406;  -11.110;  631.820

