
Integration time [ms]:   3.276
Averaging Nr. [scans]: 1000
Smoothing Nr. [pixels]: 0
Data measured with spectrometer [name]: 7414430SP
Wave   ;Sample   ;Dark     ;Reference
[nm]   ;[counts] ;[counts] ;[counts] 

288.544;  149.459;    7.793;  793.890
289.143;  153.850;    7.462;  681.602
289.742;  154.801;    8.602;  828.814
290.341;  139.832;    1.321;  789.841
290.940;  128.139;   -0.709;  730.702
291.538;  129.867;    0.881;  881.108
292.137;  129.319;    0.122;  792.581
292.736;  134.123;   -1.929;  975.101
293.335;  130.164;   -8.229;  735.086
293.934;  130.994;   -5.279;  781.677
294.532;  130.004;   -1.369; 1031.958
295.131;  115.174;   -7.641;  834.394
295.730;  115.351;   -8.420;  809.588
296.328;  114.678;   -5.611;  783.442
296.927;  115.574;   -5.781;  779.652
297.525;  116.997;   -6.361;  781.236
298.124;  106.279;  -11.382;  654.009
298.722;  110.392;   -7.641;  761.933
299.321;  108.585;   -6.811;  708.597
299.919;  106.706;   -6.991;  751.918
300.518;  103.121;  -10.362;  689.338
301.116;  105.098;   -9.581;  691.381
301.715;  104.655;   -4.891;  730.222
302.313;  104.423;   -8.801;  704.943
302.911;   99.742;   -8.522;  733.830
303.509;  104.633;   -6.171;  925.627
304.108;  102.405;   -7.311;  760.383
304.706;  101.139;   -8.321;  801.664
305.304;   95.568;  -10.222;  796.707
305.902;  101.373;   -6.021;  784.484
306.500;   97.199;   -4.971;  728.200
307.098;   96.264;   -7.061;  746.560
307.696;   93.583;   -8.801;  780.432
308.294;   94.344;   -6.411;  731.359
308.892;   96.109;   -2.901;  759.769
309.490;   92.613;   -5.041;  712.161
310.088;   90.588;   -5.002;  788.444
310.686;   95.092;   -2.041;  821.749
311.284;   91.192;   -2.351;  766.040
311.882;   88.677;   -4.422;  731.225
312.480;   85.273;   -4.192;  697.167
313.078;   86.458;   -1.172;  808.331
313.675;   87.739;   -2.601;  691.600
314.273;   82.966;   -1.312;  797.837
314.871;   81.407;   -3.942;  589.829
315.468;   80.757;   -2.802;  652.090
316.066;   82.857;   -0.701;  694.427
316.664;   76.006;   -4.362;  656.351
317.261;   79.468;   -2.872;  910.128
317.859;   75.516;   -2.022;  768.735
318.456;   76.118;   -0.531;  830.096
319.054;   70.890;   -3.912;  787.828
319.651;   70.958;   -4.752;  759.928
320.249;   69.634;   -2.602;  810.188
320.846;   68.183;   -0.821;  714.286
321.443;   64.075;   -4.642;  832.135
322.041;   61.522;   -5.002;  812.315
322.638;   59.604;   -3.982;  701.456
323.235;   61.460;   -3.411;  665.683
323.833;   58.085;   -7.361;  740.354
324.430;   53.394;   -8.611;  615.900
325.027;   54.471;   -4.061;  876.855
325.624;   53.647;   -4.031;  644.532
326.221;   51.243;   -7.481;  689.717
326.818;   50.358;   -5.281;  818.332
327.415;   53.605;   -7.460;  748.828
328.012;   53.503;   -5.510;  690.585
328.609;   51.484;   -7.880;  731.389
329.206;   49.365;   -8.331;  778.621
329.803;   49.628;   -5.121;  737.841
330.400;   52.731;   -4.510;  704.260
330.997;   54.405;   -6.441;  817.147
331.594;   51.964;   -8.831;  788.185
332.191;   57.685;   -7.621;  728.722
332.787;   61.416;   -4.591;  844.463
333.384;   59.676;   -7.412;  763.093
333.981;   58.066;   -8.293;  815.687
334.578;   61.131;   -7.052;  708.378
335.174;   63.657;   -3.102;  731.469
335.771;   64.347;   -5.943;  836.456
336.367;   59.707;   -7.393;  710.631
336.964;   64.157;   -4.063;  793.266
337.561;   62.162;   -3.813;  731.112
338.157;   57.381;   -4.654;  911.916
338.754;   55.159;   -7.934;  796.589
339.350;   53.538;   -4.414;  722.493
339.946;   55.043;   -4.664;  773.135
340.543;   46.960;   -6.375;  846.136
341.139;   42.403;   -9.815;  720.836
341.735;   39.781;   -4.526;  772.593
342.332;   38.988;   -4.895;  691.472
342.928;   38.899;   -4.295;  795.394
343.524;   33.203;   -5.476;  761.684
344.120;   29.467;   -5.856;  738.562
344.716;   32.313;   -2.155;  723.717
345.313;   30.206;   -6.275;  795.342
345.909;   24.811;   -8.815;  627.336
346.505;   27.178;   -5.305;  740.247
347.101;   27.507;   -2.674;  827.864
347.697;   27.224;   -4.344;  785.398
348.293;   21.563;   -9.975;  627.244
348.889;   22.968;   -5.774;  745.914
349.485;   22.672;   -5.004;  688.205
350.081;   22.802;   -4.704;  772.592
350.676;   17.998;   -6.635;  691.606
351.272;   22.158;   -4.504;  809.530
351.868;   22.266;   -3.914;  780.497
352.464;   19.133;   -9.044;  723.932
353.059;   15.176;   -8.314;  646.017
353.655;   19.322;   -7.024;  777.063
354.251;   19.319;   -5.343;  759.845
354.846;   14.227;   -8.604;  740.646
355.442;   11.624;   -6.945;  753.071
356.038;   14.597;   -7.564;  751.708
356.633;   14.499;   -5.814;  728.594
357.229;   11.990;   -7.364;  724.757
357.824;   10.501;   -8.024;  703.600
358.420;    9.636;   -9.384;  679.726
359.015;   10.590;   -5.104;  695.357
359.610;   10.590;   -6.854;  763.920
360.206;    4.992;  -10.185;  603.240
360.801;    7.688;   -7.054;  646.503
361.396;   10.219;   -5.034;  725.975
361.992;    5.168;   -8.284;  668.220
362.587;    3.482;   -8.625;  670.160
363.182;    5.294;   -7.674;  689.631
363.777;    5.758;   -5.164;  738.242
364.372;    5.284;   -8.604;  737.314
364.967;    1.608;   -9.055;  680.744
365.563;    6.707;   -6.114;  815.567
366.158;    3.327;   -5.814;  685.161
366.753;    3.268;   -7.854;  649.263
367.348;    1.045;   -7.804;  746.056
367.942;    1.615;   -7.954;  697.298
368.537;    0.745;   -4.984;  754.245
369.132;    1.193;   -8.564;  703.428
369.727;   -2.535;   -8.855;  638.079
370.322;   -1.301;   -6.245;  580.186
370.917;   -1.861;   -6.425;  710.646
371.511;    0.340;   -6.294;  861.834
372.106;   -3.204;   -7.685;  776.964
372.701;   -5.573;   -7.335;  585.988
373.296;   -0.199;   -4.564;  863.135
373.890;   -5.359;  -10.235;  647.840
374.485;   -7.402;   -7.885;  691.199
375.079;   -3.321;   -7.324;  738.685
375.674;   -1.880;   -3.494;  812.970
376.268;   -6.353;   -8.525;  691.759
376.863;  -11.823;  -10.086;  580.327
377.457;   -5.760;   -7.025;  662.490
378.052;   -7.935;   -3.585;  764.884
378.646;   -8.539;   -7.595;  741.167
379.240;   -9.428;   -8.335;  721.176
379.835;   -8.691;   -5.785;  636.978
380.429;  -10.206;   -4.335;  562.557
381.023;  -10.709;   -6.805;  779.205
381.617;  -12.699;   -9.195;  680.106
382.212;   -8.978;   -6.905;  685.303
382.806;   -7.224;   -3.745;  760.690
383.400;  -12.100;   -7.745;  672.281
383.994;  -13.339;   -9.765;  664.870
384.588;  -10.127;   -6.564;  697.701
385.182;   -7.963;   -5.344;  726.624
385.776;  -10.444;   -8.514;  706.875
386.370;  -13.763;   -9.555;  681.968
386.964;  -11.539;   -8.715;  684.155
387.558;  -10.443;   -6.174;  598.360
388.152;  -13.091;   -8.725;  681.959
388.745;  -11.548;   -7.965;  814.707
389.339;  -10.033;   -5.924;  747.642
389.933;   -8.766;   -5.524;  695.370
390.527;  -10.414;   -7.114;  859.029
391.120;  -16.691;  -10.725;  595.318
391.714;  -13.734;   -8.035;  711.633
392.308;   -9.799;   -3.574;  780.253
392.901;  -14.241;   -7.245;  642.460
393.495;  -16.277;   -9.285;  595.414
394.089;  -13.451;   -5.895;  760.452
394.682;  -14.453;   -4.295;  697.188
395.275;  -15.378;   -9.875;  719.927
395.869;  -16.372;   -8.485;  667.314
396.462;  -14.741;   -7.455;  616.609
397.056;  -10.396;   -5.424;  776.621
397.649;  -15.193;   -6.605;  731.575
398.242;  -12.713;   -8.224;  712.645
398.836;  -12.483;   -7.474;  766.408
399.429;  -12.881;   -7.094;  631.041
400.022;  -17.008;   -9.475;  665.902
400.615;  -14.287;   -7.145;  805.609
401.208;  -12.453;   -7.174;  691.451
401.802;  -14.201;   -5.515;  699.329
402.395;  -15.758;   -9.875;  683.502
402.988;  -17.279;   -8.845;  696.627
403.581;  -13.394;   -8.874;  646.878
404.174;   -9.981;   -5.324;  686.568
404.767;  -14.830;   -9.575;  638.583
405.360;  -16.532;  -10.965;  621.445
405.953;  -10.904;   -8.764;  759.034
406.545;  -11.087;   -7.514;  725.342
407.138;  -14.810;  -10.025;  618.350
407.731;  -14.099;  -10.034;  613.303
408.324;   -9.392;   -9.374;  660.554
408.917;  -10.341;   -6.534;  681.864
409.509;  -12.683;   -8.004;  740.396
410.102;  -14.908;   -9.875;  643.948
410.695;   -8.262;   -8.604;  665.758
411.287;   -9.960;   -6.794;  599.821
411.880;  -10.432;   -9.334;  585.421
412.472;  -13.742;  -10.254;  613.092
413.065;  -10.368;   -6.714;  629.408
413.657;   -8.477;   -7.234;  576.678
414.250;   -8.380;  -10.544;  646.681
414.842;  -10.590;   -9.744;  676.353
415.434;   -8.673;   -6.994;  570.463
416.027;   -3.758;   -5.893;  652.196
416.619;   -6.250;   -7.264;  713.400
417.211;   -7.442;  -10.374;  599.352
417.804;   -3.306;   -7.993;  628.499
418.396;   -7.132;   -7.234;  607.643
418.988;   -5.413;   -9.443;  659.238
419.580;   -8.832;  -10.724;  568.276
420.172;   -5.480;  -10.323;  536.196
420.764;   -1.645;   -8.793;  672.482
421.356;   -2.823;  -11.143;  636.898
421.948;   -3.810;   -8.293;  677.661
422.540;    0.994;   -7.893;  680.027
423.132;    0.293;   -7.082;  600.641
423.724;   -2.470;   -8.653;  561.267
424.316;   -1.558;  -10.213;  621.345
424.908;    2.673;   -9.762;  591.517
425.500;    3.387;   -5.572;  647.978
426.092;    3.314;   -8.422;  648.268
426.683;    1.978;   -9.283;  684.836
427.275;    4.835;   -7.852;  641.471
427.867;    7.320;   -5.272;  668.948
428.458;    6.886;   -7.682;  732.344
429.050;    5.717;  -10.612;  680.749
429.642;    8.501;   -9.882;  743.124
430.233;    9.012;   -6.962;  569.356
430.825;    9.562;   -6.842;  724.809
431.416;    7.659;   -9.672;  698.241
432.008;   10.813;   -6.552;  651.723
432.599;   11.058;   -6.891;  656.073
433.190;    8.100;  -10.912;  637.670
433.782;    7.000;  -11.172;  590.395
434.373;   14.690;   -6.061;  884.765
434.964;   14.757;   -8.251;  602.920
435.556;   11.533;   -9.722;  634.537
436.147;   13.773;   -9.082;  758.490
436.738;   14.220;   -8.041;  701.099
437.329;   19.470;   -7.341;  721.723
437.920;   12.499;   -8.162;  666.688
438.511;   12.065;  -11.802;  564.526
439.103;   18.840;  -10.191;  623.998
439.694;   20.354;   -7.601;  681.583
440.285;   21.563;   -8.541;  764.432
440.876;   19.205;   -9.751;  845.738
441.466;   19.406;   -9.401;  575.162
442.057;   24.541;   -7.760;  665.814
442.648;   22.861;   -9.971;  746.255
443.239;   21.217;  -11.001;  620.477
443.830;   26.055;   -7.990;  704.958
444.421;   28.898;   -7.910;  655.474
445.011;   24.433;   -8.131;  693.619
445.602;   24.498;   -7.111;  743.126
446.193;   26.060;  -10.920;  488.117
446.783;   30.840;   -6.500;  640.397
447.374;   25.194;   -8.671;  692.759
447.964;   25.910;  -10.781;  713.770
448.555;   34.572;   -9.650;  822.742
449.145;   32.233;   -8.660;  662.853
449.736;   32.530;   -8.990;  803.179
450.326;   32.822;   -9.500;  713.626
450.917;   36.841;   -8.680;  675.324
451.507;   36.648;   -7.520;  600.661
452.097;   37.296;   -8.590;  746.267
452.688;   37.020;  -11.340;  742.160
453.278;   37.095;  -10.100;  566.840
453.868;   42.355;   -6.019;  793.550
454.458;   39.738;   -9.440;  651.141
455.048;   40.118;  -10.560;  711.783
455.639;   41.435;  -11.799;  567.096
456.229;   45.762;   -6.899;  710.694
456.819;   47.285;   -7.389;  751.158
457.409;   47.395;  -11.119;  773.993
457.999;   49.986;   -9.289;  737.505
458.589;   50.330;   -6.139;  686.606
459.179;   50.148;   -8.729;  717.658
459.769;   47.451;   -9.789;  627.099
460.358;   52.884;  -10.259;  797.262
460.948;   52.765;   -7.299;  689.503
461.538;   54.742;  -10.289;  660.677
462.128;   51.717;  -11.269;  664.934
462.717;   58.327;   -9.368;  710.326
463.307;   62.262;   -7.908;  705.846
463.897;   57.271;   -9.599;  656.942
464.486;   56.508;   -9.769;  837.128
465.076;   61.528;   -8.048;  733.776
465.666;   65.374;   -9.358;  652.900
466.255;   63.228;   -7.919;  785.651
466.845;   60.979;  -11.689;  666.749
467.434;   65.086;   -7.818;  725.873
468.023;   65.857;   -7.678;  658.357
468.613;   63.488;  -10.939;  713.946
469.202;   67.405;  -10.118;  646.507
469.791;   71.735;   -9.108;  737.811
470.381;   74.311;   -6.058;  742.813
470.970;   73.051;  -10.428;  711.099
471.559;   72.977;  -10.268;  733.291
472.148;   76.196;   -8.448;  675.737
472.738;   78.293;   -6.917;  765.466
473.327;   78.565;  -11.978;  637.529
473.916;   77.354;  -11.888;  737.446
474.505;   81.731;   -9.437;  751.703
475.094;   85.047;   -6.747;  806.570
475.683;   84.293;   -9.367;  797.699
476.272;   85.531;  -12.637;  730.632
476.861;   88.612;  -10.027;  706.754
477.449;   94.630;   -8.716;  728.487
478.038;   89.785;   -9.577;  692.513
478.627;   89.720;   -9.718;  714.852
479.216;   96.550;   -8.947;  769.441
479.805;   99.759;   -6.256;  783.375
480.393;   98.990;   -7.937; 1008.945
480.982;   98.360;   -7.717;  874.501
481.571;  104.762;   -9.266;  858.333
482.159;  105.469;   -7.636;  705.386
482.748;  105.154;   -9.667;  821.385
483.336;  109.358;  -10.376;  858.209
483.925;  110.298;   -7.147;  774.373
484.513;  117.074;   -7.996;  758.962
485.102;  113.720;  -10.027;  810.965
485.690;  121.981;  -10.446; 1011.050
486.278;  123.798;   -8.446;  979.329
486.867;  124.408;   -6.356;  809.662
487.455;  126.619;   -9.136;  898.229
488.043;  127.719;  -10.646;  748.361
488.631;  136.166;   -7.456; 1005.079
489.220;  140.348;   -6.636;  908.626
489.808;  139.671;  -11.036;  741.415
490.396;  147.917;  -10.246;  914.645
490.984;  152.971;   -8.556;  830.161
491.572;  163.951;   -5.886;  940.315
492.160;  168.655;   -9.486;  919.081
492.748;  179.528;  -10.976;  884.341
493.336;  202.093;   -8.776; 1019.693
493.924;  227.743;   -5.465;  958.077
494.512;  254.105;   -9.986; 1066.638
495.100;  289.739;  -10.636; 1103.280
495.687;  341.634;  -10.885; 1206.373
496.275;  402.421;   -8.126; 1150.796
496.863;  470.306;  -10.586; 1281.171
497.451;  570.578;  -11.926; 1386.805
498.038;  701.460;  -10.885; 1556.729
498.626;  809.422;   -6.315; 1741.407
499.214;  946.995;   -7.326; 2016.609
499.801; 1138.568;  -11.906; 2220.633
500.389; 1386.426;  -10.466; 2312.494
500.976; 1696.831;   -5.236; 2744.849
501.564; 2095.123;   -8.936; 3148.565
502.151; 2451.223;  -13.176; 3515.999
502.738; 2915.600;  -10.646; 3971.274
503.326; 3319.262;   -9.525; 4403.796
503.913; 3710.269;  -10.856; 5161.749
504.500; 4032.499;  -11.586; 5986.420
505.088; 4497.678;  -10.336; 6381.201
505.675; 4994.207;   -6.355; 6925.547
506.262; 5612.889;   -9.046; 7619.060
506.849; 6373.557;  -10.416; 8733.969
507.436; 6840.140;  -10.305; 9790.121
508.023; 7330.351;   -5.496; 9985.472
508.610; 7594.420;   -7.856;10434.618
509.197; 8226.296;  -10.097;11198.435
509.784; 9548.090;  -10.886;12391.194
510.371;10484.392;   -9.315;13603.713
510.958;11236.374;   -9.936;14426.586
511.545;12058.588;   -9.326;15243.775
512.132;12874.121;  -10.075;15945.876
512.719;13435.675;   -7.796;16340.369
513.305;14265.517;  -10.606;18011.766
513.892;15103.856;  -11.486;19754.971
514.479;16597.752;   -9.126;20967.805
515.066;18038.053;   -6.026;22299.793
515.652;19092.162;   -8.466;22908.660
516.239;20052.717;  -10.886;23798.875
516.825;21063.271;  -11.496;25567.275
517.412;22168.150;   -5.796;28154.959
517.998;23002.955;  -10.506;28344.111
518.585;22956.471;  -10.076;27134.219
519.171;23067.041;   -8.315;27268.576
519.758;24219.295;   -8.596;28964.129
520.344;26119.803;   -8.466;30664.494
520.930;26426.689;  -11.006;32550.605
521.516;27953.842;  -10.495;35422.895
522.103;30338.020;   -5.526;38280.004
522.689;31123.885;   -8.746;37835.117
523.275;30836.160;  -11.376;37288.613
523.861;31361.150;  -11.156;37281.395
524.447;31936.785;   -8.135;37846.949
525.033;31142.430;   -7.896;38321.949
525.619;31196.486;  -12.476;38579.285
526.205;31828.756;   -9.516;40622.875
526.791;32299.635;   -6.926;42258.836
527.377;30587.135;   -8.346;42966.902
527.963;33377.730;   -8.717;42018.949
528.549;35286.277;  -11.016;42476.828
529.135;36000.555;   -8.536;41854.852
529.721;36261.133;   -9.666;41237.711
530.306;35751.840;  -10.066;41259.445
530.892;35928.426;  -11.356;41506.047
531.478;37002.922;   -6.596;43559.613
532.063;39055.996;   -8.836;47695.563
532.649;39058.641;  -10.047;50808.324
533.235;40285.930;   -9.746;51787.500
533.820;41811.188;   -6.566;52145.035
534.406;42421.926;  -10.817;51133.488
534.991;41586.449;   -9.416;49996.805
535.576;40292.871;   -9.036;48882.852
536.162;40521.355;   -6.156;46942.285
536.747;41419.629;  -11.607;45711.746
537.333;44082.473;  -11.787;48510.180
537.918;46045.199;  -12.437;50439.891
538.503;43400.371;   -7.196;50863.711
539.088;38347.609;  -10.556;50906.922
539.673;36038.258;   -8.767;52621.965
540.259;36035.848;  -10.026;52368.094
540.844;36491.473;   -7.416;50879.109
541.429;40072.840;   -9.467;52077.777
542.014;45753.414;   -9.527;52716.695
542.599;47198.324;   -9.946;52363.281
543.184;44481.332;   -7.927;53187.137
543.769;45298.652;   -9.297;54697.605
544.354;45132.266;  -10.127;53913.914
544.938;44235.234;   -9.267;49680.164
545.523;46258.961;   -6.506;47386.277
546.108;48672.453;   -9.787;49151.949
546.693;50763.254;  -11.587;51384.637
547.278;50516.984;  -10.986;51853.254
547.862;46990.242;   -8.206;51173.750
548.447;42296.207;  -10.067;51691.395
549.031;41944.789;   -9.637;52456.703
549.616;46529.609;   -9.926;52714.516
550.201;45706.742;   -6.347;52414.598
550.785;46367.359;   -7.917;52355.059
551.370;46068.359;  -10.867;54589.453
551.954;46239.367;   -9.047;58267.348
552.538;47572.676;   -7.827;59062.176
553.123;45948.328;  -10.287;58115.285
553.707;43674.625;  -12.178;56556.285
554.291;44441.238;   -8.717;56201.668
554.876;46213.059;   -7.457;55335.762
555.460;46864.270;  -10.387;54155.703
556.044;48530.645;   -9.618;53721.484
556.628;46833.531;  -11.567;53731.016
557.212;45280.270;   -8.097;54312.531
557.796;43206.109;  -11.077;53797.773
558.380;43431.211;  -11.108;56145.984
558.964;44851.043;   -9.057;57277.930
559.548;45926.270;   -6.977;56459.641
560.132;43995.820;  -11.457;54434.543
560.716;42743.102;  -11.378;54800.617
561.300;43354.957;   -9.577;57606.945
561.884;44517.805;   -7.127;58972.445
562.467;43500.684;   -7.118;57327.570
563.051;42654.254;  -13.358;54962.434
563.635;42659.172;  -10.178;52594.473
564.219;43318.043;   -7.837;50610.410
564.802;44296.426;  -11.398;49551.180
565.386;44351.074;  -12.788;48370.953
565.969;43843.504;   -9.077;48178.871
566.553;43039.078;   -6.207;49957.305
567.136;43217.402;   -8.568;50369.594
567.720;39590.094;  -11.868;49492.004
568.303;38192.688;   -8.268;50616.352
568.887;38117.867;   -8.698;50727.148
569.470;38240.625;   -6.808;51698.379
570.053;37186.082;  -13.188;52122.078
570.637;35927.898;  -12.037;52536.438
571.220;35408.750;   -8.577;51186.098
571.803;35241.820;   -8.498;51032.762
572.386;37095.340;  -10.498;49609.887
572.969;39957.129;   -9.388;48285.926
573.552;38993.707;   -8.338;47624.285
574.135;37967.961;   -8.518;45498.641
574.718;35093.574;  -13.628;41970.434
575.301;33997.570;  -10.893;41447.137
575.884;32901.570;   -8.158;40923.836
576.467;33905.777;  -10.328;45267.723
577.050;36183.852;  -13.058;48175.543
577.633;37998.113;   -9.458;47729.328
578.216;36947.883;   -8.928;47579.793
578.799;35612.082;   -9.358;47820.996
579.381;33876.781;  -11.388;48115.551
579.964;32093.539;  -11.718;47333.766
580.547;33503.883;   -8.588;46668.969
581.129;34496.309;   -8.859;44466.141
581.712;35236.406;  -10.729;44164.922
582.294;36166.051;  -11.118;46477.855
582.877;36235.227;   -5.218;48244.254
583.459;34293.063;   -8.679;47437.895
584.042;32651.793;  -10.709;46943.219
584.624;33068.063;  -11.669;46792.227
585.206;32631.531;   -8.218;46557.250
585.789;32790.969;  -10.569;45793.773
586.371;35456.301;  -11.859;43836.391
586.953;36406.141;  -10.719;42972.492
587.536;37488.770;   -7.198;42487.211
588.118;37468.238;   -8.720;42086.414
588.700;33507.727;  -10.439;43389.930
589.282;32517.896;   -9.198;43646.039
589.864;33628.750;   -9.199;43438.109
590.446;34990.809;  -11.319;43151.926
591.028;34670.660;  -11.159;42781.867
591.610;33621.930;  -11.779;42839.098
592.192;30831.166;   -7.668;42820.402
592.774;29138.695;  -11.949;40724.277
593.356;28009.768;  -12.129;39874.789
593.937;27734.129;  -10.669;39980.648
594.519;29804.313;   -6.509;42069.633
595.101;31929.279;  -10.849;42976.031
595.683;32284.904;  -11.679;44084.441
596.264;33459.461;   -9.049;43478.797
596.846;32190.322;   -8.849;43803.672
597.427;31394.387;   -9.570;42986.934
598.009;32913.492;  -12.620;42832.219
598.591;33164.809;  -10.039;42580.086
599.172;32538.398;  -10.369;43061.805
599.753;32554.533;   -9.140;41691.469
600.335;34566.477;  -11.430;40692.520
600.916;33239.602;   -9.939;39982.422
601.498;30457.973;   -8.479;40318.617
602.079;29149.869;  -10.920;40670.609
602.660;29253.041;  -11.480;41450.898
603.241;30240.932;  -11.699;41137.738
603.823;29159.936;   -9.579;38868.797
604.404;29043.160;  -10.620;38182.785
604.985;30372.053;  -10.450;38078.047
605.566;29466.916;   -9.129;38056.633
606.147;29369.740;   -7.510;37020.418
606.728;31460.270;  -10.660;37883.359
607.309;30507.314;  -11.740;38748.273
607.890;29787.830;   -9.759;38850.230
608.471;29609.631;   -8.250;37457.918
609.051;29058.965;   -9.240;36066.457
609.632;28219.576;  -12.120;35991.074
610.213;29040.176;   -9.110;37402.641
610.794;29475.500;   -8.030;38383.363
611.374;28831.359;   -8.110;40562.387
611.955;29349.668;  -13.560;38533.727
612.536;30982.152;  -11.400;36951.789
613.116;30423.871;   -8.070;37197.891
613.697;30578.855;  -10.830;38411.125
614.277;29185.646;  -11.641;38673.938
614.858;30047.053;  -13.310;37075.863
615.438;29440.555;   -7.460;35092.906
616.019;26636.887;   -7.601;33666.301
616.599;27038.100;  -12.020;34189.023
617.179;29107.900;  -11.780;36952.047
617.760;30056.254;   -8.570;39582.574
618.340;31206.496;  -11.471;38943.977
618.920;32596.717;  -11.170;37594.156
619.500;32263.162;  -11.071;37866.938
620.080;31486.744;   -7.750;37869.043
620.660;32368.865;  -12.711;36868.617
621.241;33101.941;  -10.211;36352.309
621.821;33127.309;  -10.961;35459.520
622.401;32817.758;   -7.720;35207.414
622.980;31939.348;   -8.981;35980.422
623.560;30424.943;   -9.331;37351.328
624.140;29718.578;   -9.850;34388.582
624.720;24976.859;   -7.451;32368.764
625.300;21366.111;   -9.070;32638.629
625.880;24488.139;  -12.601;34599.035
626.459;28166.936;  -11.751;36831.738
627.039;31203.791;   -9.281;38299.098
627.619;31100.750;   -8.801;38289.574
628.198;29362.951;  -12.071;37220.695
628.778;28670.404;   -9.461;37632.563
629.357;29605.777;   -8.491;38003.012
629.937;29545.094;   -9.721;38402.039
630.516;28893.676;   -9.951;37868.801
631.096;28783.043;  -11.731;35760.410
631.675;31700.602;   -8.572;35225.219
632.254;36808.211;  -11.282;35130.289
632.834;36207.141;  -13.322;35794.570
633.413;34271.180;  -10.301;35788.922
633.992;31251.154;   -8.582;34532.863
634.571;32577.172;   -8.352;33590.113
635.151;35246.008;  -11.912;34943.863
635.730;33361.344;  -10.511;35352.523
636.309;29984.686;   -7.731;35366.605
636.888;27693.688;   -9.952;36165.637
637.467;28426.727;  -11.672;37515.902
638.046;30554.676;   -8.901;39288.695
638.625;33662.855;   -7.912;38279.699
639.204;33371.930;  -10.022;37741.598
639.782;31329.057;  -12.252;38364.551
640.361;27710.842;  -10.041;36740.621
640.940;24904.689;  -11.161;34950.082
641.519;25370.877;   -9.701;34137.398
642.097;27690.113;  -11.271;35654.258
642.676;30574.881;   -8.651;35637.957
643.255;31883.975;   -8.711;36567.074
643.833;31048.063;   -9.581;37809.434
644.412;31361.436;  -13.711;37337.293
644.990;30557.330;  -11.811;37018.531
645.569;30189.418;   -9.411;36518.469
646.147;29123.207;  -10.291;36186.430
646.726;28505.305;  -12.401;36267.688
647.304;29919.996;  -10.411;36647.625
647.882;31732.863;   -9.651;39286.742
648.461;33047.848;   -9.631;39157.703
649.039;31574.102;  -11.881;35412.883
649.617;30986.457;   -9.661;34744.918
650.195;30969.352;   -9.301;35403.098
650.773;30028.578;  -10.511;35053.797
651.352;27547.514;  -11.521;33756.816
651.930;25288.359;  -12.211;31868.773
652.508;23654.584;   -9.171;33121.551
653.086;27210.717;   -9.371;33564.793
653.663;30274.012;  -13.161;34054.668
654.241;29136.887;  -13.031;35693.309
654.819;30870.051;   -9.371;36422.906
655.397;30784.168;  -10.511;38213.484
655.975;30575.908;  -10.371;39507.625
656.553;30815.209;  -10.051;39498.223
657.130;29010.271;  -10.061;40395.480
657.708;28329.789;   -9.561;39242.020
658.286;28235.297;  -11.511;38920.020
658.863;29293.447;  -10.261;40202.898
659.441;31895.283;   -7.531;39677.938
660.018;31090.627;   -9.501;40413.355
660.596;29997.311;  -13.301;39931.414
661.173;32096.230;  -11.211;39604.531
661.750;32335.504;   -9.951;39700.070
662.328;31459.475;   -9.390;39292.809
662.905;30784.781;  -11.330;38235.648
663.482;26473.406;   -9.050;36212.305
664.060;24519.027;   -8.240;35944.945
664.637;27305.248;  -10.050;35170.785
665.214;29198.734;  -11.760;34197.523
665.791;30922.623;  -10.530;34549.520
666.368;29489.021;   -9.690;35118.578
666.945;29888.131;   -9.320;36019.418
667.522;31408.748;  -11.860;36048.438
668.099;31982.908;  -10.770;36243.914
668.676;31458.885;   -6.260;35958.875
669.253;29618.684;   -7.000;37384.730
669.830;29814.775;  -10.190;36779.629
670.407;29499.361;   -9.550;35231.289
670.984;29715.840;   -9.260;35544.270
671.560;29786.129;   -9.280;35466.867
672.137;28479.740;  -11.810;34280.863
672.714;29264.801;  -11.490;34632.863
673.290;29474.494;   -7.740;35135.422
673.867;29787.787;  -10.660;36114.480
674.443;30187.971;  -12.230;36152.859
675.020;28448.660;  -10.450;35327.238
675.596;29551.514;   -9.260;35795.176
676.173;29985.045;  -10.780;35430.355
676.749;29601.961;  -13.690;33549.516
677.326;30046.510;  -11.980;32210.012
677.902;30365.564;   -8.630;32068.871
678.478;29550.898;  -10.730;32583.891
679.054;29245.402;  -10.520;32088.928
679.631;29961.277;  -11.920;30978.848
680.207;30760.449;   -7.490;33160.887
680.783;31992.504;   -9.860;35570.363
681.359;31236.873;  -13.380;36125.184
681.935;30381.465;  -12.480;35240.922
682.511;29232.541;   -7.900;34429.961
683.087;29252.303;   -7.710;34463.680
683.663;29347.148;  -11.480;34648.898
684.239;28423.330;  -14.090;34546.457
684.815;27685.461;   -7.560;35586.375
685.390;28097.918;   -9.910;35821.895
685.966;28686.734;  -11.159;35085.871
686.542;31353.393;  -11.169;34198.230
687.118;33499.242;   -5.959;32847.707
687.693;33662.250;  -10.329;32794.027
688.269;32816.578;  -12.059;33072.367
688.844;30438.586;  -10.909;33141.664
689.420;28251.027;   -8.019;33965.742
689.995;26143.400;   -8.399;34655.523
690.571;25029.678;  -10.949;33576.742
691.146;25555.184;   -9.619;32657.219
691.722;24951.553;   -8.999;32526.979
692.297;25051.547;  -11.589;33014.617
692.872;27161.072;  -11.739;34012.254
693.448;26606.945;  -11.059;34237.434
694.023;25774.625;  -10.139;34142.672
694.598;27975.822;   -9.029;34132.031
695.173;28108.389;  -13.319;34205.250
695.748;27331.734;  -10.169;32882.488
696.323;26960.957;   -8.339;32864.906
696.898;26863.381;   -8.169;33170.004
697.473;26818.359;  -12.309;32432.984
698.048;26721.053;  -10.989;31649.303
698.623;27230.803;   -9.329;30778.141
699.198;29388.152;   -9.849;31140.119
699.773;30183.172;  -12.329;31764.299
700.348;28494.990;  -10.389;31780.816
700.922;28520.127;   -9.269;32046.375
701.497;28976.600;   -9.329;32603.574
702.072;29212.307;  -10.789;34799.871
702.646;28445.844;  -10.839;35793.172
703.221;26396.359;   -9.099;35201.590
703.795;28249.111;  -10.939;34764.527
704.370;28727.229;  -12.859;34307.367
704.944;29185.273;  -11.559;33509.887
705.519;30354.283;   -7.939;31388.584
706.093;31359.762;  -10.499;31340.104
706.668;31284.363;  -11.289;32630.281
707.242;29860.582;  -11.509;32728.779
707.816;28463.598;   -9.639;32947.238
708.390;27210.189;  -11.429;33277.855
708.965;28318.268;  -11.869;33834.336
709.539;29071.145;  -11.689;33709.273
710.113;29397.930;  -10.478;33044.313
710.687;28494.873;  -10.228;31953.992
711.261;26245.316;  -13.698;30505.949
711.835;26007.117;  -13.378;30262.369
712.409;27136.777;   -9.698;31254.447
712.983;28766.080;  -11.898;32754.986
713.557;29525.021;  -15.138;34018.824
714.131;29284.115;  -14.098;34579.625
714.704;28608.787;   -9.958;33890.262
715.278;26276.158;  -10.028;33531.102
715.852;25557.186;  -11.148;33601.660
716.425;26191.279;   -9.068;33515.117
716.999;26608.553;  -10.038;33185.555
717.573;27757.574;   -9.798;33905.996
718.146;29050.023;  -12.378;35199.293
718.720;28660.855;  -11.918;35060.551
719.293;28034.979;   -8.088;34973.230
719.867;30849.344;  -10.888;36394.449
720.440;30833.686;  -11.938;36663.008
721.013;29382.148;  -12.818;35102.426
721.587;27991.762;  -10.298;33985.266
722.160;26119.158;  -10.048;33524.965
722.733;25113.889;  -12.108;32987.043
723.306;25949.098;  -10.818;33066.301
723.880;28113.146;   -8.908;33399.500
724.453;29894.297;   -9.878;33468.297
725.026;28914.248;  -11.188;33816.637
725.599;26305.342;  -11.678;32797.996
726.172;26709.205;   -9.618;33187.434
726.745;28081.359;   -8.258;35136.613
727.318;29775.092;  -12.978;35751.730
727.891;30457.975;  -12.148;35890.430
728.463;30222.236;   -8.968;34822.090
729.036;29090.625;  -10.188;32895.086
729.609;29442.389;  -11.788;31823.225
730.182;26018.328;  -11.788;31445.283
730.754;23457.711;  -10.268;32373.223
731.327;23526.100;   -9.998;33676.820
731.900;23671.496;  -12.228;33417.000
732.472;25200.785;  -13.848;31978.498
733.045;27401.186;   -8.698;30368.777
733.617;27304.723;  -10.607;30574.215
734.190;26725.895;  -11.507;31280.975
734.762;23727.063;  -13.647;31674.412
735.334;22106.982;   -9.767;31247.291
735.907;22685.857;   -9.897;29876.211
736.479;22376.439;  -11.637;29808.488
737.051;22087.625;   -9.567;30233.547
737.623;23708.188;   -8.187;31469.086
738.195;24932.574;  -11.187;31784.225
738.768;26429.197;  -12.337;32120.523
739.340;26125.652;  -12.227;32094.342
739.912;24863.139;  -11.057;31312.680
740.484;23837.566;  -10.207;31946.238
741.056;22927.006;  -10.047;32984.059
741.628;24751.666;  -13.627;33897.715
742.199;27190.088;   -7.177;33213.016
742.771;25494.578;  -10.797;31369.113
743.343;22904.559;  -11.997;31865.473
743.915;21647.775;  -12.867;32388.631
744.487;21912.209;   -7.617;31079.568
745.058;22138.367;   -9.557;30570.107
745.630;22731.264;   -9.877;29970.127
746.201;23596.008;  -14.177;29186.766
746.773;23884.293;   -9.237;28805.723
747.344;23779.031;   -9.847;29591.223
747.916;22533.074;  -11.657;31412.201
748.487;22440.123;  -10.587;32194.898
749.059;23855.523;   -8.707;32533.719
749.630;25136.975;  -10.537;32158.518
750.201;24205.619;  -11.687;30855.395
750.773;22299.434;  -11.647;28622.555
751.344;22226.074;   -7.147;28405.732
751.915;23178.764;   -9.757;28461.551
752.486;22280.234;  -12.427;27842.850
753.057;19969.971;  -12.227;27845.008
753.628;18919.623;  -10.417;27728.107
754.199;20257.471;  -11.767;27381.086
754.770;21448.410;  -11.187;25882.203
755.341;21343.322;  -10.507;25886.184
755.912;21604.326;   -9.387;26050.861
756.483;21020.809;  -10.647;26798.779
757.054;19161.242;  -11.837;27048.238
757.625;17848.332;  -12.716;26294.838
758.195;17520.736;   -9.666;26142.076
758.766;17159.227;   -8.656;26392.234
759.337;18142.771;  -12.856;26334.594
759.907;20179.219;  -13.366;27579.652
760.478;21074.131;   -8.576;28352.770
761.048;20389.605;  -10.526;27325.088
761.619;19587.023;  -11.116;26460.428
762.189;19525.561;  -12.136;26029.826
762.760;20478.752;   -9.456;26430.145
763.330;21642.643;   -7.136;26670.902
763.900;21012.404;  -11.786;26603.021
764.471;18171.379;  -11.546;25542.740
765.041;16769.592;   -8.096;24358.459
765.611;17042.695;   -8.876;23991.297
766.181;17696.135;  -12.196;24470.236
766.751;18423.758;  -11.636;24845.975
767.321;18131.314;  -10.156;24533.633
767.891;16179.859;  -11.766;24916.492
768.461;15636.603;  -14.936;24776.771
769.031;16076.204;  -12.356;24757.988
769.601;17827.348;   -7.526;24181.088
770.171;17980.709;  -10.766;23670.387
770.741;17240.357;  -13.176;22960.045
771.311;17420.010;  -10.616;22917.523
771.880;17662.943;   -9.576;23562.941
772.450;17041.969;  -10.336;24216.500
773.020;16916.723;  -13.516;24140.398
773.589;16556.320;  -13.466;24414.857
774.159;16168.080;   -8.686;23858.717
774.729;15852.323;   -9.476;22942.135
775.298;15364.616;  -13.666;22324.033
775.867;14873.248;  -11.716;21140.313
776.437;14749.380;   -9.906;20838.092
777.006;14408.158;  -12.166;20599.510
777.576;14431.892;  -12.356;20508.809
778.145;14713.839;  -11.646;20732.947
778.714;14605.551;   -8.226;21062.465
779.283;13763.495;   -9.556;20949.664
779.853;13429.501;  -14.116;20508.623
780.422;13937.843;  -11.506;20649.082
780.991;13468.712;   -9.556;21527.520
781.560;12420.481;   -9.095;22632.658
782.129;12286.191;  -12.135;23048.277
782.698;12245.015;  -10.865;23438.555
783.267;11891.055;   -9.335;23267.734
783.836;11817.173;  -11.045;22415.133
784.404;12682.111;  -13.865;20443.152
784.973;13041.104;  -13.095;19699.150
785.542;12918.413;  -11.575;19763.828
786.111;12866.941;   -9.705;20341.408
786.679;12531.777;  -12.105;20207.967
787.248;12307.898;  -12.455;19516.465
787.817;12010.795;  -11.535;18900.363
788.385;11521.579;   -9.765;17879.121
788.954;10880.537;  -14.005;17658.301
789.522;10473.865;  -11.955;17788.879
790.090;11081.802;  -10.135;18118.277
790.659;11426.824;  -10.975;18338.736
791.227;10783.409;  -13.375;18508.615
791.795;11284.526;  -12.375;17898.254
792.364;11695.921;  -10.725;17295.133
792.932;11920.871;   -9.715;16822.051
793.500;12088.321;  -12.675;17040.148
794.068;12351.689;  -13.495;17179.787
794.636;12521.866;  -10.885;16664.246
795.204;12023.286;  -11.045;16524.545
795.772;12024.185;  -13.175;17274.564
796.340;11546.070;  -12.445;17891.002
796.908;11402.727;   -9.735;17648.561
797.476;11410.399;   -9.815;17064.080
798.044;10985.953;  -13.985;16672.777
798.612;10085.477;  -13.115;17023.996
799.180; 9693.063;  -10.185;16561.615
799.747; 9593.529;   -9.055;15962.773
800.315; 9268.312;  -12.385;15296.992
800.883; 8921.887;  -15.035;14801.771
801.450; 8887.712;  -10.365;14534.430
802.018; 8894.579;   -9.855;14173.248
802.585; 8892.333;  -11.905;14029.547
803.153; 8963.094;  -11.585;13836.846
803.720; 9004.286;   -9.095;13567.324
804.287; 8729.815;   -9.135;13360.622
804.855; 8278.168;  -11.604;13681.981
805.422; 8122.411;  -11.794;13536.560
805.989; 8078.120;  -10.734;13355.958
806.556; 8255.395;  -10.444;13747.896
807.124; 8593.714;  -12.764;13987.376
807.691; 8523.833;  -12.964;14038.674
808.258; 8304.010;  -11.134;14120.152
808.825; 7965.618;   -9.854;13860.111
809.392; 8028.285;  -10.504;13268.790
809.959; 7611.440;  -13.054;12680.389
810.526; 7229.590;   -8.294;12427.308
811.093; 7257.566;   -8.394;12030.105
811.659; 7798.236;  -12.304;11653.664
812.226; 8191.975;  -13.944;11637.183
812.793; 7851.966;  -10.484;11611.521
813.360; 7214.771;  -10.144;11885.181
813.926; 6791.363;  -11.684;12770.539
814.493; 6521.245;  -13.644;12677.638
815.060; 6194.072;   -9.724;11974.336
815.626; 6288.563;   -9.854;11594.715
816.193; 6759.213;  -13.254;11579.474
816.759; 6802.959;  -13.204;11666.972
817.325; 6923.422;   -9.434;11325.530
817.892; 7312.208;  -10.134;11105.369
818.458; 7694.985;  -13.474;10843.928
819.024; 7340.143;  -11.854;10714.406
819.591; 7021.849;  -10.244;10469.165
820.157; 6751.625;  -10.704;10235.523
820.723; 6226.025;  -12.324;10847.563
821.289; 5991.755;   -9.444;11040.980
821.855; 5950.987;   -8.374;10357.100
822.421; 5983.464;  -10.234; 9978.918
822.987; 5948.644;  -13.294; 9754.177
823.553; 5616.844;  -10.884;10065.755
824.119; 5427.838;   -8.884;10036.294
824.685; 5501.607;   -6.784;10029.192
825.251; 5578.886;  -12.004;10199.230
825.816; 5542.526;  -11.474; 9820.189
826.382; 5374.909;   -9.174; 9297.248
826.948; 5611.117;   -9.214; 9381.347
827.513; 6010.513;  -10.774; 9450.726
828.079; 5790.727;  -11.924; 9472.444
828.645; 5209.785;  -10.543; 9292.643
829.210; 5144.095;  -10.533; 9065.341
829.776; 5116.019;  -10.753; 9132.620
830.341; 4979.678;  -10.173; 9092.878
830.906; 5166.598;  -10.743; 9078.557
831.472; 5550.989;  -11.113; 8534.535
832.037; 5342.395;  -10.603; 8677.874
832.602; 4759.395;  -13.323; 8628.692
833.167; 4384.877;  -10.823; 8879.031
833.733; 4283.188;  -10.113; 9189.790
834.298; 4375.267;  -13.583; 9052.608
834.863; 4385.033;  -12.703; 8895.087
835.428; 4342.729;  -10.523; 8824.266
835.993; 4258.499;   -6.963; 8845.385
836.558; 4165.242;  -10.763; 8888.563
837.123; 4295.442;   -9.903; 8966.582
837.688; 4482.006;   -9.913; 8617.860
838.253; 4685.849;  -10.283; 8590.699
838.817; 4903.715;  -12.963; 8443.797
839.382; 4842.188;  -14.243; 8799.356
839.947; 4548.777;  -10.733; 8810.595
840.511; 4255.908;   -9.383; 8796.394
841.076; 3899.711;  -12.563; 8347.231
841.641; 3931.213;  -12.953; 8224.330
842.205; 3982.114;   -7.043; 8223.349
842.770; 4100.026;   -8.163; 8622.107
843.334; 4374.161;  -12.503; 8410.386
843.898; 4378.805;  -11.693; 8337.465
844.463; 4388.005;  -10.203; 8506.283
845.027; 4107.941;   -9.533; 8280.962
845.591; 3883.432;  -13.443; 8231.141
846.156; 3914.993;  -13.143; 7969.179
846.720; 3816.393;   -9.433; 7768.278
847.284; 3693.653;  -11.033; 7630.957
847.848; 3519.901;  -10.403; 7472.395
848.412; 3428.221;  -11.553; 7437.394
848.976; 3489.114;   -8.393; 7674.592
849.540; 3435.488;   -8.713; 7836.011
850.104; 3501.095;  -12.463; 7913.669
850.668; 3837.022;  -12.973; 7694.508
851.232; 3961.438;  -10.793; 7756.887
851.796; 3792.480;  -10.662; 7926.545
852.359; 3485.552;  -13.082; 7827.844
852.923; 3331.370;  -12.192; 7641.163
853.487; 3171.382;  -11.912; 7342.501
854.050; 3111.400;  -10.892; 7042.820
854.614; 3241.786;  -13.992; 7151.338
855.177; 3348.251;  -11.732; 7105.077
855.741; 3394.503;   -8.962; 6989.675
856.304; 3279.607;   -9.442; 6596.634
856.868; 3203.150;  -14.192; 6356.272
857.431; 3308.262;  -12.702; 6468.571
857.995; 3401.444;   -9.942; 6373.210
858.558; 3420.767;   -9.112; 6324.448
859.121; 3183.051;  -12.932; 6408.327
859.684; 3079.416;  -13.442; 6347.886
860.247; 3217.430;  -10.632; 6321.264
860.810; 3197.803;  -11.272; 6301.903
861.374; 2947.607;   -9.832; 6607.881
861.937; 2686.320;  -11.762; 6408.200
862.500; 2653.132;   -9.722; 6572.639
863.062; 2800.877;  -10.512; 6387.297
863.625; 2976.134;  -11.232; 6190.836
864.188; 3140.751;  -14.112; 5807.254
864.751; 3191.748;  -11.302; 5682.413
865.314; 3077.029;  -10.112; 5547.492
865.876; 2895.376;  -12.182; 5500.150
866.439; 2906.948;  -10.722; 5415.909
867.002; 2859.303;   -9.252; 5501.567
867.564; 2636.268;   -9.572; 5413.946
868.127; 2427.240;  -13.142; 5160.325
868.689; 2349.077;  -12.902; 5133.183
869.252; 2279.516;   -9.732; 5252.382
869.814; 2196.166;   -9.432; 5297.141
870.377; 2207.573;  -11.552; 5390.919
870.939; 2272.117;   -9.052; 5599.898
871.501; 2324.596;  -10.982; 5248.336
872.063; 2327.773;  -12.292; 4854.235
872.626; 2292.500;  -14.912; 4817.074
873.188; 2303.682;  -13.112; 4987.732
873.750; 2260.864;  -13.442; 4868.651
874.312; 2162.023;   -9.402; 4779.330
874.874; 2073.811;  -11.062; 4866.348
875.436; 1995.134;  -13.931; 4718.887
875.998; 1988.875;   -9.561; 4660.005
876.560; 1996.316;  -11.321; 4462.964
877.122; 1931.235;  -12.221; 4145.042
877.683; 1834.375;  -12.191; 4056.481
878.245; 1785.909;  -12.101; 3950.740
878.807; 1881.183;   -8.971; 4058.958
879.369; 2004.391;  -12.071; 3954.677
879.930; 1983.353;  -14.621; 3941.495
880.492; 1865.139;  -10.311; 4067.014
881.053; 1610.760;  -10.901; 3859.633
881.615; 1203.853;  -14.411; 3776.071
882.176;  911.786;  -13.761; 3734.750
882.738;  822.486;   -9.181; 3678.489
883.299;  843.285;  -11.791; 3405.407
883.860;  901.877;  -13.121; 3351.106
884.422;  968.591;  -11.211; 3394.044
884.983;  993.834;  -10.091; 3166.443
885.544;  968.340;   -8.461; 3189.802
886.105;  939.850;  -12.361; 3160.360
886.666;  912.807;  -14.141; 3093.059
887.227;  885.093;  -11.361; 2941.957
887.788;  839.748;  -11.401; 2974.836
888.349;  794.131;  -13.791; 2721.214
888.910;  806.818;  -13.191; 2696.493
889.471;  820.133;   -9.881; 2560.172
890.032;  811.201;   -9.881; 2558.190
890.593;  791.262;  -10.371; 2567.669
891.153;  767.660;  -13.301; 2460.307
891.714;  724.944;  -11.431; 2372.046
892.275;  691.609;  -11.291; 2309.505
892.835;  656.617;  -11.471; 2382.543
893.396;  602.373;  -11.541; 2295.502
893.956;  553.160;  -11.181; 2162.420
894.517;  519.626;  -11.741; 2125.439
895.077;  514.127;  -11.671; 2086.978
895.638;  514.992;  -11.311; 2126.316
896.198;  488.041;   -9.831; 1838.275
896.758;  445.988;   -8.421; 1892.813
897.319;  413.412;  -12.351; 1792.232
897.879;  396.725;  -13.511; 1762.751
898.439;  372.301;  -12.001; 1661.149
898.999;  346.900;  -10.180; 1781.468
899.559;  338.612;  -12.030; 1703.347
900.119;  334.470;  -15.710; 1537.525
900.679;  332.878;   -8.900; 1638.384
901.239;  320.264;   -8.340; 1527.902
901.799;  308.828;  -13.910; 1456.441
902.359;  301.831;  -13.460; 1357.140
902.919;  296.302;  -11.490; 1331.118
903.479;  282.611;  -12.110; 1317.257
904.038;  261.185;  -11.720; 1262.595
904.598;  245.426;  -13.610; 1152.034
905.158;  240.804;  -11.040; 1240.893
905.717;  233.389;  -10.900; 1233.691
906.277;  223.075;  -15.080; 1217.330
906.836;  212.852;  -13.380; 1222.408
907.396;  205.827;  -10.780; 1193.047
907.955;  199.366;   -8.500; 1182.526
908.515;  193.899;  -12.760; 1099.364
909.074;  188.452;  -11.900; 1092.863
909.633;  181.951;   -8.950; 1069.121
910.192;  177.132;   -8.770; 1196.460
910.752;  171.722;  -12.390; 1029.960
911.311;  166.528;  -13.680; 1009.780
911.870;  163.330;  -12.370;  971.460
912.429;  161.175;  -10.900; 1094.080
912.988;  158.567;  -11.690; 1081.060
913.547;  153.190;  -13.240;  940.380
914.106;  150.561;  -11.990;  999.420
914.665;  148.835;   -9.990;  984.020
915.224;  148.379;  -12.880; 1035.760
915.782;  146.657;  -12.350;  922.560
916.341;  148.329;   -9.110; 1049.840
916.900;  144.642;   -9.270;  925.260
917.458;  142.822;  -13.240;  884.220
918.017;  142.270;  -13.550;  942.600
918.576;  141.928;  -12.320;  904.440
919.134;  140.356;  -11.490;  837.980
919.693;  137.945;  -13.670;  893.060
920.251;  136.549;  -15.470;  876.500
920.809;  136.060;  -11.290;  839.580
921.368;  135.283;  -10.210;  885.360
921.926;  134.182;  -12.140;  842.940
922.484;  133.127;  -13.080;  903.360
923.042;  133.132;  -11.720;  880.340
923.601;  135.316;   -7.480;  998.680
924.159;  133.417;  -11.570;  935.560
924.717;  129.930;  -13.840;  841.080
925.275;  130.994;  -10.640;  903.240
925.833;  130.689;  -11.540;  779.320
926.391;  131.835;  -12.960;  938.380
926.949;  129.805;  -14.130;  857.680
927.506;  130.774;  -11.750;  903.500
928.064;  129.643;  -10.250;  877.580
928.622;  128.847;  -13.030;  880.100
929.180;  128.752;  -13.400;  814.180
929.737;  130.026;  -10.700;  808.540
930.295;  132.966;  -10.070;  928.480
930.853;  134.937;  -11.960;  849.100
931.410;  135.965;  -13.120;  821.120
931.968;  135.734;  -10.770;  940.660
932.525;  135.120;  -10.680;  909.380
933.082;  134.289;  -13.130;  811.440
933.640;  135.655;  -13.210;  925.900
934.197;  134.252;  -11.060;  886.360
934.754;  135.250;   -9.580;  897.780
935.312;  138.080;  -14.000;  863.340
935.869;  141.821;  -10.710; 1012.980
936.426;  141.701;   -9.860;  872.800
936.983;  142.939;   -9.710;  889.020
937.540;  141.943;  -13.990;  838.280
938.097;  140.095;  -14.040;  940.120
938.654;  142.164;  -10.310;  898.860
939.211;  144.842;  -10.560;  952.480
939.768;  148.204;  -13.900;  915.420
940.324;  152.167;  -14.760;  904.200
940.881;  152.673;  -10.370;  878.500
941.438;  153.015;   -8.260; 1021.200
941.995;  148.522;  -12.540;  992.560
942.551;  145.968;  -14.670;  875.620
943.108;  146.612;  -10.450;  937.920
943.664;  148.446;  -10.750;  869.340
944.221;  151.811;  -11.550; 1088.140
944.777;  150.290;  -14.770;  869.680
945.334;  152.269;  -12.820;  884.840
945.890;  153.916;  -10.130;  946.480
946.446;  153.091;  -13.470;  947.020
947.003;  154.836;  -12.120;  964.940
947.559;  156.758;   -9.980; 1063.040
948.115;  155.636;   -9.080; 1026.540
948.671;  153.998;  -10.830;  967.300
949.227;  150.838;  -12.440;  859.560
949.783;  148.225;  -12.910;  858.900
950.339;  150.589;  -10.270;  991.000
950.895;  150.132;  -13.630; 1023.840
951.451;  149.778;  -15.100;  925.280
952.007;  151.976;  -11.330;  998.540
952.563;  153.056;  -10.580;  937.780
953.118;  152.928;  -13.440;  904.940
953.674;  151.478;  -12.710;  935.780
954.230;  151.728;  -10.350;  949.640
954.785;  148.892;   -9.190;  936.640
955.341;  145.526;  -11.200;  998.160
955.897;  143.437;  -16.560;  834.660
956.452;  145.224;  -12.570;  953.840
957.008;  144.057;   -7.970; 1083.640
957.563;  141.160;  -11.940; 1009.540
958.118;  136.718;  -13.450;  877.700
958.674;  137.098;  -12.030;  946.780
959.229;  138.636;   -9.410; 1013.980
959.784;  136.295;  -12.000;  832.400
960.339;  134.120;  -14.780; 1001.280
960.894;  131.471;   -9.860;  963.760
961.449;  126.921;   -9.970;  859.960
962.004;  127.318;  -10.900; 1212.840
962.559;  123.580;  -13.150;  860.140
963.114;  121.021;  -13.740;  742.480
963.669;  120.732;   -9.820;  915.500
964.224;  119.268;  -13.890;  874.340
964.779;  118.651;  -12.600;  828.420
965.334;  119.851;  -10.950; 1017.860
965.888;  119.375;  -11.170;  875.360
966.443;  121.393;  -12.540;  972.380
966.998;  120.063;  -15.780;  819.460
967.552;  119.911;   -9.760;  908.380
968.107;  116.108;   -9.060;  868.300
968.661;  116.911;  -11.950;  922.440
969.216;  117.614;  -12.800;  856.280
969.770;  118.040;  -11.210;  917.200
970.324;  116.793;  -11.610;  923.140
970.879;  113.348;  -11.370;  947.180
971.433;  110.443;  -12.540;  952.720
971.987;  105.122;  -11.320;  895.340
972.541;  103.369;  -10.720;  917.100
973.095;  102.256;   -9.680; 1009.460
973.649;  100.847;  -11.440;  809.480
974.203;  100.125;  -11.210;  829.040
974.757;  100.396;  -10.240;  855.220
975.311;   99.471;  -13.720;  872.600
975.865;   99.473;  -13.770;  881.820
976.419;   97.807;  -11.690;  857.400
976.973;   98.143;   -9.510;  849.620
977.526;  100.182;  -12.620;  949.920
978.080;   99.626;  -12.010;  796.780
978.634;  101.753;  -10.170;  921.320
979.187;   98.867;   -9.020;  905.400
979.741;   95.559;   -9.820; 1018.380
980.294;   90.138;  -14.870;  789.160
980.848;   89.681;  -12.380;  717.220
981.401;   90.750;  -10.350;  816.540
981.955;   92.999;  -13.720;  844.300
982.508;   91.145;  -11.490;  746.340
983.061;   91.579;  -10.000;  915.260
983.615;   88.546;  -11.480;  798.800
984.168;   84.832;  -13.220;  770.080
984.721;   84.272;  -13.960;  880.760
985.274;   83.686;  -10.870;  867.500
985.827;   83.058;   -9.790;  834.220
986.380;   79.989;  -13.120;  721.340
986.933;   79.151;  -12.450;  864.800
987.486;   77.393;  -10.210;  861.920
988.039;   76.141;   -8.430;  863.100
988.591;   74.720;  -10.520;  893.260
989.144;   71.559;  -14.860;  737.260
989.697;   71.376;  -13.080;  758.740
990.250;   72.526;  -10.150;  858.100
990.802;   70.913;  -13.430;  755.860
991.355;   72.494;  -12.750;  974.880
991.907;   70.104;  -12.040;  864.320
992.460;   67.714;  -11.330;  753.760
993.012;   65.971;  -13.610;  749.540
993.565;   64.974;  -13.460;  711.360
994.117;   67.044;   -9.360;  950.780
994.669;   63.891;  -11.300;  701.320
995.221;   61.824;  -13.540;  791.920
995.774;   60.248;  -13.430;  787.580
996.326;   58.908;  -12.520;  740.220
996.878;   58.000;  -10.950;  838.420
997.430;   56.335;  -14.300;  699.860
997.982;   54.799;  -13.760;  750.140
998.534;   54.654;  -11.530;  739.060
999.086;   53.478;  -10.310;  738.220
999.638;   51.546;  -12.530;  661.380
1000.190;   50.581;  -11.840;  699.320
1000.741;   51.050;  -10.260;  742.700
1001.293;   50.511;   -8.860;  686.020
1001.845;   48.860;  -13.700;  676.640
1002.396;   49.283;  -12.100;  743.400
1002.948;   49.555;  -12.760;  737.400
1003.500;   48.027;  -10.380;  723.780
1004.051;   47.935;  -11.900;  907.580
1004.603;   45.676;  -12.250;  791.820
1005.154;   43.162;  -13.210;  608.980
1005.705;   41.985;  -10.950;  723.960
1006.257;   41.015;  -13.880;  707.220
1006.808;   40.831;  -12.840;  685.460
1007.359;   40.619;  -10.570;  763.240
1007.910;   38.859;   -9.620;  646.640
1008.461;   38.376;  -13.630;  732.940
1009.013;   37.713;  -17.200;  588.340
1009.564;   39.544;  -10.200;  793.520
1010.115;   36.910;  -12.570;  597.040
1010.665;   35.827;  -15.150;  602.160
1011.216;   36.444;  -14.480;  667.920
1011.767;   36.872;  -11.340;  697.920
1012.318;   36.380;   -9.780;  736.980
1012.869;   35.085;  -12.380;  679.000
1013.419;   34.296;  -15.560;  603.120
1013.970;   34.600;  -11.010;  666.640
1014.521;   34.340;  -11.610;  620.620
1015.071;   35.037;  -13.450;  670.380
1015.622;   33.968;  -13.870;  635.460
1016.172;   33.759;  -11.610;  596.820
1016.723;   33.280;  -12.120;  614.380
1017.273;   32.860;  -13.620;  604.160
1017.823;   33.381;  -14.140;  650.340
1018.374;   31.762;  -12.800;  611.760
1018.924;   32.648;  -12.340;  716.880
1019.474;   32.727;  -11.410;  718.880
1020.024;   30.747;  -14.770;  657.580
1020.574;   32.338;   -9.780;  726.160
1021.124;   32.331;   -8.560;  673.580
1021.674;   30.934;  -15.190;  559.120
1022.224;   32.515;  -13.530;  708.940
1022.774;   32.689;  -13.280;  668.820
1023.324;   32.139;  -10.690;  753.520
1023.874;   33.027;  -10.240;  875.760
1024.423;   30.156;  -12.540;  613.700
1024.973;   30.284;  -10.010;  610.760
1025.523;   29.103;  -10.550;  620.960
1026.072;   28.479;  -13.560;  606.420
1026.622;   28.916;  -15.120;  675.740
1027.172;   29.912;  -11.260;  715.660
1027.721;   29.421;  -11.410;  601.220
1028.270;   28.520;  -13.530;  663.400
1028.820;   28.908;  -13.680;  638.080
1029.369;   28.873;  -13.520;  612.700
1029.918;   29.051;  -10.980;  649.840
1030.468;   28.159;  -13.530;  564.780
1031.017;   28.509;  -13.170;  634.800
1031.566;   27.565;  -12.200;  608.900
1032.115;   27.466;   -9.960;  694.500
1032.664;   27.231;  -13.210;  596.480
1033.213;   27.481;  -12.500;  735.420
1033.762;   27.724;  -11.910;  635.620
1034.311;   27.974;   -9.640;  677.220
1034.860;   27.103;  -13.310;  691.000
1035.408;   26.440;  -11.830;  722.720
1035.957;   27.455;  -12.000;  719.540
1036.506;   25.694;  -11.690;  530.800
1037.055;   27.270;  -10.990;  844.320
1037.603;   25.845;  -15.120;  664.000
1038.152;   24.876;  -12.450;  534.760
1038.700;   25.319;  -10.560;  585.740
1039.249;   25.298;  -11.080;  681.220
1039.797;   25.213;  -12.540;  633.360
1040.345;   24.717;  -11.920;  705.420
1040.894;   24.243;  -11.410;  625.300
1041.442;   23.841;  -14.320;  632.200
1041.990;   23.286;  -16.240;  559.160
1042.538;   23.512;  -11.680;  536.180
1043.087;   22.649;  -10.760;  570.860
1043.635;   24.471;  -11.850;  670.500
1044.183;   23.800;  -15.480;  586.400
1044.731;   23.105;  -11.770;  576.000
1045.279;   22.833;  -13.090;  674.920
1045.827;   24.709;  -12.440;  892.400
1046.374;   22.442;  -13.840;  515.420
1046.922;   21.215;  -13.220;  590.580
1047.470;   23.319;  -10.230;  691.300
1048.018;   22.442;  -14.590;  647.960
1048.565;   22.936;  -12.050;  708.600
1049.113;   21.695;  -11.650;  557.000
1049.660;   21.697;  -10.510;  629.660
1050.208;   21.987;  -13.310;  675.640
1050.755;   21.438;  -15.900;  606.580
1051.303;   21.742;  -11.430;  686.820
1051.850;   21.536;   -8.480;  635.120
1052.397;   19.407;  -15.010;  473.960
1052.945;   19.922;  -13.960;  617.760
1053.492;   22.053;  -13.150;  741.840
1054.039;   21.718;   -9.630;  720.180
1054.586;   20.112;  -13.680;  557.240
1055.133;   21.037;  -14.570;  693.140
1055.680;   21.290;  -13.820;  646.620
1056.227;   19.675;  -11.730;  542.780
1056.774;   21.165;  -12.480;  794.980
1057.321;   18.817;  -13.930;  523.260
1057.868;   20.134;  -11.690;  651.320
1058.415;   19.536;   -9.520;  651.980
1058.961;   19.953;  -13.160;  678.940
1059.508;   19.125;  -12.920;  643.820
1060.055;   19.423;  -11.920;  581.780
1060.601;   20.042;  -11.500;  624.300
1061.148;   19.601;  -14.330;  616.820
1061.694;   17.462;  -16.870;  592.580
1062.241;   19.004;  -10.330;  596.320
1062.787;   18.870;  -10.620;  663.140
1063.334;   20.420;  -10.110;  808.560
1063.880;   19.040;  -13.400;  668.360
1064.426;   18.692;  -10.680;  706.820
1064.972;   17.405;   -9.920;  601.340
1065.518;   16.478;  -10.980;  566.640
1066.065;   17.722;  -14.890;  624.460
1066.611;   17.267;  -12.870;  598.800
1067.157;   18.209;  -12.950;  641.860
1067.703;   17.203;  -13.540;  668.480
1068.249;   16.904;  -13.540;  605.220
1068.794;   16.817;  -12.600;  626.880
1069.340;   16.510;  -10.620;  578.960
1069.886;   16.436;  -12.830;  590.700
1070.432;   15.952;  -14.870;  541.720
1070.977;   16.101;  -11.980;  601.080
1071.523;   16.686;   -8.200;  573.060
1072.068;   16.024;  -12.330;  582.000
1072.614;   15.960;  -16.370;  527.760
1073.160;   16.167;  -11.100;  687.040
1073.705;   14.744;  -10.480;  572.520
1074.250;   14.865;  -14.520;  559.900
1074.796;   16.238;  -11.460;  655.160
1075.341;   16.377;  -11.950;  664.100
1075.886;   15.765;  -11.460;  594.240
1076.431;   15.045;  -13.770;  649.880
1076.976;   14.992;  -12.680;  639.220
1077.521;   15.299;  -13.170;  583.080
1078.067;   14.117;  -10.860;  579.400
1078.612;   14.865;  -13.920;  661.620
1079.156;   14.724;  -13.880;  601.540
1079.701;   15.084;  -13.120;  693.260
1080.246;   15.750;   -9.940;  696.300
1080.791;   14.793;  -14.740;  625.020
1081.336;   14.452;  -13.750;  659.320
1081.880;   14.407;  -13.400;  649.680
1082.425;   14.250;  -12.220;  573.480
1082.970;   15.340;  -11.610;  717.040
1083.514;   13.309;  -13.580;  597.000
1084.059;   13.391;  -12.810;  586.720
1084.603;   12.548;  -12.320;  565.840
1085.147;   13.900;  -13.190;  645.220
1085.692;   13.767;  -12.480;  716.800
1086.236;   12.202;  -13.020;  503.140
1086.780;   14.240;   -9.190;  751.440
1087.325;   13.280;  -12.480;  654.620
1087.869;   13.065;  -12.450;  610.700
1088.413;   13.682;  -12.240;  705.040
1088.957;   11.144;   -9.020;  543.400
1089.501;   13.377;  -10.320;  766.640
1090.045;   12.491;  -12.720;  726.480
1090.589;   10.674;  -13.690;  569.920
1091.133;   12.278;  -10.020;  673.340
1091.676;   11.986;  -12.330;  591.940
1092.220;   10.978;  -14.970;  600.920
1092.764;   13.022;  -12.430;  706.960
1093.307;   12.121;   -9.800;  673.780
1093.851;   10.770;  -14.970;  556.540
1094.395;   11.120;  -15.310;  683.140
1094.938;   11.727;  -10.370;  632.520
1095.482;   11.063;  -11.050;  559.800
1096.025;   11.512;  -11.840;  710.880
1096.568;   12.345;  -12.840;  779.280
1097.112;    9.582;  -14.700;  508.180
1097.655;   11.023;   -8.720;  603.000
1098.198;    9.327;  -13.610;  600.180
1098.741;    9.945;  -13.350;  612.860
1099.285;   10.834;  -11.230;  657.300
1099.828;    9.038;  -11.840;  439.400
1100.371;   10.089;  -10.840;  608.160
1100.914;    9.957;  -14.190;  682.660
1101.457;   10.899;  -11.240;  679.900
1101.999;    8.826;  -11.270;  584.680
1102.542;   10.205;  -11.480;  641.440
1103.085;    9.650;  -11.750;  658.500
1103.628;    9.942;  -11.400;  762.060
1104.170;    9.539;  -10.490;  588.280
1104.713;    9.191;  -10.600;  646.700
1105.256;    8.044;  -14.360;  557.440
1105.798;    8.021;  -13.210;  499.980
1106.341;   10.031;  -10.270;  728.900
1106.883;    8.963;  -12.200;  521.340
1107.425;    9.036;  -13.110;  668.180
1107.968;    8.801;  -12.840;  612.380
1108.510;    9.131;   -6.480;  684.960
1109.052;    7.624;  -13.940;  612.620
1109.594;    8.280;  -13.690;  554.440
1110.136;    8.291;  -11.880;  643.220
1110.679;    7.894;   -9.500;  633.080
1111.221;    8.200;  -14.160;  604.460
1111.763;    7.348;  -13.980;  559.220
1112.304;    6.671;  -13.880;  547.140
1112.846;    8.134;  -12.210;  666.240
1113.388;   10.090;  -11.390;  942.180
1113.930;    7.544;  -14.540;  694.200
1114.472;    7.033;  -12.640;  606.540
1115.013;    5.666;  -11.620;  551.280
1115.555;    6.233;  -13.640;  587.100
1116.097;    5.829;  -15.380;  579.480
1116.638;    7.186;  -12.640;  684.600
1117.180;    7.443;   -9.850;  667.740
1117.721;    6.769;  -13.690;  568.580
1118.262;    7.737;  -12.680;  677.960
1118.804;    7.616;  -12.530;  637.340
1119.345;    5.804;  -11.690;  578.400
1119.886;    6.791;  -13.380;  704.040
1120.427;    5.599;  -14.070;  589.020
1120.969;    5.385;  -13.500;  597.920
1121.510;    5.370;  -11.480;  563.060
1122.051;    6.337;  -12.830;  723.580
1122.592;    4.745;  -14.290;  655.420
1123.133;    4.713;  -12.400;  547.940
1123.673;    6.302;  -10.130;  706.480
1124.214;    5.510;  -12.930;  612.460
1124.755;    5.897;  -14.380;  639.460
1125.296;    5.557;  -14.000;  627.320
1125.836;    6.230;  -10.070;  691.500
1126.377;    5.220;  -12.640;  599.660
1126.918;    5.519;  -12.960;  614.980
1127.458;    5.394;  -13.350;  622.220
1127.999;    4.693;  -10.750;  656.980
1128.539;    4.991;  -12.350;  694.240
1129.079;    4.653;  -14.860;  632.720
1129.620;    4.159;  -13.840;  558.100
1130.160;    4.142;  -12.330;  539.480
1130.700;    4.852;  -14.530;  640.840
1131.240;    5.104;  -12.530;  643.700
1131.781;    4.607;  -14.450;  619.680
1132.321;    4.332;   -9.790;  599.120
1132.861;    3.414;  -14.860;  564.200
1133.401;    2.676;  -14.290;  593.940
1133.941;    3.919;  -11.750;  626.280
1134.481;    3.337;   -9.920;  597.580
1135.020;    3.034;  -12.290;  609.160
1135.560;    4.066;  -11.650;  674.940
1136.100;    3.232;  -16.270;  501.160
1136.640;    2.897;  -10.890;  510.480
1137.179;    3.242;  -14.180;  537.960
1137.719;    3.999;  -16.250;  605.400
1138.258;    3.374;  -14.230;  587.360
1138.798;    3.703;   -9.090;  663.780
1139.337;    2.057;  -15.130;  482.840
1139.877;    2.974;  -13.680;  642.360
1140.416;    5.213;  -11.320;  878.060
1140.955;    2.100;  -10.860;  535.380
1141.494;    2.807;  -12.920;  669.280
1142.034;    2.084;  -13.930;  583.520
1142.573;    3.438;  -11.440;  646.280
1143.112;    2.076;  -12.000;  553.480
1143.651;    1.852;  -13.670;  536.480
1144.190;    3.259;  -12.730;  691.640
1144.729;    2.289;  -14.560;  607.420
1145.267;    2.118;  -11.830;  584.900
1145.806;    3.206;  -12.230;  637.040
1146.345;    1.060;  -14.130;  635.020
1146.884;    2.201;  -11.590;  622.500
1147.422;    1.648;  -12.550;  533.060
1147.961;    3.176;  -11.180;  708.460
1148.500;    2.228;  -11.510;  669.720
1149.038;    3.025;  -11.640;  632.500
1149.577;    2.370;  -10.130;  698.640
1150.115;   -0.158;  -13.970;  452.280
1150.653;    1.226;  -14.520;  607.340
1151.192;    1.625;  -12.810;  552.920
1151.730;    1.279;   -9.100;  652.560
1152.268;    1.291;  -12.220;  589.520
1152.806;    0.618;  -14.140;  571.180
1153.344;    0.514;  -12.350;  577.640
1153.882;    1.092;   -8.980;  600.060
1154.421;   -0.661;  -15.190;  470.620
1154.958;   -0.376;  -15.210;  595.240
1155.496;    1.401;  -12.850;  645.280
1156.034;    1.032;   -9.940;  721.880
1156.572;    2.534;  -13.570;  667.060
1157.110;   -0.251;  -14.590;  473.940
1157.647;    1.374;  -13.030;  676.960
1158.185;    0.374;  -12.140;  564.320
1158.723;   -1.012;  -14.390;  509.200
1159.260;    0.625;  -14.090;  701.700
1159.798;    1.153;  -11.920;  658.160
1160.335;    0.346;  -11.110;  631.820

