
Integration time [ms]:   3.276
Averaging Nr. [scans]: 1000
Smoothing Nr. [pixels]: 0
Data measured with spectrometer [name]: 7414430SP
Wave   ;Sample   ;Dark     ;Reference
[nm]   ;[counts] ;[counts] ;[counts] 

288.544;  149.945;    7.793;  793.890
289.143;  153.236;    7.462;  681.602
289.742;  154.129;    8.602;  828.814
290.341;  139.987;    1.321;  789.841
290.940;  128.218;   -0.709;  730.702
291.538;  130.436;    0.881;  881.108
292.137;  129.903;    0.122;  792.581
292.736;  134.589;   -1.929;  975.101
293.335;  130.140;   -8.229;  735.086
293.934;  130.276;   -5.279;  781.677
294.532;  129.704;   -1.369; 1031.958
295.131;  115.777;   -7.641;  834.394
295.730;  116.354;   -8.420;  809.588
296.328;  114.539;   -5.611;  783.442
296.927;  115.258;   -5.781;  779.652
297.525;  116.618;   -6.361;  781.236
298.124;  106.329;  -11.382;  654.009
298.722;  109.754;   -7.641;  761.933
299.321;  108.016;   -6.811;  708.597
299.919;  105.843;   -6.991;  751.918
300.518;  103.878;  -10.362;  689.338
301.116;  104.813;   -9.581;  691.381
301.715;  104.976;   -4.891;  730.222
302.313;  102.990;   -8.801;  704.943
302.911;   99.000;   -8.522;  733.830
303.509;  104.124;   -6.171;  925.627
304.108;  101.718;   -7.311;  760.383
304.706;  101.941;   -8.321;  801.664
305.304;   95.264;  -10.222;  796.707
305.902;  100.318;   -6.021;  784.484
306.500;   97.098;   -4.971;  728.200
307.098;   94.993;   -7.061;  746.560
307.696;   93.266;   -8.801;  780.432
308.294;   93.307;   -6.411;  731.359
308.892;   96.181;   -2.901;  759.769
309.490;   93.566;   -5.041;  712.161
310.088;   90.853;   -5.002;  788.444
310.686;   94.387;   -2.041;  821.749
311.284;   89.973;   -2.351;  766.040
311.882;   88.699;   -4.422;  731.225
312.480;   85.411;   -4.192;  697.167
313.078;   85.682;   -1.172;  808.331
313.675;   87.080;   -2.601;  691.600
314.273;   83.147;   -1.312;  797.837
314.871;   81.962;   -3.942;  589.829
315.468;   78.352;   -2.802;  652.090
316.066;   82.308;   -0.701;  694.427
316.664;   75.599;   -4.362;  656.351
317.261;   78.961;   -2.872;  910.128
317.859;   74.448;   -2.022;  768.735
318.456;   75.488;   -0.531;  830.096
319.054;   71.767;   -3.912;  787.828
319.651;   69.890;   -4.752;  759.928
320.249;   68.705;   -2.602;  810.188
320.846;   66.705;   -0.821;  714.286
321.443;   64.611;   -4.642;  832.135
322.041;   61.174;   -5.002;  812.315
322.638;   58.642;   -3.982;  701.456
323.235;   60.518;   -3.411;  665.683
323.833;   58.585;   -7.361;  740.354
324.430;   53.176;   -8.611;  615.900
325.027;   53.447;   -4.061;  876.855
325.624;   53.195;   -4.031;  644.532
326.221;   51.156;   -7.481;  689.717
326.818;   49.711;   -5.281;  818.332
327.415;   52.616;   -7.460;  748.828
328.012;   52.535;   -5.510;  690.585
328.609;   52.111;   -7.880;  731.389
329.206;   50.117;   -8.331;  778.621
329.803;   48.821;   -5.121;  737.841
330.400;   52.143;   -4.510;  704.260
330.997;   53.948;   -6.441;  817.147
331.594;   52.560;   -8.831;  788.185
332.191;   57.300;   -7.621;  728.722
332.787;   59.630;   -4.591;  844.463
333.384;   58.720;   -7.412;  763.093
333.981;   57.228;   -8.293;  815.687
334.578;   59.900;   -7.052;  708.378
335.174;   63.818;   -3.102;  731.469
335.771;   62.854;   -5.943;  836.456
336.367;   60.125;   -7.393;  710.631
336.964;   63.109;   -4.063;  793.266
337.561;   60.202;   -3.813;  731.112
338.157;   56.953;   -4.654;  911.916
338.754;   54.603;   -7.934;  796.589
339.350;   51.827;   -4.414;  722.493
339.946;   55.249;   -4.664;  773.135
340.543;   46.768;   -6.375;  846.136
341.139;   41.371;   -9.815;  720.836
341.735;   39.025;   -4.526;  772.593
342.332;   37.357;   -4.895;  691.472
342.928;   38.540;   -4.295;  795.394
343.524;   32.990;   -5.476;  761.684
344.120;   28.572;   -5.856;  738.562
344.716;   32.601;   -2.155;  723.717
345.313;   30.426;   -6.275;  795.342
345.909;   23.977;   -8.815;  627.336
346.505;   25.640;   -5.305;  740.247
347.101;   26.133;   -2.674;  827.864
347.697;   27.000;   -4.344;  785.398
348.293;   21.805;   -9.975;  627.244
348.889;   21.946;   -5.774;  745.914
349.485;   21.655;   -5.004;  688.205
350.081;   22.438;   -4.704;  772.592
350.676;   17.788;   -6.635;  691.606
351.272;   22.003;   -4.504;  809.530
351.868;   21.573;   -3.914;  780.497
352.464;   18.876;   -9.044;  723.932
353.059;   14.825;   -8.314;  646.017
353.655;   18.301;   -7.024;  777.063
354.251;   20.372;   -5.343;  759.845
354.846;   14.769;   -8.604;  740.646
355.442;   12.175;   -6.945;  753.071
356.038;   13.454;   -7.564;  751.708
356.633;   13.425;   -5.814;  728.594
357.229;   12.512;   -7.364;  724.757
357.824;   10.109;   -8.024;  703.600
358.420;    9.015;   -9.384;  679.726
359.015;    9.798;   -5.104;  695.357
359.610;   11.059;   -6.854;  763.920
360.206;    4.949;  -10.185;  603.240
360.801;    7.783;   -7.054;  646.503
361.396;    9.735;   -5.034;  725.975
361.992;    5.540;   -8.284;  668.220
362.587;    2.408;   -8.625;  670.160
363.182;    4.738;   -7.674;  689.631
363.777;    5.206;   -5.164;  738.242
364.372;    5.121;   -8.604;  737.314
364.967;    1.006;   -9.055;  680.744
365.563;    5.146;   -6.114;  815.567
366.158;    2.342;   -5.814;  685.161
366.753;    3.454;   -7.854;  649.263
367.348;    1.362;   -7.804;  746.056
367.942;    0.673;   -7.954;  697.298
368.537;    0.757;   -4.984;  754.245
369.132;    0.823;   -8.564;  703.428
369.727;   -2.599;   -8.855;  638.079
370.322;   -2.694;   -6.245;  580.186
370.917;   -2.107;   -6.425;  710.646
371.511;    0.599;   -6.294;  861.834
372.106;   -2.768;   -7.685;  776.964
372.701;   -6.718;   -7.335;  585.988
373.296;   -1.263;   -4.564;  863.135
373.890;   -4.738;  -10.235;  647.840
374.485;   -7.146;   -7.885;  691.199
375.079;   -3.236;   -7.324;  738.685
375.674;   -2.181;   -3.494;  812.970
376.268;   -6.894;   -8.525;  691.759
376.863;  -12.549;  -10.086;  580.327
377.457;   -6.394;   -7.025;  662.490
378.052;   -7.889;   -3.585;  764.884
378.646;   -8.595;   -7.595;  741.167
379.240;   -9.305;   -8.335;  721.176
379.835;   -8.926;   -5.785;  636.978
380.429;  -10.100;   -4.335;  562.557
381.023;   -9.838;   -6.805;  779.205
381.617;  -13.017;   -9.195;  680.106
382.212;   -9.233;   -6.905;  685.303
382.806;   -8.660;   -3.745;  760.690
383.400;  -12.129;   -7.745;  672.281
383.994;  -13.872;   -9.765;  664.870
384.588;  -10.140;   -6.564;  697.701
385.182;   -7.789;   -5.344;  726.624
385.776;   -9.546;   -8.514;  706.875
386.370;  -13.229;   -9.555;  681.968
386.964;  -12.217;   -8.715;  684.155
387.558;  -10.552;   -6.174;  598.360
388.152;  -13.725;   -8.725;  681.959
388.745;  -11.950;   -7.965;  814.707
389.339;  -10.228;   -5.924;  747.642
389.933;   -9.400;   -5.524;  695.370
390.527;  -11.115;   -7.114;  859.029
391.120;  -16.850;  -10.725;  595.318
391.714;  -14.398;   -8.035;  711.633
392.308;  -10.760;   -3.574;  780.253
392.901;  -14.615;   -7.245;  642.460
393.495;  -16.291;   -9.285;  595.414
394.089;  -14.024;   -5.895;  760.452
394.682;  -14.982;   -4.295;  697.188
395.275;  -15.255;   -9.875;  719.927
395.869;  -16.288;   -8.485;  667.314
396.462;  -15.196;   -7.455;  616.609
397.056;  -11.633;   -5.424;  776.621
397.649;  -15.596;   -6.605;  731.575
398.242;  -12.757;   -8.224;  712.645
398.836;  -12.645;   -7.474;  766.408
399.429;  -13.648;   -7.094;  631.041
400.022;  -16.376;   -9.475;  665.902
400.615;  -14.418;   -7.145;  805.609
401.208;  -12.869;   -7.174;  691.451
401.802;  -15.282;   -5.515;  699.329
402.395;  -16.101;   -9.875;  683.502
402.988;  -16.963;   -8.845;  696.627
403.581;  -13.590;   -8.874;  646.878
404.174;  -11.436;   -5.324;  686.568
404.767;  -13.798;   -9.575;  638.583
405.360;  -17.350;  -10.965;  621.445
405.953;  -11.515;   -8.764;  759.034
406.545;  -10.557;   -7.514;  725.342
407.138;  -14.355;  -10.025;  618.350
407.731;  -13.862;  -10.034;  613.303
408.324;   -9.905;   -9.374;  660.554
408.917;  -11.033;   -6.534;  681.864
409.509;  -12.495;   -8.004;  740.396
410.102;  -14.462;   -9.875;  643.948
410.695;   -8.341;   -8.604;  665.758
411.287;   -9.483;   -6.794;  599.821
411.880;  -10.745;   -9.334;  585.421
412.472;  -14.533;  -10.254;  613.092
413.065;  -11.320;   -6.714;  629.408
413.657;   -8.483;   -7.234;  576.678
414.250;   -8.850;  -10.544;  646.681
414.842;  -11.407;   -9.744;  676.353
415.434;   -9.180;   -6.994;  570.463
416.027;   -5.189;   -5.893;  652.196
416.619;   -6.338;   -7.264;  713.400
417.211;   -6.833;  -10.374;  599.352
417.804;   -3.717;   -7.993;  628.499
418.396;   -7.858;   -7.234;  607.643
418.988;   -4.885;   -9.443;  659.238
419.580;   -8.606;  -10.724;  568.276
420.172;   -7.305;  -10.323;  536.196
420.764;   -2.954;   -8.793;  672.482
421.356;   -2.705;  -11.143;  636.898
421.948;   -4.344;   -8.293;  677.661
422.540;    0.887;   -7.893;  680.027
423.132;    0.547;   -7.082;  600.641
423.724;   -3.166;   -8.653;  561.267
424.316;   -1.835;  -10.213;  621.345
424.908;    2.001;   -9.762;  591.517
425.500;    2.955;   -5.572;  647.978
426.092;    3.430;   -8.422;  648.268
426.683;    1.716;   -9.283;  684.836
427.275;    4.855;   -7.852;  641.471
427.867;    6.486;   -5.272;  668.948
428.458;    7.194;   -7.682;  732.344
429.050;    5.624;  -10.612;  680.749
429.642;    7.869;   -9.882;  743.124
430.233;    8.147;   -6.962;  569.356
430.825;   10.667;   -6.842;  724.809
431.416;    7.094;   -9.672;  698.241
432.008;   10.440;   -6.552;  651.723
432.599;   10.799;   -6.891;  656.073
433.190;    8.660;  -10.912;  637.670
433.782;    7.152;  -11.172;  590.395
434.373;   14.959;   -6.061;  884.765
434.964;   13.773;   -8.251;  602.920
435.556;   11.355;   -9.722;  634.537
436.147;   13.652;   -9.082;  758.490
436.738;   14.672;   -8.041;  701.099
437.329;   18.982;   -7.341;  721.723
437.920;   12.142;   -8.162;  666.688
438.511;   12.016;  -11.802;  564.526
439.103;   18.617;  -10.191;  623.998
439.694;   20.611;   -7.601;  681.583
440.285;   21.485;   -8.541;  764.432
440.876;   19.879;   -9.751;  845.738
441.466;   18.456;   -9.401;  575.162
442.057;   24.356;   -7.760;  665.814
442.648;   23.353;   -9.971;  746.255
443.239;   20.899;  -11.001;  620.477
443.830;   25.411;   -7.990;  704.958
444.421;   28.340;   -7.910;  655.474
445.011;   24.398;   -8.131;  693.619
445.602;   24.045;   -7.111;  743.126
446.193;   25.925;  -10.920;  488.117
446.783;   30.216;   -6.500;  640.397
447.374;   26.032;   -8.671;  692.759
447.964;   26.938;  -10.781;  713.770
448.555;   34.616;   -9.650;  822.742
449.145;   31.400;   -8.660;  662.853
449.736;   32.078;   -8.990;  803.179
450.326;   32.322;   -9.500;  713.626
450.917;   37.136;   -8.680;  675.324
451.507;   35.697;   -7.520;  600.661
452.097;   37.037;   -8.590;  746.267
452.688;   37.950;  -11.340;  742.160
453.278;   37.763;  -10.100;  566.840
453.868;   42.007;   -6.019;  793.550
454.458;   40.650;   -9.440;  651.141
455.048;   40.734;  -10.560;  711.783
455.639;   40.830;  -11.799;  567.096
456.229;   45.654;   -6.899;  710.694
456.819;   47.325;   -7.389;  751.158
457.409;   47.115;  -11.119;  773.993
457.999;   50.004;   -9.289;  737.505
458.589;   49.963;   -6.139;  686.606
459.179;   50.160;   -8.729;  717.658
459.769;   48.481;   -9.789;  627.099
460.358;   52.876;  -10.259;  797.262
460.948;   52.611;   -7.299;  689.503
461.538;   54.710;  -10.289;  660.677
462.128;   51.878;  -11.269;  664.934
462.717;   58.631;   -9.368;  710.326
463.307;   61.420;   -7.908;  705.846
463.897;   58.074;   -9.599;  656.942
464.486;   56.973;   -9.769;  837.128
465.076;   61.425;   -8.048;  733.776
465.666;   64.904;   -9.358;  652.900
466.255;   63.125;   -7.919;  785.651
466.845;   61.466;  -11.689;  666.749
467.434;   64.789;   -7.818;  725.873
468.023;   66.129;   -7.678;  658.357
468.613;   63.924;  -10.939;  713.946
469.202;   67.377;  -10.118;  646.507
469.791;   71.431;   -9.108;  737.811
470.381;   73.593;   -6.058;  742.813
470.970;   73.916;  -10.428;  711.099
471.559;   73.235;  -10.268;  733.291
472.148;   75.315;   -8.448;  675.737
472.738;   78.572;   -6.917;  765.466
473.327;   78.040;  -11.978;  637.529
473.916;   78.225;  -11.888;  737.446
474.505;   82.323;   -9.437;  751.703
475.094;   85.606;   -6.747;  806.570
475.683;   83.996;   -9.367;  797.699
476.272;   85.823;  -12.637;  730.632
476.861;   87.865;  -10.027;  706.754
477.449;   94.841;   -8.716;  728.487
478.038;   89.417;   -9.577;  692.513
478.627;   89.784;   -9.718;  714.852
479.216;   95.960;   -8.947;  769.441
479.805;   98.924;   -6.256;  783.375
480.393;   99.368;   -7.937; 1008.945
480.982;   99.147;   -7.717;  874.501
481.571;  104.379;   -9.266;  858.333
482.159;  104.995;   -7.636;  705.386
482.748;  104.776;   -9.667;  821.385
483.336;  109.872;  -10.376;  858.209
483.925;  109.687;   -7.147;  774.373
484.513;  116.268;   -7.996;  758.962
485.102;  113.836;  -10.027;  810.965
485.690;  122.971;  -10.446; 1011.050
486.278;  123.498;   -8.446;  979.329
486.867;  124.307;   -6.356;  809.662
487.455;  126.699;   -9.136;  898.229
488.043;  127.613;  -10.646;  748.361
488.631;  135.752;   -7.456; 1005.079
489.220;  140.110;   -6.636;  908.626
489.808;  140.447;  -11.036;  741.415
490.396;  148.173;  -10.246;  914.645
490.984;  153.555;   -8.556;  830.161
491.572;  162.981;   -5.886;  940.315
492.160;  168.701;   -9.486;  919.081
492.748;  180.368;  -10.976;  884.341
493.336;  202.144;   -8.776; 1019.693
493.924;  227.448;   -5.465;  958.077
494.512;  254.085;   -9.986; 1066.638
495.100;  286.604;  -10.636; 1103.280
495.687;  341.334;  -10.885; 1206.373
496.275;  402.633;   -8.126; 1150.796
496.863;  470.029;  -10.586; 1281.171
497.451;  566.758;  -11.926; 1386.805
498.038;  691.503;  -10.885; 1556.729
498.626;  796.087;   -6.315; 1741.407
499.214;  945.872;   -7.326; 2016.609
499.801; 1131.301;  -11.906; 2220.633
500.389; 1371.128;  -10.466; 2312.494
500.976; 1650.574;   -5.236; 2744.849
501.564; 2072.024;   -8.936; 3148.565
502.151; 2409.553;  -13.176; 3515.999
502.738; 2798.122;  -10.646; 3971.274
503.326; 3196.153;   -9.525; 4403.796
503.913; 3598.168;  -10.856; 5161.749
504.500; 3966.396;  -11.586; 5986.420
505.088; 4346.633;  -10.336; 6381.201
505.675; 4855.100;   -6.355; 6925.547
506.262; 5520.860;   -9.046; 7619.060
506.849; 6229.273;  -10.416; 8733.969
507.436; 6751.873;  -10.305; 9790.121
508.023; 7319.059;   -5.496; 9985.472
508.610; 7586.494;   -7.856;10434.618
509.197; 8209.518;  -10.097;11198.435
509.784; 9476.011;  -10.886;12391.194
510.371;10671.681;   -9.315;13603.713
510.958;11493.091;   -9.936;14426.586
511.545;12220.151;   -9.326;15243.775
512.132;12910.946;  -10.075;15945.876
512.719;13327.947;   -7.796;16340.369
513.305;14402.307;  -10.606;18011.766
513.892;15076.792;  -11.486;19754.971
514.479;16281.335;   -9.126;20967.805
515.066;17832.648;   -6.026;22299.793
515.652;19458.184;   -8.466;22908.660
516.239;20664.203;  -10.886;23798.875
516.825;21385.172;  -11.496;25567.275
517.412;22267.352;   -5.796;28154.959
517.998;23010.191;  -10.506;28344.111
518.585;23192.820;  -10.076;27134.219
519.171;23875.668;   -8.315;27268.576
519.758;25500.037;   -8.596;28964.129
520.344;27534.006;   -8.466;30664.494
520.930;27401.139;  -11.006;32550.605
521.516;28155.326;  -10.495;35422.895
522.103;29978.250;   -5.526;38280.004
522.689;30369.104;   -8.746;37835.117
523.275;30222.320;  -11.376;37288.613
523.861;32189.289;  -11.156;37281.395
524.447;33978.160;   -8.135;37846.949
525.033;33922.926;   -7.896;38321.949
525.619;34081.918;  -12.476;38579.285
526.205;35328.148;   -9.516;40622.875
526.791;37991.527;   -6.926;42258.836
527.377;38239.672;   -8.346;42966.902
527.963;39224.785;   -8.717;42018.949
528.549;38507.906;  -11.016;42476.828
529.135;37119.641;   -8.536;41854.852
529.721;35681.383;   -9.666;41237.711
530.306;34905.938;  -10.066;41259.445
530.892;34843.090;  -11.356;41506.047
531.478;36070.273;   -6.596;43559.613
532.063;39273.586;   -8.836;47695.563
532.649;40846.480;  -10.047;50808.324
533.235;41310.695;   -9.746;51787.500
533.820;40970.547;   -6.566;52145.035
534.406;42330.340;  -10.817;51133.488
534.991;42173.969;   -9.416;49996.805
535.576;40517.102;   -9.036;48882.852
536.162;41582.035;   -6.156;46942.285
536.747;42736.184;  -11.607;45711.746
537.333;45218.223;  -11.787;48510.180
537.918;48490.879;  -12.437;50439.891
538.503;48332.871;   -7.196;50863.711
539.088;44771.473;  -10.556;50906.922
539.673;44061.605;   -8.767;52621.965
540.259;44589.047;  -10.026;52368.094
540.844;42455.445;   -7.416;50879.109
541.429;44431.137;   -9.467;52077.777
542.014;46391.133;   -9.527;52716.695
542.599;45155.543;   -9.946;52363.281
543.184;42395.367;   -7.927;53187.137
543.769;43495.402;   -9.297;54697.605
544.354;43636.230;  -10.127;53913.914
544.938;42323.789;   -9.267;49680.164
545.523;44195.961;   -6.506;47386.277
546.108;47454.973;   -9.787;49151.949
546.693;49140.402;  -11.587;51384.637
547.278;49031.117;  -10.986;51853.254
547.862;46443.363;   -8.206;51173.750
548.447;42254.840;  -10.067;51691.395
549.031;41214.797;   -9.637;52456.703
549.616;45593.688;   -9.926;52714.516
550.201;45763.418;   -6.347;52414.598
550.785;47051.969;   -7.917;52355.059
551.370;46072.438;  -10.867;54589.453
551.954;44987.762;   -9.047;58267.348
552.538;45841.863;   -7.827;59062.176
553.123;44363.848;  -10.287;58115.285
553.707;41798.473;  -12.178;56556.285
554.291;43180.977;   -8.717;56201.668
554.876;46490.141;   -7.457;55335.762
555.460;46509.309;  -10.387;54155.703
556.044;46508.082;   -9.618;53721.484
556.628;44893.047;  -11.567;53731.016
557.212;44088.043;   -8.097;54312.531
557.796;42811.660;  -11.077;53797.773
558.380;43002.750;  -11.108;56145.984
558.964;43221.281;   -9.057;57277.930
559.548;44484.914;   -6.977;56459.641
560.132;42752.973;  -11.457;54434.543
560.716;40695.453;  -11.378;54800.617
561.300;41420.082;   -9.577;57606.945
561.884;42765.387;   -7.127;58972.445
562.467;40850.797;   -7.118;57327.570
563.051;40161.750;  -13.358;54962.434
563.635;41830.496;  -10.178;52594.473
564.219;42277.813;   -7.837;50610.410
564.802;42902.645;  -11.398;49551.180
565.386;42544.398;  -12.788;48370.953
565.969;41831.051;   -9.077;48178.871
566.553;40307.758;   -6.207;49957.305
567.136;41196.773;   -8.568;50369.594
567.720;38490.855;  -11.868;49492.004
568.303;36324.418;   -8.268;50616.352
568.887;36149.824;   -8.698;50727.148
569.470;36860.746;   -6.808;51698.379
570.053;36061.660;  -13.188;52122.078
570.637;33927.141;  -12.037;52536.438
571.220;33835.652;   -8.577;51186.098
571.803;34966.613;   -8.498;51032.762
572.386;36656.207;  -10.498;49609.887
572.969;38910.582;   -9.388;48285.926
573.552;37701.902;   -8.338;47624.285
574.135;36223.918;   -8.518;45498.641
574.718;33854.910;  -13.628;41970.434
575.301;33246.512;  -10.893;41447.137
575.884;32638.111;   -8.158;40923.836
576.467;33616.691;  -10.328;45267.723
577.050;34467.910;  -13.058;48175.543
577.633;35562.188;   -9.458;47729.328
578.216;35084.434;   -8.928;47579.793
578.799;34242.961;   -9.358;47820.996
579.381;33228.023;  -11.388;48115.551
579.964;30694.037;  -11.718;47333.766
580.547;32383.490;   -8.588;46668.969
581.129;33554.621;   -8.859;44466.141
581.712;34748.750;  -10.729;44164.922
582.294;35377.320;  -11.118;46477.855
582.877;35289.691;   -5.218;48244.254
583.459;33591.164;   -8.679;47437.895
584.042;31515.012;  -10.709;46943.219
584.624;31035.738;  -11.669;46792.227
585.206;30550.695;   -8.218;46557.250
585.789;30159.102;  -10.569;45793.773
586.371;31307.602;  -11.859;43836.391
586.953;30034.936;  -10.719;42972.492
587.536;28386.211;   -7.198;42487.211
588.118;28871.299;   -8.720;42086.414
588.700;28513.186;  -10.439;43389.930
589.282;30309.754;   -9.198;43646.039
589.864;32720.896;   -9.199;43438.109
590.446;34518.637;  -11.319;43151.926
591.028;34730.770;  -11.159;42781.867
591.610;33420.742;  -11.779;42839.098
592.192;30531.984;   -7.668;42820.402
592.774;29055.352;  -11.949;40724.277
593.356;27975.770;  -12.129;39874.789
593.937;26989.713;  -10.669;39980.648
594.519;29059.932;   -6.509;42069.633
595.101;30934.584;  -10.849;42976.031
595.683;30972.820;  -11.679;44084.441
596.264;31900.805;   -9.049;43478.797
596.846;31977.949;   -8.849;43803.672
597.427;32075.611;   -9.570;42986.934
598.009;33224.641;  -12.620;42832.219
598.591;33675.547;  -10.039;42580.086
599.172;33535.070;  -10.369;43061.805
599.753;33939.395;   -9.140;41691.469
600.335;35212.340;  -11.430;40692.520
600.916;33112.898;   -9.939;39982.422
601.498;30682.629;   -8.479;40318.617
602.079;29225.883;  -10.920;40670.609
602.660;28754.865;  -11.480;41450.898
603.241;30522.791;  -11.699;41137.738
603.823;29367.631;   -9.579;38868.797
604.404;27994.129;  -10.620;38182.785
604.985;29833.955;  -10.450;38078.047
605.566;30427.809;   -9.129;38056.633
606.147;30553.625;   -7.510;37020.418
606.728;31850.596;  -10.660;37883.359
607.309;30371.102;  -11.740;38748.273
607.890;30224.732;   -9.759;38850.230
608.471;29819.838;   -8.250;37457.918
609.051;29100.250;   -9.240;36066.457
609.632;27838.789;  -12.120;35991.074
610.213;27871.295;   -9.110;37402.641
610.794;28801.295;   -8.030;38383.363
611.374;28720.959;   -8.110;40562.387
611.955;29669.439;  -13.560;38533.727
612.536;31142.520;  -11.400;36951.789
613.116;30693.850;   -8.070;37197.891
613.697;31096.770;  -10.830;38411.125
614.277;29114.578;  -11.641;38673.938
614.858;29632.408;  -13.310;37075.863
615.438;29317.084;   -7.460;35092.906
616.019;27341.338;   -7.601;33666.301
616.599;27614.637;  -12.020;34189.023
617.179;29278.098;  -11.780;36952.047
617.760;30493.744;   -8.570;39582.574
618.340;31335.922;  -11.471;38943.977
618.920;32203.631;  -11.170;37594.156
619.500;32078.146;  -11.071;37866.938
620.080;30963.922;   -7.750;37869.043
620.660;31939.885;  -12.711;36868.617
621.241;33490.855;  -10.211;36352.309
621.821;34144.516;  -10.961;35459.520
622.401;33191.109;   -7.720;35207.414
622.980;32192.375;   -8.981;35980.422
623.560;30798.061;   -9.331;37351.328
624.140;29286.021;   -9.850;34388.582
624.720;24687.910;   -7.451;32368.764
625.300;21488.270;   -9.070;32638.629
625.880;24783.287;  -12.601;34599.035
626.459;28655.768;  -11.751;36831.738
627.039;31340.115;   -9.281;38299.098
627.619;31335.318;   -8.801;38289.574
628.198;30049.383;  -12.071;37220.695
628.778;29059.697;   -9.461;37632.563
629.357;29620.266;   -8.491;38003.012
629.937;29665.641;   -9.721;38402.039
630.516;29203.525;   -9.951;37868.801
631.096;29138.389;  -11.731;35760.410
631.675;30845.461;   -8.572;35225.219
632.254;35705.301;  -11.282;35130.289
632.834;35408.324;  -13.322;35794.570
633.413;33950.660;  -10.301;35788.922
633.992;32028.205;   -8.582;34532.863
634.571;32546.441;   -8.352;33590.113
635.151;35308.695;  -11.912;34943.863
635.730;33938.281;  -10.511;35352.523
636.309;30353.227;   -7.731;35366.605
636.888;27597.963;   -9.952;36165.637
637.467;27781.961;  -11.672;37515.902
638.046;29248.516;   -8.901;39288.695
638.625;32163.381;   -7.912;38279.699
639.204;32115.010;  -10.022;37741.598
639.782;30956.223;  -12.252;38364.551
640.361;27452.813;  -10.041;36740.621
640.940;24842.578;  -11.161;34950.082
641.519;25772.971;   -9.701;34137.398
642.097;28429.457;  -11.271;35654.258
642.676;31060.301;   -8.651;35637.957
643.255;32408.838;   -8.711;36567.074
643.833;31829.131;   -9.581;37809.434
644.412;31593.791;  -13.711;37337.293
644.990;30437.842;  -11.811;37018.531
645.569;30009.816;   -9.411;36518.469
646.147;29724.857;  -10.291;36186.430
646.726;30208.561;  -12.401;36267.688
647.304;31419.086;  -10.411;36647.625
647.882;32581.209;   -9.651;39286.742
648.461;33969.406;   -9.631;39157.703
649.039;32596.943;  -11.881;35412.883
649.617;31692.012;   -9.661;34744.918
650.195;30797.744;   -9.301;35403.098
650.773;29583.592;  -10.511;35053.797
651.352;27134.152;  -11.521;33756.816
651.930;24715.201;  -12.211;31868.773
652.508;23340.674;   -9.171;33121.551
653.086;27059.160;   -9.371;33564.793
653.663;30261.965;  -13.161;34054.668
654.241;28969.766;  -13.031;35693.309
654.819;30322.189;   -9.371;36422.906
655.397;30235.313;  -10.511;38213.484
655.975;29554.047;  -10.371;39507.625
656.553;29419.049;  -10.051;39498.223
657.130;28171.715;  -10.061;40395.480
657.708;27290.588;   -9.561;39242.020
658.286;27351.117;  -11.511;38920.020
658.863;28765.045;  -10.261;40202.898
659.441;32100.504;   -7.531;39677.938
660.018;32159.953;   -9.501;40413.355
660.596;30718.936;  -13.301;39931.414
661.173;32094.586;  -11.211;39604.531
661.750;32347.455;   -9.951;39700.070
662.328;30911.436;   -9.390;39292.809
662.905;30100.068;  -11.330;38235.648
663.482;26501.871;   -9.050;36212.305
664.060;24488.047;   -8.240;35944.945
664.637;27070.410;  -10.050;35170.785
665.214;28524.305;  -11.760;34197.523
665.791;30345.449;  -10.530;34549.520
666.368;29777.406;   -9.690;35118.578
666.945;29880.273;   -9.320;36019.418
667.522;31294.580;  -11.860;36048.438
668.099;31039.170;  -10.770;36243.914
668.676;29712.531;   -6.260;35958.875
669.253;28533.592;   -7.000;37384.730
669.830;28946.561;  -10.190;36779.629
670.407;28869.426;   -9.550;35231.289
670.984;28340.799;   -9.260;35544.270
671.560;29220.557;   -9.280;35466.867
672.137;28881.240;  -11.810;34280.863
672.714;29842.563;  -11.490;34632.863
673.290;31109.100;   -7.740;35135.422
673.867;31056.508;  -10.660;36114.480
674.443;31070.943;  -12.230;36152.859
675.020;29101.318;  -10.450;35327.238
675.596;29841.971;   -9.260;35795.176
676.173;30471.561;  -10.780;35430.355
676.749;30070.451;  -13.690;33549.516
677.326;29845.223;  -11.980;32210.012
677.902;29761.473;   -8.630;32068.871
678.478;29104.734;  -10.730;32583.891
679.054;28001.477;  -10.520;32088.928
679.631;28353.781;  -11.920;30978.848
680.207;29943.250;   -7.490;33160.887
680.783;31465.553;   -9.860;35570.363
681.359;30682.766;  -13.380;36125.184
681.935;30448.648;  -12.480;35240.922
682.511;30440.971;   -7.900;34429.961
683.087;30709.609;   -7.710;34463.680
683.663;29841.814;  -11.480;34648.898
684.239;28412.199;  -14.090;34546.457
684.815;27798.666;   -7.560;35586.375
685.390;27911.029;   -9.910;35821.895
685.966;28501.414;  -11.159;35085.871
686.542;30812.248;  -11.169;34198.230
687.118;33391.934;   -5.959;32847.707
687.693;34127.840;  -10.329;32794.027
688.269;33755.051;  -12.059;33072.367
688.844;31966.514;  -10.909;33141.664
689.420;30039.432;   -8.019;33965.742
689.995;28281.439;   -8.399;34655.523
690.571;26807.150;  -10.949;33576.742
691.146;26668.188;   -9.619;32657.219
691.722;26601.793;   -8.999;32526.979
692.297;26074.467;  -11.589;33014.617
692.872;27235.566;  -11.739;34012.254
693.448;27144.787;  -11.059;34237.434
694.023;26180.832;  -10.139;34142.672
694.598;27903.453;   -9.029;34132.031
695.173;28681.533;  -13.319;34205.250
695.748;27712.186;  -10.169;32882.488
696.323;27928.439;   -8.339;32864.906
696.898;28234.764;   -8.169;33170.004
697.473;28436.910;  -12.309;32432.984
698.048;27814.283;  -10.989;31649.303
698.623;27309.330;   -9.329;30778.141
699.198;28670.400;   -9.849;31140.119
699.773;30172.279;  -12.329;31764.299
700.348;28869.354;  -10.389;31780.816
700.922;28800.047;   -9.269;32046.375
701.497;30024.326;   -9.329;32603.574
702.072;30434.068;  -10.789;34799.871
702.646;28945.150;  -10.839;35793.172
703.221;26504.053;   -9.099;35201.590
703.795;28366.676;  -10.939;34764.527
704.370;29025.008;  -12.859;34307.367
704.944;29215.471;  -11.559;33509.887
705.519;29721.986;   -7.939;31388.584
706.093;30848.490;  -10.499;31340.104
706.668;31548.938;  -11.289;32630.281
707.242;30422.861;  -11.509;32728.779
707.816;29053.002;   -9.639;32947.238
708.390;27674.801;  -11.429;33277.855
708.965;27854.559;  -11.869;33834.336
709.539;27311.951;  -11.689;33709.273
710.113;27465.293;  -10.478;33044.313
710.687;27375.645;  -10.228;31953.992
711.261;26177.813;  -13.698;30505.949
711.835;25957.545;  -13.378;30262.369
712.409;26146.709;   -9.698;31254.447
712.983;28136.635;  -11.898;32754.986
713.557;29544.611;  -15.138;34018.824
714.131;29399.672;  -14.098;34579.625
714.704;28352.885;   -9.958;33890.262
715.278;25896.818;  -10.028;33531.102
715.852;24506.307;  -11.148;33601.660
716.425;25340.420;   -9.068;33515.117
716.999;26536.076;  -10.038;33185.555
717.573;27469.732;   -9.798;33905.996
718.146;28433.918;  -12.378;35199.293
718.720;28621.975;  -11.918;35060.551
719.293;28445.924;   -8.088;34973.230
719.867;31382.654;  -10.888;36394.449
720.440;31439.943;  -11.938;36663.008
721.013;29912.109;  -12.818;35102.426
721.587;28224.855;  -10.298;33985.266
722.160;26813.498;  -10.048;33524.965
722.733;25759.750;  -12.108;32987.043
723.306;25891.229;  -10.818;33066.301
723.880;28187.123;   -8.908;33399.500
724.453;30939.953;   -9.878;33468.297
725.026;30461.201;  -11.188;33816.637
725.599;27389.389;  -11.678;32797.996
726.172;26794.039;   -9.618;33187.434
726.745;27495.344;   -8.258;35136.613
727.318;28639.488;  -12.978;35751.730
727.891;29723.963;  -12.148;35890.430
728.463;29486.027;   -8.968;34822.090
729.036;28048.516;  -10.188;32895.086
729.609;28520.061;  -11.788;31823.225
730.182;25897.924;  -11.788;31445.283
730.754;23638.857;  -10.268;32373.223
731.327;23936.275;   -9.998;33676.820
731.900;24075.193;  -12.228;33417.000
732.472;24821.623;  -13.848;31978.498
733.045;26637.557;   -8.698;30368.777
733.617;26745.523;  -10.607;30574.215
734.190;27086.521;  -11.507;31280.975
734.762;24989.334;  -13.647;31674.412
735.334;22892.717;   -9.767;31247.291
735.907;23070.598;   -9.897;29876.211
736.479;23539.037;  -11.637;29808.488
737.051;23326.348;   -9.567;30233.547
737.623;23865.611;   -8.187;31469.086
738.195;23919.615;  -11.187;31784.225
738.768;25651.365;  -12.337;32120.523
739.340;26786.902;  -12.227;32094.342
739.912;26185.721;  -11.057;31312.680
740.484;24738.994;  -10.207;31946.238
741.056;22934.098;  -10.047;32984.059
741.628;24141.119;  -13.627;33897.715
742.199;26347.088;   -7.177;33213.016
742.771;24944.830;  -10.797;31369.113
743.343;22929.189;  -11.997;31865.473
743.915;21988.004;  -12.867;32388.631
744.487;21905.947;   -7.617;31079.568
745.058;22036.154;   -9.557;30570.107
745.630;22605.113;   -9.877;29970.127
746.201;23919.854;  -14.177;29186.766
746.773;24980.703;   -9.237;28805.723
747.344;24824.984;   -9.847;29591.223
747.916;22824.736;  -11.657;31412.201
748.487;22528.328;  -10.587;32194.898
749.059;23647.426;   -8.707;32533.719
749.630;24303.361;  -10.537;32158.518
750.201;23208.977;  -11.687;30855.395
750.773;21526.525;  -11.647;28622.555
751.344;21321.123;   -7.147;28405.732
751.915;22390.119;   -9.757;28461.551
752.486;22887.201;  -12.427;27842.850
753.057;20917.313;  -12.227;27845.008
753.628;19529.420;  -10.417;27728.107
754.199;20372.252;  -11.767;27381.086
754.770;21418.699;  -11.187;25882.203
755.341;21577.016;  -10.507;25886.184
755.912;21888.086;   -9.387;26050.861
756.483;21614.975;  -10.647;26798.779
757.054;19960.061;  -11.837;27048.238
757.625;18567.406;  -12.716;26294.838
758.195;18104.703;   -9.666;26142.076
758.766;17657.119;   -8.656;26392.234
759.337;18258.105;  -12.856;26334.594
759.907;19622.494;  -13.366;27579.652
760.478;20569.746;   -8.576;28352.770
761.048;20327.758;  -10.526;27325.088
761.619;19446.230;  -11.116;26460.428
762.189;19307.293;  -12.136;26029.826
762.760;19938.516;   -9.456;26430.145
763.330;21201.938;   -7.136;26670.902
763.900;21045.082;  -11.786;26603.021
764.471;18808.438;  -11.546;25542.740
765.041;17505.809;   -8.096;24358.459
765.611;17294.779;   -8.876;23991.297
766.181;17495.307;  -12.196;24470.236
766.751;18600.301;  -11.636;24845.975
767.321;18508.563;  -10.156;24533.633
767.891;16679.236;  -11.766;24916.492
768.461;16103.009;  -14.936;24776.771
769.031;16521.887;  -12.356;24757.988
769.601;18259.367;   -7.526;24181.088
770.171;18409.639;  -10.766;23670.387
770.741;17309.057;  -13.176;22960.045
771.311;17095.426;  -10.616;22917.523
771.880;17731.340;   -9.576;23562.941
772.450;17720.059;  -10.336;24216.500
773.020;17535.188;  -13.516;24140.398
773.589;16610.012;  -13.466;24414.857
774.159;15867.049;   -8.686;23858.717
774.729;15535.849;   -9.476;22942.135
775.298;15285.796;  -13.666;22324.033
775.867;14906.838;  -11.716;21140.313
776.437;15120.670;   -9.906;20838.092
777.006;14954.800;  -12.166;20599.510
777.576;14573.147;  -12.356;20508.809
778.145;14387.419;  -11.646;20732.947
778.714;14393.895;   -8.226;21062.465
779.283;13900.618;   -9.556;20949.664
779.853;13356.991;  -14.116;20508.623
780.422;13781.018;  -11.506;20649.082
780.991;13394.783;   -9.556;21527.520
781.560;12106.513;   -9.095;22632.658
782.129;11891.888;  -12.135;23048.277
782.698;11931.298;  -10.865;23438.555
783.267;11566.688;   -9.335;23267.734
783.836;11415.896;  -11.045;22415.133
784.404;12353.687;  -13.865;20443.152
784.973;13061.987;  -13.095;19699.150
785.542;13099.467;  -11.575;19763.828
786.111;12892.693;   -9.705;20341.408
786.679;12428.953;  -12.105;20207.967
787.248;12124.912;  -12.455;19516.465
787.817;11965.576;  -11.535;18900.363
788.385;11695.692;   -9.765;17879.121
788.954;11210.350;  -14.005;17658.301
789.522;10587.446;  -11.955;17788.879
790.090;11016.585;  -10.135;18118.277
790.659;11615.317;  -10.975;18338.736
791.227;11202.025;  -13.375;18508.615
791.795;11520.313;  -12.375;17898.254
792.364;11895.235;  -10.725;17295.133
792.932;12383.125;   -9.715;16822.051
793.500;12653.952;  -12.675;17040.148
794.068;12811.298;  -13.495;17179.787
794.636;12989.189;  -10.885;16664.246
795.204;12242.074;  -11.045;16524.545
795.772;12225.406;  -13.175;17274.564
796.340;11790.449;  -12.445;17891.002
796.908;11527.042;   -9.735;17648.561
797.476;11397.445;   -9.815;17064.080
798.044;10983.459;  -13.985;16672.777
798.612;10215.646;  -13.115;17023.996
799.180; 9819.366;  -10.185;16561.615
799.747; 9680.856;   -9.055;15962.773
800.315; 9378.302;  -12.385;15296.992
800.883; 9177.197;  -15.035;14801.771
801.450; 9410.681;  -10.365;14534.430
802.018; 9580.305;   -9.855;14173.248
802.585; 9624.305;  -11.905;14029.547
803.153; 9544.398;  -11.585;13836.846
803.720; 9280.985;   -9.095;13567.324
804.287; 8807.633;   -9.135;13360.622
804.855; 8313.188;  -11.604;13681.981
805.422; 8185.186;  -11.794;13536.560
805.989; 8303.259;  -10.734;13355.958
806.556; 8436.526;  -10.444;13747.896
807.124; 8634.585;  -12.764;13987.376
807.691; 8590.545;  -12.964;14038.674
808.258; 8446.102;  -11.134;14120.152
808.825; 8177.812;   -9.854;13860.111
809.392; 8278.853;  -10.504;13268.790
809.959; 7762.459;  -13.054;12680.389
810.526; 7211.348;   -8.294;12427.308
811.093; 7147.715;   -8.394;12030.105
811.659; 7816.893;  -12.304;11653.664
812.226; 8461.484;  -13.944;11637.183
812.793; 8263.116;  -10.484;11611.521
813.360; 7645.520;  -10.144;11885.181
813.926; 7311.364;  -11.684;12770.539
814.493; 7107.173;  -13.644;12677.638
815.060; 6693.091;   -9.724;11974.336
815.626; 6593.935;   -9.854;11594.715
816.193; 6954.539;  -13.254;11579.474
816.759; 6986.760;  -13.204;11666.972
817.325; 6979.655;   -9.434;11325.530
817.892; 7304.613;  -10.134;11105.369
818.458; 7731.438;  -13.474;10843.928
819.024; 7415.489;  -11.854;10714.406
819.591; 7145.989;  -10.244;10469.165
820.157; 6945.349;  -10.704;10235.523
820.723; 6387.886;  -12.324;10847.563
821.289; 6043.591;   -9.444;11040.980
821.855; 5994.729;   -8.374;10357.100
822.421; 6016.942;  -10.234; 9978.918
822.987; 6016.996;  -13.294; 9754.177
823.553; 5608.167;  -10.884;10065.755
824.119; 5363.832;   -8.884;10036.294
824.685; 5522.050;   -6.784;10029.192
825.251; 5684.707;  -12.004;10199.230
825.816; 5643.145;  -11.474; 9820.189
826.382; 5347.520;   -9.174; 9297.248
826.948; 5433.812;   -9.214; 9381.347
827.513; 5850.333;  -10.774; 9450.726
828.079; 5764.222;  -11.924; 9472.444
828.645; 5143.597;  -10.543; 9292.643
829.210; 4905.629;  -10.533; 9065.341
829.776; 4863.551;  -10.753; 9132.620
830.341; 4760.720;  -10.173; 9092.878
830.906; 4917.836;  -10.743; 9078.557
831.472; 5280.077;  -11.113; 8534.535
832.037; 5137.840;  -10.603; 8677.874
832.602; 4662.616;  -13.323; 8628.692
833.167; 4386.476;  -10.823; 8879.031
833.733; 4314.338;  -10.113; 9189.790
834.298; 4455.899;  -13.583; 9052.608
834.863; 4601.410;  -12.703; 8895.087
835.428; 4594.951;  -10.523; 8824.266
835.993; 4392.269;   -6.963; 8845.385
836.558; 4151.809;  -10.763; 8888.563
837.123; 4190.075;   -9.903; 8966.582
837.688; 4454.995;   -9.913; 8617.860
838.253; 4770.497;  -10.283; 8590.699
838.817; 5005.004;  -12.963; 8443.797
839.382; 4940.210;  -14.243; 8799.356
839.947; 4637.926;  -10.733; 8810.595
840.511; 4342.078;   -9.383; 8796.394
841.076; 3967.690;  -12.563; 8347.231
841.641; 4003.642;  -12.953; 8224.330
842.205; 4098.280;   -7.043; 8223.349
842.770; 4111.309;   -8.163; 8622.107
843.334; 4209.874;  -12.503; 8410.386
843.898; 4132.653;  -11.693; 8337.465
844.463; 4126.286;  -10.203; 8506.283
845.027; 3937.916;   -9.533; 8280.962
845.591; 3769.790;  -13.443; 8231.141
846.156; 3801.418;  -13.143; 7969.179
846.720; 3712.308;   -9.433; 7768.278
847.284; 3599.757;  -11.033; 7630.957
847.848; 3470.215;  -10.403; 7472.395
848.412; 3385.983;  -11.553; 7437.394
848.976; 3442.198;   -8.393; 7674.592
849.540; 3359.996;   -8.713; 7836.011
850.104; 3408.629;  -12.463; 7913.669
850.668; 3773.647;  -12.973; 7694.508
851.232; 3954.348;  -10.793; 7756.887
851.796; 3831.810;  -10.662; 7926.545
852.359; 3525.313;  -13.082; 7827.844
852.923; 3321.667;  -12.192; 7641.163
853.487; 3158.839;  -11.912; 7342.501
854.050; 3150.634;  -10.892; 7042.820
854.614; 3326.483;  -13.992; 7151.338
855.177; 3452.677;  -11.732; 7105.077
855.741; 3489.664;   -8.962; 6989.675
856.304; 3361.030;   -9.442; 6596.634
856.868; 3317.808;  -14.192; 6356.272
857.431; 3409.386;  -12.702; 6468.571
857.995; 3516.670;   -9.942; 6373.210
858.558; 3543.454;   -9.112; 6324.448
859.121; 3276.908;  -12.932; 6408.327
859.684; 3100.154;  -13.442; 6347.886
860.247; 3214.303;  -10.632; 6321.264
860.810; 3274.480;  -11.272; 6301.903
861.374; 3041.732;   -9.832; 6607.881
861.937; 2774.159;  -11.762; 6408.200
862.500; 2768.461;   -9.722; 6572.639
863.062; 2922.482;  -10.512; 6387.297
863.625; 3079.154;  -11.232; 6190.836
864.188; 3240.454;  -14.112; 5807.254
864.751; 3309.916;  -11.302; 5682.413
865.314; 3220.174;  -10.112; 5547.492
865.876; 2979.362;  -12.182; 5500.150
866.439; 2924.463;  -10.722; 5415.909
867.002; 2889.042;   -9.252; 5501.567
867.564; 2715.692;   -9.572; 5413.946
868.127; 2515.266;  -13.142; 5160.325
868.689; 2399.932;  -12.902; 5133.183
869.252; 2304.258;   -9.732; 5252.382
869.814; 2203.744;   -9.432; 5297.141
870.377; 2194.579;  -11.552; 5390.919
870.939; 2250.274;   -9.052; 5599.898
871.501; 2323.219;  -10.982; 5248.336
872.063; 2339.891;  -12.292; 4854.235
872.626; 2276.703;  -14.912; 4817.074
873.188; 2264.897;  -13.112; 4987.732
873.750; 2235.777;  -13.442; 4868.651
874.312; 2134.218;   -9.402; 4779.330
874.874; 2049.736;  -11.062; 4866.348
875.436; 1977.410;  -13.931; 4718.887
875.998; 1976.487;   -9.561; 4660.005
876.560; 2007.604;  -11.321; 4462.964
877.122; 1945.262;  -12.221; 4145.042
877.683; 1832.868;  -12.191; 4056.481
878.245; 1751.071;  -12.101; 3950.740
878.807; 1795.187;   -8.971; 4058.958
879.369; 1823.244;  -12.071; 3954.677
879.930; 1727.491;  -14.621; 3941.495
880.492; 1653.605;  -10.311; 4067.014
881.053; 1627.839;  -10.901; 3859.633
881.615; 1538.581;  -14.411; 3776.071
882.176; 1432.292;  -13.761; 3734.750
882.738; 1370.548;   -9.181; 3678.489
883.299; 1342.850;  -11.791; 3405.407
883.860; 1329.347;  -13.121; 3351.106
884.422; 1319.155;  -11.211; 3394.044
884.983; 1280.703;  -10.091; 3166.443
885.544; 1212.125;   -8.461; 3189.802
886.105; 1133.893;  -12.361; 3160.360
886.666; 1062.355;  -14.141; 3093.059
887.227;  996.983;  -11.361; 2941.957
887.788;  934.384;  -11.401; 2974.836
888.349;  868.155;  -13.791; 2721.214
888.910;  856.273;  -13.191; 2696.493
889.471;  857.422;   -9.881; 2560.172
890.032;  842.485;   -9.881; 2558.190
890.593;  815.704;  -10.371; 2567.669
891.153;  786.888;  -13.301; 2460.307
891.714;  741.352;  -11.431; 2372.046
892.275;  708.291;  -11.291; 2309.505
892.835;  679.460;  -11.471; 2382.543
893.396;  632.381;  -11.541; 2295.502
893.956;  574.109;  -11.181; 2162.420
894.517;  531.479;  -11.741; 2125.439
895.077;  522.053;  -11.671; 2086.978
895.638;  521.166;  -11.311; 2126.316
896.198;  494.403;   -9.831; 1838.275
896.758;  452.788;   -8.421; 1892.813
897.319;  420.379;  -12.351; 1792.232
897.879;  404.300;  -13.511; 1762.751
898.439;  379.589;  -12.001; 1661.149
898.999;  355.496;  -10.180; 1781.468
899.559;  345.986;  -12.030; 1703.347
900.119;  341.536;  -15.710; 1537.525
900.679;  334.886;   -8.900; 1638.384
901.239;  320.415;   -8.340; 1527.902
901.799;  311.623;  -13.910; 1456.441
902.359;  304.200;  -13.460; 1357.140
902.919;  296.924;  -11.490; 1331.118
903.479;  286.213;  -12.110; 1317.257
904.038;  265.367;  -11.720; 1262.595
904.598;  248.888;  -13.610; 1152.034
905.158;  244.353;  -11.040; 1240.893
905.717;  238.849;  -10.900; 1233.691
906.277;  228.259;  -15.080; 1217.330
906.836;  218.049;  -13.380; 1222.408
907.396;  208.979;  -10.780; 1193.047
907.955;  201.266;   -8.500; 1182.526
908.515;  196.520;  -12.760; 1099.364
909.074;  188.740;  -11.900; 1092.863
909.633;  184.194;   -8.950; 1069.121
910.192;  179.435;   -8.770; 1196.460
910.752;  174.325;  -12.390; 1029.960
911.311;  169.486;  -13.680; 1009.780
911.870;  165.740;  -12.370;  971.460
912.429;  166.699;  -10.900; 1094.080
912.988;  166.834;  -11.690; 1081.060
913.547;  162.267;  -13.240;  940.380
914.106;  158.223;  -11.990;  999.420
914.665;  154.322;   -9.990;  984.020
915.224;  153.178;  -12.880; 1035.760
915.782;  152.470;  -12.350;  922.560
916.341;  153.083;   -9.110; 1049.840
916.900;  148.186;   -9.270;  925.260
917.458;  146.567;  -13.240;  884.220
918.017;  144.968;  -13.550;  942.600
918.576;  145.317;  -12.320;  904.440
919.134;  143.750;  -11.490;  837.980
919.693;  142.902;  -13.670;  893.060
920.251;  139.983;  -15.470;  876.500
920.809;  139.729;  -11.290;  839.580
921.368;  140.012;  -10.210;  885.360
921.926;  138.982;  -12.140;  842.940
922.484;  136.835;  -13.080;  903.360
923.042;  136.428;  -11.720;  880.340
923.601;  139.307;   -7.480;  998.680
924.159;  137.907;  -11.570;  935.560
924.717;  133.924;  -13.840;  841.080
925.275;  134.518;  -10.640;  903.240
925.833;  133.271;  -11.540;  779.320
926.391;  135.652;  -12.960;  938.380
926.949;  133.550;  -14.130;  857.680
927.506;  133.171;  -11.750;  903.500
928.064;  134.217;  -10.250;  877.580
928.622;  134.217;  -13.030;  880.100
929.180;  132.726;  -13.400;  814.180
929.737;  133.099;  -10.700;  808.540
930.295;  138.043;  -10.070;  928.480
930.853;  139.963;  -11.960;  849.100
931.410;  139.451;  -13.120;  821.120
931.968;  138.618;  -10.770;  940.660
932.525;  138.612;  -10.680;  909.380
933.082;  140.239;  -13.130;  811.440
933.640;  140.008;  -13.210;  925.900
934.197;  138.539;  -11.060;  886.360
934.754;  140.598;   -9.580;  897.780
935.312;  143.670;  -14.000;  863.340
935.869;  147.765;  -10.710; 1012.980
936.426;  147.758;   -9.860;  872.800
936.983;  149.092;   -9.710;  889.020
937.540;  149.293;  -13.990;  838.280
938.097;  148.350;  -14.040;  940.120
938.654;  148.014;  -10.310;  898.860
939.211;  150.592;  -10.560;  952.480
939.768;  154.012;  -13.900;  915.420
940.324;  158.191;  -14.760;  904.200
940.881;  158.919;  -10.370;  878.500
941.438;  160.103;   -8.260; 1021.200
941.995;  157.654;  -12.540;  992.560
942.551;  153.950;  -14.670;  875.620
943.108;  152.835;  -10.450;  937.920
943.664;  156.058;  -10.750;  869.340
944.221;  160.147;  -11.550; 1088.140
944.777;  157.083;  -14.770;  869.680
945.334;  155.704;  -12.820;  884.840
945.890;  158.198;  -10.130;  946.480
946.446;  160.025;  -13.470;  947.020
947.003;  160.675;  -12.120;  964.940
947.559;  164.526;   -9.980; 1063.040
948.115;  163.774;   -9.080; 1026.540
948.671;  161.916;  -10.830;  967.300
949.227;  158.782;  -12.440;  859.560
949.783;  156.478;  -12.910;  858.900
950.339;  158.466;  -10.270;  991.000
950.895;  159.262;  -13.630; 1023.840
951.451;  158.005;  -15.100;  925.280
952.007;  157.376;  -11.330;  998.540
952.563;  157.481;  -10.580;  937.780
953.118;  156.555;  -13.440;  904.940
953.674;  156.235;  -12.710;  935.780
954.230;  156.109;  -10.350;  949.640
954.785;  153.901;   -9.190;  936.640
955.341;  151.184;  -11.200;  998.160
955.897;  149.576;  -16.560;  834.660
956.452;  152.135;  -12.570;  953.840
957.008;  150.804;   -7.970; 1083.640
957.563;  148.670;  -11.940; 1009.540
958.118;  142.501;  -13.450;  877.700
958.674;  142.972;  -12.030;  946.780
959.229;  143.729;   -9.410; 1013.980
959.784;  142.744;  -12.000;  832.400
960.339;  141.763;  -14.780; 1001.280
960.894;  138.221;   -9.860;  963.760
961.449;  134.778;   -9.970;  859.960
962.004;  135.170;  -10.900; 1212.840
962.559;  129.254;  -13.150;  860.140
963.114;  125.536;  -13.740;  742.480
963.669;  126.139;   -9.820;  915.500
964.224;  124.990;  -13.890;  874.340
964.779;  123.805;  -12.600;  828.420
965.334;  123.964;  -10.950; 1017.860
965.888;  124.327;  -11.170;  875.360
966.443;  128.658;  -12.540;  972.380
966.998;  127.434;  -15.780;  819.460
967.552;  126.413;   -9.760;  908.380
968.107;  122.683;   -9.060;  868.300
968.661;  124.118;  -11.950;  922.440
969.216;  124.552;  -12.800;  856.280
969.770;  124.956;  -11.210;  917.200
970.324;  123.612;  -11.610;  923.140
970.879;  121.802;  -11.370;  947.180
971.433;  116.991;  -12.540;  952.720
971.987;  111.889;  -11.320;  895.340
972.541;  110.337;  -10.720;  917.100
973.095;  109.042;   -9.680; 1009.460
973.649;  107.782;  -11.440;  809.480
974.203;  104.679;  -11.210;  829.040
974.757;  104.929;  -10.240;  855.220
975.311;  106.090;  -13.720;  872.600
975.865;  104.487;  -13.770;  881.820
976.419;   99.636;  -11.690;  857.400
976.973;   93.441;   -9.510;  849.620
977.526;   88.017;  -12.620;  949.920
978.080;   79.301;  -12.010;  796.780
978.634;   77.977;  -10.170;  921.320
979.187;   78.086;   -9.020;  905.400
979.741;   79.720;   -9.820; 1018.380
980.294;   77.053;  -14.870;  789.160
980.848;   77.090;  -12.380;  717.220
981.401;   80.087;  -10.350;  816.540
981.955;   83.273;  -13.720;  844.300
982.508;   82.768;  -11.490;  746.340
983.061;   83.954;  -10.000;  915.260
983.615;   80.983;  -11.480;  798.800
984.168;   79.973;  -13.220;  770.080
984.721;   79.247;  -13.960;  880.760
985.274;   78.123;  -10.870;  867.500
985.827;   77.959;   -9.790;  834.220
986.380;   76.316;  -13.120;  721.340
986.933;   76.187;  -12.450;  864.800
987.486;   74.556;  -10.210;  861.920
988.039;   74.332;   -8.430;  863.100
988.591;   73.427;  -10.520;  893.260
989.144;   70.765;  -14.860;  737.260
989.697;   69.554;  -13.080;  758.740
990.250;   70.785;  -10.150;  858.100
990.802;   69.334;  -13.430;  755.860
991.355;   70.491;  -12.750;  974.880
991.907;   68.451;  -12.040;  864.320
992.460;   66.412;  -11.330;  753.760
993.012;   66.190;  -13.610;  749.540
993.565;   64.587;  -13.460;  711.360
994.117;   66.316;   -9.360;  950.780
994.669;   62.174;  -11.300;  701.320
995.221;   59.743;  -13.540;  791.920
995.774;   57.312;  -13.430;  787.580
996.326;   55.143;  -12.520;  740.220
996.878;   56.005;  -10.950;  838.420
997.430;   54.948;  -14.300;  699.860
997.982;   54.314;  -13.760;  750.140
998.534;   53.869;  -11.530;  739.060
999.086;   52.580;  -10.310;  738.220
999.638;   51.885;  -12.530;  661.380
1000.190;   50.590;  -11.840;  699.320
1000.741;   50.636;  -10.260;  742.700
1001.293;   50.291;   -8.860;  686.020
1001.845;   49.698;  -13.700;  676.640
1002.396;   49.012;  -12.100;  743.400
1002.948;   48.697;  -12.760;  737.400
1003.500;   47.155;  -10.380;  723.780
1004.051;   47.916;  -11.900;  907.580
1004.603;   46.756;  -12.250;  791.820
1005.154;   42.637;  -13.210;  608.980
1005.705;   41.444;  -10.950;  723.960
1006.257;   41.982;  -13.880;  707.220
1006.808;   41.172;  -12.840;  685.460
1007.359;   40.776;  -10.570;  763.240
1007.910;   39.106;   -9.620;  646.640
1008.461;   39.591;  -13.630;  732.940
1009.013;   38.690;  -17.200;  588.340
1009.564;   39.430;  -10.200;  793.520
1010.115;   36.983;  -12.570;  597.040
1010.665;   37.376;  -15.150;  602.160
1011.216;   37.106;  -14.480;  667.920
1011.767;   37.001;  -11.340;  697.920
1012.318;   36.301;   -9.780;  736.980
1012.869;   35.870;  -12.380;  679.000
1013.419;   35.456;  -15.560;  603.120
1013.970;   35.080;  -11.010;  666.640
1014.521;   34.094;  -11.610;  620.620
1015.071;   35.818;  -13.450;  670.380
1015.622;   34.647;  -13.870;  635.460
1016.172;   33.192;  -11.610;  596.820
1016.723;   33.331;  -12.120;  614.380
1017.273;   33.208;  -13.620;  604.160
1017.823;   33.670;  -14.140;  650.340
1018.374;   32.386;  -12.800;  611.760
1018.924;   32.997;  -12.340;  716.880
1019.474;   33.408;  -11.410;  718.880
1020.024;   31.850;  -14.770;  657.580
1020.574;   32.163;   -9.780;  726.160
1021.124;   32.202;   -8.560;  673.580
1021.674;   31.660;  -15.190;  559.120
1022.224;   32.312;  -13.530;  708.940
1022.774;   31.490;  -13.280;  668.820
1023.324;   32.072;  -10.690;  753.520
1023.874;   32.950;  -10.240;  875.760
1024.423;   31.375;  -12.540;  613.700
1024.973;   29.978;  -10.010;  610.760
1025.523;   29.221;  -10.550;  620.960
1026.072;   29.837;  -13.560;  606.420
1026.622;   29.198;  -15.120;  675.740
1027.172;   30.288;  -11.260;  715.660
1027.721;   29.409;  -11.410;  601.220
1028.270;   30.008;  -13.530;  663.400
1028.820;   29.535;  -13.680;  638.080
1029.369;   28.289;  -13.520;  612.700
1029.918;   28.940;  -10.980;  649.840
1030.468;   28.629;  -13.530;  564.780
1031.017;   28.929;  -13.170;  634.800
1031.566;   27.498;  -12.200;  608.900
1032.115;   28.064;   -9.960;  694.500
1032.664;   27.296;  -13.210;  596.480
1033.213;   27.974;  -12.500;  735.420
1033.762;   26.970;  -11.910;  635.620
1034.311;   27.195;   -9.640;  677.220
1034.860;   27.686;  -13.310;  691.000
1035.408;   27.468;  -11.830;  722.720
1035.957;   27.258;  -12.000;  719.540
1036.506;   25.449;  -11.690;  530.800
1037.055;   28.286;  -10.990;  844.320
1037.603;   25.867;  -15.120;  664.000
1038.152;   24.316;  -12.450;  534.760
1038.700;   24.776;  -10.560;  585.740
1039.249;   25.709;  -11.080;  681.220
1039.797;   25.188;  -12.540;  633.360
1040.345;   24.816;  -11.920;  705.420
1040.894;   24.407;  -11.410;  625.300
1041.442;   24.728;  -14.320;  632.200
1041.990;   23.848;  -16.240;  559.160
1042.538;   22.922;  -11.680;  536.180
1043.087;   23.118;  -10.760;  570.860
1043.635;   25.654;  -11.850;  670.500
1044.183;   24.141;  -15.480;  586.400
1044.731;   22.819;  -11.770;  576.000
1045.279;   23.178;  -13.090;  674.920
1045.827;   24.974;  -12.440;  892.400
1046.374;   22.067;  -13.840;  515.420
1046.922;   21.256;  -13.220;  590.580
1047.470;   23.442;  -10.230;  691.300
1048.018;   23.309;  -14.590;  647.960
1048.565;   23.319;  -12.050;  708.600
1049.113;   21.476;  -11.650;  557.000
1049.660;   21.985;  -10.510;  629.660
1050.208;   22.475;  -13.310;  675.640
1050.755;   21.386;  -15.900;  606.580
1051.303;   22.128;  -11.430;  686.820
1051.850;   21.510;   -8.480;  635.120
1052.397;   19.956;  -15.010;  473.960
1052.945;   20.572;  -13.960;  617.760
1053.492;   21.724;  -13.150;  741.840
1054.039;   21.492;   -9.630;  720.180
1054.586;   20.385;  -13.680;  557.240
1055.133;   20.644;  -14.570;  693.140
1055.680;   21.132;  -13.820;  646.620
1056.227;   20.029;  -11.730;  542.780
1056.774;   21.301;  -12.480;  794.980
1057.321;   19.666;  -13.930;  523.260
1057.868;   19.329;  -11.690;  651.320
1058.415;   19.390;   -9.520;  651.980
1058.961;   20.224;  -13.160;  678.940
1059.508;   19.386;  -12.920;  643.820
1060.055;   19.414;  -11.920;  581.780
1060.601;   19.785;  -11.500;  624.300
1061.148;   19.474;  -14.330;  616.820
1061.694;   19.006;  -16.870;  592.580
1062.241;   18.706;  -10.330;  596.320
1062.787;   18.774;  -10.620;  663.140
1063.334;   20.781;  -10.110;  808.560
1063.880;   18.341;  -13.400;  668.360
1064.426;   18.116;  -10.680;  706.820
1064.972;   17.884;   -9.920;  601.340
1065.518;   17.216;  -10.980;  566.640
1066.065;   17.664;  -14.890;  624.460
1066.611;   16.929;  -12.870;  598.800
1067.157;   17.478;  -12.950;  641.860
1067.703;   18.046;  -13.540;  668.480
1068.249;   17.370;  -13.540;  605.220
1068.794;   16.873;  -12.600;  626.880
1069.340;   16.134;  -10.620;  578.960
1069.886;   17.094;  -12.830;  590.700
1070.432;   16.091;  -14.870;  541.720
1070.977;   15.254;  -11.980;  601.080
1071.523;   16.313;   -8.200;  573.060
1072.068;   16.648;  -12.330;  582.000
1072.614;   15.993;  -16.370;  527.760
1073.160;   16.522;  -11.100;  687.040
1073.705;   15.278;  -10.480;  572.520
1074.250;   15.985;  -14.520;  559.900
1074.796;   16.300;  -11.460;  655.160
1075.341;   15.895;  -11.950;  664.100
1075.886;   15.043;  -11.460;  594.240
1076.431;   15.510;  -13.770;  649.880
1076.976;   15.307;  -12.680;  639.220
1077.521;   14.869;  -13.170;  583.080
1078.067;   14.240;  -10.860;  579.400
1078.612;   15.829;  -13.920;  661.620
1079.156;   14.908;  -13.880;  601.540
1079.701;   14.962;  -13.120;  693.260
1080.246;   14.977;   -9.940;  696.300
1080.791;   15.057;  -14.740;  625.020
1081.336;   14.794;  -13.750;  659.320
1081.880;   14.590;  -13.400;  649.680
1082.425;   13.756;  -12.220;  573.480
1082.970;   15.196;  -11.610;  717.040
1083.514;   13.917;  -13.580;  597.000
1084.059;   12.505;  -12.810;  586.720
1084.603;   13.085;  -12.320;  565.840
1085.147;   13.699;  -13.190;  645.220
1085.692;   14.640;  -12.480;  716.800
1086.236;   11.778;  -13.020;  503.140
1086.780;   14.768;   -9.190;  751.440
1087.325;   13.859;  -12.480;  654.620
1087.869;   13.280;  -12.450;  610.700
1088.413;   12.492;  -12.240;  705.040
1088.957;   11.490;   -9.020;  543.400
1089.501;   13.956;  -10.320;  766.640
1090.045;   12.430;  -12.720;  726.480
1090.589;   10.562;  -13.690;  569.920
1091.133;   12.381;  -10.020;  673.340
1091.676;   13.108;  -12.330;  591.940
1092.220;   12.488;  -14.970;  600.920
1092.764;   12.575;  -12.430;  706.960
1093.307;   11.844;   -9.800;  673.780
1093.851;   11.171;  -14.970;  556.540
1094.395;   12.771;  -15.310;  683.140
1094.938;   10.768;  -10.370;  632.520
1095.482;   10.517;  -11.050;  559.800
1096.025;   12.789;  -11.840;  710.880
1096.568;   12.221;  -12.840;  779.280
1097.112;    9.466;  -14.700;  508.180
1097.655;   10.877;   -8.720;  603.000
1098.198;   10.233;  -13.610;  600.180
1098.741;   10.091;  -13.350;  612.860
1099.285;   10.883;  -11.230;  657.300
1099.828;    8.740;  -11.840;  439.400
1100.371;   10.426;  -10.840;  608.160
1100.914;   10.099;  -14.190;  682.660
1101.457;   10.506;  -11.240;  679.900
1101.999;    8.290;  -11.270;  584.680
1102.542;   11.036;  -11.480;  641.440
1103.085;    9.739;  -11.750;  658.500
1103.628;   10.576;  -11.400;  762.060
1104.170;    9.104;  -10.490;  588.280
1104.713;   10.244;  -10.600;  646.700
1105.256;    8.454;  -14.360;  557.440
1105.798;    7.221;  -13.210;  499.980
1106.341;   10.114;  -10.270;  728.900
1106.883;    9.080;  -12.200;  521.340
1107.425;    9.046;  -13.110;  668.180
1107.968;    9.264;  -12.840;  612.380
1108.510;    8.155;   -6.480;  684.960
1109.052;    8.001;  -13.940;  612.620
1109.594;    7.522;  -13.690;  554.440
1110.136;    8.470;  -11.880;  643.220
1110.679;    7.945;   -9.500;  633.080
1111.221;    8.856;  -14.160;  604.460
1111.763;    7.581;  -13.980;  559.220
1112.304;    6.453;  -13.880;  547.140
1112.846;    7.832;  -12.210;  666.240
1113.388;   10.936;  -11.390;  942.180
1113.930;    7.924;  -14.540;  694.200
1114.472;    6.845;  -12.640;  606.540
1115.013;    5.809;  -11.620;  551.280
1115.555;    6.522;  -13.640;  587.100
1116.097;    6.148;  -15.380;  579.480
1116.638;    7.585;  -12.640;  684.600
1117.180;    6.374;   -9.850;  667.740
1117.721;    7.079;  -13.690;  568.580
1118.262;    7.036;  -12.680;  677.960
1118.804;    7.304;  -12.530;  637.340
1119.345;    6.155;  -11.690;  578.400
1119.886;    7.238;  -13.380;  704.040
1120.427;    6.519;  -14.070;  589.020
1120.969;    5.463;  -13.500;  597.920
1121.510;    5.398;  -11.480;  563.060
1122.051;    6.819;  -12.830;  723.580
1122.592;    5.196;  -14.290;  655.420
1123.133;    4.328;  -12.400;  547.940
1123.673;    6.165;  -10.130;  706.480
1124.214;    5.908;  -12.930;  612.460
1124.755;    6.554;  -14.380;  639.460
1125.296;    5.659;  -14.000;  627.320
1125.836;    6.277;  -10.070;  691.500
1126.377;    5.615;  -12.640;  599.660
1126.918;    5.843;  -12.960;  614.980
1127.458;    4.094;  -13.350;  622.220
1127.999;    5.965;  -10.750;  656.980
1128.539;    5.926;  -12.350;  694.240
1129.079;    4.746;  -14.860;  632.720
1129.620;    3.779;  -13.840;  558.100
1130.160;    3.663;  -12.330;  539.480
1130.700;    5.548;  -14.530;  640.840
1131.240;    4.960;  -12.530;  643.700
1131.781;    4.038;  -14.450;  619.680
1132.321;    3.851;   -9.790;  599.120
1132.861;    3.214;  -14.860;  564.200
1133.401;    3.022;  -14.290;  593.940
1133.941;    4.090;  -11.750;  626.280
1134.481;    3.149;   -9.920;  597.580
1135.020;    3.464;  -12.290;  609.160
1135.560;    3.656;  -11.650;  674.940
1136.100;    2.952;  -16.270;  501.160
1136.640;    2.290;  -10.890;  510.480
1137.179;    3.484;  -14.180;  537.960
1137.719;    3.403;  -16.250;  605.400
1138.258;    3.307;  -14.230;  587.360
1138.798;    3.326;   -9.090;  663.780
1139.337;    2.031;  -15.130;  482.840
1139.877;    3.506;  -13.680;  642.360
1140.416;    5.337;  -11.320;  878.060
1140.955;    2.110;  -10.860;  535.380
1141.494;    3.040;  -12.920;  669.280
1142.034;    2.295;  -13.930;  583.520
1142.573;    3.344;  -11.440;  646.280
1143.112;    2.141;  -12.000;  553.480
1143.651;    2.851;  -13.670;  536.480
1144.190;    3.273;  -12.730;  691.640
1144.729;    2.240;  -14.560;  607.420
1145.267;    2.270;  -11.830;  584.900
1145.806;    2.957;  -12.230;  637.040
1146.345;    1.487;  -14.130;  635.020
1146.884;    1.266;  -11.590;  622.500
1147.422;    1.236;  -12.550;  533.060
1147.961;    3.417;  -11.180;  708.460
1148.500;    2.902;  -11.510;  669.720
1149.038;    2.796;  -11.640;  632.500
1149.577;    1.415;  -10.130;  698.640
1150.115;    0.177;  -13.970;  452.280
1150.653;    1.840;  -14.520;  607.340
1151.192;    1.208;  -12.810;  552.920
1151.730;    1.587;   -9.100;  652.560
1152.268;    1.449;  -12.220;  589.520
1152.806;    1.335;  -14.140;  571.180
1153.344;   -0.404;  -12.350;  577.640
1153.882;    0.960;   -8.980;  600.060
1154.421;    0.228;  -15.190;  470.620
1154.958;    0.583;  -15.210;  595.240
1155.496;    1.642;  -12.850;  645.280
1156.034;    0.773;   -9.940;  721.880
1156.572;    1.439;  -13.570;  667.060
1157.110;   -0.013;  -14.590;  473.940
1157.647;    0.856;  -13.030;  676.960
1158.185;    0.405;  -12.140;  564.320
1158.723;   -0.318;  -14.390;  509.200
1159.260;    0.271;  -14.090;  701.700
1159.798;    0.572;  -11.920;  658.160
1160.335;    0.566;  -11.110;  631.820

