gmr_left
Integration time [ms]: 412.139
Averaging Nr. [scans]: 50
Smoothing Nr. [pixels]: 0
Data measured with spectrometer [name]: 7414430SP
Wave   ;Sample   ;Dark     ;Reference
[nm]   ;[counts] ;[counts] ;[counts] 

288.544;  804.471;  556.129;  793.890
289.143;  687.210;  473.960;  681.602
289.742;  849.355;  630.955;  828.814
290.341;  804.443;  604.742;  789.841
290.940;  746.702;  520.634;  730.702
291.538;  894.439;  695.774;  881.108
292.137;  804.086;  626.824;  792.581
292.736;  991.443;  804.742;  975.101
293.335;  753.769;  547.569;  735.086
293.934;  796.912;  583.590;  781.677
294.532; 1051.714;  863.618; 1031.958
295.131;  856.058;  636.289;  834.394
295.730;  826.685;  641.311;  809.588
296.328;  796.854;  623.281;  783.442
296.927;  791.953;  603.233;  779.652
297.525;  793.222;  623.290;  781.236
298.124;  665.119;  481.013;  654.009
298.722;  777.132;  604.206;  761.933
299.321;  718.479;  559.141;  708.597
299.919;  760.200;  553.073;  751.918
300.518;  699.836;  530.992;  689.338
301.116;  701.528;  544.144;  691.381
301.715;  739.052;  611.240;  730.222
302.313;  718.073;  557.199;  704.943
302.911;  747.041;  609.932;  733.830
303.509;  936.542;  789.202;  925.627
304.108;  775.034;  611.213;  760.383
304.706;  810.795;  611.227;  801.664
305.304;  808.976;  619.998;  796.707
305.902;  798.357;  618.241;  784.484
306.500;  734.704;  594.129;  728.200
307.098;  761.644;  623.102;  746.560
307.696;  791.986;  633.042;  780.432
308.294;  733.882;  589.101;  731.359
308.892;  770.465;  600.217;  759.769
309.490;  719.705;  586.062;  712.161
310.088;  798.108;  644.982;  788.444
310.686;  826.223;  684.176;  821.749
311.284;  770.984;  668.048;  766.040
311.882;  733.230;  620.983;  731.225
312.480;  703.234;  581.903;  697.167
313.078;  819.683;  681.987;  808.331
313.675;  697.904;  565.129;  691.600
314.273;  806.632;  652.896;  797.837
314.871;  596.978;  479.945;  589.829
315.468;  661.761;  535.932;  652.090
316.066;  705.078;  572.120;  694.427
316.664;  659.901;  535.892;  656.351
317.261;  912.817;  792.012;  910.128
317.859;  779.831;  642.949;  768.735
318.456;  836.955;  727.072;  830.096
319.054;  789.338;  678.972;  787.828
319.651;  768.498;  687.026;  759.928
320.249;  814.419;  705.026;  810.188
320.846;  716.035;  625.079;  714.286
321.443;  840.372;  725.030;  832.135
322.041;  811.472;  720.990;  812.315
322.638;  709.655;  609.018;  701.456
323.235;  671.673;  590.199;  665.683
323.833;  747.794;  654.125;  740.354
324.430;  618.684;  500.075;  615.900
325.027;  885.916;  786.126;  876.855
325.624;  647.813;  552.287;  644.532
326.221;  697.322;  576.223;  689.717
326.818;  827.908;  694.137;  818.332
327.415;  752.287;  657.339;  748.828
328.012;  690.841;  552.364;  690.585
328.609;  734.628;  599.299;  731.389
329.206;  787.190;  659.239;  778.621
329.803;  751.130;  638.212;  737.841
330.400;  706.670;  574.306;  704.260
330.997;  827.242;  681.229;  817.147
331.594;  801.573;  641.038;  788.185
332.191;  734.172;  565.212;  728.722
332.787;  850.692;  722.145;  844.463
333.384;  769.066;  623.948;  763.093
333.981;  820.348;  655.739;  815.687
334.578;  710.893;  555.815;  708.378
335.174;  731.494;  561.809;  731.469
335.771;  843.224;  669.664;  836.456
336.367;  718.971;  540.538;  710.631
336.964;  803.444;  648.630;  793.266
337.561;  738.235;  610.580;  731.112
338.157;  915.157;  777.365;  911.916
338.754;  800.182;  639.292;  796.589
339.350;  725.931;  573.322;  722.493
339.946;  780.098;  597.446;  773.135
340.543;  852.612;  714.147;  846.136
341.139;  721.388;  573.024;  720.836
341.735;  780.001;  621.995;  772.593
342.332;  698.401;  559.049;  691.472
342.928;  796.425;  679.091;  795.394
343.524;  771.282;  653.975;  761.684
344.120;  749.858;  598.947;  738.562
344.716;  720.894;  620.148;  723.717
345.313;  800.004;  676.138;  795.342
345.909;  621.951;  500.106;  627.336
346.505;  752.034;  634.209;  740.247
347.101;  829.811;  710.261;  827.864
347.697;  792.521;  683.339;  785.398
348.293;  628.149;  495.247;  627.244
348.889;  744.391;  619.282;  745.914
349.485;  691.495;  606.330;  688.205
350.081;  775.089;  640.348;  772.592
350.676;  696.694;  558.222;  691.606
351.272;  817.706;  716.415;  809.530
351.868;  783.162;  650.474;  780.497
352.464;  730.870;  630.403;  723.932
353.059;  657.358;  537.311;  646.017
353.655;  783.414;  684.438;  777.063
354.251;  769.219;  661.520;  759.845
354.846;  744.476;  610.344;  740.646
355.442;  749.124;  612.226;  753.071
356.038;  756.401;  635.373;  751.708
356.633;  735.073;  601.390;  728.594
357.229;  730.899;  605.338;  724.757
357.824;  708.482;  610.286;  703.600
358.420;  679.514;  535.303;  679.726
359.015;  697.038;  602.351;  695.357
359.610;  765.466;  643.395;  763.920
360.206;  611.821;  523.217;  603.240
360.801;  644.911;  522.356;  646.503
361.396;  734.938;  656.446;  725.975
361.992;  677.582;  552.286;  668.220
362.587;  672.540;  528.190;  670.160
363.182;  694.245;  598.280;  689.631
363.777;  748.428;  656.328;  738.242
364.372;  747.492;  627.309;  737.314
364.967;  683.369;  571.193;  680.744
365.563;  814.320;  665.386;  815.567
366.158;  691.947;  616.341;  685.161
366.753;  648.592;  539.397;  649.263
367.348;  744.456;  594.283;  746.056
367.942;  698.401;  606.339;  697.298
368.537;  749.533;  641.262;  754.245
369.132;  706.219;  599.305;  703.428
369.727;  644.719;  506.177;  638.079
370.322;  590.914;  504.249;  580.186
370.917;  713.574;  616.222;  710.646
371.511;  864.751;  771.295;  861.834
372.106;  779.089;  686.193;  776.964
372.701;  591.975;  500.141;  585.988
373.296;  860.213;  781.323;  863.135
373.890;  650.800;  529.190;  647.840
374.485;  705.697;  602.108;  691.199
375.079;  752.113;  642.289;  738.685
375.674;  812.603;  691.306;  812.970
376.268;  697.178;  579.190;  691.759
376.863;  587.750;  496.991;  580.327
377.457;  670.563;  578.252;  662.490
378.052;  763.287;  716.152;  764.884
378.646;  748.114;  652.155;  741.167
379.240;  719.411;  622.133;  721.176
379.835;  644.557;  609.230;  636.978
380.429;  569.935;  498.202;  562.557
381.023;  780.608;  699.112;  779.205
381.617;  681.969;  595.072;  680.106
382.212;  688.088;  592.234;  685.303
382.806;  753.883;  677.252;  760.690
383.400;  674.801;  608.123;  672.281
383.994;  670.838;  626.102;  664.870
384.588;  705.264;  648.259;  697.701
385.182;  728.734;  635.370;  726.624
385.776;  714.573;  629.296;  706.875
386.370;  684.855;  611.168;  681.968
386.964;  685.891;  594.255;  684.155
387.558;  604.604;  527.354;  598.360
388.152;  685.379;  610.204;  681.959
388.745;  819.096;  739.223;  814.707
389.339;  754.787;  660.314;  747.642
389.933;  696.165;  614.374;  695.370
390.527;  862.481;  788.278;  859.029
391.120;  593.635;  558.108;  595.318
391.714;  711.727;  636.226;  711.633
392.308;  784.930;  705.335;  780.253
392.901;  644.942;  564.231;  642.460
393.495;  603.007;  531.159;  595.414
394.089;  765.384;  720.198;  760.452
394.682;  700.598;  639.196;  697.188
395.275;  719.975;  651.195;  719.927
395.869;  668.708;  619.146;  667.314
396.462;  618.480;  566.224;  616.609
397.056;  775.166;  727.354;  776.621
397.649;  730.929;  664.160;  731.575
398.242;  721.272;  626.275;  712.645
398.836;  769.080;  710.318;  766.408
399.429;  624.725;  586.313;  631.041
400.022;  664.683;  592.151;  665.902
400.615;  812.899;  755.210;  805.609
401.208;  686.386;  652.334;  691.451
401.802;  701.019;  640.237;  699.329
402.395;  687.283;  634.151;  683.502
402.988;  693.152;  649.114;  696.627
403.581;  644.638;  614.284;  646.878
404.174;  683.942;  635.386;  686.568
404.767;  638.907;  607.220;  638.583
405.360;  622.828;  584.139;  621.445
405.953;  756.592;  727.336;  759.034
406.545;  725.549;  670.382;  725.342
407.138;  612.422;  552.225;  618.350
407.731;  616.109;  566.261;  613.303
408.324;  653.635;  649.458;  660.554
408.917;  675.234;  662.370;  681.864
409.509;  743.335;  708.269;  740.396
410.102;  641.756;  609.182;  643.948
410.695;  667.084;  622.475;  665.758
411.287;  602.629;  565.436;  599.821
411.880;  586.449;  552.409;  585.421
412.472;  607.746;  579.266;  613.092
413.065;  633.460;  611.346;  629.408
413.657;  574.605;  536.502;  576.678
414.250;  647.710;  627.490;  646.681
414.842;  674.971;  645.376;  676.353
415.434;  565.513;  512.478;  570.463
416.027;  647.285;  616.651;  652.196
416.619;  709.069;  655.504;  713.400
417.211;  594.252;  552.498;  599.352
417.804;  630.352;  571.680;  628.499
418.396;  610.814;  599.492;  607.643
418.988;  654.147;  609.570;  659.238
419.580;  565.300;  524.446;  568.276
420.172;  538.242;  493.569;  536.196
420.764;  670.616;  660.681;  672.482
421.356;  637.568;  622.638;  636.898
421.948;  673.892;  647.558;  677.661
422.540;  681.330;  647.767;  680.027
423.132;  599.659;  569.776;  600.641
423.724;  559.305;  533.617;  561.267
424.316;  621.084;  568.670;  621.345
424.908;  595.172;  572.842;  591.517
425.500;  645.354;  620.842;  647.978
426.092;  647.633;  591.849;  648.268
426.683;  693.187;  661.746;  684.836
427.275;  643.642;  613.919;  641.471
427.867;  668.595;  647.944;  668.948
428.458;  735.389;  681.942;  732.344
429.050;  685.076;  598.850;  680.749
429.642;  740.408;  707.928;  743.124
430.233;  556.593;  513.977;  569.356
430.825;  729.439;  714.959;  724.809
431.416;  695.420;  657.844;  698.241
432.008;  645.249;  613.009;  651.723
432.599;  651.868;  627.043;  656.073
433.190;  637.858;  635.877;  637.670
433.782;  589.929;  552.881;  590.395
434.373;  882.754;  824.092;  884.765
434.964;  602.084;  520.102;  602.920
435.556;  633.774;  602.964;  634.537
436.147;  751.102;  727.013;  758.490
436.738;  700.000;  648.033;  701.099
437.329;  713.813;  683.226;  721.723
437.920;  663.576;  612.904;  666.688
438.511;  566.592;  476.929;  564.526
439.103;  624.222;  587.196;  623.998
439.694;  678.794;  625.240;  681.583
440.285;  758.971;  725.192;  764.432
440.876;  846.560;  782.101;  845.738
441.466;  575.710;  526.144;  575.162
442.057;  663.758;  583.343;  665.814
442.648;  751.178;  714.194;  746.255
443.239;  622.658;  550.127;  620.477
443.830;  707.085;  658.305;  704.958
444.421;  654.301;  628.398;  655.474
445.011;  685.564;  645.169;  693.619
445.602;  742.997;  670.147;  743.126
446.193;  485.063;  420.331;  488.117
446.783;  632.467;  594.467;  640.397
447.374;  691.304;  653.196;  692.759
447.964;  710.027;  642.191;  713.770
448.555;  819.579;  744.485;  822.742
449.145;  659.257;  605.356;  662.853
449.736;  797.328;  722.305;  803.179
450.326;  717.763;  646.311;  713.626
450.917;  677.864;  584.513;  675.324
451.507;  609.957;  555.484;  600.661
452.097;  743.366;  658.420;  746.267
452.688;  741.234;  686.456;  742.160
453.278;  557.535;  478.483;  566.840
453.868;  801.776;  743.585;  793.550
454.458;  651.536;  581.470;  651.141
455.048;  712.600;  608.444;  711.783
455.639;  566.709;  486.589;  567.096
456.229;  707.126;  634.642;  710.694
456.819;  745.534;  675.645;  751.158
457.409;  776.083;  692.614;  773.993
457.999;  742.051;  673.718;  737.505
458.589;  680.012;  614.705;  686.606
459.179;  718.935;  646.672;  717.658
459.769;  625.396;  541.591;  627.099
460.358;  793.905;  713.743;  797.262
460.948;  687.086;  616.730;  689.503
461.538;  664.916;  564.753;  660.677
462.128;  663.166;  586.642;  664.934
462.717;  711.477;  598.922;  710.326
463.307;  708.859;  600.990;  705.846
463.897;  653.926;  563.770;  656.942
464.486;  843.655;  723.611;  837.128
465.076;  736.616;  650.848;  733.776
465.666;  649.648;  545.014;  652.900
466.255;  787.345;  715.804;  785.651
466.845;  665.881;  567.775;  666.749
467.434;  728.390;  641.859;  725.873
468.023;  658.840;  540.916;  658.357
468.613;  714.192;  627.705;  713.946
469.202;  645.279;  525.896;  646.507
469.791;  737.271;  626.008;  737.811
470.381;  740.474;  661.022;  742.813
470.970;  709.245;  589.999;  711.099
471.559;  744.508;  623.926;  733.291
472.148;  667.983;  533.052;  675.737
472.738;  760.683;  651.086;  765.466
473.327;  635.867;  510.060;  637.529
473.916;  735.819;  572.950;  737.446
474.505;  754.957;  636.111;  751.703
475.094;  813.812;  694.183;  806.570
475.683;  795.088;  669.108;  797.699
476.272;  733.454;  595.090;  730.632
476.861;  709.402;  580.200;  706.754
477.449;  732.472;  596.399;  728.487
478.038;  683.596;  557.090;  692.513
478.627;  716.294;  606.063;  714.852
479.216;  771.837;  627.300;  769.441
479.805;  780.228;  620.364;  783.375
480.393; 1005.403;  828.208; 1008.945
480.982;  878.913;  686.137;  874.501
481.571;  862.945;  707.377;  858.333
482.159;  703.911;  535.385;  705.386
482.748;  823.244;  664.262;  821.385
483.336;  858.594;  674.333;  858.209
483.925;  777.280;  611.281;  774.373
484.513;  758.486;  609.518;  758.962
485.102;  809.625;  635.248;  810.965
485.690; 1000.600;  838.469; 1011.050
486.278;  979.978;  769.469;  979.329
486.867;  808.182;  615.437;  809.662
487.455;  906.536;  720.374;  898.229
488.043;  743.018;  535.368;  748.361
488.631; 1004.440;  783.530; 1005.079
489.220;  916.334;  664.562;  908.626
489.808;  740.648;  505.418;  741.415
490.396;  919.449;  674.466;  914.645
490.984;  828.183;  549.464;  830.161
491.572;  947.532;  689.527;  940.315
492.160;  920.578;  652.368;  919.081
492.748;  880.819;  574.355;  884.341
493.336; 1016.067;  697.526; 1019.693
493.924;  951.277;  614.610;  958.077
494.512; 1063.675;  664.448; 1066.638
495.100; 1093.696;  668.367; 1103.280
495.687; 1191.229;  685.594; 1206.373
496.275; 1135.174;  574.555; 1150.796
496.863; 1248.661;  607.402; 1281.171
497.451; 1361.328;  554.385; 1386.805
498.038; 1525.342;  602.632; 1556.729
498.626; 1689.297;  622.603; 1741.407
499.214; 1963.258;  631.469; 2016.609
499.801; 2181.584;  611.417; 2220.633
500.389; 2269.810;  493.581; 2312.494
500.976; 2690.520;  689.564; 2744.849
501.564; 3035.069;  635.412; 3148.565
502.151; 3304.155;  431.380; 3515.999
502.738; 3736.869;  553.526; 3971.274
503.326; 4156.357;  598.637; 4403.796
503.913; 4896.600;  610.510; 5161.749
504.500; 5705.440;  659.436; 5986.420
505.088; 6181.262;  541.450; 6381.201
505.675; 6894.218;  600.630; 6925.547
506.262; 7843.257;  615.381; 7619.060
506.849; 9082.998;  601.496; 8733.969
507.436;10363.267;  701.600; 9790.121
508.023;10643.086;  598.579; 9985.472
508.610;11143.998;  668.502;10434.618
509.197;12018.684;  657.295;11198.435
509.784;13076.650;  616.486;12391.194
510.371;14050.071;  496.662;13603.713
510.958;14762.871;  591.412;14426.586
511.545;15513.350;  714.459;15243.775
512.132;15832.076;  606.623;15945.876
512.719;16272.260;  562.510;16340.369
513.305;18235.828;  572.439;18011.766
513.892;20051.918;  693.347;19754.971
514.479;20730.514;  603.562;20967.805
515.066;21326.566;  709.539;22299.793
515.652;20977.262;  631.531;22908.660
516.239;21541.252;  654.473;23798.875
516.825;23681.650;  522.513;25567.275
517.412;27197.682;  781.571;28154.959
517.998;28848.121;  588.429;28344.111
518.585;28020.416;  565.380;27134.219
519.171;28287.098;  611.610;27268.576
519.758;30690.582;  499.565;28964.129
520.344;32158.449;  674.486;30664.494
520.930;33576.848;  526.330;32550.605
521.516;36737.371;  658.608;35422.895
522.103;40006.887;  739.518;38280.004
522.689;39589.711;  577.366;37835.117
523.275;37695.266;  707.404;37288.613
523.861;38108.352;  613.501;37281.395
524.447;39640.285;  697.606;37846.949
525.033;39641.539;  689.415;38321.949
525.619;39608.027;  550.357;38579.285
526.205;41131.484;  541.417;40622.875
526.791;42435.813;  624.554;42258.836
527.377;43282.746;  566.370;42966.902
527.963;42511.375;  642.292;42018.949
528.549;43444.371;  629.358;42476.828
529.135;43959.188;  566.445;41854.852
529.721;43333.422;  596.430;41237.711
530.306;42692.992;  869.358;41259.445
530.892;44014.012;  569.426;41506.047
531.478;46048.188;  556.485;43559.613
532.063;47784.621;  525.382;47695.563
532.649;50273.141;  756.260;50808.324
533.235;52681.797;  564.395;51787.500
533.820;53180.934;  682.568;52145.035
534.406;52275.793;  574.265;51133.488
534.991;51022.988;  534.371;49996.805
535.576;49352.184;  620.431;48882.852
536.162;48067.953;  834.453;46942.285
536.747;47036.762;  505.248;45711.746
537.333;49802.977;  547.259;48510.180
537.918;51938.340;  629.307;50439.891
538.503;52121.879;  608.469;50863.711
539.088;51672.125;  639.329;50906.922
539.673;52364.543;  590.302;52621.965
540.259;52098.105;  539.390;52368.094
540.844;51379.398;  520.415;50879.109
541.429;51381.848;  726.229;52077.777
542.014;51849.527;  511.175;52716.695
542.599;53490.879;  629.355;52363.281
543.184;54475.570;  539.243;53187.137
543.769;55025.285;  580.235;54697.605
544.354;53223.988;  583.256;53913.914
544.938;48796.488;  631.303;49680.164
545.523;46214.730;  738.379;47386.277
546.108;48365.254;  595.225;49151.949
546.693;50714.227;  596.134;51384.637
547.278;49521.340;  581.335;51853.254
547.862;47495.797;  617.442;51173.750
548.447;48129.883;  689.201;51691.395
549.031;48304.559;  571.098;52456.703
549.616;47865.609;  628.324;52714.516
550.201;46070.406;  560.283;52414.598
550.785;44438.930;  664.217;52355.059
551.370;44838.758;  518.172;54589.453
551.954;48369.469;  671.209;58267.348
552.538;51866.445;  716.282;59062.176
553.123;55334.547;  548.181;58115.285
553.707;55040.219;  580.044;56556.285
554.291;54443.813;  703.237;56201.668
554.876;52747.094;  687.191;55335.762
555.460;51822.059;  578.111;54155.703
556.044;53755.273;  569.989;53721.484
556.628;55051.281;  604.159;53731.016
557.212;54036.098;  705.320;54312.531
557.796;52473.477;  583.159;53797.773
558.380;53917.258;  629.003;56145.984
558.964;55477.895;  611.252;57277.930
559.548;56808.711;  520.244;56459.641
560.132;55560.695;  588.097;54434.543
560.716;54774.484;  513.012;54800.617
561.300;56938.703;  526.275;57606.945
561.884;57774.281;  661.139;58972.445
562.467;57643.488;  654.020;57327.570
563.051;57301.980;  618.024;54962.434
563.635;54680.633;  580.063;52594.473
564.219;51906.848;  589.142;50610.410
564.802;50371.746;  648.000;49551.180
565.386;49718.891;  619.035;48370.953
565.969;49715.379;  689.226;48178.871
566.553;50137.484;  768.086;49957.305
567.136;49997.477;  695.997;50369.594
567.720;49156.551;  619.934;49492.004
568.303;50001.852;  621.022;50616.352
568.887;50965.121;  646.059;50727.148
569.470;51670.867;  631.891;51698.379
570.053;51555.840;  659.917;52122.078
570.637;53530.766;  558.134;52536.438
571.220;54084.664;  654.148;51186.098
571.803;54458.828;  776.878;51032.762
572.386;52213.059;  555.963;49609.887
572.969;50929.844;  574.046;48285.926
573.552;50052.543;  601.005;47624.285
574.135;47840.527;  536.851;45498.641
574.718;43007.152;  541.968;41970.434
575.301;43000.719;  548.436;41447.137
575.884;42994.281;  554.903;40923.836
576.467;46337.133;  701.934;45267.723
577.050;48290.434;  603.894;48175.543
577.633;48796.645;  781.047;47729.328
578.216;48811.828;  599.913;47579.793
578.799;49605.012;  610.820;47820.996
579.381;50225.207;  766.939;48115.551
579.964;47918.938;  564.044;47333.766
580.547;47102.641;  601.896;46668.969
581.129;46142.141;  725.782;44466.141
581.712;46673.648;  648.744;44164.922
582.294;48276.660;  614.930;46477.855
582.877;49258.832;  769.954;48244.254
583.459;48089.793;  602.752;47437.895
584.042;48416.578;  576.755;46943.219
584.624;48032.379;  565.733;46792.227
585.206;47254.641;  460.910;46557.250
585.789;46039.930;  590.779;45793.773
586.371;43859.262;  626.681;43836.391
586.953;43704.727;  661.790;42972.492
587.536;43686.430;  738.913;42487.211
588.118;43018.445;  617.534;42086.414
588.700;44694.000;  760.707;43389.930
589.282;45766.621;  634.823;43646.039
589.864;44880.863;  610.776;43438.109
590.446;44508.250;  496.651;43151.926
591.028;44396.832;  620.678;42781.867
591.610;44968.695;  483.767;42839.098
592.192;44868.785;  588.824;42820.402
592.774;42732.820;  554.714;40724.277
593.356;41194.078;  581.572;39874.789
593.937;41110.438;  573.801;39980.648
594.519;43796.809;  693.777;42069.633
595.101;45369.160;  541.613;42976.031
595.683;45673.875;  574.578;44084.441
596.264;44434.656;  600.780;43478.797
596.846;44458.125;  584.709;43803.672
597.427;44086.238;  562.532;42986.934
598.009;44680.836;  556.524;42832.219
598.591;44338.832;  644.704;42580.086
599.172;44437.066;  605.676;43061.805
599.753;43665.949;  519.542;41691.469
600.335;42745.594;  678.483;40692.520
600.916;41370.164;  613.581;39982.422
601.498;41658.133;  643.630;40318.617
602.079;42761.258;  598.545;40670.609
602.660;43427.914;  557.510;41450.898
603.241;43169.434;  494.685;41137.738
603.823;42089.336;  564.645;38868.797
604.404;41336.766;  507.500;38182.785
604.985;41592.328;  558.474;38078.047
605.566;41781.527;  668.697;38056.633
606.147;40553.449;  572.428;37020.418
606.728;40848.328;  535.400;37883.359
607.309;41256.844;  545.466;38748.273
607.890;40562.836;  558.599;38850.230
608.471;38928.313;  525.510;37457.918
609.051;38584.125;  627.304;36066.457
609.632;39489.160;  551.330;35991.074
610.213;41308.273;  574.483;37402.641
610.794;41860.164;  594.459;38383.363
611.374;43436.344;  634.432;40562.387
611.955;42357.461;  501.364;38533.727
612.536;42213.891;  617.489;36951.789
613.116;42095.973;  584.462;37197.891
613.697;42344.883;  566.297;38411.125
614.277;42178.887;  554.264;38673.938
614.858;39945.023;  578.472;37075.863
615.438;37350.672;  618.488;35092.906
616.019;36677.313;  727.253;33666.301
616.599;37713.563;  472.337;34189.023
617.179;40450.547;  528.420;36952.047
617.760;43057.844;  798.506;39582.574
618.340;43284.840;  638.221;38943.977
618.920;42224.867;  753.305;37594.156
619.500;42039.699;  575.209;37866.938
620.080;41566.215;  539.308;37869.043
620.660;41441.156;  508.086;36868.617
621.241;41995.000;  556.229;36352.309
621.821;40899.086;  604.278;35459.520
622.401;39932.879;  691.302;35207.414
622.980;40155.488;  533.171;35980.422
623.560;41999.566;  559.244;37351.328
624.140;39637.730;  619.307;34388.582
624.720;37795.074;  641.281;32368.764
625.300;37765.789;  525.299;32638.629
625.880;39203.133;  584.166;34599.035
626.459;40670.660;  585.263;36831.738
627.039;42411.102;  505.195;38299.098
627.619;42600.051;  760.084;38289.574
628.198;41402.934;  678.125;37220.695
628.778;42868.438;  647.281;37632.563
629.357;43143.449;  500.272;38003.012
629.937;42490.926;  552.102;38402.039
630.516;40951.824;  723.116;37868.801
631.096;39243.688;  576.272;35760.410
631.675;38709.137;  727.033;35225.219
632.254;37126.359;  558.972;35130.289
632.834;36622.703;  579.013;35794.570
633.413;36985.109;  723.198;35788.922
633.992;36737.406;  669.022;34532.863
634.571;37050.988;  628.934;33590.113
635.151;40020.688;  536.982;34943.863
635.730;40404.031;  579.185;35352.523
636.309;40071.836;  645.119;35366.605
636.888;40260.598;  654.019;36165.637
637.467;41330.145;  489.940;37515.902
638.046;43654.215;  736.126;39288.695
638.625;43012.859;  689.019;38279.699
639.204;42342.754;  609.910;37741.598
639.782;41909.035;  581.809;38364.551
640.361;40321.746;  694.061;36740.621
640.940;38274.992;  573.067;34950.082
641.519;37785.621;  648.074;34137.398
642.097;38685.789;  614.080;35654.258
642.676;37832.016;  608.086;35637.957
643.255;37801.426;  594.092;36567.074
643.833;39411.191;  674.098;37809.434
644.412;40558.121;  553.104;37337.293
644.990;40347.648;  574.111;37018.531
645.569;39587.137;  661.117;36518.469
646.147;38883.043;  702.123;36186.430
646.726;37968.293;  600.129;36267.688
647.304;38268.219;  556.135;36647.625
647.882;41459.887;  480.142;39286.742
648.461;42198.695;  616.148;39157.703
649.039;38719.645;  654.154;35412.883
649.617;37299.410;  649.160;34744.918
650.195;38107.457;  643.167;35403.098
650.773;38510.348;  587.173;35053.797
651.352;38308.293;  469.179;33756.816
651.930;36376.984;  458.185;31868.773
652.508;37270.691;  676.191;33121.551
653.086;37493.238;  633.198;33564.793
653.663;38112.348;  549.204;34054.668
654.241;40485.215;  508.210;35693.309
654.819;42258.102;  542.216;36422.906
655.397;43888.270;  551.222;38213.484
655.975;44152.957;  596.229;39507.625
656.553;42887.426;  730.235;39498.223
657.130;43279.035;  555.241;40395.480
657.708;43662.781;  642.247;39242.020
658.286;43797.129;  585.253;38920.020
658.863;43615.258;  617.260;40202.898
659.441;42552.406;  612.266;39677.938
660.018;44153.832;  607.272;40413.355
660.596;43619.660;  504.278;39931.414
661.173;42140.250;  566.284;39604.531
661.750;41923.695;  524.291;39700.070
662.328;41887.383;  631.297;39292.809
662.905;40551.172;  561.303;38235.648
663.482;39690.820;  583.309;36212.305
664.060;39305.590;  542.315;35944.945
664.637;38182.617;  635.322;35170.785
665.214;36746.184;  617.328;34197.523
665.791;37397.691;  606.334;34549.520
666.368;37004.941;  549.340;35118.578
666.945;36885.566;  666.346;36019.418
667.522;36665.094;  545.353;36048.438
668.099;37435.465;  572.359;36243.914
668.676;38943.832;  606.365;35958.875
669.253;40428.039;  738.371;37384.730
669.830;39437.586;  714.377;36779.629
670.407;37479.395;  588.384;35231.289
670.984;38056.703;  625.390;35544.270
671.560;37233.730;  652.396;35466.867
672.137;36005.438;  576.402;34280.863
672.714;36569.508;  612.408;34632.863
673.290;37176.473;  631.415;35135.422
673.867;37098.301;  548.421;36114.480
674.443;36643.988;  509.427;36152.859
675.020;36394.719;  617.433;35327.238
675.596;37901.785;  609.439;35795.176
676.173;38995.094;  529.446;35430.355
676.749;37667.160;  443.452;33549.516
677.326;35611.309;  492.458;32210.012
677.902;35362.777;  520.464;32068.871
678.478;35842.387;  562.470;32583.891
679.054;35379.434;  888.477;32088.928
679.631;34833.922;  613.483;30978.848
680.207;37344.289;  777.489;33160.887
680.783;38898.996;  503.495;35570.363
681.359;38121.203;  594.501;36125.184
681.935;37544.672;  605.508;35240.922
682.511;36777.039;  644.514;34429.961
683.087;36092.547;  640.520;34463.680
683.663;36119.555;  533.526;34648.898
684.239;36436.785;  528.532;34546.457
684.815;38537.832;  662.539;35586.375
685.390;38758.578;  747.545;35821.895
685.966;37716.148;  601.551;35085.871
686.542;37159.617;  514.557;34198.230
687.118;35921.063;  611.563;32847.707
687.693;35775.813;  628.570;32794.027
688.269;35514.238;  575.576;33072.367
688.844;36071.848;  650.582;33141.664
689.420;37625.613;  604.588;33965.742
689.995;37921.164;  711.594;34655.523
690.571;36294.391;  699.601;33576.742
691.146;34981.238;  567.607;32657.219
691.722;34861.887;  610.613;32526.979
692.297;35393.453;  591.619;33014.617
692.872;36450.844;  533.625;34012.254
693.448;37600.449;  513.632;34237.434
694.023;37719.316;  633.638;34142.672
694.598;37787.527;  610.644;34132.031
695.173;37565.332;  545.650;34205.250
695.748;34838.223;  464.656;32882.488
696.323;33426.148;  594.663;32864.906
696.898;33690.836;  690.669;33170.004
697.473;34043.523;  476.675;32432.984
698.048;33609.691;  560.681;31649.303
698.623;33376.980;  515.687;30778.141
699.198;34393.547;  590.694;31140.119
699.773;35173.035;  522.700;31764.299
700.348;35351.523;  527.706;31780.816
700.922;35911.672;  623.712;32046.375
701.497;36486.742;  571.718;32603.574
702.072;37519.707;  638.725;34799.871
702.646;38400.336;  642.731;35793.172
703.221;38609.785;  635.737;35201.590
703.795;38766.773;  513.743;34764.527
704.370;37515.102;  403.749;34307.367
704.944;36433.426;  566.756;33509.887
705.519;34714.594;  632.762;31388.584
706.093;35185.941;  545.768;31340.104
706.668;36173.473;  664.774;32630.281
707.242;35540.000;  641.780;32728.779
707.816;35042.266;  606.787;32947.238
708.390;35021.355;  583.793;33277.855
708.965;35942.621;  606.799;33834.336
709.539;35885.492;  585.805;33709.273
710.113;35347.477;  622.811;33044.313
710.687;34361.426;  660.818;31953.992
711.261;32488.895;  503.824;30505.949
711.835;32562.162;  532.830;30262.369
712.409;33670.789;  492.836;31254.447
712.983;35018.020;  462.842;32754.986
713.557;35663.785;  495.849;34018.824
714.131;35821.152;  567.855;34579.625
714.704;34122.023;  539.861;33890.262
715.278;33709.688;  615.867;33531.102
715.852;34087.496;  646.873;33601.660
716.425;34183.105;  745.880;33515.117
716.999;33732.152;  483.886;33185.555
717.573;34344.461;  643.892;33905.996
718.146;36731.188;  735.898;35199.293
718.720;38070.516;  592.904;35060.551
719.293;37360.066;  640.911;34973.230
719.867;38351.211;  559.917;36394.449
720.440;38791.320;  701.923;36663.008
721.013;37425.148;  561.929;35102.426
721.587;37715.797;  497.935;33985.266
722.160;38342.543;  641.942;33524.965
722.733;37208.434;  595.948;32987.043
723.306;36721.258;  604.954;33066.301
723.880;37290.406;  600.960;33399.500
724.453;38105.355;  676.966;33468.297
725.026;38896.941;  562.973;33816.637
725.599;36527.332;  595.979;32797.996
726.172;36134.418;  629.985;33187.434
726.745;38066.426;  617.991;35136.613
727.318;38392.375;  671.997;35751.730
727.891;38376.941;  583.004;35890.430
728.463;37478.172;  600.010;34822.090
729.036;35303.859;  533.016;32895.086
729.609;34353.668;  503.022;31823.225
730.182;33508.234;  632.028;31445.283
730.754;34290.301;  441.035;32373.223
731.327;35495.172;  626.041;33676.820
731.900;35609.637;  498.047;33417.000
732.472;34508.527;  591.053;31978.498
733.045;33539.012;  564.059;30368.777
733.617;33744.082;  484.066;30574.215
734.190;34347.371;  613.072;31280.975
734.762;34606.836;  591.078;31674.412
735.334;33795.605;  613.084;31247.291
735.907;32640.613;  612.090;29876.211
736.479;32885.961;  640.097;29808.488
737.051;33654.688;  622.103;30233.547
737.623;35284.559;  641.109;31469.086
738.195;36324.625;  570.115;31784.225
738.768;36530.594;  432.121;32120.523
739.340;35486.199;  538.128;32094.342
739.912;34284.949;  651.134;31312.680
740.484;34330.176;  618.140;31946.238
741.056;35550.824;  561.146;32984.059
741.628;36407.551;  538.152;33897.715
742.199;35558.059;  683.159;33213.016
742.771;33565.629;  495.165;31369.113
743.343;33910.195;  523.171;31865.473
743.915;34475.602;  622.177;32388.631
744.487;32969.293;  661.183;31079.568
745.058;32229.219;  633.190;30570.107
745.630;31709.986;  653.196;29970.127
746.201;31603.135;  525.202;29186.766
746.773;31245.123;  621.208;28805.723
747.344;30970.051;  596.214;29591.223
747.916;32304.979;  614.221;31412.201
748.487;33021.168;  650.227;32194.898
749.059;33274.555;  528.233;32533.719
749.630;32997.023;  572.239;32158.518
750.201;31745.189;  606.245;30855.395
750.773;29874.219;  513.252;28622.555
751.344;30088.566;  601.258;28405.732
751.915;30010.453;  584.264;28461.551
752.486;29769.881;  538.270;27842.850
753.057;30025.449;  613.276;27845.008
753.628;29457.957;  552.283;27728.107
754.199;27661.725;  542.289;27381.086
754.770;26298.113;  614.295;25882.203
755.341;27066.541;  649.301;25886.184
755.912;27070.010;  610.307;26050.861
756.483;27660.297;  630.314;26798.779
757.054;28021.805;  549.320;27048.238
757.625;27621.992;  521.326;26294.838
758.195;27096.461;  512.332;26142.076
758.766;26764.588;  611.338;26392.234
759.337;27216.076;  511.345;26334.594
759.907;28553.545;  494.351;27579.652
760.478;29240.951;  532.357;28352.770
761.048;28636.100;  644.363;27325.088
761.619;27815.867;  619.369;26460.428
762.189;27735.195;  577.376;26029.826
762.760;28157.684;  659.382;26430.145
763.330;27522.592;  638.388;26670.902
763.900;26974.340;  594.394;26603.021
764.471;25779.207;  537.400;25542.740
765.041;25198.195;  692.407;24358.459
765.611;24543.523;  647.413;23991.297
766.181;24806.771;  563.419;24470.236
766.751;25221.658;  583.425;24845.975
767.321;24331.467;  540.431;24533.633
767.891;24371.773;  598.438;24916.492
768.461;24614.463;  579.444;24776.771
769.031;24448.391;  571.450;24757.988
769.601;24070.537;  671.456;24181.088
770.171;23792.326;  508.462;23670.387
770.741;23972.055;  585.469;22960.045
771.311;24305.262;  633.475;22917.523
771.880;24362.469;  553.481;23562.941
772.450;24837.578;  529.487;24216.500
773.020;24792.326;  492.493;24140.398
773.589;25168.014;  552.500;24414.857
774.159;24884.461;  562.506;23858.717
774.729;23643.689;  574.512;22942.135
775.298;21665.576;  544.518;22324.033
775.867;20141.344;  550.524;21140.313
776.437;19899.592;  604.531;20838.092
777.006;20054.439;  497.537;20599.510
777.576;20727.908;  637.543;20508.809
778.145;20804.236;  614.549;20732.947
778.714;20608.484;  617.555;21062.465
779.283;20674.732;  636.562;20949.664
779.853;20835.680;  572.568;20508.623
780.422;21290.527;  598.574;20649.082
780.991;22549.396;  599.580;21527.520
781.560;22947.383;  712.586;22632.658
782.129;23085.932;  614.593;23048.277
782.698;22814.059;  640.599;23438.555
783.267;22508.848;  553.605;23267.734
783.836;22257.334;  641.611;22415.133
784.404;21245.344;  506.617;20443.152
784.973;20867.830;  447.624;19699.150
785.542;20324.879;  566.630;19763.828
786.111;21076.066;  682.636;20341.408
786.679;20657.395;  600.642;20207.967
787.248;20268.463;  501.648;19516.465
787.817;19939.891;  559.655;18900.363
788.385;19120.559;  651.661;17879.121
788.954;18402.006;  469.667;17658.301
789.522;18145.914;  642.673;17788.879
790.090;18328.361;  528.679;18118.277
790.659;18672.990;  557.686;18338.736
791.227;18743.777;  575.692;18508.615
791.795;18308.346;  622.698;17898.254
792.364;17376.393;  521.704;17295.133
792.932;16517.221;  636.710;16822.051
793.500;16578.270;  536.717;17040.148
794.068;17256.896;  479.723;17179.787
794.636;17291.465;  523.729;16664.246
795.204;17173.313;  488.735;16524.545
795.772;17570.900;  522.741;17274.564
796.340;18159.428;  552.748;17891.002
796.908;18517.816;  505.754;17648.561
797.476;17574.863;  505.760;17064.080
798.044;16534.291;  480.766;16672.777
798.612;16585.539;  575.772;17023.996
799.180;16185.208;  596.779;16561.615
799.747;15878.695;  604.785;15962.773
800.315;15901.123;  510.791;15296.992
800.883;16079.331;  460.797;14801.771
801.450;16215.419;  615.803;14534.430
802.018;15861.607;  630.810;14173.248
802.585;15460.135;  548.816;14029.547
803.153;15241.903;  551.822;13836.846
803.720;14558.650;  546.828;13567.324
804.287;14059.438;  553.834;13360.622
804.855;14120.206;  659.841;13681.981
805.422;13608.754;  556.847;13536.560
805.989;13809.342;  529.853;13355.958
806.556;14270.110;  537.859;13747.896
807.124;14411.798;  632.865;13987.376
807.691;14710.786;  555.872;14038.674
808.258;14792.693;  586.878;14120.152
808.825;14307.361;  632.884;13860.111
809.392;13624.090;  706.890;13268.790
809.959;13001.138;  596.896;12680.389
810.526;12532.465;  719.903;12427.308
811.093;12187.354;  685.909;12030.105
811.659;12252.921;  550.915;11653.664
812.226;12484.769;  575.921;11637.183
812.793;12560.377;  606.927;11611.521
813.360;12599.265;  567.934;11885.181
813.926;13442.333;  604.940;12770.539
814.493;13314.000;  487.946;12677.638
815.060;12457.548;  475.952;11974.336
815.626;12214.696;  531.958;11594.715
816.193;12432.924;  595.965;11579.474
816.759;12320.372;  542.971;11666.972
817.325;12091.960;  491.977;11325.530
817.892;11794.388;  653.983;11105.369
818.458;11135.336;  619.989;10843.928
819.024;10842.363;  677.996;10714.406
819.591;10753.132;  596.002;10469.165
820.157;10984.359;  482.008;10235.523
820.723;11574.047;  629.014;10847.563
821.289;11934.615;  896.020;11040.980
821.855;11159.423;  667.027;10357.100
822.421;10744.311;  566.033; 9978.918
822.987;10743.839;  517.039; 9754.177
823.553;10490.706;  553.045;10065.755
824.119;10497.814;  674.051;10036.294
824.685;10622.922;  648.058;10029.192
825.251;10674.150;  645.064;10199.230
825.816;10683.658;  719.070; 9820.189
826.382;10080.226;  633.076; 9297.248
826.948; 9656.034;  627.082; 9381.347
827.513; 9423.602;  568.089; 9450.726
828.079; 9566.710;  521.095; 9472.444
828.645; 9721.697;  612.101; 9292.643
829.210; 9797.226;  499.107; 9065.341
829.776; 9982.253;  624.113; 9132.620
830.341; 9722.562;  626.120; 9092.878
830.906; 9614.929;  687.126; 9078.557
831.472; 9233.557;  506.132; 8534.535
832.037; 9408.765;  650.138; 8677.874
832.602; 9133.873;  538.144; 8628.692
833.167; 9164.721;  615.151; 8879.031
833.733; 9228.948;  648.157; 9189.790
834.298; 9202.196;  509.163; 9052.608
834.863; 9112.344;  639.169; 8895.087
835.428; 9023.012;  605.175; 8824.266
835.993; 8839.700;  606.182; 8845.385
836.558; 8817.348;  632.188; 8888.563
837.123; 9069.836;  765.194; 8966.582
837.688; 8841.703;  604.200; 8617.860
838.253; 8639.291;  609.206; 8590.699
838.817; 8699.699;  573.213; 8443.797
839.382; 8758.427;  686.219; 8799.356
839.947; 8601.155;  599.225; 8810.595
840.511; 8629.723;  700.231; 8796.394
841.076; 8340.931;  463.237; 8347.231
841.641; 8489.358;  615.244; 8224.330
842.205; 8433.986;  589.250; 8223.349
842.770; 8681.494;  714.256; 8622.107
843.334; 8687.402;  588.262; 8410.386
843.898; 8696.910;  566.268; 8337.465
844.463; 8767.519;  680.275; 8506.283
845.027; 8546.766;  589.281; 8280.962
845.591; 8474.854;  649.287; 8231.141
846.156; 8144.021;  554.293; 7969.179
846.720; 7995.550;  663.299; 7768.278
847.284; 7847.998;  612.306; 7630.957
847.848; 7896.265;  621.312; 7472.395
848.412; 7970.573;  623.318; 7437.394
848.976; 7849.501;  715.324; 7674.592
849.540; 7744.949;  764.330; 7836.011
850.104; 7673.997;  682.337; 7913.669
850.668; 7537.285;  477.343; 7694.508
851.232; 7856.553;  520.349; 7756.887
851.796; 7891.840;  594.355; 7926.545
852.359; 7701.729;  658.361; 7827.844
852.923; 7518.276;  641.368; 7641.163
853.487; 7289.264;  645.374; 7342.501
854.050; 6881.232;  400.380; 7042.820
854.614; 7099.320;  541.386; 7151.338
855.177; 7406.248;  597.392; 7105.077
855.741; 7305.116;  651.399; 6989.675
856.304; 7071.304;  663.405; 6596.634
856.868; 6957.271;  522.411; 6356.272
857.431; 7278.000;  601.417; 6468.571
857.995; 7185.247;  575.423; 6373.210
858.558; 7010.675;  642.430; 6324.448
859.121; 6925.703;  634.436; 6408.327
859.684; 6407.651;  625.442; 6347.886
860.247; 5719.339;  587.448; 6321.264
860.810; 5278.667;  536.454; 6301.903
861.374; 5286.535;  731.461; 6607.881
861.937; 5283.302;  505.467; 6408.200
862.500; 5660.670;  553.473; 6572.639
863.062; 5665.818;  526.479; 6387.297
863.625; 5698.706;  604.485; 6190.836
864.188; 5468.294;  524.492; 5807.254
864.751; 5283.482;  571.498; 5682.413
865.314; 5174.709;  605.504; 5547.492
865.876; 5365.717;  667.510; 5500.150
866.439; 5427.425;  650.516; 5415.909
867.002; 5462.793;  772.523; 5501.567
867.564; 5246.401;  708.529; 5413.946
868.127; 5025.689;  595.535; 5160.325
868.689; 5048.177;  602.541; 5133.183
869.252; 5198.245;  687.547; 5252.382
869.814; 5140.893;  530.554; 5297.141
870.377; 5136.701;  632.560; 5390.919
870.939; 5390.588;  836.566; 5599.898
871.501; 5245.796;  623.572; 5248.336
872.063; 5049.964;  470.578; 4854.235
872.626; 4926.012;  501.585; 4817.074
873.188; 4909.740;  606.591; 4987.732
873.750; 4848.728;  582.597; 4868.651
874.312; 4809.036;  534.603; 4779.330
874.874; 4977.063;  733.609; 4866.348
875.436; 4890.691;  669.616; 4718.887
875.998; 4799.879;  677.622; 4660.005
876.560; 4488.127;  677.628; 4462.964
877.122; 4138.595;  529.634; 4145.042
877.683; 4157.523;  605.640; 4056.481
878.245; 4139.971;  555.647; 3950.740
878.807; 4267.679;  617.653; 4058.958
879.369; 4045.087;  513.659; 3954.677
879.930; 3978.234;  511.665; 3941.495
880.492; 4122.442;  681.671; 4067.014
881.053; 3926.510;  542.678; 3859.633
881.615; 3835.318;  535.684; 3776.071
882.176; 3725.266;  585.690; 3734.750
882.738; 3745.494;  658.696; 3678.489
883.299; 3447.582;  475.702; 3405.407
883.860; 3383.130;  493.709; 3351.106
884.422; 3491.397;  646.715; 3394.044
884.983; 3259.465;  521.721; 3166.443
885.544; 3299.173;  621.727; 3189.802
886.105; 3244.021;  592.733; 3160.360
886.666; 3191.949;  583.740; 3093.059
887.227; 3007.717;  499.746; 2941.957
887.788; 2999.105;  615.752; 2974.836
888.349; 2778.053;  499.758; 2721.214
888.910; 2781.381;  640.764; 2696.493
889.471; 2684.328;  600.771; 2560.172
890.032; 2633.616;  584.777; 2558.190
890.593; 2646.644;  638.783; 2567.669
891.153; 2552.792;  564.789; 2460.307
891.714; 2412.660;  512.795; 2372.046
892.275; 2392.068;  512.802; 2309.505
892.835; 2484.236;  664.808; 2382.543
893.396; 2407.404;  619.814; 2295.502
893.956; 2235.612;  600.820; 2162.420
894.517; 2179.299;  604.826; 2125.439
895.077; 2089.567;  624.833; 2086.978
895.638; 2119.955;  732.839; 2126.316
896.198; 1854.183;  552.845; 1838.275
896.758; 1905.491;  656.851; 1892.813
897.319; 1801.859;  562.857; 1792.232
897.879; 1771.247;  592.864; 1762.751
898.439; 1632.454;  526.870; 1661.149
898.999; 1739.222;  610.876; 1781.468
899.559; 1704.110;  618.882; 1703.347
900.119; 1557.598;  495.888; 1537.525
900.679; 1681.486;  696.895; 1638.384
901.239; 1558.074;  619.901; 1527.902
901.799; 1466.542;  623.907; 1456.441
902.359; 1373.750;  543.913; 1357.140
902.919; 1333.718;  538.919; 1331.118
903.479; 1304.305;  536.926; 1317.257
904.038; 1255.673;  524.932; 1262.595
904.598; 1168.481;  426.938; 1152.034
905.158; 1252.609;  592.944; 1240.893
905.717; 1249.417;  559.950; 1233.691
906.277; 1242.725;  588.957; 1217.330
906.836; 1234.593;  616.963; 1222.408
907.396; 1195.521;  631.969; 1193.047
907.955; 1184.129;  648.975; 1182.526
908.515; 1102.656;  556.981; 1099.364
909.074; 1088.964;  560.988; 1092.863
909.633; 1075.292;  574.994; 1069.121
910.192; 1215.160;  721.000; 1196.460
910.752; 1044.780;  559.000; 1029.960
911.311; 1026.980;  565.000; 1009.780
911.870;  988.040;  523.000;  971.460
912.429; 1107.920;  678.000; 1094.080
912.988; 1085.360;  659.000; 1081.060
913.547;  947.820;  514.000;  940.380
914.106;  999.320;  629.000;  999.420
914.665;  989.920;  620.000;  984.020
915.224; 1045.900;  646.000; 1035.760
915.782;  929.580;  556.000;  922.560
916.341; 1054.260;  680.000; 1049.840
916.900;  929.140;  569.000;  925.260
917.458;  893.080;  549.000;  884.220
918.017;  951.440;  612.000;  942.600
918.576;  918.980;  595.000;  904.440
919.134;  845.520;  513.000;  837.980
919.693;  903.920;  561.000;  893.060
920.251;  884.740;  533.000;  876.500
920.809;  847.560;  537.000;  839.580
921.368;  891.420;  568.000;  885.360
921.926;  858.620;  507.000;  842.940
922.484;  911.600;  601.000;  903.360
923.042;  892.740;  559.000;  880.340
923.601; 1011.120;  723.000;  998.680
924.159;  947.980;  631.000;  935.560
924.717;  845.320;  528.000;  841.080
925.275;  911.320;  615.000;  903.240
925.833;  791.240;  496.000;  779.320
926.391;  948.300;  618.000;  938.380
926.949;  870.500;  542.000;  857.680
927.506;  917.460;  585.000;  903.500
928.064;  886.440;  580.000;  877.580
928.622;  888.400;  573.000;  880.100
929.180;  825.180;  486.000;  814.180
929.737;  810.560;  496.000;  808.540
930.295;  934.560;  617.000;  928.480
930.853;  851.740;  535.000;  849.100
931.410;  828.260;  525.000;  821.120
931.968;  949.020;  636.000;  940.660
932.525;  919.100;  587.000;  909.380
933.082;  818.900;  485.000;  811.440
933.640;  936.560;  600.000;  925.900
934.197;  890.940;  559.000;  886.360
934.754;  890.540;  569.000;  897.780
935.312;  859.180;  518.000;  863.340
935.869; 1016.120;  665.000; 1012.980
936.426;  863.800;  567.000;  872.800
936.983;  886.600;  566.000;  889.020
937.540;  830.260;  489.000;  838.280
938.097;  935.200;  578.000;  940.120
938.654;  899.160;  551.000;  898.860
939.211;  955.600;  604.000;  952.480
939.768;  913.880;  568.000;  915.420
940.324;  903.720;  551.000;  904.200
940.881;  876.320;  534.000;  878.500
941.438; 1015.820;  650.000; 1021.200
941.995;  993.020;  633.000;  992.560
942.551;  872.460;  493.000;  875.620
943.108;  943.380;  580.000;  937.920
943.664;  883.600;  520.000;  869.340
944.221; 1087.160;  688.000; 1088.140
944.777;  869.180;  505.000;  869.680
945.334;  886.780;  525.000;  884.840
945.890;  958.000;  585.000;  946.480
946.446;  956.900;  577.000;  947.020
947.003;  980.740;  585.000;  964.940
947.559; 1071.120;  691.000; 1063.040
948.115; 1039.480;  675.000; 1026.540
948.671;  982.360;  595.000;  967.300
949.227;  890.080;  485.000;  859.560
949.783;  875.680;  473.000;  858.900
950.339; 1003.820;  604.000;  991.000
950.895; 1034.700;  604.000; 1023.840
951.451;  931.960;  532.000;  925.280
952.007; 1012.100;  615.000;  998.540
952.563;  953.340;  545.000;  937.780
953.118;  930.460;  539.000;  904.940
953.674;  959.800;  543.000;  935.780
954.230;  969.120;  531.000;  949.640
954.785;  959.400;  590.000;  936.640
955.341; 1011.940;  611.000;  998.160
955.897;  848.320;  472.000;  834.660
956.452;  967.680;  568.000;  953.840
957.008; 1092.260;  772.000; 1083.640
957.563; 1024.760;  676.000; 1009.540
958.118;  882.900;  532.000;  877.700
958.674;  948.420;  625.000;  946.780
959.229; 1028.660;  665.000; 1013.980
959.784;  847.180;  475.000;  832.400
960.339; 1017.360;  663.000; 1001.280
960.894;  985.480;  631.000;  963.760
961.449;  881.060;  543.000;  859.960
962.004; 1230.660;  863.000; 1212.840
962.559;  880.080;  550.000;  860.140
963.114;  764.600;  396.000;  742.480
963.669;  926.060;  568.000;  915.500
964.224;  884.700;  522.000;  874.340
964.779;  848.940;  460.000;  828.420
965.334; 1027.200;  714.000; 1017.860
965.888;  876.160;  509.000;  875.360
966.443;  984.520;  611.000;  972.380
966.998;  817.720;  492.000;  819.460
967.552;  916.600;  549.000;  908.380
968.107;  890.380;  518.000;  868.300
968.661;  942.740;  579.000;  922.440
969.216;  874.260;  530.000;  856.280
969.770;  928.980;  589.000;  917.200
970.324;  936.200;  581.000;  923.140
970.879;  962.300;  616.000;  947.180
971.433;  972.240;  624.000;  952.720
971.987;  908.940;  538.000;  895.340
972.541;  930.600;  603.000;  917.100
973.095; 1020.440;  667.000; 1009.460
973.649;  816.340;  493.000;  809.480
974.203;  839.400;  533.000;  829.040
974.757;  862.660;  556.000;  855.220
975.311;  889.040;  602.000;  872.600
975.865;  899.140;  582.000;  881.820
976.419;  869.440;  573.000;  857.400
976.973;  864.240;  533.000;  849.620
977.526;  961.920;  635.000;  949.920
978.080;  809.240;  494.000;  796.780
978.634;  940.960;  638.000;  921.320
979.187;  916.340;  623.000;  905.400
979.741; 1034.540;  745.000; 1018.380
980.294;  803.240;  496.000;  789.160
980.848;  730.160;  454.000;  717.220
981.401;  834.920;  542.000;  816.540
981.955;  865.500;  594.000;  844.300
982.508;  765.600;  463.000;  746.340
983.061;  936.940;  659.000;  915.260
983.615;  815.640;  524.000;  798.800
984.168;  789.680;  506.000;  770.080
984.721;  893.640;  614.000;  880.760
985.274;  876.780;  610.000;  867.500
985.827;  843.140;  574.000;  834.220
986.380;  733.260;  467.000;  721.340
986.933;  877.560;  602.000;  864.800
987.486;  868.840;  602.000;  861.920
988.039;  872.440;  630.000;  863.100
988.591;  899.600;  624.000;  893.260
989.144;  742.900;  514.000;  737.260
989.697;  764.120;  532.000;  758.740
990.250;  864.460;  634.000;  858.100
990.802;  765.220;  538.000;  755.860
991.355;  986.960;  749.000;  974.880
991.907;  872.670;  646.000;  864.320
992.460;  758.380;  543.000;  753.760
993.012;  751.160;  552.000;  749.540
993.565;  716.920;  498.000;  711.360
994.117;  951.440;  731.000;  950.780
994.669;  707.980;  508.000;  701.320
995.221;  803.880;  576.000;  791.920
995.774;  795.680;  595.000;  787.580
996.326;  746.300;  560.000;  740.220
996.878;  845.240;  676.000;  838.420
997.430;  704.600;  515.000;  699.860
997.982;  752.200;  593.000;  750.140
998.534;  749.000;  572.000;  739.060
999.086;  739.000;  561.000;  738.220
999.638;  661.640;  465.000;  661.380
1000.190;  706.960;  524.000;  699.320
1000.741;  743.180;  559.000;  742.700
1001.293;  684.040;  533.000;  686.020
1001.845;  678.820;  523.000;  676.640
1002.396;  745.720;  567.000;  743.400
1002.948;  743.660;  581.000;  737.400
1003.500;  725.660;  568.000;  723.780
1004.051;  916.080;  737.000;  907.580
1004.603;  792.060;  644.000;  791.820
1005.154;  613.500;  464.000;  608.980
1005.705;  727.540;  609.000;  723.960
1006.257;  715.800;  589.000;  707.220
1006.808;  686.520;  557.000;  685.460
1007.359;  775.620;  635.000;  763.240
1007.910;  650.500;  529.000;  646.640
1008.461;  740.460;  617.000;  732.940
1009.013;  594.140;  485.000;  588.340
1009.564;  796.580;  689.000;  793.520
1010.115;  599.000;  500.000;  597.040
1010.665;  606.340;  477.000;  602.160
1011.216;  672.540;  575.000;  667.920
1011.767;  696.620;  601.000;  697.920
1012.318;  733.660;  629.000;  736.980
1012.869;  679.680;  595.000;  679.000
1013.419;  608.140;  493.000;  603.120
1013.970;  675.320;  546.000;  666.640
1014.521;  618.880;  537.000;  620.620
1015.071;  674.840;  617.000;  670.380
1015.622;  640.180;  522.000;  635.460
1016.172;  600.980;  495.000;  596.820
1016.723;  617.420;  524.000;  614.380
1017.273;  608.580;  521.000;  604.160
1017.823;  657.680;  549.000;  650.340
1018.374;  615.920;  508.000;  611.760
1018.924;  719.240;  628.000;  716.880
1019.474;  718.820;  619.000;  718.880
1020.024;  657.080;  561.000;  657.580
1020.574;  723.720;  673.000;  726.160
1021.124;  675.660;  587.000;  673.580
1021.674;  561.060;  461.000;  559.120
1022.224;  710.520;  620.000;  708.940
1022.774;  667.980;  593.000;  668.820
1023.324;  759.940;  687.000;  753.520
1023.874;  882.840;  776.000;  875.760
1024.423;  614.500;  529.000;  613.700
1024.973;  612.320;  549.000;  610.760
1025.523;  621.900;  553.000;  620.960
1026.072;  609.840;  534.000;  606.420
1026.622;  678.420;  559.000;  675.740
1027.172;  713.600;  629.000;  715.660
1027.721;  604.920;  557.000;  601.220
1028.270;  671.320;  591.000;  663.400
1028.820;  649.360;  556.000;  638.080
1029.369;  610.780;  514.000;  612.700
1029.918;  650.520;  571.000;  649.840
1030.468;  570.600;  485.000;  564.780
1031.017;  639.680;  552.000;  634.800
1031.566;  616.440;  559.000;  608.900
1032.115;  700.780;  608.000;  694.500
1032.664;  603.740;  500.000;  596.480
1033.213;  733.940;  641.000;  735.420
1033.762;  633.640;  553.000;  635.620
1034.311;  678.740;  600.000;  677.220
1034.860;  692.820;  603.000;  691.000
1035.408;  723.660;  623.000;  722.720
1035.957;  721.980;  633.000;  719.540
1036.506;  531.180;  469.000;  530.800
1037.055;  841.400;  763.000;  844.320
1037.603;  664.440;  576.000;  664.000
1038.152;  535.360;  458.000;  534.760
1038.700;  585.640;  523.000;  585.740
1039.249;  683.760;  589.000;  681.220
1039.797;  637.300;  562.000;  633.360
1040.345;  707.040;  625.000;  705.420
1040.894;  633.660;  556.000;  625.300
1041.442;  634.920;  554.000;  632.200
1041.990;  563.980;  485.000;  559.160
1042.538;  542.300;  456.000;  536.180
1043.087;  570.520;  503.000;  570.860
1043.635;  680.260;  593.000;  670.500
1044.183;  592.920;  492.000;  586.400
1044.731;  579.800;  533.000;  576.000
1045.279;  673.440;  631.000;  674.920
1045.827;  893.720;  832.000;  892.400
1046.374;  517.780;  453.000;  515.420
1046.922;  594.540;  539.000;  590.580
1047.470;  692.760;  651.000;  691.300
1048.018;  651.740;  596.000;  647.960
1048.565;  715.620;  671.000;  708.600
1049.113;  561.400;  469.000;  557.000
1049.660;  625.080;  568.000;  629.660
1050.208;  679.000;  606.000;  675.640
1050.755;  606.420;  517.000;  606.580
1051.303;  686.180;  624.000;  686.820
1051.850;  634.080;  557.000;  635.120
1052.397;  477.860;  391.000;  473.960
1052.945;  615.840;  524.000;  617.760
1053.492;  742.720;  669.000;  741.840
1054.039;  728.480;  685.000;  720.180
1054.586;  562.460;  489.000;  557.240
1055.133;  698.260;  628.000;  693.140
1055.680;  651.660;  577.000;  646.620
1056.227;  545.400;  485.000;  542.780
1056.774;  793.300;  707.000;  794.980
1057.321;  524.120;  459.000;  523.260
1057.868;  648.900;  581.000;  651.320
1058.415;  654.200;  613.000;  651.980
1058.961;  682.440;  601.000;  678.940
1059.508;  643.700;  586.000;  643.820
1060.055;  586.460;  488.000;  581.780
1060.601;  622.500;  557.000;  624.300
1061.148;  619.020;  551.000;  616.820
1061.694;  596.600;  537.000;  592.580
1062.241;  597.000;  540.000;  596.320
1062.787;  666.040;  589.000;  663.140
1063.334;  810.840;  733.000;  808.560
1063.880;  673.980;  618.000;  668.360
1064.426;  706.940;  623.000;  706.820
1064.972;  603.640;  525.000;  601.340
1065.518;  575.380;  501.000;  566.640
1066.065;  630.520;  531.000;  624.460
1066.611;  603.520;  556.000;  598.800
1067.157;  643.840;  588.000;  641.860
1067.703;  671.680;  573.000;  668.480
1068.249;  602.800;  521.000;  605.220
1068.794;  633.380;  558.000;  626.880
1069.340;  579.400;  519.000;  578.960
1069.886;  599.480;  525.000;  590.700
1070.432;  539.800;  467.000;  541.720
1070.977;  603.620;  543.000;  601.080
1071.523;  573.540;  506.000;  573.060
1072.068;  583.880;  500.000;  582.000
1072.614;  529.760;  425.000;  527.760
1073.160;  691.700;  640.000;  687.040
1073.705;  581.280;  532.000;  572.520
1074.250;  561.440;  528.000;  559.900
1074.796;  656.480;  567.000;  655.160
1075.341;  668.500;  597.000;  664.100
1075.886;  596.320;  527.000;  594.240
1076.431;  652.120;  567.000;  649.880
1076.976;  640.420;  589.000;  639.220
1077.521;  579.300;  498.000;  583.080
1078.067;  584.760;  533.000;  579.400
1078.612;  665.980;  608.000;  661.620
1079.156;  599.520;  520.000;  601.540
1079.701;  690.460;  627.000;  693.260
1080.246;  691.540;  644.000;  696.300
1080.791;  635.920;  587.000;  625.020
1081.336;  661.300;  627.000;  659.320
1081.880;  652.260;  573.000;  649.680
1082.425;  576.920;  532.000;  573.480
1082.970;  718.880;  657.000;  717.040
1083.514;  601.520;  546.000;  597.000
1084.059;  587.060;  554.000;  586.720
1084.603;  568.600;  539.000;  565.840
1085.147;  652.420;  599.000;  645.220
1085.692;  719.220;  641.000;  716.800
1086.236;  510.820;  428.000;  503.140
1086.780;  755.240;  674.000;  751.440
1087.325;  656.240;  584.000;  654.620
1087.869;  616.620;  574.000;  610.700
1088.413;  701.580;  677.000;  705.040
1088.957;  537.700;  461.000;  543.400
1089.501;  768.520;  700.000;  766.640
1090.045;  732.180;  651.000;  726.480
1090.589;  573.620;  520.000;  569.920
1091.133;  680.880;  631.000;  673.340
1091.676;  597.080;  539.000;  591.940
1092.220;  600.900;  549.000;  600.920
1092.764;  709.620;  666.000;  706.960
1093.307;  668.620;  637.000;  673.780
1093.851;  559.580;  516.000;  556.540
1094.395;  683.620;  638.000;  683.140
1094.938;  637.480;  571.000;  632.520
1095.482;  565.480;  534.000;  559.800
1096.025;  715.240;  687.000;  710.880
1096.568;  781.460;  731.000;  779.280
1097.112;  508.560;  456.000;  508.180
1097.655;  598.740;  530.000;  603.000
1098.198;  597.920;  538.000;  600.180
1098.741;  619.040;  572.000;  612.860
1099.285;  659.160;  596.000;  657.300
1099.828;  440.780;  407.000;  439.400
1100.371;  610.400;  566.000;  608.160
1100.914;  685.640;  592.000;  682.660
1101.457;  678.240;  623.000;  679.900
1101.999;  578.700;  567.000;  584.680
1102.542;  644.740;  580.000;  641.440
1103.085;  661.580;  646.000;  658.500
1103.628;  762.080;  737.000;  762.060
1104.170;  588.180;  536.000;  588.280
1104.713;  650.240;  592.000;  646.700
1105.256;  562.960;  507.000;  557.440
1105.798;  505.780;  452.000;  499.980
1106.341;  727.740;  709.000;  728.900
1106.883;  524.240;  479.000;  521.340
1107.425;  667.320;  627.000;  668.180
1107.968;  622.920;  576.000;  612.380
1108.510;  691.760;  661.000;  684.960
1109.052;  620.740;  575.000;  612.620
1109.594;  556.280;  532.000;  554.440
1110.136;  646.800;  600.000;  643.220
1110.679;  633.340;  597.000;  633.080
1111.221;  603.560;  555.000;  604.460
1111.763;  554.320;  476.000;  559.220
1112.304;  549.500;  507.000;  547.140
1112.846;  672.780;  653.000;  666.240
1113.388;  941.040;  885.000;  942.180
1113.930;  692.200;  640.000;  694.200
1114.472;  608.520;  529.000;  606.540
1115.013;  551.880;  488.000;  551.280
1115.555;  592.080;  543.000;  587.100
1116.097;  574.620;  521.000;  579.480
1116.638;  686.640;  659.000;  684.600
1117.180;  670.740;  651.000;  667.740
1117.721;  569.980;  493.000;  568.580
1118.262;  680.680;  608.000;  677.960
1118.804;  635.420;  565.000;  637.340
1119.345;  580.400;  526.000;  578.400
1119.886;  711.120;  652.000;  704.040
1120.427;  589.900;  563.000;  589.020
1120.969;  600.800;  541.000;  597.920
1121.510;  566.300;  541.000;  563.060
1122.051;  729.020;  680.000;  723.580
1122.592;  657.340;  619.000;  655.420
1123.133;  548.740;  510.000;  547.940
1123.673;  707.660;  669.000;  706.480
1124.214;  615.620;  563.000;  612.460
1124.755;  638.000;  599.000;  639.460
1125.296;  621.540;  596.000;  627.320
1125.836;  688.200;  670.000;  691.500
1126.377;  604.040;  549.000;  599.660
1126.918;  616.300;  556.000;  614.980
1127.458;  621.780;  598.000;  622.220
1127.999;  659.520;  617.000;  656.980
1128.539;  697.820;  634.000;  694.240
1129.079;  636.200;  593.000;  632.720
1129.620;  559.900;  521.000;  558.100
1130.160;  545.300;  522.000;  539.480
1130.700;  640.220;  599.000;  640.840
1131.240;  642.480;  602.000;  643.700
1131.781;  625.940;  581.000;  619.680
1132.321;  606.300;  563.000;  599.120
1132.861;  564.100;  522.000;  564.200
1133.401;  596.560;  580.000;  593.940
1133.941;  627.740;  590.000;  626.280
1134.481;  601.640;  567.000;  597.580
1135.020;  607.660;  554.000;  609.160
1135.560;  673.060;  632.000;  674.940
1136.100;  501.140;  469.000;  501.160
1136.640;  511.400;  484.000;  510.480
1137.179;  540.860;  492.000;  537.960
1137.719;  605.480;  576.000;  605.400
1138.258;  585.340;  523.000;  587.360
1138.798;  664.540;  597.000;  663.780
1139.337;  478.720;  421.000;  482.840
1139.877;  644.260;  605.000;  642.360
1140.416;  874.660;  831.000;  878.060
1140.955;  536.040;  526.000;  535.380
1141.494;  669.000;  633.000;  669.280
1142.034;  584.860;  533.000;  583.520
1142.573;  651.760;  595.000;  646.280
1143.112;  555.360;  534.000;  553.480
1143.651;  547.180;  502.000;  536.480
1144.190;  690.020;  649.000;  691.640
1144.729;  605.240;  577.000;  607.420
1145.267;  580.520;  556.000;  584.900
1145.806;  635.020;  592.000;  637.040
1146.345;  638.240;  600.000;  635.020
1146.884;  624.120;  563.000;  622.500
1147.422;  529.380;  503.000;  533.060
1147.961;  710.480;  703.000;  708.460
1148.500;  667.520;  631.000;  669.720
1149.038;  635.980;  573.000;  632.500
1149.577;  700.600;  672.000;  698.640
1150.115;  449.360;  418.000;  452.280
1150.653;  605.660;  572.000;  607.340
1151.192;  554.500;  520.000;  552.920
1151.730;  658.540;  639.000;  652.560
1152.268;  589.260;  559.000;  589.520
1152.806;  578.660;  542.000;  571.180
1153.344;  574.480;  529.000;  577.640
1153.882;  600.820;  571.000;  600.060
1154.421;  473.100;  440.000;  470.620
1154.958;  595.500;  566.000;  595.240
1155.496;  644.500;  606.000;  645.280
1156.034;  718.240;  715.000;  721.880
1156.572;  672.660;  638.000;  667.060
1157.110;  476.360;  423.000;  473.940
1157.647;  682.580;  648.000;  676.960
1158.185;  567.860;  532.000;  564.320
1158.723;  511.180;  474.000;  509.200
1159.260;  694.540;  670.000;  701.700
1159.798;  658.340;  602.000;  658.160
1160.335;  630.180;  613.000;  631.820

