membrane
Integration time [ms]: 412.139
Averaging Nr. [scans]: 50
Smoothing Nr. [pixels]: 0
Data measured with spectrometer [name]: 7414430SP
Wave   ;Sample   ;Dark     ;Reference
[nm]   ;[counts] ;[counts] ;[counts] 

288.544;  817.492;  556.129;  793.890
289.143;  697.396;  473.960;  681.602
289.742;  853.099;  630.955;  828.814
290.341;  818.114;  604.742;  789.841
290.940;  753.866;  520.634;  730.702
291.538;  899.004;  695.774;  881.108
292.137;  806.033;  626.824;  792.581
292.736;  999.674;  804.742;  975.101
293.335;  755.244;  547.569;  735.086
293.934;  799.556;  583.590;  781.677
294.532; 1050.991;  863.618; 1031.958
295.131;  862.450;  636.289;  834.394
295.730;  833.687;  641.311;  809.588
296.328;  807.183;  623.281;  783.442
296.927;  798.501;  603.233;  779.652
297.525;  800.975;  623.290;  781.236
298.124;  672.591;  481.013;  654.009
298.722;  777.989;  604.206;  761.933
299.321;  716.867;  559.141;  708.597
299.919;  769.858;  553.073;  751.918
300.518;  702.379;  530.992;  689.338
301.116;  706.717;  544.144;  691.381
301.715;  741.503;  611.240;  730.222
302.313;  724.126;  557.199;  704.943
302.911;  753.677;  609.932;  733.830
303.509;  939.216;  789.202;  925.627
304.108;  777.534;  611.213;  760.383
304.706;  821.121;  611.227;  801.664
305.304;  818.381;  619.998;  796.707
305.902;  802.648;  618.241;  784.484
306.500;  737.567;  594.129;  728.200
307.098;  772.415;  623.102;  746.560
307.696;  795.791;  633.042;  780.432
308.294;  745.452;  589.101;  731.359
308.892;  784.206;  600.217;  759.769
309.490;  728.178;  586.062;  712.161
310.088;  797.326;  644.982;  788.444
310.686;  834.426;  684.176;  821.749
311.284;  779.431;  668.048;  766.040
311.882;  744.149;  620.983;  731.225
312.480;  706.018;  581.903;  697.167
313.078;  822.204;  681.987;  808.331
313.675;  700.427;  565.129;  691.600
314.273;  812.953;  652.896;  797.837
314.871;  600.439;  479.945;  589.829
315.468;  665.717;  535.932;  652.090
316.066;  706.237;  572.120;  694.427
316.664;  668.460;  535.892;  656.351
317.261;  919.989;  792.012;  910.128
317.859;  784.934;  642.949;  768.735
318.456;  841.453;  727.072;  830.096
319.054;  792.072;  678.972;  787.828
319.651;  770.856;  687.026;  759.928
320.249;  820.716;  705.026;  810.188
320.846;  719.195;  625.079;  714.286
321.443;  842.511;  725.030;  832.135
322.041;  821.514;  720.990;  812.315
322.638;  714.049;  609.018;  701.456
323.235;  669.626;  590.199;  665.683
323.833;  748.655;  654.125;  740.354
324.430;  629.543;  500.075;  615.900
325.027;  891.757;  786.126;  876.855
325.624;  650.605;  552.287;  644.532
326.221;  701.566;  576.223;  689.717
326.818;  829.154;  694.137;  818.332
327.415;  754.662;  657.339;  748.828
328.012;  700.887;  552.364;  690.585
328.609;  740.165;  599.299;  731.389
329.206;  793.001;  659.239;  778.621
329.803;  749.268;  638.212;  737.841
330.400;  715.270;  574.306;  704.260
330.997;  826.488;  681.229;  817.147
331.594;  803.336;  641.038;  788.185
332.191;  747.211;  565.212;  728.722
332.787;  856.102;  722.145;  844.463
333.384;  776.829;  623.948;  763.093
333.981;  819.780;  655.739;  815.687
334.578;  713.239;  555.815;  708.378
335.174;  734.456;  561.809;  731.469
335.771;  851.183;  669.664;  836.456
336.367;  724.555;  540.538;  710.631
336.964;  805.489;  648.630;  793.266
337.561;  751.217;  610.580;  731.112
338.157;  923.404;  777.365;  911.916
338.754;  805.098;  639.292;  796.589
339.350;  731.240;  573.322;  722.493
339.946;  783.021;  597.446;  773.135
340.543;  855.245;  714.147;  846.136
341.139;  729.226;  573.024;  720.836
341.735;  782.787;  621.995;  772.593
342.332;  700.231;  559.049;  691.472
342.928;  800.913;  679.091;  795.394
343.524;  771.859;  653.975;  761.684
344.120;  749.042;  598.947;  738.562
344.716;  726.227;  620.148;  723.717
345.313;  804.912;  676.138;  795.342
345.909;  628.885;  500.106;  627.336
346.505;  762.214;  634.209;  740.247
347.101;  837.293;  710.261;  827.864
347.697;  796.957;  683.339;  785.398
348.293;  634.486;  495.247;  627.244
348.889;  751.283;  619.282;  745.914
349.485;  700.447;  606.330;  688.205
350.081;  785.450;  640.348;  772.592
350.676;  703.379;  558.222;  691.606
351.272;  823.556;  716.415;  809.530
351.868;  783.998;  650.474;  780.497
352.464;  736.854;  630.403;  723.932
353.059;  661.463;  537.311;  646.017
353.655;  790.193;  684.438;  777.063
354.251;  768.435;  661.520;  759.845
354.846;  756.095;  610.344;  740.646
355.442;  752.511;  612.226;  753.071
356.038;  753.472;  635.373;  751.708
356.633;  738.132;  601.390;  728.594
357.229;  739.015;  605.338;  724.757
357.824;  715.715;  610.286;  703.600
358.420;  684.235;  535.303;  679.726
359.015;  698.520;  602.351;  695.357
359.610;  779.267;  643.395;  763.920
360.206;  614.484;  523.217;  603.240
360.801;  646.715;  522.356;  646.503
361.396;  736.441;  656.446;  725.975
361.992;  674.795;  552.286;  668.220
362.587;  674.232;  528.190;  670.160
363.182;  697.516;  598.280;  689.631
363.777;  745.560;  656.328;  738.242
364.372;  749.615;  627.309;  737.314
364.967;  689.042;  571.193;  680.744
365.563;  822.837;  665.386;  815.567
366.158;  690.565;  616.341;  685.161
366.753;  658.894;  539.397;  649.263
367.348;  753.248;  594.283;  746.056
367.942;  700.057;  606.339;  697.298
368.537;  752.236;  641.262;  754.245
369.132;  708.880;  599.305;  703.428
369.727;  647.704;  506.177;  638.079
370.322;  591.711;  504.249;  580.186
370.917;  719.559;  616.222;  710.646
371.511;  878.028;  771.295;  861.834
372.106;  785.822;  686.193;  776.964
372.701;  589.605;  500.141;  585.988
373.296;  858.222;  781.323;  863.135
373.890;  652.572;  529.190;  647.840
374.485;  698.313;  602.108;  691.199
375.079;  748.968;  642.289;  738.685
375.674;  818.785;  691.306;  812.970
376.268;  698.269;  579.190;  691.759
376.863;  585.974;  496.991;  580.327
377.457;  672.461;  578.252;  662.490
378.052;  767.682;  716.152;  764.884
378.646;  747.430;  652.155;  741.167
379.240;  726.717;  622.133;  721.176
379.835;  652.006;  609.230;  636.978
380.429;  568.352;  498.202;  562.557
381.023;  785.305;  699.112;  779.205
381.617;  681.428;  595.072;  680.106
382.212;  690.779;  592.234;  685.303
382.806;  761.961;  677.252;  760.690
383.400;  678.163;  608.123;  672.281
383.994;  670.410;  626.102;  664.870
384.588;  703.186;  648.259;  697.701
385.182;  728.944;  635.370;  726.624
385.776;  720.910;  629.296;  706.875
386.370;  692.577;  611.168;  681.968
386.964;  686.971;  594.255;  684.155
387.558;  607.127;  527.354;  598.360
388.152;  688.297;  610.204;  681.959
388.745;  821.561;  739.223;  814.707
389.339;  755.773;  660.314;  747.642
389.933;  691.797;  614.374;  695.370
390.527;  866.591;  788.278;  859.029
391.120;  599.690;  558.108;  595.318
391.714;  709.494;  636.226;  711.633
392.308;  785.545;  705.335;  780.253
392.901;  647.751;  564.231;  642.460
393.495;  607.445;  531.159;  595.414
394.089;  765.919;  720.198;  760.452
394.682;  699.132;  639.196;  697.188
395.275;  732.649;  651.195;  719.927
395.869;  670.980;  619.146;  667.314
396.462;  619.666;  566.224;  616.609
397.056;  784.910;  727.354;  776.621
397.649;  735.927;  664.160;  731.575
398.242;  721.661;  626.275;  712.645
398.836;  766.468;  710.318;  766.408
399.429;  627.870;  586.313;  631.041
400.022;  669.677;  592.151;  665.902
400.615;  812.919;  755.210;  805.609
401.208;  688.760;  652.334;  691.451
401.802;  700.611;  640.237;  699.329
402.395;  695.677;  634.151;  683.502
402.988;  696.250;  649.114;  696.627
403.581;  646.470;  614.284;  646.878
404.174;  684.759;  635.386;  686.568
404.767;  644.571;  607.220;  638.583
405.360;  631.737;  584.139;  621.445
405.953;  757.167;  727.336;  759.034
406.545;  725.584;  670.382;  725.342
407.138;  620.189;  552.225;  618.350
407.731;  613.411;  566.261;  613.303
408.324;  661.663;  649.458;  660.554
408.917;  680.444;  662.370;  681.864
409.509;  745.021;  708.269;  740.396
410.102;  644.844;  609.182;  643.948
410.695;  668.341;  622.475;  665.758
411.287;  603.289;  565.436;  599.821
411.880;  590.656;  552.409;  585.421
412.472;  608.271;  579.266;  613.092
413.065;  631.080;  611.346;  629.408
413.657;  576.953;  536.502;  576.678
414.250;  648.393;  627.490;  646.681
414.842;  676.184;  645.376;  676.353
415.434;  577.651;  512.478;  570.463
416.027;  649.678;  616.651;  652.196
416.619;  718.398;  655.504;  713.400
417.211;  596.918;  552.498;  599.352
417.804;  631.338;  571.680;  628.499
418.396;  608.538;  599.492;  607.643
418.988;  658.104;  609.570;  659.238
419.580;  573.963;  524.446;  568.276
420.172;  542.399;  493.569;  536.196
420.764;  678.763;  660.681;  672.482
421.356;  642.816;  622.638;  636.898
421.948;  676.404;  647.558;  677.661
422.540;  675.654;  647.767;  680.027
423.132;  603.547;  569.776;  600.641
423.724;  565.184;  533.617;  561.267
424.316;  627.565;  568.670;  621.345
424.908;  600.328;  572.842;  591.517
425.500;  649.291;  620.842;  647.978
426.092;  652.773;  591.849;  648.268
426.683;  695.182;  661.746;  684.836
427.275;  647.152;  613.919;  641.471
427.867;  669.317;  647.944;  668.948
428.458;  738.169;  681.942;  732.344
429.050;  683.376;  598.850;  680.749
429.642;  747.042;  707.928;  743.124
430.233;  563.589;  513.977;  569.356
430.825;  733.567;  714.959;  724.809
431.416;  699.598;  657.844;  698.241
432.008;  652.279;  613.009;  651.723
432.599;  652.713;  627.043;  656.073
433.190;  643.890;  635.877;  637.670
433.782;  599.063;  552.881;  590.395
434.373;  889.780;  824.092;  884.765
434.964;  604.775;  520.102;  602.920
435.556;  635.864;  602.964;  634.537
436.147;  758.894;  727.013;  758.490
436.738;  703.201;  648.033;  701.099
437.329;  723.718;  683.226;  721.723
437.920;  671.220;  612.904;  666.688
438.511;  569.367;  476.929;  564.526
439.103;  625.214;  587.196;  623.998
439.694;  678.826;  625.240;  681.583
440.285;  770.561;  725.192;  764.432
440.876;  850.310;  782.101;  845.738
441.466;  577.439;  526.144;  575.162
442.057;  670.934;  583.343;  665.814
442.648;  749.869;  714.194;  746.255
443.239;  629.320;  550.127;  620.477
443.830;  711.805;  658.305;  704.958
444.421;  665.861;  628.398;  655.474
445.011;  694.584;  645.169;  693.619
445.602;  748.947;  670.147;  743.126
446.193;  492.254;  420.331;  488.117
446.783;  643.838;  594.467;  640.397
447.374;  695.676;  653.196;  692.759
447.964;  718.076;  642.191;  713.770
448.555;  823.117;  744.485;  822.742
449.145;  665.099;  605.356;  662.853
449.736;  807.607;  722.305;  803.179
450.326;  722.525;  646.311;  713.626
450.917;  679.915;  584.513;  675.324
451.507;  610.835;  555.484;  600.661
452.097;  749.536;  658.420;  746.267
452.688;  746.280;  686.456;  742.160
453.278;  571.893;  478.483;  566.840
453.868;  806.599;  743.585;  793.550
454.458;  659.328;  581.470;  651.141
455.048;  718.841;  608.444;  711.783
455.639;  579.234;  486.589;  567.096
456.229;  711.713;  634.642;  710.694
456.819;  758.063;  675.645;  751.158
457.409;  779.458;  692.614;  773.993
457.999;  741.592;  673.718;  737.505
458.589;  687.987;  614.705;  686.606
459.179;  726.895;  646.672;  717.658
459.769;  634.441;  541.591;  627.099
460.358;  803.917;  713.743;  797.262
460.948;  697.812;  616.730;  689.503
461.538;  669.732;  564.753;  660.677
462.128;  669.653;  586.642;  664.934
462.717;  710.947;  598.922;  710.326
463.307;  717.878;  600.990;  705.846
463.897;  671.529;  563.770;  656.942
464.486;  846.648;  723.611;  837.128
465.076;  744.273;  650.848;  733.776
465.666;  657.838;  545.014;  652.900
466.255;  802.263;  715.804;  785.651
466.845;  674.206;  567.775;  666.749
467.434;  730.953;  641.859;  725.873
468.023;  667.227;  540.916;  658.357
468.613;  722.327;  627.705;  713.946
469.202;  654.317;  525.896;  646.507
469.791;  743.158;  626.008;  737.811
470.381;  746.928;  661.022;  742.813
470.970;  719.808;  589.999;  711.099
471.559;  745.019;  623.926;  733.291
472.148;  677.650;  533.052;  675.737
472.738;  772.885;  651.086;  765.466
473.327;  650.358;  510.060;  637.529
473.916;  753.461;  572.950;  737.446
474.505;  763.949;  636.111;  751.703
475.094;  820.136;  694.183;  806.570
475.683;  804.319;  669.108;  797.699
476.272;  742.277;  595.090;  730.632
476.861;  712.113;  580.200;  706.754
477.449;  743.231;  596.399;  728.487
478.038;  701.100;  557.090;  692.513
478.627;  724.885;  606.063;  714.852
479.216;  781.532;  627.300;  769.441
479.805;  789.251;  620.364;  783.375
480.393; 1017.818;  828.208; 1008.945
480.982;  893.957;  686.137;  874.501
481.571;  870.673;  707.377;  858.333
482.159;  714.663;  535.385;  705.386
482.748;  840.542;  664.262;  821.385
483.336;  881.564;  674.333;  858.209
483.925;  792.847;  611.281;  774.373
484.513;  771.857;  609.518;  758.962
485.102;  821.218;  635.248;  810.965
485.690; 1020.970;  838.469; 1011.050
486.278;  995.787;  769.469;  979.329
486.867;  825.598;  615.437;  809.662
487.455;  916.003;  720.374;  898.229
488.043;  764.444;  535.368;  748.361
488.631; 1026.116;  783.530; 1005.079
489.220;  930.224;  664.562;  908.626
489.808;  764.335;  505.418;  741.415
490.396;  940.737;  674.466;  914.645
490.984;  847.350;  549.464;  830.161
491.572;  958.867;  689.527;  940.315
492.160;  947.404;  652.368;  919.081
492.748;  908.659;  574.355;  884.341
493.336; 1044.942;  697.526; 1019.693
493.924;  983.088;  614.610;  958.077
494.512; 1103.415;  664.448; 1066.638
495.100; 1136.401;  668.367; 1103.280
495.687; 1243.333;  685.594; 1206.373
496.275; 1187.361;  574.555; 1150.796
496.863; 1312.141;  607.402; 1281.171
497.451; 1439.941;  554.385; 1386.805
498.038; 1624.843;  602.632; 1556.729
498.626; 1797.406;  622.603; 1741.407
499.214; 2100.247;  631.469; 2016.609
499.801; 2350.350;  611.417; 2220.633
500.389; 2464.728;  493.581; 2312.494
500.976; 2904.951;  689.564; 2744.849
501.564; 3291.033;  635.412; 3148.565
502.151; 3629.066;  431.380; 3515.999
502.738; 4089.264;  553.526; 3971.274
503.326; 4552.640;  598.637; 4403.796
503.913; 5361.707;  610.510; 5161.749
504.500; 6263.115;  659.436; 5986.420
505.088; 6793.723;  541.450; 6381.201
505.675; 7568.498;  600.630; 6925.547
506.262; 8616.809;  615.381; 7619.060
506.849; 9991.380;  601.496; 8733.969
507.436;11422.913;  701.600; 9790.121
508.023;11735.644;  598.579; 9985.472
508.610;12280.481;  668.502;10434.618
509.197;13254.737;  657.295;11198.435
509.784;14475.627;  616.486;12391.194
510.371;15603.165;  496.662;13603.713
510.958;16417.096;  591.412;14426.586
511.545;17337.814;  714.459;15243.775
512.132;17745.053;  606.623;15945.876
512.719;18331.207;  562.510;16340.369
513.305;20686.846;  572.439;18011.766
513.892;23003.514;  693.347;19754.971
514.479;24271.883;  603.562;20967.805
515.066;25882.006;  709.539;22299.793
515.652;26660.799;  631.531;22908.660
516.239;27812.563;  654.473;23798.875
516.825;29774.420;  522.513;25567.275
517.412;32227.297;  781.571;28154.959
517.998;32513.453;  588.429;28344.111
518.585;30448.387;  565.380;27134.219
519.171;30225.188;  611.610;27268.576
519.758;32585.254;  499.565;28964.129
520.344;34074.887;  674.486;30664.494
520.930;35557.637;  526.330;32550.605
521.516;38972.621;  658.608;35422.895
522.103;42489.777;  739.518;38280.004
522.689;42081.656;  577.366;37835.117
523.275;40116.988;  707.404;37288.613
523.861;40561.855;  613.501;37281.395
524.447;42179.371;  697.606;37846.949
525.033;42188.945;  689.415;38321.949
525.619;42218.867;  550.357;38579.285
526.205;43951.434;  541.417;40622.875
526.791;45310.598;  624.554;42258.836
527.377;46336.430;  566.370;42966.902
527.963;45502.605;  642.292;42018.949
528.549;46496.633;  629.358;42476.828
529.135;47013.965;  566.445;41854.852
529.721;46437.676;  596.430;41237.711
530.306;45788.570;  869.358;41259.445
530.892;47148.363;  569.426;41506.047
531.478;49348.223;  556.485;43559.613
532.063;51306.371;  525.382;47695.563
532.649;53996.859;  756.260;50808.324
533.235;56562.797;  564.395;51787.500
533.820;57122.605;  682.568;52145.035
534.406;56212.074;  574.265;51133.488
534.991;54889.395;  534.371;49996.805
535.576;53104.438;  620.431;48882.852
536.162;51670.914;  834.453;46942.285
536.747;50616.137;  505.248;45711.746
537.333;53660.414;  547.259;48510.180
537.918;55899.477;  629.307;50439.891
538.503;56042.648;  608.469;50863.711
539.088;55524.813;  639.329;50906.922
539.673;56415.879;  590.302;52621.965
540.259;56055.199;  539.390;52368.094
540.844;55284.805;  520.415;50879.109
541.429;55310.270;  726.229;52077.777
542.014;55858.668;  511.175;52716.695
542.599;57617.000;  629.355;52363.281
543.184;58689.879;  539.243;53187.137
543.769;59418.895;  580.235;54697.605
544.354;57567.984;  583.256;53913.914
544.938;52831.105;  631.303;49680.164
545.523;50144.141;  738.379;47386.277
546.108;52631.758;  595.225;49151.949
546.693;55245.289;  596.134;51384.637
547.278;54108.332;  581.335;51853.254
547.862;52167.977;  617.442;51173.750
548.447;53300.617;  689.201;51691.395
549.031;54120.363;  571.098;52456.703
549.616;54542.934;  628.324;52714.516
550.201;54745.914;  560.283;52414.598
550.785;55379.590;  664.217;52355.059
551.370;57159.180;  518.172;54589.453
551.954;60452.781;  671.209;58267.348
552.538;60886.133;  716.282;59062.176
553.123;61056.988;  548.181;58115.285
553.707;58624.242;  580.044;56556.285
554.291;57125.641;  703.237;56201.668
554.876;55102.883;  687.191;55335.762
555.460;54111.410;  578.111;54155.703
556.044;56052.512;  569.989;53721.484
556.628;57333.715;  604.159;53731.016
557.212;56429.121;  705.320;54312.531
557.796;54900.512;  583.159;53797.773
558.380;56513.523;  629.003;56145.984
558.964;58148.531;  611.252;57277.930
559.548;59477.543;  520.244;56459.641
560.132;58162.184;  588.097;54434.543
560.716;57446.512;  513.012;54800.617
561.300;59807.867;  526.275;57606.945
561.884;60717.105;  661.139;58972.445
562.467;60577.902;  654.020;57327.570
563.051;60091.895;  618.024;54962.434
563.635;57362.305;  580.063;52594.473
564.219;54497.953;  589.142;50610.410
564.802;52880.750;  648.000;49551.180
565.386;52119.109;  619.035;48370.953
565.969;52093.422;  689.226;48178.871
566.553;52646.145;  768.086;49957.305
567.136;52506.199;  695.997;50369.594
567.720;51637.105;  619.934;49492.004
568.303;52412.965;  621.022;50616.352
568.887;53399.191;  646.059;50727.148
569.470;54155.844;  631.891;51698.379
570.053;54047.391;  659.917;52122.078
570.637;56132.867;  558.134;52536.438
571.220;56693.035;  654.148;51186.098
571.803;57116.176;  776.878;51032.762
572.386;54724.328;  555.963;49609.887
572.969;53267.527;  574.046;48285.926
573.552;52321.887;  601.005;47624.285
574.135;50003.066;  536.851;45498.641
574.718;45075.184;  541.968;41970.434
575.301;45028.441;  548.436;41447.137
575.884;44981.703;  554.903;40923.836
576.467;48484.547;  701.934;45267.723
577.050;50539.508;  603.894;48175.543
577.633;51020.930;  781.047;47729.328
578.216;51003.234;  599.913;47579.793
578.799;51778.559;  610.820;47820.996
579.381;52459.203;  766.939;48115.551
579.964;50161.645;  564.044;47333.766
580.547;49284.039;  601.896;46668.969
581.129;48222.090;  725.782;44466.141
581.712;48722.418;  648.744;44164.922
582.294;50429.113;  614.930;46477.855
582.877;51378.496;  769.954;48244.254
583.459;50169.648;  602.752;47437.895
584.042;50434.875;  576.755;46943.219
584.624;50105.723;  565.733;46792.227
585.206;49307.887;  460.910;46557.250
585.789;48032.359;  590.779;45793.773
586.371;45755.785;  626.681;43836.391
586.953;45588.520;  661.790;42972.492
587.536;45624.656;  738.913;42487.211
588.118;44876.285;  617.534;42086.414
588.700;46612.934;  760.707;43389.930
589.282;47723.789;  634.823;43646.039
589.864;46799.027;  610.776;43438.109
590.446;46406.543;  496.651;43151.926
591.028;46342.414;  620.678;42781.867
591.610;46815.059;  483.767;42839.098
592.192;46742.152;  588.824;42820.402
592.774;44473.176;  554.714;40724.277
593.356;42901.832;  581.572;39874.789
593.937;42865.535;  573.801;39980.648
594.519;45661.875;  693.777;42069.633
595.101;47202.914;  541.613;42976.031
595.683;47535.418;  574.578;44084.441
596.264;46210.445;  600.780;43478.797
596.846;46214.004;  584.709;43803.672
597.427;45816.258;  562.532;42986.934
598.009;46431.910;  556.524;42832.219
598.591;46121.984;  644.704;42580.086
599.172;46301.207;  605.676;43061.805
599.753;45400.793;  519.542;41691.469
600.335;44340.473;  678.483;40692.520
600.916;42899.164;  613.581;39982.422
601.498;43289.031;  643.630;40318.617
602.079;44457.883;  598.545;40670.609
602.660;45141.324;  557.510;41450.898
603.241;44888.961;  494.685;41137.738
603.823;43654.102;  564.645;38868.797
604.404;42862.469;  507.500;38182.785
604.985;43105.145;  558.474;38078.047
605.566;43199.641;  668.697;38056.633
606.147;41865.563;  572.428;37020.418
606.728;42214.930;  535.400;37883.359
607.309;42685.613;  545.466;38748.273
607.890;41972.727;  558.599;38850.230
608.471;40287.684;  525.510;37457.918
609.051;39855.664;  627.304;36066.457
609.632;40775.949;  551.330;35991.074
610.213;42597.914;  574.483;37402.641
610.794;43215.289;  594.459;38383.363
611.374;44845.539;  634.432;40562.387
611.955;43843.168;  501.364;38533.727
612.536;43553.832;  617.489;36951.789
613.116;43451.480;  584.462;37197.891
613.697;43690.918;  566.297;38411.125
614.277;43517.109;  554.264;38673.938
614.858;41215.516;  578.472;37075.863
615.438;38467.891;  618.488;35092.906
616.019;37665.469;  727.253;33666.301
616.599;38764.695;  472.337;34189.023
617.179;41597.156;  528.420;36952.047
617.760;44280.051;  798.506;39582.574
618.340;44532.742;  638.221;38943.977
618.920;43376.363;  753.305;37594.156
619.500;43200.539;  575.209;37866.938
620.080;42699.996;  539.308;37869.043
620.660;42456.941;  508.086;36868.617
621.241;43005.387;  556.229;36352.309
621.821;41868.137;  604.278;35459.520
622.401;40810.637;  691.302;35207.414
622.980;41065.367;  533.171;35980.422
623.560;43111.477;  559.244;37351.328
624.140;40688.832;  619.307;34388.582
624.720;38747.207;  641.281;32368.764
625.300;38700.246;  525.299;32638.629
625.880;40171.191;  584.166;34599.035
626.459;41683.824;  585.263;36831.738
627.039;43434.090;  505.195;38299.098
627.619;43634.875;  760.084;38289.574
628.198;42362.293;  678.125;37220.695
628.778;43793.785;  647.281;37632.563
629.357;44037.035;  500.272;38003.012
629.937;43301.156;  552.102;38402.039
630.516;41738.863;  723.116;37868.801
631.096;39898.871;  576.272;35760.410
631.675;39368.816;  727.033;35225.219
632.254;37842.910;  558.972;35130.289
632.834;37414.832;  579.013;35794.570
633.413;37721.422;  723.198;35788.922
633.992;37418.641;  669.022;34532.863
634.571;37727.086;  628.934;33590.113
635.151;40669.527;  536.982;34943.863
635.730;41121.277;  579.185;35352.523
636.309;40755.172;  645.119;35366.605
636.888;40881.551;  654.019;36165.637
637.467;42123.246;  489.940;37515.902
638.046;44493.477;  736.126;39288.695
638.625;43851.852;  689.019;38279.699
639.204;43168.559;  609.910;37741.598
639.782;42875.660;  581.809;38364.551
640.361;41298.336;  694.061;36740.621
640.940;39235.609;  573.067;34950.082
641.519;38626.938;  648.074;34137.398
642.097;39442.590;  614.080;35654.258
642.676;38622.301;  608.086;35637.957
643.255;38616.949;  594.092;36567.074
643.833;40239.480;  674.098;37809.434
644.412;41385.773;  553.104;37337.293
644.990;41250.723;  574.111;37018.531
645.569;40462.254;  661.117;36518.469
646.147;39753.223;  702.123;36186.430
646.726;38810.973;  600.129;36267.688
647.304;39018.125;  556.135;36647.625
647.882;42328.336;  480.142;39286.742
648.461;43003.387;  616.148;39157.703
649.039;39406.477;  654.154;35412.883
649.617;38042.188;  649.160;34744.918
650.195;38897.020;  643.167;35403.098
650.773;39230.109;  587.173;35053.797
651.352;39039.898;  469.179;33756.816
651.930;36979.031;  458.185;31868.773
652.508;37911.398;  676.191;33121.551
653.086;38079.512;  633.198;33564.793
653.663;38661.383;  549.204;34054.668
654.241;41036.453;  508.210;35693.309
654.819;42886.762;  542.216;36422.906
655.397;44636.633;  551.222;38213.484
655.975;44984.105;  596.229;39507.625
656.553;43750.574;  730.235;39498.223
657.130;44082.785;  555.241;40395.480
657.708;44384.676;  642.247;39242.020
658.286;44528.465;  585.253;38920.020
658.863;44445.938;  617.260;40202.898
659.441;43288.367;  612.266;39677.938
660.018;44883.059;  607.272;40413.355
660.596;44338.527;  504.278;39931.414
661.173;42780.180;  566.284;39604.531
661.750;42621.789;  524.291;39700.070
662.328;42627.480;  631.297;39292.809
662.905;41294.172;  561.303;38235.648
663.482;40400.441;  583.309;36212.305
664.060;39962.914;  542.315;35944.945
664.637;38758.402;  635.322;35170.785
665.214;37284.352;  617.328;34197.523
665.791;37920.742;  606.334;34549.520
666.368;37631.516;  549.340;35118.578
666.945;37663.684;  666.346;36019.418
667.522;37428.598;  545.353;36048.438
668.099;38174.027;  572.359;36243.914
668.676;39648.816;  606.365;35958.875
669.253;41057.969;  738.371;37384.730
669.830;40035.297;  714.377;36779.629
670.407;38029.789;  588.384;35231.289
670.984;38692.578;  625.390;35544.270
671.560;37847.309;  652.396;35466.867
672.137;36616.922;  576.402;34280.863
672.714;37113.770;  612.408;34632.863
673.290;37735.363;  631.415;35135.422
673.867;37574.172;  548.421;36114.480
674.443;37152.164;  509.427;36152.859
675.020;36816.695;  617.433;35327.238
675.596;38456.086;  609.439;35795.176
676.173;39590.695;  529.446;35430.355
676.749;38115.266;  443.452;33549.516
677.326;36058.496;  492.458;32210.012
677.902;35854.086;  520.464;32068.871
678.478;36314.078;  562.470;32583.891
679.054;35827.906;  888.477;32088.928
679.631;35203.359;  613.483;30978.848
680.207;37655.828;  777.489;33160.887
680.783;39302.598;  503.495;35570.363
681.359;38540.770;  594.501;36125.184
681.935;37872.160;  605.508;35240.922
682.511;37193.410;  644.514;34429.961
683.087;36597.660;  640.520;34463.680
683.663;36584.691;  533.526;34648.898
684.239;36918.125;  528.532;34546.457
684.815;38897.355;  662.539;35586.375
685.390;39116.766;  747.545;35821.895
685.966;38132.496;  601.551;35085.871
686.542;37562.766;  514.557;34198.230
687.118;36327.938;  611.563;32847.707
687.693;36128.426;  628.570;32794.027
688.269;35889.117;  575.576;33072.367
688.844;36400.848;  650.582;33141.664
689.420;37848.117;  604.588;33965.742
689.995;38249.469;  711.594;34655.523
690.571;36638.078;  699.601;33576.742
691.146;35306.012;  567.607;32657.219
691.722;35265.563;  610.613;32526.979
692.297;35705.211;  591.619;33014.617
692.872;36792.441;  533.625;34012.254
693.448;37937.332;  513.632;34237.434
694.023;38033.441;  633.638;34142.672
694.598;38192.875;  610.644;34132.031
695.173;38242.543;  545.650;34205.250
695.748;35712.375;  464.656;32882.488
696.323;34521.527;  594.663;32864.906
696.898;34647.137;  690.669;33170.004
697.473;34765.867;  476.675;32432.984
698.048;34228.879;  560.681;31649.303
698.623;33921.168;  515.687;30778.141
699.198;34848.359;  590.694;31140.119
699.773;35578.430;  522.700;31764.299
700.348;35733.539;  527.706;31780.816
700.922;36275.070;  623.712;32046.375
701.497;36853.902;  571.718;32603.574
702.072;37942.512;  638.725;34799.871
702.646;38834.801;  642.731;35793.172
703.221;38874.434;  635.737;35201.590
703.795;39006.441;  513.743;34764.527
704.370;37845.195;  403.749;34307.367
704.944;36651.266;  566.756;33509.887
705.519;34875.957;  632.762;31388.584
706.093;35284.285;  545.768;31340.104
706.668;36192.816;  664.774;32630.281
707.242;35622.328;  641.780;32728.779
707.816;35239.016;  606.787;32947.238
708.390;35343.688;  583.793;33277.855
708.965;36251.598;  606.799;33834.336
709.539;36262.129;  585.805;33709.273
710.113;35831.820;  622.811;33044.313
710.687;34845.109;  660.818;31953.992
711.261;33033.063;  503.824;30505.949
711.835;33043.832;  532.830;30262.369
712.409;34192.363;  492.836;31254.447
712.983;35652.574;  462.842;32754.986
713.557;36018.344;  495.849;34018.824
714.131;36109.375;  567.855;34579.625
714.704;34602.266;  539.861;33890.262
715.278;34061.414;  615.867;33531.102
715.852;34466.484;  646.873;33601.660
716.425;34686.277;  745.880;33515.117
716.999;34124.008;  483.886;33185.555
717.573;34564.398;  643.892;33905.996
718.146;36907.707;  735.898;35199.293
718.720;38234.078;  592.904;35060.551
719.293;37761.570;  640.911;34973.230
719.867;38710.461;  559.917;36394.449
720.440;39173.852;  701.923;36663.008
721.013;37887.422;  561.929;35102.426
721.587;38038.934;  497.935;33985.266
722.160;38530.402;  641.942;33524.965
722.733;37552.215;  595.948;32987.043
723.306;36971.145;  604.954;33066.301
723.880;37433.676;  600.960;33399.500
724.453;38306.906;  676.966;33468.297
725.026;39249.457;  562.973;33816.637
725.599;36896.305;  595.979;32797.996
726.172;36596.258;  629.985;33187.434
726.745;38462.906;  617.991;35136.613
727.318;38786.457;  671.997;35751.730
727.891;38800.988;  583.004;35890.430
728.463;37670.098;  600.010;34822.090
729.036;35623.391;  533.016;32895.086
729.609;34452.160;  503.022;31823.225
730.182;33754.590;  632.028;31445.283
730.754;34279.941;  441.035;32373.223
731.327;35555.371;  626.041;33676.820
731.900;35655.063;  498.047;33417.000
732.472;34426.633;  591.053;31978.498
733.045;33681.363;  564.059;30368.777
733.617;34191.836;  484.066;30574.215
734.190;34488.363;  613.072;31280.975
734.762;34893.074;  591.078;31674.412
735.334;34262.465;  613.084;31247.291
735.907;33184.277;  612.090;29876.211
736.479;33235.527;  640.097;29808.488
737.051;33968.617;  622.103;30233.547
737.623;35703.949;  641.109;31469.086
738.195;36773.898;  570.115;31784.225
738.768;36425.891;  432.121;32120.523
739.340;35892.582;  538.128;32094.342
739.912;34793.512;  651.134;31312.680
740.484;34733.922;  618.140;31946.238
741.056;35999.254;  561.146;32984.059
741.628;36890.422;  538.152;33897.715
742.199;35633.293;  683.159;33213.016
742.771;33715.203;  495.165;31369.113
743.343;34243.293;  523.171;31865.473
743.915;34504.305;  622.177;32388.631
744.487;32992.797;  661.183;31079.568
745.058;32548.287;  633.190;30570.107
745.630;31855.656;  653.196;29970.127
746.201;31735.107;  525.202;29186.766
746.773;31548.457;  621.208;28805.723
747.344;31406.309;  596.214;29591.223
747.916;32944.699;  614.221;31412.201
748.487;33341.930;  650.227;32194.898
749.059;33228.141;  528.233;32533.719
749.630;32935.473;  572.239;32158.518
750.201;31639.662;  606.245;30855.395
750.773;30271.672;  513.252;28622.555
751.344;30643.604;  601.258;28405.732
751.915;30259.953;  584.264;28461.551
752.486;29623.164;  538.270;27842.850
753.057;30076.814;  613.276;27845.008
753.628;29825.324;  552.283;27728.107
754.199;28386.996;  542.289;27381.086
754.770;27358.406;  614.295;25882.203
755.341;27779.297;  649.301;25886.184
755.912;27597.047;  610.307;26050.861
756.483;27831.459;  630.314;26798.779
757.054;28134.270;  549.320;27048.238
757.625;27902.260;  521.326;26294.838
758.195;27669.930;  512.332;26142.076
758.766;27670.961;  611.338;26392.234
759.337;28105.332;  511.345;26334.594
759.907;29542.441;  494.351;27579.652
760.478;29626.172;  532.357;28352.770
761.048;28435.123;  644.363;27325.088
761.619;27875.594;  619.369;26460.428
762.189;28323.844;  577.376;26029.826
762.760;28489.234;  659.382;26430.145
763.330;28070.705;  638.388;26670.902
763.900;27591.295;  594.394;26603.021
764.471;26335.326;  537.400;25542.740
765.041;25335.797;  692.407;24358.459
765.611;24799.348;  647.413;23991.297
766.181;25413.619;  563.419;24470.236
766.751;25440.270;  583.425;24845.975
767.321;24983.340;  540.431;24533.633
767.891;24886.990;  598.438;24916.492
768.461;24968.381;  579.444;24776.771
769.031;24898.611;  571.450;24757.988
769.601;24508.602;  671.456;24181.088
770.171;24265.873;  508.462;23670.387
770.741;24149.643;  585.469;22960.045
771.311;24366.854;  633.475;22917.523
771.880;24664.904;  553.481;23562.941
772.450;25224.254;  529.487;24216.500
773.020;25467.346;  492.493;24140.398
773.589;25308.355;  552.500;24414.857
774.159;24747.346;  562.506;23858.717
774.729;23501.576;  574.512;22942.135
775.298;21625.047;  544.518;22324.033
775.867;20078.199;  550.524;21140.313
776.437;20300.049;  604.531;20838.092
777.006;20754.600;  497.537;20599.510
777.576;21006.109;  637.543;20508.809
778.145;20621.260;  614.549;20732.947
778.714;20540.092;  617.555;21062.465
779.283;20916.822;  636.562;20949.664
779.853;21399.492;  572.568;20508.623
780.422;21729.504;  598.574;20649.082
780.991;22986.873;  599.580;21527.520
781.560;23348.145;  712.586;22632.658
782.129;23373.834;  614.593;23048.277
782.698;23328.506;  640.599;23438.555
783.267;22877.877;  553.605;23267.734
783.836;22417.646;  641.611;22415.133
784.404;21297.418;  506.617;20443.152
784.973;20638.908;  447.624;19699.150
785.542;20283.178;  566.630;19763.828
786.111;21022.250;  682.636;20341.408
786.679;21054.719;  600.642;20207.967
787.248;21041.090;  501.648;19516.465
787.817;20859.301;  559.655;18900.363
788.385;20239.652;  651.661;17879.121
788.954;19191.102;  469.667;17658.301
789.522;18558.652;  642.673;17788.879
790.090;18400.643;  528.679;18118.277
790.659;18995.174;  557.686;18338.736
791.227;19273.484;  575.692;18508.615
791.795;18976.215;  622.698;17898.254
792.364;17893.605;  521.704;17295.133
792.932;17007.217;  636.710;16822.051
793.500;17451.406;  536.717;17040.148
794.068;17770.238;  479.723;17179.787
794.636;17562.148;  523.729;16664.246
795.204;17335.318;  488.735;16524.545
795.772;17631.049;  522.741;17274.564
796.340;18401.119;  552.748;17891.002
796.908;18471.371;  505.754;17648.561
797.476;17952.721;  505.760;17064.080
798.044;17022.531;  480.766;16672.777
798.612;17143.303;  575.772;17023.996
799.180;17022.713;  596.779;16561.615
799.747;16332.003;  604.785;15962.773
800.315;15837.134;  510.791;15296.992
800.883;16061.845;  460.797;14801.771
801.450;16111.075;  615.803;14534.430
802.018;15823.726;  630.810;14173.248
802.585;15518.597;  548.816;14029.547
803.153;15129.467;  551.822;13836.846
803.720;14932.537;  546.828;13567.324
804.287;14808.028;  553.834;13360.622
804.855;14666.959;  659.841;13681.981
805.422;14282.970;  556.847;13536.560
805.989;14210.340;  529.853;13355.958
806.556;14487.811;  537.859;13747.896
807.124;14995.581;  632.865;13987.376
807.691;15082.071;  555.872;14038.674
808.258;15268.803;  586.878;14120.152
808.825;14747.873;  632.884;13860.111
809.392;13899.384;  706.890;13268.790
809.959;13167.594;  596.896;12680.389
810.526;12839.685;  719.903;12427.308
811.093;12448.275;  685.909;12030.105
811.659;12379.406;  550.915;11653.664
812.226;12535.916;  575.921;11637.183
812.793;12608.947;  606.927;11611.521
813.360;12626.958;  567.934;11885.181
813.926;13442.809;  604.940;12770.539
814.493;13148.239;  487.946;12677.638
815.060;12296.669;  475.952;11974.336
815.626;12235.140;  531.958;11594.715
816.193;12363.311;  595.965;11579.474
816.759;12100.001;  542.971;11666.972
817.325;11712.092;  491.977;11325.530
817.892;11748.942;  653.983;11105.369
818.458;11483.813;  619.989;10843.928
819.024;11287.144;  677.996;10714.406
819.591;11309.494;  596.002;10469.165
820.157;11332.005;  482.008;10235.523
820.723;11636.896;  629.014;10847.563
821.289;11713.026;  896.020;11040.980
821.855;10809.116;  667.027;10357.100
822.421;10249.987;  566.033; 9978.918
822.987;10113.317;  517.039; 9754.177
823.553;10475.788;  553.045;10065.755
824.119;10807.619;  674.051;10036.294
824.685;10885.869;  648.058;10029.192
825.251;11008.180;  645.064;10199.230
825.816;10907.051;  719.070; 9820.189
826.382;10392.461;  633.076; 9297.248
826.948;10099.812;  627.082; 9381.347
827.513; 9730.543;  568.089; 9450.726
828.079; 9505.793;  521.095; 9472.444
828.645; 9756.604;  612.101; 9292.643
829.210; 9830.174;  499.107; 9065.341
829.776; 9941.745;  624.113; 9132.620
830.341; 9877.655;  626.120; 9092.878
830.906; 9744.146;  687.126; 9078.557
831.472; 9108.576;  506.132; 8534.535
832.037; 8982.147;  650.138; 8677.874
832.602; 8856.258;  538.144; 8628.692
833.167; 9178.168;  615.151; 8879.031
833.733; 9279.059;  648.157; 9189.790
834.298; 9045.310;  509.163; 9052.608
834.863; 9103.240;  639.169; 8895.087
835.428; 9048.991;  605.175; 8824.266
835.993; 8986.722;  606.182; 8845.385
836.558; 9047.192;  632.188; 8888.563
837.123; 9056.463;  765.194; 8966.582
837.688; 8790.293;  604.200; 8617.860
838.253; 8834.204;  609.206; 8590.699
838.817; 8767.635;  573.213; 8443.797
839.382; 9186.225;  686.219; 8799.356
839.947; 9047.916;  599.225; 8810.595
840.511; 8952.506;  700.231; 8796.394
841.076; 8436.917;  463.237; 8347.231
841.641; 8400.268;  615.244; 8224.330
842.205; 8266.178;  589.250; 8223.349
842.770; 8590.068;  714.256; 8622.107
843.334; 8513.699;  588.262; 8410.386
843.898; 8686.189;  566.268; 8337.465
844.463; 8857.440;  680.275; 8506.283
845.027; 8602.171;  589.281; 8280.962
845.591; 8674.321;  649.287; 8231.141
846.156; 8495.952;  554.293; 7969.179
846.720; 8040.403;  663.299; 7768.278
847.284; 7930.374;  612.306; 7630.957
847.848; 8051.944;  621.312; 7472.395
848.412; 8067.734;  623.318; 7437.394
848.976; 8104.785;  715.324; 7674.592
849.540; 8061.576;  764.330; 7836.011
850.104; 7934.826;  682.337; 7913.669
850.668; 7601.817;  477.343; 7694.508
851.232; 7812.527;  520.349; 7756.887
851.796; 8028.558;  594.355; 7926.545
852.359; 7942.889;  658.361; 7827.844
852.923; 7695.759;  641.368; 7641.163
853.487; 7477.810;  645.374; 7342.501
854.050; 7256.181;  400.380; 7042.820
854.614; 7372.931;  541.386; 7151.338
855.177; 7338.282;  597.392; 7105.077
855.741; 7276.752;  651.399; 6989.675
856.304; 7029.923;  663.405; 6596.634
856.868; 6706.434;  522.411; 6356.272
857.431; 6754.244;  601.417; 6468.571
857.995; 6831.455;  575.423; 6373.210
858.558; 6846.825;  642.430; 6324.448
859.121; 6700.576;  634.436; 6408.327
859.684; 6568.667;  625.442; 6347.886
860.247; 6468.197;  587.448; 6321.264
860.810; 6455.768;  536.454; 6301.903
861.374; 6719.278;  731.461; 6607.881
861.937; 6610.729;  505.467; 6408.200
862.500; 7002.100;  553.473; 6572.639
863.062; 6713.950;  526.479; 6387.297
863.625; 6645.900;  604.485; 6190.836
864.188; 6180.551;  524.492; 5807.254
864.751; 5854.522;  571.498; 5682.413
865.314; 5762.152;  605.504; 5547.492
865.876; 5788.603;  667.510; 5500.150
866.439; 5813.954;  650.516; 5415.909
867.002; 5809.904;  772.523; 5501.567
867.564; 5595.835;  708.529; 5413.946
868.127; 5445.125;  595.535; 5160.325
868.689; 5508.296;  602.541; 5133.183
869.252; 5747.006;  687.547; 5252.382
869.814; 5525.537;  530.554; 5297.141
870.377; 5567.728;  632.560; 5390.919
870.939; 5727.058;  836.566; 5599.898
871.501; 5291.269;  623.572; 5248.336
872.063; 4925.020;  470.578; 4854.235
872.626; 4919.890;  501.585; 4817.074
873.188; 5029.861;  606.591; 4987.732
873.750; 5048.671;  582.597; 4868.651
874.312; 5086.142;  534.603; 4779.330
874.874; 5327.333;  733.609; 4866.348
875.436; 5155.063;  669.616; 4718.887
875.998; 4958.594;  677.622; 4660.005
876.560; 4652.704;  677.628; 4462.964
877.122; 4432.695;  529.634; 4145.042
877.683; 4497.166;  605.640; 4056.481
878.245; 4455.476;  555.647; 3950.740
878.807; 4631.567;  617.653; 4058.958
879.369; 4336.557;  513.659; 3954.677
879.930; 4154.948;  511.665; 3941.495
880.492; 4267.198;  681.671; 4067.014
881.053; 4042.929;  542.678; 3859.633
881.615; 4010.300;  535.684; 3776.071
882.176; 3884.570;  585.690; 3734.750
882.738; 3845.421;  658.696; 3678.489
883.299; 3587.231;  475.702; 3405.407
883.860; 3544.942;  493.709; 3351.106
884.422; 3632.773;  646.715; 3394.044
884.983; 3378.863;  521.721; 3166.443
885.544; 3369.934;  621.727; 3189.802
886.105; 3297.944;  592.733; 3160.360
886.666; 3200.855;  583.740; 3093.059
887.227; 3006.986;  499.746; 2941.957
887.788; 2951.976;  615.752; 2974.836
888.349; 2742.867;  499.758; 2721.214
888.910; 2799.977;  640.764; 2696.493
889.471; 2687.508;  600.771; 2560.172
890.032; 2665.918;  584.777; 2558.190
890.593; 2710.429;  638.783; 2567.669
891.153; 2648.320;  564.789; 2460.307
891.714; 2504.910;  512.795; 2372.046
892.275; 2421.581;  512.802; 2309.505
892.835; 2480.211;  664.808; 2382.543
893.396; 2375.142;  619.814; 2295.502
893.956; 2207.473;  600.820; 2162.420
894.517; 2171.243;  604.826; 2125.439
895.077; 2150.194;  624.833; 2086.978
895.638; 2180.425;  732.839; 2126.316
896.198; 1912.815;  552.845; 1838.275
896.758; 1973.666;  656.851; 1892.813
897.319; 1856.296;  562.857; 1792.232
897.879; 1834.967;  592.864; 1762.751
898.439; 1704.537;  526.870; 1661.149
898.999; 1811.348;  610.876; 1781.468
899.559; 1740.519;  618.882; 1703.347
900.119; 1585.529;  495.888; 1537.525
900.679; 1724.700;  696.895; 1638.384
901.239; 1595.911;  619.901; 1527.902
901.799; 1492.081;  623.907; 1456.441
902.359; 1377.712;  543.913; 1357.140
902.919; 1348.622;  538.919; 1331.118
903.479; 1333.653;  536.926; 1317.257
904.038; 1286.344;  524.932; 1262.595
904.598; 1177.694;  426.938; 1152.034
905.158; 1265.345;  592.944; 1240.893
905.717; 1255.995;  559.950; 1233.691
906.277; 1244.526;  588.957; 1217.330
906.836; 1258.456;  616.963; 1222.408
907.396; 1228.787;  631.969; 1193.047
907.955; 1208.718;  648.975; 1182.526
908.515; 1127.568;  556.981; 1099.364
909.074; 1114.219;  560.988; 1092.863
909.633; 1090.209;  574.994; 1069.121
910.192; 1215.360;  721.000; 1196.460
910.752; 1056.160;  559.000; 1029.960
911.311; 1039.740;  565.000; 1009.780
911.870;  994.440;  523.000;  971.460
912.429; 1115.840;  678.000; 1094.080
912.988; 1098.400;  659.000; 1081.060
913.547;  963.440;  514.000;  940.380
914.106; 1022.320;  629.000;  999.420
914.665; 1002.300;  620.000;  984.020
915.224; 1054.520;  646.000; 1035.760
915.782;  941.060;  556.000;  922.560
916.341; 1066.960;  680.000; 1049.840
916.900;  938.600;  569.000;  925.260
917.458;  903.980;  549.000;  884.220
918.017;  960.700;  612.000;  942.600
918.576;  926.840;  595.000;  904.440
919.134;  846.120;  513.000;  837.980
919.693;  913.120;  561.000;  893.060
920.251;  897.920;  533.000;  876.500
920.809;  859.600;  537.000;  839.580
921.368;  900.160;  568.000;  885.360
921.926;  861.340;  507.000;  842.940
922.484;  917.320;  601.000;  903.360
923.042;  898.580;  559.000;  880.340
923.601; 1015.040;  723.000;  998.680
924.159;  955.140;  631.000;  935.560
924.717;  855.900;  528.000;  841.080
925.275;  912.480;  615.000;  903.240
925.833;  793.660;  496.000;  779.320
926.391;  960.700;  618.000;  938.380
926.949;  879.880;  542.000;  857.680
927.506;  922.140;  585.000;  903.500
928.064;  884.600;  580.000;  877.580
928.622;  897.120;  573.000;  880.100
929.180;  832.940;  486.000;  814.180
929.737;  811.260;  496.000;  808.540
930.295;  942.320;  617.000;  928.480
930.853;  861.980;  535.000;  849.100
931.410;  838.720;  525.000;  821.120
931.968;  957.960;  636.000;  940.660
932.525;  923.860;  587.000;  909.380
933.082;  825.260;  485.000;  811.440
933.640;  946.900;  600.000;  925.900
934.197;  903.400;  559.000;  886.360
934.754;  904.220;  569.000;  897.780
935.312;  874.560;  518.000;  863.340
935.869; 1028.440;  665.000; 1012.980
936.426;  885.840;  567.000;  872.800
936.983;  901.980;  566.000;  889.020
937.540;  844.380;  489.000;  838.280
938.097;  950.140;  578.000;  940.120
938.654;  910.060;  551.000;  898.860
939.211;  960.820;  604.000;  952.480
939.768;  929.340;  568.000;  915.420
940.324;  923.800;  551.000;  904.200
940.881;  897.900;  534.000;  878.500
941.438; 1036.100;  650.000; 1021.200
941.995; 1006.920;  633.000;  992.560
942.551;  895.820;  493.000;  875.620
943.108;  961.540;  580.000;  937.920
943.664;  896.920;  520.000;  869.340
944.221; 1111.780;  688.000; 1088.140
944.777;  889.620;  505.000;  869.680
945.334;  905.400;  525.000;  884.840
945.890;  973.240;  585.000;  946.480
946.446;  972.280;  577.000;  947.020
947.003;  988.140;  585.000;  964.940
947.559; 1078.200;  691.000; 1063.040
948.115; 1041.300;  675.000; 1026.540
948.671;  982.960;  595.000;  967.300
949.227;  885.000;  485.000;  859.560
949.783;  867.080;  473.000;  858.900
950.339; 1012.120;  604.000;  991.000
950.895; 1048.020;  604.000; 1023.840
951.451;  946.740;  532.000;  925.280
952.007; 1009.980;  615.000;  998.540
952.563;  953.360;  545.000;  937.780
953.118;  933.100;  539.000;  904.940
953.674;  962.940;  543.000;  935.780
954.230;  965.860;  531.000;  949.640
954.785;  951.140;  590.000;  936.640
955.341; 1030.220;  611.000;  998.160
955.897;  861.300;  472.000;  834.660
956.452;  988.060;  568.000;  953.840
957.008; 1109.380;  772.000; 1083.640
957.563; 1031.580;  676.000; 1009.540
958.118;  895.960;  532.000;  877.700
958.674;  965.000;  625.000;  946.780
959.229; 1046.840;  665.000; 1013.980
959.784;  872.060;  475.000;  832.400
960.339; 1047.480;  663.000; 1001.280
960.894;  999.240;  631.000;  963.760
961.449;  882.980;  543.000;  859.960
962.004; 1227.920;  863.000; 1212.840
962.559;  891.540;  550.000;  860.140
963.114;  768.800;  396.000;  742.480
963.669;  930.920;  568.000;  915.500
964.224;  898.040;  522.000;  874.340
964.779;  853.120;  460.000;  828.420
965.334; 1044.500;  714.000; 1017.860
965.888;  892.620;  509.000;  875.360
966.443;  998.600;  611.000;  972.380
966.998;  832.140;  492.000;  819.460
967.552;  928.980;  549.000;  908.380
968.107;  888.460;  518.000;  868.300
968.661;  951.460;  579.000;  922.440
969.216;  888.660;  530.000;  856.280
969.770;  943.220;  589.000;  917.200
970.324;  946.920;  581.000;  923.140
970.879;  973.880;  616.000;  947.180
971.433;  979.240;  624.000;  952.720
971.987;  921.960;  538.000;  895.340
972.541;  944.020;  603.000;  917.100
973.095; 1040.860;  667.000; 1009.460
973.649;  833.580;  493.000;  809.480
974.203;  848.820;  533.000;  829.040
974.757;  874.320;  556.000;  855.220
975.311;  898.720;  602.000;  872.600
975.865;  904.660;  582.000;  881.820
976.419;  875.920;  573.000;  857.400
976.973;  862.340;  533.000;  849.620
977.526;  967.840;  635.000;  949.920
978.080;  819.840;  494.000;  796.780
978.634;  945.540;  638.000;  921.320
979.187;  920.900;  623.000;  905.400
979.741; 1044.700;  745.000; 1018.380
980.294;  819.120;  496.000;  789.160
980.848;  739.860;  454.000;  717.220
981.401;  833.580;  542.000;  816.540
981.955;  871.140;  594.000;  844.300
982.508;  768.960;  463.000;  746.340
983.061;  948.840;  659.000;  915.260
983.615;  823.360;  524.000;  798.800
984.168;  799.340;  506.000;  770.080
984.721;  901.000;  614.000;  880.760
985.274;  880.440;  610.000;  867.500
985.827;  846.640;  574.000;  834.220
986.380;  738.180;  467.000;  721.340
986.933;  886.360;  602.000;  864.800
987.486;  873.480;  602.000;  861.920
988.039;  871.540;  630.000;  863.100
988.591;  906.940;  624.000;  893.260
989.144;  754.400;  514.000;  737.260
989.697;  771.640;  532.000;  758.740
990.250;  868.300;  634.000;  858.100
990.802;  765.620;  538.000;  755.860
991.355;  991.800;  749.000;  974.880
991.907;  879.280;  646.000;  864.320
992.460;  766.760;  543.000;  753.760
993.012;  763.980;  552.000;  749.540
993.565;  725.060;  498.000;  711.360
994.117;  964.520;  731.000;  950.780
994.669;  719.640;  508.000;  701.320
995.221;  804.040;  576.000;  791.920
995.774;  802.120;  595.000;  787.580
996.326;  752.600;  560.000;  740.220
996.878;  845.580;  676.000;  838.420
997.430;  710.980;  515.000;  699.860
997.982;  762.040;  593.000;  750.140
998.534;  753.840;  572.000;  739.060
999.086;  751.900;  561.000;  738.220
999.638;  672.700;  465.000;  661.380
1000.190;  716.460;  524.000;  699.320
1000.741;  750.640;  559.000;  742.700
1001.293;  692.580;  533.000;  686.020
1001.845;  687.240;  523.000;  676.640
1002.396;  759.380;  567.000;  743.400
1002.948;  746.880;  581.000;  737.400
1003.500;  724.780;  568.000;  723.780
1004.051;  917.520;  737.000;  907.580
1004.603;  802.480;  644.000;  791.820
1005.154;  615.840;  464.000;  608.980
1005.705;  724.640;  609.000;  723.960
1006.257;  713.100;  589.000;  707.220
1006.808;  700.920;  557.000;  685.460
1007.359;  776.040;  635.000;  763.240
1007.910;  653.860;  529.000;  646.640
1008.461;  740.460;  617.000;  732.940
1009.013;  596.960;  485.000;  588.340
1009.564;  800.600;  689.000;  793.520
1010.115;  600.500;  500.000;  597.040
1010.665;  610.960;  477.000;  602.160
1011.216;  679.340;  575.000;  667.920
1011.767;  699.120;  601.000;  697.920
1012.318;  737.320;  629.000;  736.980
1012.869;  683.080;  595.000;  679.000
1013.419;  610.860;  493.000;  603.120
1013.970;  676.000;  546.000;  666.640
1014.521;  621.000;  537.000;  620.620
1015.071;  675.800;  617.000;  670.380
1015.622;  644.440;  522.000;  635.460
1016.172;  601.560;  495.000;  596.820
1016.723;  615.380;  524.000;  614.380
1017.273;  611.480;  521.000;  604.160
1017.823;  657.300;  549.000;  650.340
1018.374;  616.320;  508.000;  611.760
1018.924;  718.740;  628.000;  716.880
1019.474;  719.540;  619.000;  718.880
1020.024;  659.060;  561.000;  657.580
1020.574;  725.560;  673.000;  726.160
1021.124;  676.940;  587.000;  673.580
1021.674;  565.480;  461.000;  559.120
1022.224;  715.380;  620.000;  708.940
1022.774;  671.620;  593.000;  668.820
1023.324;  760.960;  687.000;  753.520
1023.874;  889.680;  776.000;  875.760
1024.423;  618.580;  529.000;  613.700
1024.973;  612.160;  549.000;  610.760
1025.523;  621.600;  553.000;  620.960
1026.072;  608.980;  534.000;  606.420
1026.622;  679.020;  559.000;  675.740
1027.172;  719.000;  629.000;  715.660
1027.721;  603.620;  557.000;  601.220
1028.270;  672.260;  591.000;  663.400
1028.820;  651.120;  556.000;  638.080
1029.369;  625.420;  514.000;  612.700
1029.918;  650.200;  571.000;  649.840
1030.468;  565.520;  485.000;  564.780
1031.017;  644.760;  552.000;  634.800
1031.566;  618.660;  559.000;  608.900
1032.115;  705.760;  608.000;  694.500
1032.664;  605.160;  500.000;  596.480
1033.213;  737.540;  641.000;  735.420
1033.762;  638.520;  553.000;  635.620
1034.311;  685.000;  600.000;  677.220
1034.860;  693.100;  603.000;  691.000
1035.408;  730.340;  623.000;  722.720
1035.957;  723.960;  633.000;  719.540
1036.506;  535.420;  469.000;  530.800
1037.055;  853.580;  763.000;  844.320
1037.603;  672.260;  576.000;  664.000
1038.152;  534.860;  458.000;  534.760
1038.700;  585.480;  523.000;  585.740
1039.249;  682.820;  589.000;  681.220
1039.797;  637.060;  562.000;  633.360
1040.345;  706.380;  625.000;  705.420
1040.894;  632.620;  556.000;  625.300
1041.442;  639.940;  554.000;  632.200
1041.990;  571.840;  485.000;  559.160
1042.538;  542.620;  456.000;  536.180
1043.087;  574.960;  503.000;  570.860
1043.635;  679.360;  593.000;  670.500
1044.183;  594.020;  492.000;  586.400
1044.731;  579.500;  533.000;  576.000
1045.279;  675.660;  631.000;  674.920
1045.827;  900.980;  832.000;  892.400
1046.374;  517.900;  453.000;  515.420
1046.922;  593.300;  539.000;  590.580
1047.470;  696.600;  651.000;  691.300
1048.018;  653.340;  596.000;  647.960
1048.565;  720.100;  671.000;  708.600
1049.113;  561.540;  469.000;  557.000
1049.660;  625.240;  568.000;  629.660
1050.208;  675.940;  606.000;  675.640
1050.755;  614.360;  517.000;  606.580
1051.303;  687.300;  624.000;  686.820
1051.850;  633.820;  557.000;  635.120
1052.397;  480.000;  391.000;  473.960
1052.945;  620.340;  524.000;  617.760
1053.492;  739.260;  669.000;  741.840
1054.039;  718.320;  685.000;  720.180
1054.586;  564.260;  489.000;  557.240
1055.133;  698.200;  628.000;  693.140
1055.680;  652.380;  577.000;  646.620
1056.227;  543.940;  485.000;  542.780
1056.774;  795.040;  707.000;  794.980
1057.321;  521.800;  459.000;  523.260
1057.868;  647.100;  581.000;  651.320
1058.415;  652.460;  613.000;  651.980
1058.961;  680.540;  601.000;  678.940
1059.508;  643.920;  586.000;  643.820
1060.055;  583.020;  488.000;  581.780
1060.601;  627.140;  557.000;  624.300
1061.148;  618.240;  551.000;  616.820
1061.694;  600.080;  537.000;  592.580
1062.241;  598.020;  540.000;  596.320
1062.787;  668.160;  589.000;  663.140
1063.334;  810.440;  733.000;  808.560
1063.880;  677.780;  618.000;  668.360
1064.426;  710.500;  623.000;  706.820
1064.972;  596.140;  525.000;  601.340
1065.518;  571.220;  501.000;  566.640
1066.065;  630.300;  531.000;  624.460
1066.611;  597.580;  556.000;  598.800
1067.157;  639.080;  588.000;  641.860
1067.703;  672.960;  573.000;  668.480
1068.249;  607.980;  521.000;  605.220
1068.794;  632.500;  558.000;  626.880
1069.340;  582.360;  519.000;  578.960
1069.886;  598.460;  525.000;  590.700
1070.432;  539.760;  467.000;  541.720
1070.977;  603.280;  543.000;  601.080
1071.523;  569.240;  506.000;  573.060
1072.068;  586.540;  500.000;  582.000
1072.614;  528.260;  425.000;  527.760
1073.160;  694.580;  640.000;  687.040
1073.705;  579.800;  532.000;  572.520
1074.250;  564.180;  528.000;  559.900
1074.796;  656.500;  567.000;  655.160
1075.341;  673.740;  597.000;  664.100
1075.886;  596.620;  527.000;  594.240
1076.431;  652.200;  567.000;  649.880
1076.976;  642.160;  589.000;  639.220
1077.521;  584.740;  498.000;  583.080
1078.067;  582.500;  533.000;  579.400
1078.612;  666.740;  608.000;  661.620
1079.156;  604.200;  520.000;  601.540
1079.701;  696.200;  627.000;  693.260
1080.246;  696.460;  644.000;  696.300
1080.791;  630.400;  587.000;  625.020
1081.336;  657.380;  627.000;  659.320
1081.880;  654.300;  573.000;  649.680
1082.425;  571.680;  532.000;  573.480
1082.970;  714.460;  657.000;  717.040
1083.514;  601.880;  546.000;  597.000
1084.059;  588.200;  554.000;  586.720
1084.603;  567.840;  539.000;  565.840
1085.147;  645.960;  599.000;  645.220
1085.692;  722.720;  641.000;  716.800
1086.236;  508.700;  428.000;  503.140
1086.780;  751.660;  674.000;  751.440
1087.325;  660.120;  584.000;  654.620
1087.869;  617.060;  574.000;  610.700
1088.413;  703.080;  677.000;  705.040
1088.957;  535.720;  461.000;  543.400
1089.501;  769.500;  700.000;  766.640
1090.045;  732.440;  651.000;  726.480
1090.589;  576.640;  520.000;  569.920
1091.133;  680.320;  631.000;  673.340
1091.676;  595.760;  539.000;  591.940
1092.220;  606.940;  549.000;  600.920
1092.764;  713.100;  666.000;  706.960
1093.307;  666.840;  637.000;  673.780
1093.851;  559.540;  516.000;  556.540
1094.395;  690.380;  638.000;  683.140
1094.938;  639.740;  571.000;  632.520
1095.482;  564.800;  534.000;  559.800
1096.025;  714.700;  687.000;  710.880
1096.568;  785.120;  731.000;  779.280
1097.112;  511.340;  456.000;  508.180
1097.655;  600.780;  530.000;  603.000
1098.198;  600.400;  538.000;  600.180
1098.741;  622.480;  572.000;  612.860
1099.285;  657.580;  596.000;  657.300
1099.828;  440.460;  407.000;  439.400
1100.371;  612.400;  566.000;  608.160
1100.914;  688.060;  592.000;  682.660
1101.457;  686.020;  623.000;  679.900
1101.999;  581.660;  567.000;  584.680
1102.542;  648.540;  580.000;  641.440
1103.085;  661.720;  646.000;  658.500
1103.628;  766.780;  737.000;  762.060
1104.170;  591.920;  536.000;  588.280
1104.713;  650.960;  592.000;  646.700
1105.256;  563.060;  507.000;  557.440
1105.798;  503.980;  452.000;  499.980
1106.341;  729.460;  709.000;  728.900
1106.883;  528.160;  479.000;  521.340
1107.425;  673.680;  627.000;  668.180
1107.968;  618.620;  576.000;  612.380
1108.510;  686.480;  661.000;  684.960
1109.052;  617.000;  575.000;  612.620
1109.594;  557.060;  532.000;  554.440
1110.136;  648.060;  600.000;  643.220
1110.679;  631.080;  597.000;  633.080
1111.221;  610.460;  555.000;  604.460
1111.763;  556.800;  476.000;  559.220
1112.304;  547.060;  507.000;  547.140
1112.846;  671.820;  653.000;  666.240
1113.388;  938.140;  885.000;  942.180
1113.930;  691.360;  640.000;  694.200
1114.472;  607.420;  529.000;  606.540
1115.013;  548.320;  488.000;  551.280
1115.555;  591.220;  543.000;  587.100
1116.097;  572.520;  521.000;  579.480
1116.638;  689.820;  659.000;  684.600
1117.180;  661.300;  651.000;  667.740
1117.721;  569.080;  493.000;  568.580
1118.262;  680.440;  608.000;  677.960
1118.804;  636.440;  565.000;  637.340
1119.345;  584.560;  526.000;  578.400
1119.886;  707.220;  652.000;  704.040
1120.427;  590.780;  563.000;  589.020
1120.969;  596.540;  541.000;  597.920
1121.510;  562.420;  541.000;  563.060
1122.051;  724.560;  680.000;  723.580
1122.592;  654.540;  619.000;  655.420
1123.133;  545.740;  510.000;  547.940
1123.673;  706.160;  669.000;  706.480
1124.214;  615.200;  563.000;  612.460
1124.755;  646.340;  599.000;  639.460
1125.296;  626.720;  596.000;  627.320
1125.836;  688.640;  670.000;  691.500
1126.377;  604.300;  549.000;  599.660
1126.918;  618.880;  556.000;  614.980
1127.458;  623.400;  598.000;  622.220
1127.999;  655.160;  617.000;  656.980
1128.539;  691.320;  634.000;  694.240
1129.079;  636.260;  593.000;  632.720
1129.620;  556.620;  521.000;  558.100
1130.160;  541.760;  522.000;  539.480
1130.700;  643.640;  599.000;  640.840
1131.240;  644.900;  602.000;  643.700
1131.781;  623.560;  581.000;  619.680
1132.321;  603.000;  563.000;  599.120
1132.861;  564.040;  522.000;  564.200
1133.401;  600.140;  580.000;  593.940
1133.941;  631.480;  590.000;  626.280
1134.481;  604.100;  567.000;  597.580
1135.020;  610.500;  554.000;  609.160
1135.560;  680.900;  632.000;  674.940
1136.100;  503.000;  469.000;  501.160
1136.640;  510.660;  484.000;  510.480
1137.179;  543.220;  492.000;  537.960
1137.719;  608.020;  576.000;  605.400
1138.258;  588.420;  523.000;  587.360
1138.798;  666.860;  597.000;  663.780
1139.337;  481.180;  421.000;  482.840
1139.877;  648.600;  605.000;  642.360
1140.416;  876.220;  831.000;  878.060
1140.955;  535.040;  526.000;  535.380
1141.494;  669.720;  633.000;  669.280
1142.034;  585.380;  533.000;  583.520
1142.573;  653.040;  595.000;  646.280
1143.112;  550.380;  534.000;  553.480
1143.651;  540.780;  502.000;  536.480
1144.190;  687.340;  649.000;  691.640
1144.729;  604.400;  577.000;  607.420
1145.267;  579.600;  556.000;  584.900
1145.806;  634.420;  592.000;  637.040
1146.345;  639.720;  600.000;  635.020
1146.884;  620.900;  563.000;  622.500
1147.422;  532.320;  503.000;  533.060
1147.961;  710.000;  703.000;  708.460
1148.500;  676.140;  631.000;  669.720
1149.038;  637.900;  573.000;  632.500
1149.577;  700.400;  672.000;  698.640
1150.115;  447.340;  418.000;  452.280
1150.653;  610.580;  572.000;  607.340
1151.192;  557.860;  520.000;  552.920
1151.730;  649.720;  639.000;  652.560
1152.268;  587.420;  559.000;  589.520
1152.806;  577.200;  542.000;  571.180
1153.344;  578.580;  529.000;  577.640
1153.882;  597.700;  571.000;  600.060
1154.421;  469.900;  440.000;  470.620
1154.958;  598.720;  566.000;  595.240
1155.496;  644.580;  606.000;  645.280
1156.034;  717.160;  715.000;  721.880
1156.572;  672.600;  638.000;  667.060
1157.110;  473.840;  423.000;  473.940
1157.647;  678.940;  648.000;  676.960
1158.185;  563.460;  532.000;  564.320
1158.723;  509.680;  474.000;  509.200
1159.260;  695.080;  670.000;  701.700
1159.798;  658.260;  602.000;  658.160
1160.335;  624.780;  613.000;  631.820

