
Integration time [ms]:   3.276
Averaging Nr. [scans]: 1000
Smoothing Nr. [pixels]: 0
Data measured with spectrometer [name]: 7414430SP
Wave   ;Sample   ;Dark     ;Reference
[nm]   ;[counts] ;[counts] ;[counts] 

288.544;  157.692;    7.793;  793.890
289.143;  159.492;    7.462;  681.602
289.742;  160.492;    8.602;  828.814
290.341;  148.324;    1.321;  789.841
290.940;  139.034;   -0.709;  730.702
291.538;  139.495;    0.881;  881.108
292.137;  138.916;    0.122;  792.581
292.736;  142.519;   -1.929;  975.101
293.335;  137.930;   -8.229;  735.086
293.934;  139.203;   -5.279;  781.677
294.532;  139.208;   -1.369; 1031.958
295.131;  126.269;   -7.641;  834.394
295.730;  125.811;   -8.420;  809.588
296.328;  121.718;   -5.611;  783.442
296.927;  122.338;   -5.781;  779.652
297.525;  124.398;   -6.361;  781.236
298.124;  116.360;  -11.382;  654.009
298.722;  119.567;   -7.641;  761.933
299.321;  116.313;   -6.811;  708.597
299.919;  113.947;   -6.991;  751.918
300.518;  108.957;  -10.362;  689.338
301.116;  112.015;   -9.581;  691.381
301.715;  112.562;   -4.891;  730.222
302.313;  111.134;   -8.801;  704.943
302.911;  106.258;   -8.522;  733.830
303.509;  110.995;   -6.171;  925.627
304.108;  109.289;   -7.311;  760.383
304.706;  109.801;   -8.321;  801.664
305.304;  102.962;  -10.222;  796.707
305.902;  107.479;   -6.021;  784.484
306.500;  102.934;   -4.971;  728.200
307.098;  102.336;   -7.061;  746.560
307.696;  100.777;   -8.801;  780.432
308.294;   99.986;   -6.411;  731.359
308.892;  102.034;   -2.901;  759.769
309.490;   98.672;   -5.041;  712.161
310.088;   96.618;   -5.002;  788.444
310.686;  100.136;   -2.041;  821.749
311.284;   96.678;   -2.351;  766.040
311.882;   94.166;   -4.422;  731.225
312.480;   91.315;   -4.192;  697.167
313.078;   91.929;   -1.172;  808.331
313.675;   92.935;   -2.601;  691.600
314.273;   88.259;   -1.312;  797.837
314.871;   87.275;   -3.942;  589.829
315.468;   84.970;   -2.802;  652.090
316.066;   87.826;   -0.701;  694.427
316.664;   81.897;   -4.362;  656.351
317.261;   85.769;   -2.872;  910.128
317.859;   80.558;   -2.022;  768.735
318.456;   80.976;   -0.531;  830.096
319.054;   77.231;   -3.912;  787.828
319.651;   75.551;   -4.752;  759.928
320.249;   74.533;   -2.602;  810.188
320.846;   72.097;   -0.821;  714.286
321.443;   69.625;   -4.642;  832.135
322.041;   67.038;   -5.002;  812.315
322.638;   64.076;   -3.982;  701.456
323.235;   66.306;   -3.411;  665.683
323.833;   62.802;   -7.361;  740.354
324.430;   57.542;   -8.611;  615.900
325.027;   58.841;   -4.061;  876.855
325.624;   58.263;   -4.031;  644.532
326.221;   55.148;   -7.481;  689.717
326.818;   54.464;   -5.281;  818.332
327.415;   57.702;   -7.460;  748.828
328.012;   56.735;   -5.510;  690.585
328.609;   56.058;   -7.880;  731.389
329.206;   54.257;   -8.331;  778.621
329.803;   53.717;   -5.121;  737.841
330.400;   56.741;   -4.510;  704.260
330.997;   57.555;   -6.441;  817.147
331.594;   55.693;   -8.831;  788.185
332.191;   61.055;   -7.621;  728.722
332.787;   65.078;   -4.591;  844.463
333.384;   64.824;   -7.412;  763.093
333.981;   64.161;   -8.293;  815.687
334.578;   65.923;   -7.052;  708.378
335.174;   69.072;   -3.102;  731.469
335.771;   67.339;   -5.943;  836.456
336.367;   65.606;   -7.393;  710.631
336.964;   69.621;   -4.063;  793.266
337.561;   67.989;   -3.813;  731.112
338.157;   63.992;   -4.654;  911.916
338.754;   62.643;   -7.934;  796.589
339.350;   59.660;   -4.414;  722.493
339.946;   61.866;   -4.664;  773.135
340.543;   53.977;   -6.375;  846.136
341.139;   47.845;   -9.815;  720.836
341.735;   44.254;   -4.526;  772.593
342.332;   43.759;   -4.895;  691.472
342.928;   45.169;   -4.295;  795.394
343.524;   37.125;   -5.476;  761.684
344.120;   33.115;   -5.856;  738.562
344.716;   36.668;   -2.155;  723.717
345.313;   35.353;   -6.275;  795.342
345.909;   29.662;   -8.815;  627.336
346.505;   30.433;   -5.305;  740.247
347.101;   30.618;   -2.674;  827.864
347.697;   32.008;   -4.344;  785.398
348.293;   26.029;   -9.975;  627.244
348.889;   26.248;   -5.774;  745.914
349.485;   25.750;   -5.004;  688.205
350.081;   27.106;   -4.704;  772.592
350.676;   21.581;   -6.635;  691.606
351.272;   26.785;   -4.504;  809.530
351.868;   25.925;   -3.914;  780.497
352.464;   23.720;   -9.044;  723.932
353.059;   18.704;   -8.314;  646.017
353.655;   22.706;   -7.024;  777.063
354.251;   23.266;   -5.343;  759.845
354.846;   17.529;   -8.604;  740.646
355.442;   16.222;   -6.945;  753.071
356.038;   16.848;   -7.564;  751.708
356.633;   17.428;   -5.814;  728.594
357.229;   15.853;   -7.364;  724.757
357.824;   14.062;   -8.024;  703.600
358.420;   12.304;   -9.384;  679.726
359.015;   14.334;   -5.104;  695.357
359.610;   14.012;   -6.854;  763.920
360.206;    7.782;  -10.185;  603.240
360.801;   10.279;   -7.054;  646.503
361.396;   13.222;   -5.034;  725.975
361.992;    9.097;   -8.284;  668.220
362.587;    6.313;   -8.625;  670.160
363.182;    7.042;   -7.674;  689.631
363.777;    8.489;   -5.164;  738.242
364.372;    8.681;   -8.604;  737.314
364.967;    4.398;   -9.055;  680.744
365.563;    8.058;   -6.114;  815.567
366.158;    5.162;   -5.814;  685.161
366.753;    6.100;   -7.854;  649.263
367.348;    5.146;   -7.804;  746.056
367.942;    4.218;   -7.954;  697.298
368.537;    3.588;   -4.984;  754.245
369.132;    3.271;   -8.564;  703.428
369.727;    0.155;   -8.855;  638.079
370.322;    1.132;   -6.245;  580.186
370.917;    0.226;   -6.425;  710.646
371.511;    2.907;   -6.294;  861.834
372.106;   -0.228;   -7.685;  776.964
372.701;   -3.595;   -7.335;  585.988
373.296;    1.313;   -4.564;  863.135
373.890;   -2.347;  -10.235;  647.840
374.485;   -5.109;   -7.885;  691.199
375.079;   -0.979;   -7.324;  738.685
375.674;   -0.722;   -3.494;  812.970
376.268;   -4.346;   -8.525;  691.759
376.863;  -10.054;  -10.086;  580.327
377.457;   -3.675;   -7.025;  662.490
378.052;   -5.025;   -3.585;  764.884
378.646;   -5.923;   -7.595;  741.167
379.240;   -6.374;   -8.335;  721.176
379.835;   -5.898;   -5.785;  636.978
380.429;   -8.261;   -4.335;  562.557
381.023;   -7.521;   -6.805;  779.205
381.617;  -10.486;   -9.195;  680.106
382.212;   -7.569;   -6.905;  685.303
382.806;   -6.323;   -3.745;  760.690
383.400;  -10.191;   -7.745;  672.281
383.994;  -11.657;   -9.765;  664.870
384.588;   -7.190;   -6.564;  697.701
385.182;   -7.406;   -5.344;  726.624
385.776;   -8.010;   -8.514;  706.875
386.370;  -11.184;   -9.555;  681.968
386.964;  -10.165;   -8.715;  684.155
387.558;   -8.849;   -6.174;  598.360
388.152;  -11.753;   -8.725;  681.959
388.745;   -9.959;   -7.965;  814.707
389.339;   -8.804;   -5.924;  747.642
389.933;   -7.608;   -5.524;  695.370
390.527;   -8.163;   -7.114;  859.029
391.120;  -14.818;  -10.725;  595.318
391.714;  -11.958;   -8.035;  711.633
392.308;   -9.675;   -3.574;  780.253
392.901;  -13.063;   -7.245;  642.460
393.495;  -14.390;   -9.285;  595.414
394.089;  -12.859;   -5.895;  760.452
394.682;  -13.688;   -4.295;  697.188
395.275;  -12.971;   -9.875;  719.927
395.869;  -14.261;   -8.485;  667.314
396.462;  -13.151;   -7.455;  616.609
397.056;   -9.700;   -5.424;  776.621
397.649;  -13.550;   -6.605;  731.575
398.242;  -11.622;   -8.224;  712.645
398.836;  -10.648;   -7.474;  766.408
399.429;  -11.838;   -7.094;  631.041
400.022;  -15.525;   -9.475;  665.902
400.615;  -12.619;   -7.145;  805.609
401.208;  -10.897;   -7.174;  691.451
401.802;  -13.329;   -5.515;  699.329
402.395;  -14.494;   -9.875;  683.502
402.988;  -15.886;   -8.845;  696.627
403.581;  -11.779;   -8.874;  646.878
404.174;  -10.951;   -5.324;  686.568
404.767;  -12.962;   -9.575;  638.583
405.360;  -15.510;  -10.965;  621.445
405.953;  -10.391;   -8.764;  759.034
406.545;   -9.210;   -7.514;  725.342
407.138;  -13.971;  -10.025;  618.350
407.731;  -12.586;  -10.034;  613.303
408.324;   -8.644;   -9.374;  660.554
408.917;   -9.179;   -6.534;  681.864
409.509;  -11.435;   -8.004;  740.396
410.102;  -12.953;   -9.875;  643.948
410.695;   -7.616;   -8.604;  665.758
411.287;   -8.114;   -6.794;  599.821
411.880;   -9.777;   -9.334;  585.421
412.472;  -12.317;  -10.254;  613.092
413.065;   -9.927;   -6.714;  629.408
413.657;   -8.145;   -7.234;  576.678
414.250;   -7.514;  -10.544;  646.681
414.842;   -9.438;   -9.744;  676.353
415.434;   -7.724;   -6.994;  570.463
416.027;   -2.777;   -5.893;  652.196
416.619;   -4.844;   -7.264;  713.400
417.211;   -5.855;  -10.374;  599.352
417.804;   -2.305;   -7.993;  628.499
418.396;   -5.986;   -7.234;  607.643
418.988;   -3.622;   -9.443;  659.238
419.580;   -7.380;  -10.724;  568.276
420.172;   -5.733;  -10.323;  536.196
420.764;   -1.717;   -8.793;  672.482
421.356;   -1.543;  -11.143;  636.898
421.948;   -3.744;   -8.293;  677.661
422.540;    2.111;   -7.893;  680.027
423.132;    1.639;   -7.082;  600.641
423.724;   -1.233;   -8.653;  561.267
424.316;    0.543;  -10.213;  621.345
424.908;    3.473;   -9.762;  591.517
425.500;    4.199;   -5.572;  647.978
426.092;    4.485;   -8.422;  648.268
426.683;    3.942;   -9.283;  684.836
427.275;    6.124;   -7.852;  641.471
427.867;    8.175;   -5.272;  668.948
428.458;    9.149;   -7.682;  732.344
429.050;    6.707;  -10.612;  680.749
429.642;    9.459;   -9.882;  743.124
430.233;   10.149;   -6.962;  569.356
430.825;   10.516;   -6.842;  724.809
431.416;    9.175;   -9.672;  698.241
432.008;   11.685;   -6.552;  651.723
432.599;   13.229;   -6.891;  656.073
433.190;    9.821;  -10.912;  637.670
433.782;    8.357;  -11.172;  590.395
434.373;   16.463;   -6.061;  884.765
434.964;   15.071;   -8.251;  602.920
435.556;   12.773;   -9.722;  634.537
436.147;   15.657;   -9.082;  758.490
436.738;   15.235;   -8.041;  701.099
437.329;   20.803;   -7.341;  721.723
437.920;   13.920;   -8.162;  666.688
438.511;   13.282;  -11.802;  564.526
439.103;   20.522;  -10.191;  623.998
439.694;   21.881;   -7.601;  681.583
440.285;   23.300;   -8.541;  764.432
440.876;   21.457;   -9.751;  845.738
441.466;   20.205;   -9.401;  575.162
442.057;   26.046;   -7.760;  665.814
442.648;   23.852;   -9.971;  746.255
443.239;   22.835;  -11.001;  620.477
443.830;   27.752;   -7.990;  704.958
444.421;   29.269;   -7.910;  655.474
445.011;   26.554;   -8.131;  693.619
445.602;   25.730;   -7.111;  743.126
446.193;   27.793;  -10.920;  488.117
446.783;   31.752;   -6.500;  640.397
447.374;   27.194;   -8.671;  692.759
447.964;   27.821;  -10.781;  713.770
448.555;   36.257;   -9.650;  822.742
449.145;   32.647;   -8.660;  662.853
449.736;   33.900;   -8.990;  803.179
450.326;   33.647;   -9.500;  713.626
450.917;   38.864;   -8.680;  675.324
451.507;   37.524;   -7.520;  600.661
452.097;   38.864;   -8.590;  746.267
452.688;   39.562;  -11.340;  742.160
453.278;   38.827;  -10.100;  566.840
453.868;   43.739;   -6.019;  793.550
454.458;   41.556;   -9.440;  651.141
455.048;   42.355;  -10.560;  711.783
455.639;   43.302;  -11.799;  567.096
456.229;   47.482;   -6.899;  710.694
456.819;   49.006;   -7.389;  751.158
457.409;   49.336;  -11.119;  773.993
457.999;   51.786;   -9.289;  737.505
458.589;   52.134;   -6.139;  686.606
459.179;   51.967;   -8.729;  717.658
459.769;   50.592;   -9.789;  627.099
460.358;   54.854;  -10.259;  797.262
460.948;   54.273;   -7.299;  689.503
461.538;   56.080;  -10.289;  660.677
462.128;   54.644;  -11.269;  664.934
462.717;   60.947;   -9.368;  710.326
463.307;   64.212;   -7.908;  705.846
463.897;   60.095;   -9.599;  656.942
464.486;   59.115;   -9.769;  837.128
465.076;   63.553;   -8.048;  733.776
465.666;   67.418;   -9.358;  652.900
466.255;   64.856;   -7.919;  785.651
466.845;   63.814;  -11.689;  666.749
467.434;   67.278;   -7.818;  725.873
468.023;   67.872;   -7.678;  658.357
468.613;   66.552;  -10.939;  713.946
469.202;   70.665;  -10.118;  646.507
469.791;   74.017;   -9.108;  737.811
470.381;   76.396;   -6.058;  742.813
470.970;   75.347;  -10.428;  711.099
471.559;   75.086;  -10.268;  733.291
472.148;   78.854;   -8.448;  675.737
472.738;   81.377;   -6.917;  765.466
473.327;   80.895;  -11.978;  637.529
473.916;   80.525;  -11.888;  737.446
474.505;   84.751;   -9.437;  751.703
475.094;   87.302;   -6.747;  806.570
475.683;   86.945;   -9.367;  797.699
476.272;   87.625;  -12.637;  730.632
476.861;   90.802;  -10.027;  706.754
477.449;   96.676;   -8.716;  728.487
478.038;   92.054;   -9.577;  692.513
478.627;   93.223;   -9.718;  714.852
479.216;   99.014;   -8.947;  769.441
479.805;  102.583;   -6.256;  783.375
480.393;  102.093;   -7.937; 1008.945
480.982;  101.494;   -7.717;  874.501
481.571;  107.798;   -9.266;  858.333
482.159;  108.804;   -7.636;  705.386
482.748;  108.633;   -9.667;  821.385
483.336;  112.818;  -10.376;  858.209
483.925;  113.954;   -7.147;  774.373
484.513;  120.803;   -7.996;  758.962
485.102;  117.302;  -10.027;  810.965
485.690;  126.333;  -10.446; 1011.050
486.278;  128.124;   -8.446;  979.329
486.867;  127.683;   -6.356;  809.662
487.455;  130.463;   -9.136;  898.229
488.043;  131.311;  -10.646;  748.361
488.631;  140.997;   -7.456; 1005.079
489.220;  144.702;   -6.636;  908.626
489.808;  145.100;  -11.036;  741.415
490.396;  154.079;  -10.246;  914.645
490.984;  161.257;   -8.556;  830.161
491.572;  171.781;   -5.886;  940.315
492.160;  181.616;   -9.486;  919.081
492.748;  194.762;  -10.976;  884.341
493.336;  217.145;   -8.776; 1019.693
493.924;  246.571;   -5.465;  958.077
494.512;  282.234;   -9.986; 1066.638
495.100;  332.524;  -10.636; 1103.280
495.687;  394.097;  -10.885; 1206.373
496.275;  450.949;   -8.126; 1150.796
496.863;  522.404;  -10.586; 1281.171
497.451;  641.365;  -11.926; 1386.805
498.038;  754.477;  -10.885; 1556.729
498.626;  850.237;   -6.315; 1741.407
499.214; 1000.811;   -7.326; 2016.609
499.801; 1228.195;  -11.906; 2220.633
500.389; 1487.348;  -10.466; 2312.494
500.976; 1734.859;   -5.236; 2744.849
501.564; 2167.201;   -8.936; 3148.565
502.151; 2627.588;  -13.176; 3515.999
502.738; 3164.578;  -10.646; 3971.274
503.326; 3543.349;   -9.525; 4403.796
503.913; 3848.299;  -10.856; 5161.749
504.500; 4360.818;  -11.586; 5986.420
505.088; 4640.941;  -10.336; 6381.201
505.675; 5102.020;   -6.355; 6925.547
506.262; 5567.226;   -9.046; 7619.060
506.849; 6107.266;  -10.416; 8733.969
507.436; 6658.899;  -10.305; 9790.121
508.023; 7130.348;   -5.496; 9985.472
508.610; 7937.029;   -7.856;10434.618
509.197; 9229.895;  -10.097;11198.435
509.784;10701.777;  -10.886;12391.194
510.371;12057.409;   -9.315;13603.713
510.958;12930.425;   -9.936;14426.586
511.545;13611.638;   -9.326;15243.775
512.132;14121.902;  -10.075;15945.876
512.719;14246.656;   -7.796;16340.369
513.305;15123.646;  -10.606;18011.766
513.892;16384.443;  -11.486;19754.971
514.479;18074.523;   -9.126;20967.805
515.066;19597.646;   -6.026;22299.793
515.652;19750.660;   -8.466;22908.660
516.239;20811.480;  -10.886;23798.875
516.825;23198.344;  -11.496;25567.275
517.412;25381.293;   -5.796;28154.959
517.998;27318.248;  -10.506;28344.111
518.585;26818.191;  -10.076;27134.219
519.171;25429.004;   -8.315;27268.576
519.758;26349.955;   -8.596;28964.129
520.344;27628.346;   -8.466;30664.494
520.930;29946.639;  -11.006;32550.605
521.516;30148.658;  -10.495;35422.895
522.103;28548.881;   -5.526;38280.004
522.689;28928.879;   -8.746;37835.117
523.275;30068.379;  -11.376;37288.613
523.861;31581.791;  -11.156;37281.395
524.447;33799.723;   -8.135;37846.949
525.033;32286.230;   -7.896;38321.949
525.619;30143.293;  -12.476;38579.285
526.205;31704.912;   -9.516;40622.875
526.791;35066.844;   -6.926;42258.836
527.377;38260.887;   -8.346;42966.902
527.963;40532.902;   -8.717;42018.949
528.549;39709.020;  -11.016;42476.828
529.135;40128.984;   -8.536;41854.852
529.721;39844.457;   -9.666;41237.711
530.306;38150.289;  -10.066;41259.445
530.892;37770.371;  -11.356;41506.047
531.478;37069.250;   -6.596;43559.613
532.063;37583.605;   -8.836;47695.563
532.649;40916.289;  -10.047;50808.324
533.235;42067.906;   -9.746;51787.500
533.820;41433.570;   -6.566;52145.035
534.406;40422.961;  -10.817;51133.488
534.991;43153.508;   -9.416;49996.805
535.576;44080.738;   -9.036;48882.852
536.162;44021.906;   -6.156;46942.285
536.747;45211.500;  -11.607;45711.746
537.333;45672.961;  -11.787;48510.180
537.918;45750.367;  -12.437;50439.891
538.503;46579.207;   -7.196;50863.711
539.088;43789.063;  -10.556;50906.922
539.673;41828.098;   -8.767;52621.965
540.259;41700.004;  -10.026;52368.094
540.844;41127.898;   -7.416;50879.109
541.429;37784.449;   -9.467;52077.777
542.014;36379.258;   -9.527;52716.695
542.599;39702.477;   -9.946;52363.281
543.184;45335.594;   -7.927;53187.137
543.769;47052.707;   -9.297;54697.605
544.354;45894.246;  -10.127;53913.914
544.938;45009.352;   -9.267;49680.164
545.523;47129.328;   -6.506;47386.277
546.108;50389.145;   -9.787;49151.949
546.693;50020.957;  -11.587;51384.637
547.278;50176.113;  -10.986;51853.254
547.862;47186.844;   -8.206;51173.750
548.447;44414.410;  -10.067;51691.395
549.031;45050.426;   -9.637;52456.703
549.616;45825.648;   -9.926;52714.516
550.201;44703.973;   -6.347;52414.598
550.785;44432.148;   -7.917;52355.059
551.370;45948.754;  -10.867;54589.453
551.954;46608.113;   -9.047;58267.348
552.538;47197.898;   -7.827;59062.176
553.123;46961.273;  -10.287;58115.285
553.707;43199.141;  -12.178;56556.285
554.291;43975.465;   -8.717;56201.668
554.876;47125.773;   -7.457;55335.762
555.460;48180.199;  -10.387;54155.703
556.044;49279.344;   -9.618;53721.484
556.628;48227.641;  -11.567;53731.016
557.212;46032.137;   -8.097;54312.531
557.796;47615.844;  -11.077;53797.773
558.380;45698.148;  -11.108;56145.984
558.964;44311.910;   -9.057;57277.930
559.548;43821.203;   -6.977;56459.641
560.132;42440.254;  -11.457;54434.543
560.716;41735.664;  -11.378;54800.617
561.300;42660.227;   -9.577;57606.945
561.884;44507.496;   -7.127;58972.445
562.467;45332.105;   -7.118;57327.570
563.051;44679.602;  -13.358;54962.434
563.635;42413.375;  -10.178;52594.473
564.219;41855.941;   -7.837;50610.410
564.802;41605.285;  -11.398;49551.180
565.386;42701.328;  -12.788;48370.953
565.969;43580.023;   -9.077;48178.871
566.553;43701.637;   -6.207;49957.305
567.136;40860.926;   -8.568;50369.594
567.720;40153.148;  -11.868;49492.004
568.303;39993.418;   -8.268;50616.352
568.887;38912.684;   -8.698;50727.148
569.470;39180.223;   -6.808;51698.379
570.053;37895.914;  -13.188;52122.078
570.637;36593.871;  -12.037;52536.438
571.220;35815.160;   -8.577;51186.098
571.803;36248.832;   -8.498;51032.762
572.386;38948.449;  -10.498;49609.887
572.969;40388.555;   -9.388;48285.926
573.552;36815.363;   -8.338;47624.285
574.135;34840.680;   -8.518;45498.641
574.718;31503.514;  -13.628;41970.434
575.301;31137.379;  -10.893;41447.137
575.884;30771.246;   -8.158;40923.836
576.467;35681.879;  -10.328;45267.723
577.050;34187.355;  -13.058;48175.543
577.633;33479.094;   -9.458;47729.328
578.216;35214.680;   -8.928;47579.793
578.799;35963.359;   -9.358;47820.996
579.381;35170.762;  -11.388;48115.551
579.964;32329.385;  -11.718;47333.766
580.547;32058.178;   -8.588;46668.969
581.129;33667.926;   -8.859;44466.141
581.712;33951.371;  -10.729;44164.922
582.294;35271.602;  -11.118;46477.855
582.877;33095.355;   -5.218;48244.254
583.459;33032.617;   -8.679;47437.895
584.042;34911.512;  -10.709;46943.219
584.624;36887.262;  -11.669;46792.227
585.206;35870.137;   -8.218;46557.250
585.789;34886.801;  -10.569;45793.773
586.371;35349.496;  -11.859;43836.391
586.953;33909.871;  -10.719;42972.492
587.536;35735.609;   -7.198;42487.211
588.118;37144.699;   -8.720;42086.414
588.700;36315.191;  -10.439;43389.930
589.282;36335.129;   -9.198;43646.039
589.864;35119.852;   -9.199;43438.109
590.446;33151.578;  -11.319;43151.926
591.028;32750.693;  -11.159;42781.867
591.610;32418.703;  -11.779;42839.098
592.192;29402.699;   -7.668;42820.402
592.774;30133.131;  -11.949;40724.277
593.356;31053.555;  -12.129;39874.789
593.937;28799.488;  -10.669;39980.648
594.519;30232.887;   -6.509;42069.633
595.101;32233.000;  -10.849;42976.031
595.683;31038.773;  -11.679;44084.441
596.264;31136.018;   -9.049;43478.797
596.846;33142.355;   -8.849;43803.672
597.427;33010.945;   -9.570;42986.934
598.009;34276.789;  -12.620;42832.219
598.591;33476.262;  -10.039;42580.086
599.172;32500.020;  -10.369;43061.805
599.753;30724.016;   -9.140;41691.469
600.335;30650.342;  -11.430;40692.520
600.916;30935.580;   -9.939;39982.422
601.498;29544.293;   -8.479;40318.617
602.079;28377.846;  -10.920;40670.609
602.660;30198.594;  -11.480;41450.898
603.241;31617.563;  -11.699;41137.738
603.823;32049.189;   -9.579;38868.797
604.404;31871.725;  -10.620;38182.785
604.985;30723.453;  -10.450;38078.047
605.566;30537.725;   -9.129;38056.633
606.147;30573.748;   -7.510;37020.418
606.728;31626.309;  -10.660;37883.359
607.309;32427.479;  -11.740;38748.273
607.890;32068.857;   -9.759;38850.230
608.471;30486.002;   -8.250;37457.918
609.051;30601.352;   -9.240;36066.457
609.632;28768.320;  -12.120;35991.074
610.213;27697.674;   -9.110;37402.641
610.794;29947.531;   -8.030;38383.363
611.374;32269.682;   -8.110;40562.387
611.955;31685.000;  -13.560;38533.727
612.536;28974.057;  -11.400;36951.789
613.116;27962.633;   -8.070;37197.891
613.697;30114.863;  -10.830;38411.125
614.277;31526.678;  -11.641;38673.938
614.858;30796.643;  -13.310;37075.863
615.438;29228.951;   -7.460;35092.906
616.019;27521.988;   -7.601;33666.301
616.599;28464.068;  -12.020;34189.023
617.179;29954.281;  -11.780;36952.047
617.760;32758.605;   -8.570;39582.574
618.340;32800.223;  -11.471;38943.977
618.920;31553.211;  -11.170;37594.156
619.500;33426.152;  -11.071;37866.938
620.080;33546.184;   -7.750;37869.043
620.660;31604.688;  -12.711;36868.617
621.241;30102.834;  -10.211;36352.309
621.821;29252.494;  -10.961;35459.520
622.401;28561.594;   -7.720;35207.414
622.980;29804.328;   -8.981;35980.422
623.560;30137.297;   -9.331;37351.328
624.140;28733.527;   -9.850;34388.582
624.720;26057.805;   -7.451;32368.764
625.300;24299.830;   -9.070;32638.629
625.880;27669.701;  -12.601;34599.035
626.459;29479.848;  -11.751;36831.738
627.039;30287.506;   -9.281;38299.098
627.619;32253.754;   -8.801;38289.574
628.198;31676.490;  -12.071;37220.695
628.778;30808.424;   -9.461;37632.563
629.357;31816.914;   -8.491;38003.012
629.937;31953.070;   -9.721;38402.039
630.516;32196.904;   -9.951;37868.801
631.096;32488.645;  -11.731;35760.410
631.675;33593.957;   -8.572;35225.219
632.254;33057.008;  -11.282;35130.289
632.834;32377.873;  -13.322;35794.570
633.413;32342.365;  -10.301;35788.922
633.992;31526.441;   -8.582;34532.863
634.571;33155.777;   -8.352;33590.113
635.151;33208.336;  -11.912;34943.863
635.730;32313.664;  -10.511;35352.523
636.309;34696.676;   -7.731;35366.605
636.888;32706.150;   -9.952;36165.637
637.467;30598.121;  -11.672;37515.902
638.046;30697.215;   -8.901;39288.695
638.625;31624.527;   -7.912;38279.699
639.204;31734.354;  -10.022;37741.598
639.782;29894.715;  -12.252;38364.551
640.361;28499.436;  -10.041;36740.621
640.940;27630.895;  -11.161;34950.082
641.519;28443.350;   -9.701;34137.398
642.097;29926.670;  -11.271;35654.258
642.676;31680.283;   -8.651;35637.957
643.255;32832.723;   -8.711;36567.074
643.833;30299.596;   -9.581;37809.434
644.412;28159.885;  -13.711;37337.293
644.990;30151.793;  -11.811;37018.531
645.569;32835.672;   -9.411;36518.469
646.147;32317.861;  -10.291;36186.430
646.726;31188.326;  -12.401;36267.688
647.304;31120.418;  -10.411;36647.625
647.882;30163.293;   -9.651;39286.742
648.461;31604.096;   -9.631;39157.703
649.039;35016.375;  -11.881;35412.883
649.617;35129.355;   -9.661;34744.918
650.195;32960.730;   -9.301;35403.098
650.773;31859.008;  -10.511;35053.797
651.352;31071.105;  -11.521;33756.816
651.930;28795.373;  -12.211;31868.773
652.508;25770.986;   -9.171;33121.551
653.086;26647.395;   -9.371;33564.793
653.663;32502.811;  -13.161;34054.668
654.241;36615.563;  -13.031;35693.309
654.819;37382.445;   -9.371;36422.906
655.397;37165.652;  -10.511;38213.484
655.975;33454.598;  -10.371;39507.625
656.553;30076.990;  -10.051;39498.223
657.130;28392.975;  -10.061;40395.480
657.708;26543.199;   -9.561;39242.020
658.286;24247.801;  -11.511;38920.020
658.863;26593.572;  -10.261;40202.898
659.441;30236.404;   -7.531;39677.938
660.018;32201.203;   -9.501;40413.355
660.596;31404.938;  -13.301;39931.414
661.173;31344.629;  -11.211;39604.531
661.750;33105.875;   -9.951;39700.070
662.328;31946.471;   -9.390;39292.809
662.905;30702.494;  -11.330;38235.648
663.482;28302.068;   -9.050;36212.305
664.060;25340.432;   -8.240;35944.945
664.637;25965.348;  -10.050;35170.785
665.214;29183.250;  -11.760;34197.523
665.791;29611.977;  -10.530;34549.520
666.368;28784.564;   -9.690;35118.578
666.945;30259.369;   -9.320;36019.418
667.522;30870.861;  -11.860;36048.438
668.099;32124.289;  -10.770;36243.914
668.676;31970.607;   -6.260;35958.875
669.253;34430.367;   -7.000;37384.730
669.830;35635.207;  -10.190;36779.629
670.407;32673.416;   -9.550;35231.289
670.984;33087.352;   -9.260;35544.270
671.560;30563.715;   -9.280;35466.867
672.137;26717.994;  -11.810;34280.863
672.714;28312.707;  -11.490;34632.863
673.290;31632.885;   -7.740;35135.422
673.867;31304.275;  -10.660;36114.480
674.443;31571.439;  -12.230;36152.859
675.020;31196.641;  -10.450;35327.238
675.596;29395.740;   -9.260;35795.176
676.173;28146.996;  -10.780;35430.355
676.749;27816.783;  -13.690;33549.516
677.326;27944.744;  -11.980;32210.012
677.902;27232.271;   -8.630;32068.871
678.478;28950.332;  -10.730;32583.891
679.054;29809.322;  -10.520;32088.928
679.631;29160.408;  -11.920;30978.848
680.207;29341.422;   -7.490;33160.887
680.783;31192.383;   -9.860;35570.363
681.359;32819.375;  -13.380;36125.184
681.935;33650.656;  -12.480;35240.922
682.511;32887.555;   -7.900;34429.961
683.087;31668.021;   -7.710;34463.680
683.663;31234.578;  -11.480;34648.898
684.239;29990.666;  -14.090;34546.457
684.815;28764.258;   -7.560;35586.375
685.390;28989.787;   -9.910;35821.895
685.966;30232.402;  -11.159;35085.871
686.542;31890.295;  -11.169;34198.230
687.118;33283.395;   -5.959;32847.707
687.693;32303.410;  -10.329;32794.027
688.269;33414.988;  -12.059;33072.367
688.844;33251.672;  -10.909;33141.664
689.420;30318.121;   -8.019;33965.742
689.995;29107.813;   -8.399;34655.523
690.571;30441.719;  -10.949;33576.742
691.146;29854.105;   -9.619;32657.219
691.722;28540.055;   -8.999;32526.979
692.297;28027.379;  -11.589;33014.617
692.872;28055.445;  -11.739;34012.254
693.448;30806.699;  -11.059;34237.434
694.023;31511.070;  -10.139;34142.672
694.598;29881.086;   -9.029;34132.031
695.173;30809.988;  -13.319;34205.250
695.748;31014.346;  -10.169;32882.488
696.323;28628.180;   -8.339;32864.906
696.898;27062.549;   -8.169;33170.004
697.473;27746.865;  -12.309;32432.984
698.048;27920.561;  -10.989;31649.303
698.623;26544.973;   -9.329;30778.141
699.198;27426.641;   -9.849;31140.119
699.773;28511.701;  -12.329;31764.299
700.348;29884.199;  -10.389;31780.816
700.922;30241.807;   -9.269;32046.375
701.497;31211.336;   -9.329;32603.574
702.072;32141.439;  -10.789;34799.871
702.646;30953.521;  -10.839;35793.172
703.221;30177.186;   -9.099;35201.590
703.795;32099.902;  -10.939;34764.527
704.370;29691.100;  -12.859;34307.367
704.944;28261.785;  -11.559;33509.887
705.519;29578.273;   -7.939;31388.584
706.093;31904.281;  -10.499;31340.104
706.668;33854.652;  -11.289;32630.281
707.242;33066.973;  -11.509;32728.779
707.816;31433.828;   -9.639;32947.238
708.390;30229.504;  -11.429;33277.855
708.965;29411.162;  -11.869;33834.336
709.539;30611.227;  -11.689;33709.273
710.113;30736.070;  -10.478;33044.313
710.687;30134.207;  -10.228;31953.992
711.261;29593.855;  -13.698;30505.949
711.835;30015.545;  -13.378;30262.369
712.409;28965.746;   -9.698;31254.447
712.983;28635.631;  -11.898;32754.986
713.557;30867.887;  -15.138;34018.824
714.131;28842.059;  -14.098;34579.625
714.704;28397.373;   -9.958;33890.262
715.278;30607.018;  -10.028;33531.102
715.852;29287.365;  -11.148;33601.660
716.425;28039.936;   -9.068;33515.117
716.999;26649.574;  -10.038;33185.555
717.573;26233.926;   -9.798;33905.996
718.146;25518.811;  -12.378;35199.293
718.720;25925.953;  -11.918;35060.551
719.293;26389.959;   -8.088;34973.230
719.867;28800.762;  -10.888;36394.449
720.440;30668.582;  -11.938;36663.008
721.013;31448.383;  -12.818;35102.426
721.587;28983.350;  -10.298;33985.266
722.160;27018.688;  -10.048;33524.965
722.733;26300.377;  -12.108;32987.043
723.306;26678.975;  -10.818;33066.301
723.880;28608.117;   -8.908;33399.500
724.453;28289.900;   -9.878;33468.297
725.026;28412.016;  -11.188;33816.637
725.599;31154.201;  -11.678;32797.996
726.172;30677.111;   -9.618;33187.434
726.745;28241.260;   -8.258;35136.613
727.318;27869.514;  -12.978;35751.730
727.891;27060.326;  -12.148;35890.430
728.463;26018.410;   -8.968;34822.090
729.036;26098.629;  -10.188;32895.086
729.609;26072.252;  -11.788;31823.225
730.182;24069.697;  -11.788;31445.283
730.754;22841.215;  -10.268;32373.223
731.327;23109.574;   -9.998;33676.820
731.900;24201.566;  -12.228;33417.000
732.472;23795.043;  -13.848;31978.498
733.045;22730.932;   -8.698;30368.777
733.617;22716.230;  -10.607;30574.215
734.190;24819.322;  -11.507;31280.975
734.762;25677.727;  -13.647;31674.412
735.334;27213.141;   -9.767;31247.291
735.907;27646.439;   -9.897;29876.211
736.479;27404.777;  -11.637;29808.488
737.051;28168.721;   -9.567;30233.547
737.623;27200.559;   -8.187;31469.086
738.195;25773.531;  -11.187;31784.225
738.768;24672.236;  -12.337;32120.523
739.340;23186.908;  -12.227;32094.342
739.912;22411.656;  -11.057;31312.680
740.484;22388.721;  -10.207;31946.238
741.056;22078.924;  -10.047;32984.059
741.628;23142.264;  -13.627;33897.715
742.199;24028.334;   -7.177;33213.016
742.771;26283.947;  -10.797;31369.113
743.343;27087.807;  -11.997;31865.473
743.915;26801.182;  -12.867;32388.631
744.487;24189.586;   -7.617;31079.568
745.058;21443.580;   -9.557;30570.107
745.630;22556.795;   -9.877;29970.127
746.201;24032.410;  -14.177;29186.766
746.773;24421.596;   -9.237;28805.723
747.344;22403.084;   -9.847;29591.223
747.916;20806.098;  -11.657;31412.201
748.487;21954.512;  -10.587;32194.898
749.059;23768.096;   -8.707;32533.719
749.630;24043.770;  -10.537;32158.518
750.201;23384.447;  -11.687;30855.395
750.773;22174.855;  -11.647;28622.555
751.344;22145.449;   -7.147;28405.732
751.915;24431.117;   -9.757;28461.551
752.486;25528.789;  -12.427;27842.850
753.057;24292.051;  -12.227;27845.008
753.628;24264.865;  -10.417;27728.107
754.199;23917.729;  -11.767;27381.086
754.770;23452.814;  -11.187;25882.203
755.341;22204.320;  -10.507;25886.184
755.912;20587.074;   -9.387;26050.861
756.483;19163.674;  -10.647;26798.779
757.054;19562.201;  -11.837;27048.238
757.625;19541.723;  -12.716;26294.838
758.195;19274.910;   -9.666;26142.076
758.766;19494.680;   -8.656;26392.234
759.337;19097.100;  -12.856;26334.594
759.907;18897.688;  -13.366;27579.652
760.478;18670.768;   -8.576;28352.770
761.048;19778.381;  -10.526;27325.088
761.619;19870.377;  -11.116;26460.428
762.189;18510.117;  -12.136;26029.826
762.760;18132.754;   -9.456;26430.145
763.330;18484.621;   -7.136;26670.902
763.900;18488.947;  -11.786;26603.021
764.471;18098.316;  -11.546;25542.740
765.041;17350.807;   -8.096;24358.459
765.611;16692.775;   -8.876;23991.297
766.181;16699.680;  -12.196;24470.236
766.751;16499.564;  -11.636;24845.975
767.321;17518.498;  -10.156;24533.633
767.891;16892.887;  -11.766;24916.492
768.461;17107.627;  -14.936;24776.771
769.031;18142.791;  -12.356;24757.988
769.601;18758.168;   -7.526;24181.088
770.171;18534.164;  -10.766;23670.387
770.741;17759.723;  -13.176;22960.045
771.311;17241.641;  -10.616;22917.523
771.880;17563.791;   -9.576;23562.941
772.450;17241.170;  -10.336;24216.500
773.020;16923.186;  -13.516;24140.398
773.589;17567.242;  -13.466;24414.857
774.159;17405.443;   -8.686;23858.717
774.729;15968.181;   -9.476;22942.135
775.298;14152.823;  -13.666;22324.033
775.867;13800.986;  -11.716;21140.313
776.437;13817.994;   -9.906;20838.092
777.006;13151.643;  -12.166;20599.510
777.576;12673.839;  -12.356;20508.809
778.145;12625.660;  -11.646;20732.947
778.714;13098.748;   -8.226;21062.465
779.283;14125.655;   -9.556;20949.664
779.853;14756.186;  -14.116;20508.623
780.422;14194.090;  -11.506;20649.082
780.991;13774.362;   -9.556;21527.520
781.560;13518.359;   -9.095;22632.658
782.129;13408.550;  -12.135;23048.277
782.698;13186.282;  -10.865;23438.555
783.267;12835.991;   -9.335;23267.734
783.836;13062.004;  -11.045;22415.133
784.404;13765.648;  -13.865;20443.152
784.973;12931.503;  -13.095;19699.150
785.542;11523.353;  -11.575;19763.828
786.111;10908.035;   -9.705;20341.408
786.679;11705.207;  -12.105;20207.967
787.248;11989.762;  -12.455;19516.465
787.817;11661.748;  -11.535;18900.363
788.385;11738.697;   -9.765;17879.121
788.954;11703.069;  -14.005;17658.301
789.522;11200.488;  -11.955;17788.879
790.090;11446.726;  -10.135;18118.277
790.659;12290.243;  -10.975;18338.736
791.227;12183.804;  -13.375;18508.615
791.795;11675.783;  -12.375;17898.254
792.364;11159.887;  -10.725;17295.133
792.932;11293.767;   -9.715;16822.051
793.500;11392.938;  -12.675;17040.148
794.068;11156.659;  -13.495;17179.787
794.636;10003.424;  -10.885;16664.246
795.204; 9031.785;  -11.045;16524.545
795.772; 9770.903;  -13.175;17274.564
796.340;10871.588;  -12.445;17891.002
796.908;10654.041;   -9.735;17648.561
797.476;11118.983;   -9.815;17064.080
798.044;11997.616;  -13.985;16672.777
798.612;11776.805;  -13.115;17023.996
799.180;10421.434;  -10.185;16561.615
799.747; 9402.511;   -9.055;15962.773
800.315; 8896.563;  -12.385;15296.992
800.883; 9216.038;  -15.035;14801.771
801.450; 9443.883;  -10.365;14534.430
802.018; 9475.891;   -9.855;14173.248
802.585; 9578.795;  -11.905;14029.547
803.153; 9137.862;  -11.585;13836.846
803.720; 8554.353;   -9.095;13567.324
804.287; 8630.879;   -9.135;13360.622
804.855; 8910.995;  -11.604;13681.981
805.422; 9016.196;  -11.794;13536.560
805.989; 8911.509;  -10.734;13355.958
806.556; 8484.448;  -10.444;13747.896
807.124; 8357.627;  -12.764;13987.376
807.691; 8911.425;  -12.964;14038.674
808.258; 9294.899;  -11.134;14120.152
808.825; 9519.400;   -9.854;13860.111
809.392; 9216.127;  -10.504;13268.790
809.959; 8747.582;  -13.054;12680.389
810.526; 8592.854;   -8.294;12427.308
811.093; 8272.593;   -8.394;12030.105
811.659; 7484.641;  -12.304;11653.664
812.226; 7225.983;  -13.944;11637.183
812.793; 7705.346;  -10.484;11611.521
813.360; 7798.274;  -10.144;11885.181
813.926; 7081.729;  -11.684;12770.539
814.493; 6548.646;  -13.644;12677.638
815.060; 6462.412;   -9.724;11974.336
815.626; 6797.851;   -9.854;11594.715
816.193; 6849.822;  -13.254;11579.474
816.759; 6839.909;  -13.204;11666.972
817.325; 6586.643;   -9.434;11325.530
817.892; 6243.843;  -10.134;11105.369
818.458; 6196.107;  -13.474;10843.928
819.024; 6251.089;  -11.854;10714.406
819.591; 6572.278;  -10.244;10469.165
820.157; 6639.990;  -10.704;10235.523
820.723; 6861.218;  -12.324;10847.563
821.289; 7272.668;   -9.444;11040.980
821.855; 7322.527;   -8.374;10357.100
822.421; 6891.656;  -10.234; 9978.918
822.987; 6627.625;  -13.294; 9754.177
823.553; 6464.555;  -10.884;10065.755
824.119; 6041.016;   -8.884;10036.294
824.685; 5869.805;   -6.784;10029.192
825.251; 5806.792;  -12.004;10199.230
825.816; 5886.946;  -11.474; 9820.189
826.382; 5650.716;   -9.174; 9297.248
826.948; 5412.552;   -9.214; 9381.347
827.513; 5210.558;  -10.774; 9450.726
828.079; 5144.634;  -11.924; 9472.444
828.645; 5230.295;  -10.543; 9292.643
829.210; 5441.703;  -10.533; 9065.341
829.776; 5451.068;  -10.753; 9132.620
830.341; 5350.336;  -10.173; 9092.878
830.906; 5446.938;  -10.743; 9078.557
831.472; 5301.132;  -11.113; 8534.535
832.037; 4807.121;  -10.603; 8677.874
832.602; 4768.473;  -13.323; 8628.692
833.167; 5152.380;  -10.823; 8879.031
833.733; 5127.864;  -10.113; 9189.790
834.298; 4840.517;  -13.583; 9052.608
834.863; 4698.315;  -12.703; 8895.087
835.428; 4574.349;  -10.523; 8824.266
835.993; 4521.024;   -6.963; 8845.385
836.558; 4624.248;  -10.763; 8888.563
837.123; 4760.466;   -9.903; 8966.582
837.688; 4622.439;   -9.913; 8617.860
838.253; 4463.036;  -10.283; 8590.699
838.817; 4577.251;  -12.963; 8443.797
839.382; 4759.490;  -14.243; 8799.356
839.947; 4671.347;  -10.733; 8810.595
840.511; 4748.747;   -9.383; 8796.394
841.076; 4747.821;  -12.563; 8347.231
841.641; 4536.922;  -12.953; 8224.330
842.205; 4267.245;   -7.043; 8223.349
842.770; 4230.812;   -8.163; 8622.107
843.334; 4260.017;  -12.503; 8410.386
843.898; 4212.801;  -11.693; 8337.465
844.463; 4108.208;  -10.203; 8506.283
845.027; 4022.821;   -9.533; 8280.962
845.591; 4065.080;  -13.443; 8231.141
846.156; 3969.326;  -13.143; 7969.179
846.720; 3774.505;   -9.433; 7768.278
847.284; 3510.183;  -11.033; 7630.957
847.848; 3362.943;  -10.403; 7472.395
848.412; 3372.858;  -11.553; 7437.394
848.976; 3547.872;   -8.393; 7674.592
849.540; 3578.955;   -8.713; 7836.011
850.104; 3560.025;  -12.463; 7913.669
850.668; 3711.431;  -12.973; 7694.508
851.232; 3751.102;  -10.793; 7756.887
851.796; 3659.673;  -10.662; 7926.545
852.359; 3683.337;  -13.082; 7827.844
852.923; 3439.010;  -12.192; 7641.163
853.487; 3379.302;  -11.912; 7342.501
854.050; 3544.582;  -10.892; 7042.820
854.614; 3528.879;  -13.992; 7151.338
855.177; 3412.899;  -11.732; 7105.077
855.741; 3331.320;   -8.962; 6989.675
856.304; 3211.393;   -9.442; 6596.634
856.868; 2956.355;  -14.192; 6356.272
857.431; 2738.065;  -12.702; 6468.571
857.995; 2778.848;   -9.942; 6373.210
858.558; 2812.938;   -9.112; 6324.448
859.121; 2638.446;  -12.932; 6408.327
859.684; 2610.896;  -13.442; 6347.886
860.247; 3048.766;  -10.632; 6321.264
860.810; 3369.938;  -11.272; 6301.903
861.374; 3379.451;   -9.832; 6607.881
861.937; 3349.134;  -11.762; 6408.200
862.500; 3188.288;   -9.722; 6572.639
863.062; 2882.105;  -10.512; 6387.297
863.625; 2787.335;  -11.232; 6190.836
864.188; 2803.298;  -14.112; 5807.254
864.751; 2812.937;  -11.302; 5682.413
865.314; 2922.569;  -10.112; 5547.492
865.876; 2930.377;  -12.182; 5500.150
866.439; 2825.459;  -10.722; 5415.909
867.002; 2656.684;   -9.252; 5501.567
867.564; 2546.620;   -9.572; 5413.946
868.127; 2414.799;  -13.142; 5160.325
868.689; 2130.555;  -12.902; 5133.183
869.252; 2003.923;   -9.732; 5252.382
869.814; 2018.808;   -9.432; 5297.141
870.377; 2120.378;  -11.552; 5390.919
870.939; 2110.381;   -9.052; 5599.898
871.501; 2052.488;  -10.982; 5248.336
872.063; 2097.535;  -12.292; 4854.235
872.626; 2114.828;  -14.912; 4817.074
873.188; 2115.021;  -13.112; 4987.732
873.750; 2052.072;  -13.442; 4868.651
874.312; 2130.942;   -9.402; 4779.330
874.874; 2334.559;  -11.062; 4866.348
875.436; 2316.060;  -13.931; 4718.887
875.998; 2103.635;   -9.561; 4660.005
876.560; 1963.146;  -11.321; 4462.964
877.122; 1850.932;  -12.221; 4145.042
877.683; 1559.113;  -12.191; 4056.481
878.245; 1287.143;  -12.101; 3950.740
878.807; 1121.869;   -8.971; 4058.958
879.369; 1071.376;  -12.071; 3954.677
879.930; 1105.106;  -14.621; 3941.495
880.492; 1105.643;  -10.311; 4067.014
881.053; 1077.401;  -10.901; 3859.633
881.615; 1123.948;  -14.411; 3776.071
882.176; 1198.032;  -13.761; 3734.750
882.738; 1253.141;   -9.181; 3678.489
883.299; 1257.576;  -11.791; 3405.407
883.860; 1219.751;  -13.121; 3351.106
884.422; 1142.608;  -11.211; 3394.044
884.983; 1085.413;  -10.091; 3166.443
885.544; 1078.007;   -8.461; 3189.802
886.105; 1035.016;  -12.361; 3160.360
886.666;  970.109;  -14.141; 3093.059
887.227;  945.480;  -11.361; 2941.957
887.788;  961.582;  -11.401; 2974.836
888.349;  919.424;  -13.791; 2721.214
888.910;  831.886;  -13.191; 2696.493
889.471;  737.748;   -9.881; 2560.172
890.032;  669.006;   -9.881; 2558.190
890.593;  670.596;  -10.371; 2567.669
891.153;  671.026;  -13.301; 2460.307
891.714;  612.031;  -11.431; 2372.046
892.275;  567.969;  -11.291; 2309.505
892.835;  555.101;  -11.471; 2382.543
893.396;  544.962;  -11.541; 2295.502
893.956;  543.272;  -11.181; 2162.420
894.517;  533.331;  -11.741; 2125.439
895.077;  491.383;  -11.671; 2086.978
895.638;  441.539;  -11.311; 2126.316
896.198;  422.471;   -9.831; 1838.275
896.758;  423.107;   -8.421; 1892.813
897.319;  415.938;  -12.351; 1792.232
897.879;  396.601;  -13.511; 1762.751
898.439;  371.318;  -12.001; 1661.149
898.999;  352.542;  -10.180; 1781.468
899.559;  339.606;  -12.030; 1703.347
900.119;  331.129;  -15.710; 1537.525
900.679;  308.459;   -8.900; 1638.384
901.239;  283.584;   -8.340; 1527.902
901.799;  268.697;  -13.910; 1456.441
902.359;  260.641;  -13.460; 1357.140
902.919;  255.796;  -11.490; 1331.118
903.479;  253.280;  -12.110; 1317.257
904.038;  244.580;  -11.720; 1262.595
904.598;  229.076;  -13.610; 1152.034
905.158;  218.313;  -11.040; 1240.893
905.717;  212.793;  -10.900; 1233.691
906.277;  209.384;  -15.080; 1217.330
906.836;  206.511;  -13.380; 1222.408
907.396;  203.093;  -10.780; 1193.047
907.955;  196.879;   -8.500; 1182.526
908.515;  189.609;  -12.760; 1099.364
909.074;  185.643;  -11.900; 1092.863
909.633;  181.913;   -8.950; 1069.121
910.192;  179.920;   -8.770; 1196.460
910.752;  176.196;  -12.390; 1029.960
911.311;  172.898;  -13.680; 1009.780
911.870;  167.928;  -12.370;  971.460
912.429;  163.721;  -10.900; 1094.080
912.988;  162.028;  -11.690; 1081.060
913.547;  157.928;  -13.240;  940.380
914.106;  156.561;  -11.990;  999.420
914.665;  156.902;   -9.990;  984.020
915.224;  154.517;  -12.880; 1035.760
915.782;  150.641;  -12.350;  922.560
916.341;  149.414;   -9.110; 1049.840
916.900;  145.662;   -9.270;  925.260
917.458;  143.460;  -13.240;  884.220
918.017;  142.937;  -13.550;  942.600
918.576;  143.999;  -12.320;  904.440
919.134;  143.932;  -11.490;  837.980
919.693;  142.523;  -13.670;  893.060
920.251;  141.807;  -15.470;  876.500
920.809;  140.833;  -11.290;  839.580
921.368;  140.982;  -10.210;  885.360
921.926;  141.085;  -12.140;  842.940
922.484;  140.335;  -13.080;  903.360
923.042;  139.544;  -11.720;  880.340
923.601;  141.078;   -7.480;  998.680
924.159;  140.090;  -11.570;  935.560
924.717;  138.435;  -13.840;  841.080
925.275;  140.420;  -10.640;  903.240
925.833;  140.336;  -11.540;  779.320
926.391;  141.114;  -12.960;  938.380
926.949;  141.360;  -14.130;  857.680
927.506;  141.229;  -11.750;  903.500
928.064;  138.976;  -10.250;  877.580
928.622;  138.068;  -13.030;  880.100
929.180;  139.987;  -13.400;  814.180
929.737;  141.205;  -10.700;  808.540
930.295;  142.741;  -10.070;  928.480
930.853;  142.807;  -11.960;  849.100
931.410;  141.720;  -13.120;  821.120
931.968;  142.798;  -10.770;  940.660
932.525;  144.054;  -10.680;  909.380
933.082;  146.271;  -13.130;  811.440
933.640;  151.975;  -13.210;  925.900
934.197;  152.408;  -11.060;  886.360
934.754;  151.882;   -9.580;  897.780
935.312;  153.112;  -14.000;  863.340
935.869;  156.395;  -10.710; 1012.980
936.426;  155.065;   -9.860;  872.800
936.983;  153.451;   -9.710;  889.020
937.540;  151.908;  -13.990;  838.280
938.097;  152.492;  -14.040;  940.120
938.654;  155.179;  -10.310;  898.860
939.211;  155.784;  -10.560;  952.480
939.768;  154.565;  -13.900;  915.420
940.324;  156.204;  -14.760;  904.200
940.881;  159.502;  -10.370;  878.500
941.438;  166.536;   -8.260; 1021.200
941.995;  168.451;  -12.540;  992.560
942.551;  166.489;  -14.670;  875.620
943.108;  165.700;  -10.450;  937.920
943.664;  165.723;  -10.750;  869.340
944.221;  170.621;  -11.550; 1088.140
944.777;  173.057;  -14.770;  869.680
945.334;  172.159;  -12.820;  884.840
945.890;  170.551;  -10.130;  946.480
946.446;  167.690;  -13.470;  947.020
947.003;  167.997;  -12.120;  964.940
947.559;  167.449;   -9.980; 1063.040
948.115;  163.755;   -9.080; 1026.540
948.671;  161.015;  -10.830;  967.300
949.227;  159.509;  -12.440;  859.560
949.783;  158.977;  -12.910;  858.900
950.339;  161.441;  -10.270;  991.000
950.895;  162.454;  -13.630; 1023.840
951.451;  161.688;  -15.100;  925.280
952.007;  160.927;  -11.330;  998.540
952.563;  158.471;  -10.580;  937.780
953.118;  154.522;  -13.440;  904.940
953.674;  153.337;  -12.710;  935.780
954.230;  154.497;  -10.350;  949.640
954.785;  157.963;   -9.190;  936.640
955.341;  160.588;  -11.200;  998.160
955.897;  156.660;  -16.560;  834.660
956.452;  154.216;  -12.570;  953.840
957.008;  151.965;   -7.970; 1083.640
957.563;  150.786;  -11.940; 1009.540
958.118;  148.558;  -13.450;  877.700
958.674;  148.603;  -12.030;  946.780
959.229;  148.886;   -9.410; 1013.980
959.784;  147.648;  -12.000;  832.400
960.339;  143.849;  -14.780; 1001.280
960.894;  138.520;   -9.860;  963.760
961.449;  132.220;   -9.970;  859.960
962.004;  130.972;  -10.900; 1212.840
962.559;  125.832;  -13.150;  860.140
963.114;  123.253;  -13.740;  742.480
963.669;  124.691;   -9.820;  915.500
964.224;  123.528;  -13.890;  874.340
964.779;  123.519;  -12.600;  828.420
965.334;  124.782;  -10.950; 1017.860
965.888;  122.808;  -11.170;  875.360
966.443;  124.218;  -12.540;  972.380
966.998;  124.493;  -15.780;  819.460
967.552;  123.549;   -9.760;  908.380
968.107;  118.155;   -9.060;  868.300
968.661;  116.787;  -11.950;  922.440
969.216;  116.765;  -12.800;  856.280
969.770;  115.602;  -11.210;  917.200
970.324;  113.478;  -11.610;  923.140
970.879;  111.618;  -11.370;  947.180
971.433;  110.690;  -12.540;  952.720
971.987;  107.832;  -11.320;  895.340
972.541;  108.374;  -10.720;  917.100
973.095;  108.444;   -9.680; 1009.460
973.649;  109.018;  -11.440;  809.480
974.203;  107.527;  -11.210;  829.040
974.757;  109.002;  -10.240;  855.220
975.311;  108.193;  -13.720;  872.600
975.865;  108.741;  -13.770;  881.820
976.419;  107.638;  -11.690;  857.400
976.973;  106.514;   -9.510;  849.620
977.526;  106.725;  -12.620;  949.920
978.080;  103.634;  -12.010;  796.780
978.634;  102.675;  -10.170;  921.320
979.187;   99.145;   -9.020;  905.400
979.741;   98.365;   -9.820; 1018.380
980.294;   93.757;  -14.870;  789.160
980.848;   90.498;  -12.380;  717.220
981.401;   89.756;  -10.350;  816.540
981.955;   89.327;  -13.720;  844.300
982.508;   86.389;  -11.490;  746.340
983.061;   86.163;  -10.000;  915.260
983.615;   85.250;  -11.480;  798.800
984.168;   84.330;  -13.220;  770.080
984.721;   85.464;  -13.960;  880.760
985.274;   82.788;  -10.870;  867.500
985.827;   81.816;   -9.790;  834.220
986.380;   80.563;  -13.120;  721.340
986.933;   80.802;  -12.450;  864.800
987.486;   79.763;  -10.210;  861.920
988.039;   79.514;   -8.430;  863.100
988.591;   76.740;  -10.520;  893.260
989.144;   72.955;  -14.860;  737.260
989.697;   71.496;  -13.080;  758.740
990.250;   70.498;  -10.150;  858.100
990.802;   68.325;  -13.430;  755.860
991.355;   68.268;  -12.750;  974.880
991.907;   65.288;  -12.040;  864.320
992.460;   62.308;  -11.330;  753.760
993.012;   62.109;  -13.610;  749.540
993.565;   61.215;  -13.460;  711.360
994.117;   62.956;   -9.360;  950.780
994.669;   60.211;  -11.300;  701.320
995.221;   59.563;  -13.540;  791.920
995.774;   59.221;  -13.430;  787.580
996.326;   58.053;  -12.520;  740.220
996.878;   58.247;  -10.950;  838.420
997.430;   56.256;  -14.300;  699.860
997.982;   55.234;  -13.760;  750.140
998.534;   54.581;  -11.530;  739.060
999.086;   52.858;  -10.310;  738.220
999.638;   51.751;  -12.530;  661.380
1000.190;   51.059;  -11.840;  699.320
1000.741;   50.170;  -10.260;  742.700
1001.293;   50.150;   -8.860;  686.020
1001.845;   49.384;  -13.700;  676.640
1002.396;   50.136;  -12.100;  743.400
1002.948;   49.458;  -12.760;  737.400
1003.500;   47.232;  -10.380;  723.780
1004.051;   47.687;  -11.900;  907.580
1004.603;   47.259;  -12.250;  791.820
1005.154;   42.893;  -13.210;  608.980
1005.705;   42.470;  -10.950;  723.960
1006.257;   42.236;  -13.880;  707.220
1006.808;   42.064;  -12.840;  685.460
1007.359;   41.218;  -10.570;  763.240
1007.910;   39.461;   -9.620;  646.640
1008.461;   39.806;  -13.630;  732.940
1009.013;   38.684;  -17.200;  588.340
1009.564;   39.797;  -10.200;  793.520
1010.115;   38.031;  -12.570;  597.040
1010.665;   37.542;  -15.150;  602.160
1011.216;   38.354;  -14.480;  667.920
1011.767;   37.527;  -11.340;  697.920
1012.318;   37.356;   -9.780;  736.980
1012.869;   36.072;  -12.380;  679.000
1013.419;   35.541;  -15.560;  603.120
1013.970;   35.953;  -11.010;  666.640
1014.521;   35.306;  -11.610;  620.620
1015.071;   35.374;  -13.450;  670.380
1015.622;   35.200;  -13.870;  635.460
1016.172;   34.139;  -11.610;  596.820
1016.723;   34.077;  -12.120;  614.380
1017.273;   34.271;  -13.620;  604.160
1017.823;   34.041;  -14.140;  650.340
1018.374;   33.659;  -12.800;  611.760
1018.924;   33.339;  -12.340;  716.880
1019.474;   33.748;  -11.410;  718.880
1020.024;   32.037;  -14.770;  657.580
1020.574;   32.322;   -9.780;  726.160
1021.124;   32.630;   -8.560;  673.580
1021.674;   31.050;  -15.190;  559.120
1022.224;   32.839;  -13.530;  708.940
1022.774;   32.016;  -13.280;  668.820
1023.324;   32.921;  -10.690;  753.520
1023.874;   34.094;  -10.240;  875.760
1024.423;   31.458;  -12.540;  613.700
1024.973;   30.200;  -10.010;  610.760
1025.523;   30.266;  -10.550;  620.960
1026.072;   29.665;  -13.560;  606.420
1026.622;   29.550;  -15.120;  675.740
1027.172;   30.347;  -11.260;  715.660
1027.721;   29.415;  -11.410;  601.220
1028.270;   30.457;  -13.530;  663.400
1028.820;   30.231;  -13.680;  638.080
1029.369;   29.397;  -13.520;  612.700
1029.918;   29.468;  -10.980;  649.840
1030.468;   29.068;  -13.530;  564.780
1031.017;   30.182;  -13.170;  634.800
1031.566;   27.587;  -12.200;  608.900
1032.115;   28.754;   -9.960;  694.500
1032.664;   27.709;  -13.210;  596.480
1033.213;   28.718;  -12.500;  735.420
1033.762;   27.869;  -11.910;  635.620
1034.311;   27.725;   -9.640;  677.220
1034.860;   27.808;  -13.310;  691.000
1035.408;   27.749;  -11.830;  722.720
1035.957;   28.237;  -12.000;  719.540
1036.506;   25.458;  -11.690;  530.800
1037.055;   28.563;  -10.990;  844.320
1037.603;   27.650;  -15.120;  664.000
1038.152;   25.277;  -12.450;  534.760
1038.700;   25.716;  -10.560;  585.740
1039.249;   25.867;  -11.080;  681.220
1039.797;   25.984;  -12.540;  633.360
1040.345;   25.487;  -11.920;  705.420
1040.894;   24.684;  -11.410;  625.300
1041.442;   24.936;  -14.320;  632.200
1041.990;   24.999;  -16.240;  559.160
1042.538;   24.017;  -11.680;  536.180
1043.087;   24.263;  -10.760;  570.860
1043.635;   25.401;  -11.850;  670.500
1044.183;   23.998;  -15.480;  586.400
1044.731;   23.805;  -11.770;  576.000
1045.279;   22.935;  -13.090;  674.920
1045.827;   26.163;  -12.440;  892.400
1046.374;   23.076;  -13.840;  515.420
1046.922;   22.334;  -13.220;  590.580
1047.470;   23.872;  -10.230;  691.300
1048.018;   23.620;  -14.590;  647.960
1048.565;   24.590;  -12.050;  708.600
1049.113;   22.576;  -11.650;  557.000
1049.660;   22.881;  -10.510;  629.660
1050.208;   23.739;  -13.310;  675.640
1050.755;   22.367;  -15.900;  606.580
1051.303;   22.691;  -11.430;  686.820
1051.850;   21.727;   -8.480;  635.120
1052.397;   20.461;  -15.010;  473.960
1052.945;   20.989;  -13.960;  617.760
1053.492;   21.816;  -13.150;  741.840
1054.039;   21.948;   -9.630;  720.180
1054.586;   22.017;  -13.680;  557.240
1055.133;   22.435;  -14.570;  693.140
1055.680;   21.312;  -13.820;  646.620
1056.227;   20.249;  -11.730;  542.780
1056.774;   22.372;  -12.480;  794.980
1057.321;   20.948;  -13.930;  523.260
1057.868;   20.615;  -11.690;  651.320
1058.415;   20.353;   -9.520;  651.980
1058.961;   20.483;  -13.160;  678.940
1059.508;   19.519;  -12.920;  643.820
1060.055;   19.334;  -11.920;  581.780
1060.601;   20.266;  -11.500;  624.300
1061.148;   19.868;  -14.330;  616.820
1061.694;   19.857;  -16.870;  592.580
1062.241;   19.443;  -10.330;  596.320
1062.787;   19.797;  -10.620;  663.140
1063.334;   21.130;  -10.110;  808.560
1063.880;   19.752;  -13.400;  668.360
1064.426;   19.336;  -10.680;  706.820
1064.972;   18.044;   -9.920;  601.340
1065.518;   17.391;  -10.980;  566.640
1066.065;   18.949;  -14.890;  624.460
1066.611;   18.446;  -12.870;  598.800
1067.157;   18.525;  -12.950;  641.860
1067.703;   18.498;  -13.540;  668.480
1068.249;   18.028;  -13.540;  605.220
1068.794;   17.149;  -12.600;  626.880
1069.340;   17.380;  -10.620;  578.960
1069.886;   17.954;  -12.830;  590.700
1070.432;   16.697;  -14.870;  541.720
1070.977;   17.003;  -11.980;  601.080
1071.523;   16.520;   -8.200;  573.060
1072.068;   17.263;  -12.330;  582.000
1072.614;   16.555;  -16.370;  527.760
1073.160;   17.747;  -11.100;  687.040
1073.705;   15.731;  -10.480;  572.520
1074.250;   16.429;  -14.520;  559.900
1074.796;   17.873;  -11.460;  655.160
1075.341;   16.885;  -11.950;  664.100
1075.886;   15.433;  -11.460;  594.240
1076.431;   15.857;  -13.770;  649.880
1076.976;   15.712;  -12.680;  639.220
1077.521;   14.969;  -13.170;  583.080
1078.067;   14.175;  -10.860;  579.400
1078.612;   15.276;  -13.920;  661.620
1079.156;   15.356;  -13.880;  601.540
1079.701;   15.121;  -13.120;  693.260
1080.246;   15.998;   -9.940;  696.300
1080.791;   15.408;  -14.740;  625.020
1081.336;   15.458;  -13.750;  659.320
1081.880;   15.260;  -13.400;  649.680
1082.425;   13.710;  -12.220;  573.480
1082.970;   15.737;  -11.610;  717.040
1083.514;   14.440;  -13.580;  597.000
1084.059;   13.524;  -12.810;  586.720
1084.603;   12.794;  -12.320;  565.840
1085.147;   14.403;  -13.190;  645.220
1085.692;   15.204;  -12.480;  716.800
1086.236;   13.440;  -13.020;  503.140
1086.780;   15.760;   -9.190;  751.440
1087.325;   14.504;  -12.480;  654.620
1087.869;   14.050;  -12.450;  610.700
1088.413;   14.324;  -12.240;  705.040
1088.957;   12.283;   -9.020;  543.400
1089.501;   14.542;  -10.320;  766.640
1090.045;   13.508;  -12.720;  726.480
1090.589;   11.996;  -13.690;  569.920
1091.133;   12.865;  -10.020;  673.340
1091.676;   12.802;  -12.330;  591.940
1092.220;   12.534;  -14.970;  600.920
1092.764;   12.794;  -12.430;  706.960
1093.307;   12.261;   -9.800;  673.780
1093.851;   11.764;  -14.970;  556.540
1094.395;   12.880;  -15.310;  683.140
1094.938;   11.477;  -10.370;  632.520
1095.482;   12.052;  -11.050;  559.800
1096.025;   12.776;  -11.840;  710.880
1096.568;   13.571;  -12.840;  779.280
1097.112;    9.483;  -14.700;  508.180
1097.655;   11.332;   -8.720;  603.000
1098.198;   10.320;  -13.610;  600.180
1098.741;   10.277;  -13.350;  612.860
1099.285;   11.446;  -11.230;  657.300
1099.828;    9.472;  -11.840;  439.400
1100.371;   11.126;  -10.840;  608.160
1100.914;   11.023;  -14.190;  682.660
1101.457;   10.866;  -11.240;  679.900
1101.999;    9.414;  -11.270;  584.680
1102.542;   10.535;  -11.480;  641.440
1103.085;   10.307;  -11.750;  658.500
1103.628;   10.362;  -11.400;  762.060
1104.170;    9.896;  -10.490;  588.280
1104.713;   10.361;  -10.600;  646.700
1105.256;    9.971;  -14.360;  557.440
1105.798;    8.674;  -13.210;  499.980
1106.341;   11.270;  -10.270;  728.900
1106.883;    9.870;  -12.200;  521.340
1107.425;   10.000;  -13.110;  668.180
1107.968;    8.542;  -12.840;  612.380
1108.510;    9.626;   -6.480;  684.960
1109.052;    7.965;  -13.940;  612.620
1109.594;    8.720;  -13.690;  554.440
1110.136;    9.001;  -11.880;  643.220
1110.679;    8.022;   -9.500;  633.080
1111.221;    9.652;  -14.160;  604.460
1111.763;    8.268;  -13.980;  559.220
1112.304;    8.261;  -13.880;  547.140
1112.846;    8.865;  -12.210;  666.240
1113.388;   11.218;  -11.390;  942.180
1113.930;    8.604;  -14.540;  694.200
1114.472;    7.614;  -12.640;  606.540
1115.013;    6.309;  -11.620;  551.280
1115.555;    7.124;  -13.640;  587.100
1116.097;    6.619;  -15.380;  579.480
1116.638;    7.336;  -12.640;  684.600
1117.180;    7.657;   -9.850;  667.740
1117.721;    6.870;  -13.690;  568.580
1118.262;    7.529;  -12.680;  677.960
1118.804;    7.963;  -12.530;  637.340
1119.345;    5.996;  -11.690;  578.400
1119.886;    8.282;  -13.380;  704.040
1120.427;    6.784;  -14.070;  589.020
1120.969;    6.031;  -13.500;  597.920
1121.510;    5.164;  -11.480;  563.060
1122.051;    7.051;  -12.830;  723.580
1122.592;    5.427;  -14.290;  655.420
1123.133;    4.508;  -12.400;  547.940
1123.673;    6.869;  -10.130;  706.480
1124.214;    6.451;  -12.930;  612.460
1124.755;    6.797;  -14.380;  639.460
1125.296;    6.290;  -14.000;  627.320
1125.836;    7.045;  -10.070;  691.500
1126.377;    5.869;  -12.640;  599.660
1126.918;    6.453;  -12.960;  614.980
1127.458;    4.990;  -13.350;  622.220
1127.999;    5.767;  -10.750;  656.980
1128.539;    5.957;  -12.350;  694.240
1129.079;    5.521;  -14.860;  632.720
1129.620;    4.841;  -13.840;  558.100
1130.160;    4.091;  -12.330;  539.480
1130.700;    5.422;  -14.530;  640.840
1131.240;    5.636;  -12.530;  643.700
1131.781;    4.949;  -14.450;  619.680
1132.321;    4.679;   -9.790;  599.120
1132.861;    4.071;  -14.860;  564.200
1133.401;    4.076;  -14.290;  593.940
1133.941;    4.893;  -11.750;  626.280
1134.481;    3.598;   -9.920;  597.580
1135.020;    3.638;  -12.290;  609.160
1135.560;    4.690;  -11.650;  674.940
1136.100;    3.292;  -16.270;  501.160
1136.640;    2.847;  -10.890;  510.480
1137.179;    4.067;  -14.180;  537.960
1137.719;    4.504;  -16.250;  605.400
1138.258;    3.604;  -14.230;  587.360
1138.798;    3.965;   -9.090;  663.780
1139.337;    2.631;  -15.130;  482.840
1139.877;    4.448;  -13.680;  642.360
1140.416;    5.532;  -11.320;  878.060
1140.955;    2.323;  -10.860;  535.380
1141.494;    2.876;  -12.920;  669.280
1142.034;    2.270;  -13.930;  583.520
1142.573;    3.887;  -11.440;  646.280
1143.112;    2.369;  -12.000;  553.480
1143.651;    2.670;  -13.670;  536.480
1144.190;    4.253;  -12.730;  691.640
1144.729;    2.811;  -14.560;  607.420
1145.267;    3.179;  -11.830;  584.900
1145.806;    3.766;  -12.230;  637.040
1146.345;    2.819;  -14.130;  635.020
1146.884;    2.264;  -11.590;  622.500
1147.422;    1.553;  -12.550;  533.060
1147.961;    3.406;  -11.180;  708.460
1148.500;    3.103;  -11.510;  669.720
1149.038;    3.103;  -11.640;  632.500
1149.577;    1.960;  -10.130;  698.640
1150.115;    0.671;  -13.970;  452.280
1150.653;    2.044;  -14.520;  607.340
1151.192;    1.981;  -12.810;  552.920
1151.730;    1.562;   -9.100;  652.560
1152.268;    1.081;  -12.220;  589.520
1152.806;    1.282;  -14.140;  571.180
1153.344;    0.252;  -12.350;  577.640
1153.882;    1.014;   -8.980;  600.060
1154.421;    0.490;  -15.190;  470.620
1154.958;    1.291;  -15.210;  595.240
1155.496;    1.470;  -12.850;  645.280
1156.034;    1.244;   -9.940;  721.880
1156.572;    1.996;  -13.570;  667.060
1157.110;    0.273;  -14.590;  473.940
1157.647;    1.541;  -13.030;  676.960
1158.185;    0.476;  -12.140;  564.320
1158.723;   -0.445;  -14.390;  509.200
1159.260;    1.373;  -14.090;  701.700
1159.798;    1.587;  -11.920;  658.160
1160.335;   -0.191;  -11.110;  631.820

