
Integration time [ms]:   3.276
Averaging Nr. [scans]: 1000
Smoothing Nr. [pixels]: 0
Data measured with spectrometer [name]: 7414430SP
Wave   ;Sample   ;Dark     ;Reference
[nm]   ;[counts] ;[counts] ;[counts] 

288.544;  158.958;    7.793;  793.890
289.143;  161.848;    7.462;  681.602
289.742;  162.631;    8.602;  828.814
290.341;  149.446;    1.321;  789.841
290.940;  139.525;   -0.709;  730.702
291.538;  140.862;    0.881;  881.108
292.137;  141.360;    0.122;  792.581
292.736;  143.852;   -1.929;  975.101
293.335;  139.377;   -8.229;  735.086
293.934;  140.884;   -5.279;  781.677
294.532;  141.532;   -1.369; 1031.958
295.131;  127.627;   -7.641;  834.394
295.730;  127.788;   -8.420;  809.588
296.328;  124.994;   -5.611;  783.442
296.927;  123.877;   -5.781;  779.652
297.525;  125.494;   -6.361;  781.236
298.124;  117.170;  -11.382;  654.009
298.722;  121.882;   -7.641;  761.933
299.321;  117.623;   -6.811;  708.597
299.919;  115.073;   -6.991;  751.918
300.518;  110.786;  -10.362;  689.338
301.116;  114.090;   -9.581;  691.381
301.715;  114.577;   -4.891;  730.222
302.313;  113.052;   -8.801;  704.943
302.911;  107.976;   -8.522;  733.830
303.509;  112.984;   -6.171;  925.627
304.108;  110.913;   -7.311;  760.383
304.706;  110.559;   -8.321;  801.664
305.304;  105.081;  -10.222;  796.707
305.902;  109.418;   -6.021;  784.484
306.500;  104.716;   -4.971;  728.200
307.098;  103.470;   -7.061;  746.560
307.696;  101.248;   -8.801;  780.432
308.294;  102.286;   -6.411;  731.359
308.892;  104.292;   -2.901;  759.769
309.490;  100.483;   -5.041;  712.161
310.088;   98.739;   -5.002;  788.444
310.686;  103.043;   -2.041;  821.749
311.284;   98.266;   -2.351;  766.040
311.882;   95.283;   -4.422;  731.225
312.480;   93.292;   -4.192;  697.167
313.078;   93.576;   -1.172;  808.331
313.675;   95.158;   -2.601;  691.600
314.273;   90.352;   -1.312;  797.837
314.871;   89.242;   -3.942;  589.829
315.468;   86.723;   -2.802;  652.090
316.066;   90.510;   -0.701;  694.427
316.664;   83.012;   -4.362;  656.351
317.261;   87.361;   -2.872;  910.128
317.859;   82.574;   -2.022;  768.735
318.456;   83.023;   -0.531;  830.096
319.054;   79.340;   -3.912;  787.828
319.651;   77.083;   -4.752;  759.928
320.249;   76.025;   -2.602;  810.188
320.846;   74.747;   -0.821;  714.286
321.443;   72.438;   -4.642;  832.135
322.041;   69.001;   -5.002;  812.315
322.638;   65.583;   -3.982;  701.456
323.235;   67.358;   -3.411;  665.683
323.833;   64.310;   -7.361;  740.354
324.430;   59.490;   -8.611;  615.900
325.027;   60.721;   -4.061;  876.855
325.624;   60.281;   -4.031;  644.532
326.221;   57.358;   -7.481;  689.717
326.818;   57.079;   -5.281;  818.332
327.415;   59.279;   -7.460;  748.828
328.012;   59.192;   -5.510;  690.585
328.609;   57.215;   -7.880;  731.389
329.206;   55.971;   -8.331;  778.621
329.803;   56.055;   -5.121;  737.841
330.400;   58.875;   -4.510;  704.260
330.997;   59.666;   -6.441;  817.147
331.594;   58.184;   -8.831;  788.185
332.191;   63.877;   -7.621;  728.722
332.787;   67.305;   -4.591;  844.463
333.384;   66.527;   -7.412;  763.093
333.981;   65.267;   -8.293;  815.687
334.578;   67.633;   -7.052;  708.378
335.174;   71.529;   -3.102;  731.469
335.771;   70.257;   -5.943;  836.456
336.367;   67.275;   -7.393;  710.631
336.964;   71.832;   -4.063;  793.266
337.561;   68.917;   -3.813;  731.112
338.157;   64.909;   -4.654;  911.916
338.754;   63.198;   -7.934;  796.589
339.350;   60.964;   -4.414;  722.493
339.946;   64.126;   -4.664;  773.135
340.543;   55.409;   -6.375;  846.136
341.139;   49.360;   -9.815;  720.836
341.735;   45.781;   -4.526;  772.593
342.332;   46.524;   -4.895;  691.472
342.928;   46.032;   -4.295;  795.394
343.524;   38.518;   -5.476;  761.684
344.120;   35.614;   -5.856;  738.562
344.716;   38.898;   -2.155;  723.717
345.313;   35.984;   -6.275;  795.342
345.909;   31.250;   -8.815;  627.336
346.505;   32.301;   -5.305;  740.247
347.101;   32.715;   -2.674;  827.864
347.697;   33.573;   -4.344;  785.398
348.293;   28.054;   -9.975;  627.244
348.889;   28.578;   -5.774;  745.914
349.485;   28.602;   -5.004;  688.205
350.081;   29.673;   -4.704;  772.592
350.676;   24.644;   -6.635;  691.606
351.272;   27.675;   -4.504;  809.530
351.868;   28.451;   -3.914;  780.497
352.464;   25.431;   -9.044;  723.932
353.059;   21.014;   -8.314;  646.017
353.655;   23.464;   -7.024;  777.063
354.251;   26.587;   -5.343;  759.845
354.846;   20.342;   -8.604;  740.646
355.442;   17.910;   -6.945;  753.071
356.038;   19.483;   -7.564;  751.708
356.633;   19.804;   -5.814;  728.594
357.229;   17.374;   -7.364;  724.757
357.824;   16.703;   -8.024;  703.600
358.420;   14.474;   -9.384;  679.726
359.015;   15.470;   -5.104;  695.357
359.610;   16.093;   -6.854;  763.920
360.206;    9.788;  -10.185;  603.240
360.801;   13.048;   -7.054;  646.503
361.396;   15.253;   -5.034;  725.975
361.992;   10.950;   -8.284;  668.220
362.587;    7.695;   -8.625;  670.160
363.182;   10.203;   -7.674;  689.631
363.777;   11.012;   -5.164;  738.242
364.372;   10.827;   -8.604;  737.314
364.967;    6.422;   -9.055;  680.744
365.563;   10.643;   -6.114;  815.567
366.158;    8.239;   -5.814;  685.161
366.753;    8.749;   -7.854;  649.263
367.348;    6.889;   -7.804;  746.056
367.942;    7.059;   -7.954;  697.298
368.537;    5.913;   -4.984;  754.245
369.132;    5.695;   -8.564;  703.428
369.727;    1.748;   -8.855;  638.079
370.322;    2.882;   -6.245;  580.186
370.917;    2.587;   -6.425;  710.646
371.511;    6.289;   -6.294;  861.834
372.106;    2.944;   -7.685;  776.964
372.701;   -0.808;   -7.335;  585.988
373.296;    5.218;   -4.564;  863.135
373.890;   -0.837;  -10.235;  647.840
374.485;   -2.842;   -7.885;  691.199
375.079;    0.843;   -7.324;  738.685
375.674;    2.818;   -3.494;  812.970
376.268;   -1.920;   -8.525;  691.759
376.863;   -7.616;  -10.086;  580.327
377.457;   -1.398;   -7.025;  662.490
378.052;   -3.209;   -3.585;  764.884
378.646;   -4.075;   -7.595;  741.167
379.240;   -4.570;   -8.335;  721.176
379.835;   -3.988;   -5.785;  636.978
380.429;   -5.791;   -4.335;  562.557
381.023;   -5.438;   -6.805;  779.205
381.617;   -7.251;   -9.195;  680.106
382.212;   -4.532;   -6.905;  685.303
382.806;   -3.265;   -3.745;  760.690
383.400;   -7.429;   -7.745;  672.281
383.994;   -8.945;   -9.765;  664.870
384.588;   -5.712;   -6.564;  697.701
385.182;   -3.002;   -5.344;  726.624
385.776;   -5.787;   -8.514;  706.875
386.370;   -8.830;   -9.555;  681.968
386.964;   -7.906;   -8.715;  684.155
387.558;   -5.945;   -6.174;  598.360
388.152;   -9.624;   -8.725;  681.959
388.745;   -7.673;   -7.965;  814.707
389.339;   -5.785;   -5.924;  747.642
389.933;   -4.627;   -5.524;  695.370
390.527;   -6.183;   -7.114;  859.029
391.120;  -12.307;  -10.725;  595.318
391.714;   -8.631;   -8.035;  711.633
392.308;   -5.801;   -3.574;  780.253
392.901;   -9.890;   -7.245;  642.460
393.495;  -12.065;   -9.285;  595.414
394.089;   -9.702;   -5.895;  760.452
394.682;  -10.466;   -4.295;  697.188
395.275;  -10.755;   -9.875;  719.927
395.869;  -12.733;   -8.485;  667.314
396.462;  -10.375;   -7.455;  616.609
397.056;   -5.828;   -5.424;  776.621
397.649;  -10.550;   -6.605;  731.575
398.242;   -8.660;   -8.224;  712.645
398.836;   -7.493;   -7.474;  766.408
399.429;   -7.889;   -7.094;  631.041
400.022;  -12.096;   -9.475;  665.902
400.615;   -9.818;   -7.145;  805.609
401.208;   -8.201;   -7.174;  691.451
401.802;  -10.143;   -5.515;  699.329
402.395;  -11.335;   -9.875;  683.502
402.988;  -11.781;   -8.845;  696.627
403.581;   -8.996;   -8.874;  646.878
404.174;   -6.841;   -5.324;  686.568
404.767;   -9.064;   -9.575;  638.583
405.360;  -12.590;  -10.965;  621.445
405.953;   -6.392;   -8.764;  759.034
406.545;   -5.886;   -7.514;  725.342
407.138;  -10.540;  -10.025;  618.350
407.731;   -9.010;  -10.034;  613.303
408.324;   -5.367;   -9.374;  660.554
408.917;   -6.125;   -6.534;  681.864
409.509;   -7.768;   -8.004;  740.396
410.102;  -10.240;   -9.875;  643.948
410.695;   -3.767;   -8.604;  665.758
411.287;   -4.955;   -6.794;  599.821
411.880;   -5.960;   -9.334;  585.421
412.472;   -9.123;  -10.254;  613.092
413.065;   -6.128;   -6.714;  629.408
413.657;   -3.710;   -7.234;  576.678
414.250;   -3.890;  -10.544;  646.681
414.842;   -5.676;   -9.744;  676.353
415.434;   -3.284;   -6.994;  570.463
416.027;    0.691;   -5.893;  652.196
416.619;   -1.428;   -7.264;  713.400
417.211;   -1.443;  -10.374;  599.352
417.804;    2.610;   -7.993;  628.499
418.396;   -1.860;   -7.234;  607.643
418.988;    0.536;   -9.443;  659.238
419.580;   -3.320;  -10.724;  568.276
420.172;   -0.971;  -10.323;  536.196
420.764;    2.681;   -8.793;  672.482
421.356;    1.843;  -11.143;  636.898
421.948;    1.191;   -8.293;  677.661
422.540;    6.523;   -7.893;  680.027
423.132;    5.804;   -7.082;  600.641
423.724;    3.323;   -8.653;  561.267
424.316;    4.096;  -10.213;  621.345
424.908;    8.018;   -9.762;  591.517
425.500;    8.290;   -5.572;  647.978
426.092;    8.758;   -8.422;  648.268
426.683;    7.542;   -9.283;  684.836
427.275;    9.907;   -7.852;  641.471
427.867;   12.102;   -5.272;  668.948
428.458;   13.166;   -7.682;  732.344
429.050;   11.421;  -10.612;  680.749
429.642;   13.727;   -9.882;  743.124
430.233;   15.206;   -6.962;  569.356
430.825;   15.587;   -6.842;  724.809
431.416;   12.069;   -9.672;  698.241
432.008;   16.013;   -6.552;  651.723
432.599;   17.603;   -6.891;  656.073
433.190;   15.151;  -10.912;  637.670
433.782;   13.569;  -11.172;  590.395
434.373;   20.657;   -6.061;  884.765
434.964;   19.710;   -8.251;  602.920
435.556;   17.523;   -9.722;  634.537
436.147;   20.258;   -9.082;  758.490
436.738;   20.970;   -8.041;  701.099
437.329;   25.957;   -7.341;  721.723
437.920;   18.926;   -8.162;  666.688
438.511;   17.616;  -11.802;  564.526
439.103;   25.410;  -10.191;  623.998
439.694;   27.188;   -7.601;  681.583
440.285;   27.983;   -8.541;  764.432
440.876;   26.025;   -9.751;  845.738
441.466;   25.554;   -9.401;  575.162
442.057;   31.245;   -7.760;  665.814
442.648;   29.808;   -9.971;  746.255
443.239;   27.706;  -11.001;  620.477
443.830;   33.016;   -7.990;  704.958
444.421;   34.623;   -7.910;  655.474
445.011;   31.498;   -8.131;  693.619
445.602;   30.565;   -7.111;  743.126
446.193;   32.320;  -10.920;  488.117
446.783;   36.933;   -6.500;  640.397
447.374;   32.742;   -8.671;  692.759
447.964;   33.523;  -10.781;  713.770
448.555;   42.311;   -9.650;  822.742
449.145;   38.552;   -8.660;  662.853
449.736;   39.412;   -8.990;  803.179
450.326;   38.703;   -9.500;  713.626
450.917;   44.038;   -8.680;  675.324
451.507;   44.211;   -7.520;  600.661
452.097;   44.388;   -8.590;  746.267
452.688;   45.947;  -11.340;  742.160
453.278;   45.638;  -10.100;  566.840
453.868;   50.126;   -6.019;  793.550
454.458;   48.050;   -9.440;  651.141
455.048;   47.963;  -10.560;  711.783
455.639;   49.517;  -11.799;  567.096
456.229;   53.660;   -6.899;  710.694
456.819;   54.987;   -7.389;  751.158
457.409;   55.507;  -11.119;  773.993
457.999;   58.061;   -9.289;  737.505
458.589;   58.607;   -6.139;  686.606
459.179;   58.598;   -8.729;  717.658
459.769;   56.697;   -9.789;  627.099
460.358;   61.167;  -10.259;  797.262
460.948;   61.435;   -7.299;  689.503
461.538;   63.052;  -10.289;  660.677
462.128;   61.059;  -11.269;  664.934
462.717;   67.751;   -9.368;  710.326
463.307;   71.161;   -7.908;  705.846
463.897;   67.207;   -9.599;  656.942
464.486;   65.739;   -9.769;  837.128
465.076;   70.459;   -8.048;  733.776
465.666;   74.027;   -9.358;  652.900
466.255;   72.113;   -7.919;  785.651
466.845;   71.235;  -11.689;  666.749
467.434;   74.608;   -7.818;  725.873
468.023;   75.751;   -7.678;  658.357
468.613;   73.500;  -10.939;  713.946
469.202;   77.377;  -10.118;  646.507
469.791;   81.918;   -9.108;  737.811
470.381;   84.316;   -6.058;  742.813
470.970;   83.248;  -10.428;  711.099
471.559;   82.808;  -10.268;  733.291
472.148;   85.880;   -8.448;  675.737
472.738;   90.283;   -6.917;  765.466
473.327;   89.286;  -11.978;  637.529
473.916;   88.451;  -11.888;  737.446
474.505;   92.865;   -9.437;  751.703
475.094;   95.629;   -6.747;  806.570
475.683;   95.329;   -9.367;  797.699
476.272;   96.225;  -12.637;  730.632
476.861;   99.204;  -10.027;  706.754
477.449;  105.899;   -8.716;  728.487
478.038;  100.657;   -9.577;  692.513
478.627;  101.477;   -9.718;  714.852
479.216;  107.866;   -8.947;  769.441
479.805;  111.600;   -6.256;  783.375
480.393;  111.905;   -7.937; 1008.945
480.982;  110.396;   -7.717;  874.501
481.571;  116.908;   -9.266;  858.333
482.159;  118.438;   -7.636;  705.386
482.748;  117.634;   -9.667;  821.385
483.336;  122.381;  -10.376;  858.209
483.925;  123.339;   -7.147;  774.373
484.513;  130.670;   -7.996;  758.962
485.102;  127.271;  -10.027;  810.965
485.690;  136.165;  -10.446; 1011.050
486.278;  138.848;   -8.446;  979.329
486.867;  139.247;   -6.356;  809.662
487.455;  141.979;   -9.136;  898.229
488.043;  143.102;  -10.646;  748.361
488.631;  152.966;   -7.456; 1005.079
489.220;  157.291;   -6.636;  908.626
489.808;  158.334;  -11.036;  741.415
490.396;  166.315;  -10.246;  914.645
490.984;  174.456;   -8.556;  830.161
491.572;  186.846;   -5.886;  940.315
492.160;  194.896;   -9.486;  919.081
492.748;  210.297;  -10.976;  884.341
493.336;  234.621;   -8.776; 1019.693
493.924;  266.846;   -5.465;  958.077
494.512;  304.929;   -9.986; 1066.638
495.100;  358.254;  -10.636; 1103.280
495.687;  427.963;  -10.885; 1206.373
496.275;  493.319;   -8.126; 1150.796
496.863;  567.463;  -10.586; 1281.171
497.451;  696.117;  -11.926; 1386.805
498.038;  820.158;  -10.885; 1556.729
498.626;  927.207;   -6.315; 1741.407
499.214; 1097.837;   -7.326; 2016.609
499.801; 1342.350;  -11.906; 2220.633
500.389; 1616.345;  -10.466; 2312.494
500.976; 1894.298;   -5.236; 2744.849
501.564; 2374.121;   -8.936; 3148.565
502.151; 2882.141;  -13.176; 3515.999
502.738; 3453.848;  -10.646; 3971.274
503.326; 3853.748;   -9.525; 4403.796
503.913; 4183.494;  -10.856; 5161.749
504.500; 4753.017;  -11.586; 5986.420
505.088; 5093.677;  -10.336; 6381.201
505.675; 5598.757;   -6.355; 6925.547
506.262; 6118.129;   -9.046; 7619.060
506.849; 6683.850;  -10.416; 8733.969
507.436; 7242.080;  -10.305; 9790.121
508.023; 7765.195;   -5.496; 9985.472
508.610; 8638.706;   -7.856;10434.618
509.197;10079.506;  -10.097;11198.435
509.784;11732.604;  -10.886;12391.194
510.371;13288.093;   -9.315;13603.713
510.958;14208.596;   -9.936;14426.586
511.545;14785.677;   -9.326;15243.775
512.132;15384.660;  -10.075;15945.876
512.719;15562.337;   -7.796;16340.369
513.305;16486.205;  -10.606;18011.766
513.892;17894.271;  -11.486;19754.971
514.479;19795.193;   -9.126;20967.805
515.066;21600.555;   -6.026;22299.793
515.652;21904.861;   -8.466;22908.660
516.239;23087.510;  -10.886;23798.875
516.825;25361.852;  -11.496;25567.275
517.412;27514.930;   -5.796;28154.959
517.998;29719.430;  -10.506;28344.111
518.585;29376.906;  -10.076;27134.219
519.171;27868.369;   -8.315;27268.576
519.758;28902.537;   -8.596;28964.129
520.344;30324.738;   -8.466;30664.494
520.930;33042.793;  -11.006;32550.605
521.516;33439.527;  -10.495;35422.895
522.103;31828.395;   -5.526;38280.004
522.689;32595.029;   -8.746;37835.117
523.275;34186.859;  -11.376;37288.613
523.861;35962.430;  -11.156;37281.395
524.447;39574.285;   -8.135;37846.949
525.033;40745.836;   -7.896;38321.949
525.619;40535.898;  -12.476;38579.285
526.205;40635.543;   -9.516;40622.875
526.791;40129.031;   -6.926;42258.836
527.377;41366.211;   -8.346;42966.902
527.963;43044.484;   -8.717;42018.949
528.549;41835.836;  -11.016;42476.828
529.135;42131.387;   -8.536;41854.852
529.721;41779.883;   -9.666;41237.711
530.306;40165.492;  -10.066;41259.445
530.892;39882.582;  -11.356;41506.047
531.478;39366.359;   -6.596;43559.613
532.063;40085.230;   -8.836;47695.563
532.649;43927.328;  -10.047;50808.324
533.235;45442.223;   -9.746;51787.500
533.820;44717.570;   -6.566;52145.035
534.406;43105.215;  -10.817;51133.488
534.991;46028.863;   -9.416;49996.805
535.576;47297.719;   -9.036;48882.852
536.162;47489.793;   -6.156;46942.285
536.747;48878.633;  -11.607;45711.746
537.333;49525.043;  -11.787;48510.180
537.918;49561.652;  -12.437;50439.891
538.503;50936.523;   -7.196;50863.711
539.088;48466.141;  -10.556;50906.922
539.673;47077.648;   -8.767;52621.965
540.259;48248.398;  -10.026;52368.094
540.844;50029.348;   -7.416;50879.109
541.429;48983.145;   -9.467;52077.777
542.014;48642.539;   -9.527;52716.695
542.599;50807.711;   -9.946;52363.281
543.184;53496.805;   -7.927;53187.137
543.769;51819.313;   -9.297;54697.605
544.354;48397.340;  -10.127;53913.914
544.938;46525.402;   -9.267;49680.164
545.523;48755.559;   -6.506;47386.277
546.108;52904.566;   -9.787;49151.949
546.693;52276.727;  -11.587;51384.637
547.278;51955.059;  -10.986;51853.254
547.862;48792.250;   -8.206;51173.750
548.447;45943.891;  -10.067;51691.395
549.031;46832.406;   -9.637;52456.703
549.616;47567.074;   -9.926;52714.516
550.201;46220.367;   -6.347;52414.598
550.785;46120.141;   -7.917;52355.059
551.370;47355.215;  -10.867;54589.453
551.954;47972.680;   -9.047;58267.348
552.538;48852.066;   -7.827;59062.176
553.123;48731.723;  -10.287;58115.285
553.707;44552.289;  -12.178;56556.285
554.291;45341.316;   -8.717;56201.668
554.876;48766.090;   -7.457;55335.762
555.460;50214.609;  -10.387;54155.703
556.044;51178.016;   -9.618;53721.484
556.628;50436.480;  -11.567;53731.016
557.212;48311.883;   -8.097;54312.531
557.796;49658.105;  -11.077;53797.773
558.380;47510.727;  -11.108;56145.984
558.964;45990.434;   -9.057;57277.930
559.548;45410.641;   -6.977;56459.641
560.132;44207.348;  -11.457;54434.543
560.716;43428.246;  -11.378;54800.617
561.300;44504.023;   -9.577;57606.945
561.884;46265.496;   -7.127;58972.445
562.467;47132.609;   -7.118;57327.570
563.051;46434.199;  -13.358;54962.434
563.635;44267.789;  -10.178;52594.473
564.219;43846.320;   -7.837;50610.410
564.802;43486.996;  -11.398;49551.180
565.386;44819.391;  -12.788;48370.953
565.969;45601.848;   -9.077;48178.871
566.553;45756.426;   -6.207;49957.305
567.136;42683.492;   -8.568;50369.594
567.720;41783.496;  -11.868;49492.004
568.303;41591.262;   -8.268;50616.352
568.887;40152.445;   -8.698;50727.148
569.470;40553.910;   -6.808;51698.379
570.053;39360.168;  -13.188;52122.078
570.637;37975.355;  -12.037;52536.438
571.220;37124.914;   -8.577;51186.098
571.803;37589.906;   -8.498;51032.762
572.386;40441.785;  -10.498;49609.887
572.969;42109.453;   -9.388;48285.926
573.552;38153.477;   -8.338;47624.285
574.135;35921.887;   -8.518;45498.641
574.718;32792.652;  -13.628;41970.434
575.301;32374.547;  -10.893;41447.137
575.884;31956.439;   -8.158;40923.836
576.467;36858.055;  -10.328;45267.723
577.050;35456.000;  -13.058;48175.543
577.633;34557.656;   -9.458;47729.328
578.216;36016.512;   -8.928;47579.793
578.799;37054.301;   -9.358;47820.996
579.381;36719.871;  -11.388;48115.551
579.964;33596.883;  -11.718;47333.766
580.547;33285.391;   -8.588;46668.969
581.129;35058.230;   -8.859;44466.141
581.712;35483.941;  -10.729;44164.922
582.294;36510.734;  -11.118;46477.855
582.877;34412.191;   -5.218;48244.254
583.459;34268.477;   -8.679;47437.895
584.042;35989.043;  -10.709;46943.219
584.624;38214.535;  -11.669;46792.227
585.206;37624.906;   -8.218;46557.250
585.789;36292.172;  -10.569;45793.773
586.371;36396.715;  -11.859;43836.391
586.953;34890.895;  -10.719;42972.492
587.536;36291.719;   -7.198;42487.211
588.118;37822.656;   -8.720;42086.414
588.700;37319.258;  -10.439;43389.930
589.282;37618.352;   -9.198;43646.039
589.864;36398.758;   -9.199;43438.109
590.446;33917.301;  -11.319;43151.926
591.028;33361.617;  -11.159;42781.867
591.610;33103.758;  -11.779;42839.098
592.192;30264.713;   -7.668;42820.402
592.774;31225.352;  -11.949;40724.277
593.356;32280.285;  -12.129;39874.789
593.937;29935.295;  -10.669;39980.648
594.519;31128.994;   -6.509;42069.633
595.101;33343.707;  -10.849;42976.031
595.683;32243.838;  -11.679;44084.441
596.264;32162.752;   -9.049;43478.797
596.846;33960.207;   -8.849;43803.672
597.427;33892.219;   -9.570;42986.934
598.009;34998.652;  -12.620;42832.219
598.591;34210.215;  -10.039;42580.086
599.172;33148.125;  -10.369;43061.805
599.753;31456.174;   -9.140;41691.469
600.335;31313.082;  -11.430;40692.520
600.916;31804.094;   -9.939;39982.422
601.498;30777.859;   -8.479;40318.617
602.079;29413.641;  -10.920;40670.609
602.660;31081.725;  -11.480;41450.898
603.241;32486.961;  -11.699;41137.738
603.823;33023.664;   -9.579;38868.797
604.404;32854.242;  -10.620;38182.785
604.985;31487.432;  -10.450;38078.047
605.566;31009.826;   -9.129;38056.633
606.147;30995.771;   -7.510;37020.418
606.728;32136.574;  -10.660;37883.359
607.309;33370.008;  -11.740;38748.273
607.890;33225.344;   -9.759;38850.230
608.471;31521.781;   -8.250;37457.918
609.051;31479.338;   -9.240;36066.457
609.632;29597.127;  -12.120;35991.074
610.213;28510.422;   -9.110;37402.641
610.794;30600.576;   -8.030;38383.363
611.374;32956.988;   -8.110;40562.387
611.955;32557.695;  -13.560;38533.727
612.536;29934.303;  -11.400;36951.789
613.116;28927.340;   -8.070;37197.891
613.697;31050.115;  -10.830;38411.125
614.277;32447.920;  -11.641;38673.938
614.858;31947.793;  -13.310;37075.863
615.438;30205.232;   -7.460;35092.906
616.019;28423.715;   -7.601;33666.301
616.599;29284.656;  -12.020;34189.023
617.179;30780.561;  -11.780;36952.047
617.760;33298.250;   -8.570;39582.574
618.340;33248.703;  -11.471;38943.977
618.920;31882.021;  -11.170;37594.156
619.500;33789.859;  -11.071;37866.938
620.080;34171.395;   -7.750;37869.043
620.660;32500.090;  -12.711;36868.617
621.241;31068.254;  -10.211;36352.309
621.821;30164.146;  -10.961;35459.520
622.401;29224.471;   -7.720;35207.414
622.980;30343.994;   -8.981;35980.422
623.560;30820.773;   -9.331;37351.328
624.140;29549.705;   -9.850;34388.582
624.720;26874.832;   -7.451;32368.764
625.300;25136.258;   -9.070;32638.629
625.880;28595.914;  -12.601;34599.035
626.459;30456.832;  -11.751;36831.738
627.039;30830.248;   -9.281;38299.098
627.619;32725.143;   -8.801;38289.574
628.198;32585.729;  -12.071;37220.695
628.778;31648.328;   -9.461;37632.563
629.357;32586.695;   -8.491;38003.012
629.937;32811.863;   -9.721;38402.039
630.516;32894.660;   -9.951;37868.801
631.096;33079.746;  -11.731;35760.410
631.675;34171.813;   -8.572;35225.219
632.254;33663.145;  -11.282;35130.289
632.834;33296.840;  -13.322;35794.570
633.413;33134.867;  -10.301;35788.922
633.992;32332.553;   -8.582;34532.863
634.571;34003.777;   -8.352;33590.113
635.151;34046.215;  -11.912;34943.863
635.730;32764.133;  -10.511;35352.523
636.309;35127.422;   -7.731;35366.605
636.888;33414.223;   -9.952;36165.637
637.467;31133.332;  -11.672;37515.902
638.046;30904.020;   -8.901;39288.695
638.625;31752.189;   -7.912;38279.699
639.204;32257.947;  -10.022;37741.598
639.782;30455.285;  -12.252;38364.551
640.361;28800.832;  -10.041;36740.621
640.940;27924.457;  -11.161;34950.082
641.519;28949.453;   -9.701;34137.398
642.097;30681.391;  -11.271;35654.258
642.676;32098.186;   -8.651;35637.957
643.255;33036.570;   -8.711;36567.074
643.833;30663.529;   -9.581;37809.434
644.412;28459.410;  -13.711;37337.293
644.990;30279.053;  -11.811;37018.531
645.569;33053.766;   -9.411;36518.469
646.147;32621.553;  -10.291;36186.430
646.726;31437.670;  -12.401;36267.688
647.304;31517.961;  -10.411;36647.625
647.882;30626.498;   -9.651;39286.742
648.461;31894.045;   -9.631;39157.703
649.039;35328.379;  -11.881;35412.883
649.617;35773.762;   -9.661;34744.918
650.195;33542.770;   -9.301;35403.098
650.773;32495.201;  -10.511;35053.797
651.352;31925.676;  -11.521;33756.816
651.930;29299.986;  -12.211;31868.773
652.508;25780.057;   -9.171;33121.551
653.086;26754.393;   -9.371;33564.793
653.663;32352.455;  -13.161;34054.668
654.241;36279.180;  -13.031;35693.309
654.819;37362.027;   -9.371;36422.906
655.397;37267.586;  -10.511;38213.484
655.975;33652.504;  -10.371;39507.625
656.553;30531.670;  -10.051;39498.223
657.130;29010.238;  -10.061;40395.480
657.708;27132.195;   -9.561;39242.020
658.286;24642.471;  -11.511;38920.020
658.863;26650.701;  -10.261;40202.898
659.441;30471.637;   -7.531;39677.938
660.018;32375.709;   -9.501;40413.355
660.596;31460.574;  -13.301;39931.414
661.173;30934.996;  -11.211;39604.531
661.750;32757.281;   -9.951;39700.070
662.328;31798.129;   -9.390;39292.809
662.905;30721.439;  -11.330;38235.648
663.482;28420.836;   -9.050;36212.305
664.060;25556.545;   -8.240;35944.945
664.637;26089.607;  -10.050;35170.785
665.214;29379.854;  -11.760;34197.523
665.791;30144.471;  -10.530;34549.520
666.368;29297.980;   -9.690;35118.578
666.945;30514.926;   -9.320;36019.418
667.522;30919.635;  -11.860;36048.438
668.099;32196.021;  -10.770;36243.914
668.676;32120.434;   -6.260;35958.875
669.253;34892.465;   -7.000;37384.730
669.830;36274.754;  -10.190;36779.629
670.407;33004.086;   -9.550;35231.289
670.984;33162.586;   -9.260;35544.270
671.560;30577.520;   -9.280;35466.867
672.137;26493.830;  -11.810;34280.863
672.714;27783.678;  -11.490;34632.863
673.290;31388.492;   -7.740;35135.422
673.867;31378.025;  -10.660;36114.480
674.443;31719.225;  -12.230;36152.859
675.020;31584.305;  -10.450;35327.238
675.596;29950.645;   -9.260;35795.176
676.173;28613.795;  -10.780;35430.355
676.749;28068.600;  -13.690;33549.516
677.326;28170.012;  -11.980;32210.012
677.902;27477.074;   -8.630;32068.871
678.478;29187.051;  -10.730;32583.891
679.054;30186.023;  -10.520;32088.928
679.631;29604.033;  -11.920;30978.848
680.207;29755.637;   -7.490;33160.887
680.783;31558.691;   -9.860;35570.363
681.359;32941.641;  -13.380;36125.184
681.935;33485.059;  -12.480;35240.922
682.511;32842.406;   -7.900;34429.961
683.087;31759.533;   -7.710;34463.680
683.663;31282.645;  -11.480;34648.898
684.239;30124.879;  -14.090;34546.457
684.815;29027.682;   -7.560;35586.375
685.390;29094.703;   -9.910;35821.895
685.966;30113.285;  -11.159;35085.871
686.542;31560.465;  -11.169;34198.230
687.118;33095.535;   -5.959;32847.707
687.693;32217.830;  -10.329;32794.027
688.269;33101.629;  -12.059;33072.367
688.844;33268.547;  -10.909;33141.664
689.420;30585.451;   -8.019;33965.742
689.995;29152.215;   -8.399;34655.523
690.571;30657.527;  -10.949;33576.742
691.146;30340.100;   -9.619;32657.219
691.722;28822.143;   -8.999;32526.979
692.297;28105.016;  -11.589;33014.617
692.872;28324.785;  -11.739;34012.254
693.448;31084.123;  -11.059;34237.434
694.023;31754.240;  -10.139;34142.672
694.598;29694.553;   -9.029;34132.031
695.173;30609.840;  -13.319;34205.250
695.748;31243.381;  -10.169;32882.488
696.323;28977.512;   -8.339;32864.906
696.898;27204.615;   -8.169;33170.004
697.473;27564.646;  -12.309;32432.984
698.048;27798.320;  -10.989;31649.303
698.623;26459.670;   -9.329;30778.141
699.198;27210.418;   -9.849;31140.119
699.773;28307.627;  -12.329;31764.299
700.348;29768.590;  -10.389;31780.816
700.922;30306.980;   -9.269;32046.375
701.497;31336.279;   -9.329;32603.574
702.072;32163.863;  -10.789;34799.871
702.646;31009.986;  -10.839;35793.172
703.221;30085.770;   -9.099;35201.590
703.795;31820.410;  -10.939;34764.527
704.370;29411.441;  -12.859;34307.367
704.944;27917.055;  -11.559;33509.887
705.519;29048.174;   -7.939;31388.584
706.093;31523.186;  -10.499;31340.104
706.668;34022.867;  -11.289;32630.281
707.242;33516.859;  -11.509;32728.779
707.816;31622.563;   -9.639;32947.238
708.390;30188.115;  -11.429;33277.855
708.965;29230.334;  -11.869;33834.336
709.539;30451.896;  -11.689;33709.273
710.113;30580.146;  -10.478;33044.313
710.687;29976.984;  -10.228;31953.992
711.261;29261.482;  -13.698;30505.949
711.835;29730.598;  -13.378;30262.369
712.409;28910.885;   -9.698;31254.447
712.983;28431.037;  -11.898;32754.986
713.557;30774.666;  -15.138;34018.824
714.131;28862.969;  -14.098;34579.625
714.704;28371.584;   -9.958;33890.262
715.278;30371.100;  -10.028;33531.102
715.852;28921.059;  -11.148;33601.660
716.425;27701.680;   -9.068;33515.117
716.999;26400.807;  -10.038;33185.555
717.573;26175.213;   -9.798;33905.996
718.146;25567.621;  -12.378;35199.293
718.720;26126.369;  -11.918;35060.551
719.293;26727.582;   -8.088;34973.230
719.867;28915.928;  -10.888;36394.449
720.440;30456.021;  -11.938;36663.008
721.013;31017.838;  -12.818;35102.426
721.587;28706.648;  -10.298;33985.266
722.160;26895.295;  -10.048;33524.965
722.733;26395.857;  -12.108;32987.043
723.306;26671.861;  -10.818;33066.301
723.880;28240.463;   -8.908;33399.500
724.453;27869.936;   -9.878;33468.297
725.026;28039.615;  -11.188;33816.637
725.599;31075.418;  -11.678;32797.996
726.172;30859.092;   -9.618;33187.434
726.745;28265.498;   -8.258;35136.613
727.318;27815.363;  -12.978;35751.730
727.891;26927.123;  -12.148;35890.430
728.463;25684.912;   -8.968;34822.090
729.036;25565.094;  -10.188;32895.086
729.609;25631.568;  -11.788;31823.225
730.182;23814.439;  -11.788;31445.283
730.754;22490.402;  -10.268;32373.223
731.327;22443.654;   -9.998;33676.820
731.900;23636.391;  -12.228;33417.000
732.472;23671.916;  -13.848;31978.498
733.045;22840.328;   -8.698;30368.777
733.617;22485.336;  -10.607;30574.215
734.190;24319.045;  -11.507;31280.975
734.762;25270.957;  -13.647;31674.412
735.334;26728.250;   -9.767;31247.291
735.907;27227.029;   -9.897;29876.211
736.479;27074.760;  -11.637;29808.488
737.051;28099.824;   -9.567;30233.547
737.623;27441.830;   -8.187;31469.086
738.195;25999.176;  -11.187;31784.225
738.768;24770.748;  -12.337;32120.523
739.340;23195.953;  -12.227;32094.342
739.912;22220.037;  -11.057;31312.680
740.484;22071.008;  -10.207;31946.238
741.056;21820.994;  -10.047;32984.059
741.628;22900.248;  -13.627;33897.715
742.199;23858.412;   -7.177;33213.016
742.771;26068.770;  -10.797;31369.113
743.343;26905.363;  -11.997;31865.473
743.915;26721.320;  -12.867;32388.631
744.487;24132.867;   -7.617;31079.568
745.058;21126.141;   -9.557;30570.107
745.630;22209.861;   -9.877;29970.127
746.201;23915.607;  -14.177;29186.766
746.773;24443.492;   -9.237;28805.723
747.344;22520.900;   -9.847;29591.223
747.916;20796.256;  -11.657;31412.201
748.487;21841.094;  -10.587;32194.898
749.059;23708.852;   -8.707;32533.719
749.630;23900.541;  -10.537;32158.518
750.201;23323.018;  -11.687;30855.395
750.773;22141.570;  -11.647;28622.555
751.344;21906.721;   -7.147;28405.732
751.915;23923.559;   -9.757;28461.551
752.486;24973.688;  -12.427;27842.850
753.057;23782.127;  -12.227;27845.008
753.628;23834.475;  -10.417;27728.107
754.199;23575.289;  -11.767;27381.086
754.770;23089.361;  -11.187;25882.203
755.341;21906.463;  -10.507;25886.184
755.912;20354.402;   -9.387;26050.861
756.483;18924.195;  -10.647;26798.779
757.054;19404.459;  -11.837;27048.238
757.625;19436.795;  -12.716;26294.838
758.195;19283.707;   -9.666;26142.076
758.766;19626.676;   -8.656;26392.234
759.337;19179.385;  -12.856;26334.594
759.907;18957.295;  -13.366;27579.652
760.478;18561.215;   -8.576;28352.770
761.048;19502.529;  -10.526;27325.088
761.619;19604.412;  -11.116;26460.428
762.189;18221.311;  -12.136;26029.826
762.760;17817.783;   -9.456;26430.145
763.330;18165.809;   -7.136;26670.902
763.900;18277.637;  -11.786;26603.021
764.471;17905.094;  -11.546;25542.740
765.041;17063.076;   -8.096;24358.459
765.611;16384.281;   -8.876;23991.297
766.181;16320.514;  -12.196;24470.236
766.751;16114.913;  -11.636;24845.975
767.321;17112.668;  -10.156;24533.633
767.891;16621.268;  -11.766;24916.492
768.461;16829.203;  -14.936;24776.771
769.031;17757.414;  -12.356;24757.988
769.601;18467.123;   -7.526;24181.088
770.171;18368.604;  -10.766;23670.387
770.741;17539.930;  -13.176;22960.045
771.311;16897.148;  -10.616;22917.523
771.880;17063.861;   -9.576;23562.941
772.450;16724.873;  -10.336;24216.500
773.020;16378.514;  -13.516;24140.398
773.589;17049.250;  -13.466;24414.857
774.159;16948.086;   -8.686;23858.717
774.729;15558.847;   -9.476;22942.135
775.298;13816.163;  -13.666;22324.033
775.867;13528.492;  -11.716;21140.313
776.437;13633.004;   -9.906;20838.092
777.006;12944.583;  -12.166;20599.510
777.576;12454.046;  -12.356;20508.809
778.145;12364.764;  -11.646;20732.947
778.714;12806.732;   -8.226;21062.465
779.283;13813.958;   -9.556;20949.664
779.853;14544.746;  -14.116;20508.623
780.422;14048.192;  -11.506;20649.082
780.991;13570.797;   -9.556;21527.520
781.560;13265.414;   -9.095;22632.658
782.129;13113.893;  -12.135;23048.277
782.698;13002.664;  -10.865;23438.555
783.267;12697.165;   -9.335;23267.734
783.836;12698.600;  -11.045;22415.133
784.404;13285.757;  -13.865;20443.152
784.973;12554.140;  -13.095;19699.150
785.542;11218.231;  -11.575;19763.828
786.111;10620.282;   -9.705;20341.408
786.679;11315.015;  -12.105;20207.967
787.248;11621.438;  -12.455;19516.465
787.817;11364.322;  -11.535;18900.363
788.385;11446.930;   -9.765;17879.121
788.954;11372.039;  -14.005;17658.301
789.522;10857.743;  -11.955;17788.879
790.090;11122.754;  -10.135;18118.277
790.659;12112.629;  -10.975;18338.736
791.227;12115.795;  -13.375;18508.615
791.795;11551.643;  -12.375;17898.254
792.364;10943.979;  -10.725;17295.133
792.932;11034.535;   -9.715;16822.051
793.500;11110.278;  -12.675;17040.148
794.068;10830.175;  -13.495;17179.787
794.636; 9759.400;  -10.885;16664.246
795.204; 8829.426;  -11.045;16524.545
795.772; 9496.248;  -13.175;17274.564
796.340;10603.375;  -12.445;17891.002
796.908;10411.918;   -9.735;17648.561
797.476;10767.627;   -9.815;17064.080
798.044;11654.299;  -13.985;16672.777
798.612;11550.170;  -13.115;17023.996
799.180;10285.032;  -10.185;16561.615
799.747; 9251.991;   -9.055;15962.773
800.315; 8611.183;  -12.385;15296.992
800.883; 8874.455;  -15.035;14801.771
801.450; 9150.320;  -10.365;14534.430
802.018; 9262.980;   -9.855;14173.248
802.585; 9446.018;  -11.905;14029.547
803.153; 8989.521;  -11.585;13836.846
803.720; 8339.665;   -9.095;13567.324
804.287; 8365.356;   -9.135;13360.622
804.855; 8652.490;  -11.604;13681.981
805.422; 8724.850;  -11.794;13536.560
805.989; 8604.799;  -10.734;13355.958
806.556; 8179.560;  -10.444;13747.896
807.124; 8048.116;  -12.764;13987.376
807.691; 8643.326;  -12.964;14038.674
808.258; 9090.994;  -11.134;14120.152
808.825; 9241.458;   -9.854;13860.111
809.392; 8897.357;  -10.504;13268.790
809.959; 8485.521;  -13.054;12680.389
810.526; 8359.474;   -8.294;12427.308
811.093; 8090.545;   -8.394;12030.105
811.659; 7336.963;  -12.304;11653.664
812.226; 7077.095;  -13.944;11637.183
812.793; 7545.229;  -10.484;11611.521
813.360; 7671.094;  -10.144;11885.181
813.926; 6943.621;  -11.684;12770.539
814.493; 6349.603;  -13.644;12677.638
815.060; 6244.272;   -9.724;11974.336
815.626; 6558.311;   -9.854;11594.715
816.193; 6628.312;  -13.254;11579.474
816.759; 6649.005;  -13.204;11666.972
817.325; 6432.962;   -9.434;11325.530
817.892; 6102.215;  -10.134;11105.369
818.458; 6031.925;  -13.474;10843.928
819.024; 6051.727;  -11.854;10714.406
819.591; 6321.982;  -10.244;10469.165
820.157; 6372.950;  -10.704;10235.523
820.723; 6577.920;  -12.324;10847.563
821.289; 7004.256;   -9.444;11040.980
821.855; 7111.634;   -8.374;10357.100
822.421; 6740.494;  -10.234; 9978.918
822.987; 6483.149;  -13.294; 9754.177
823.553; 6328.582;  -10.884;10065.755
824.119; 5875.244;   -8.884;10036.294
824.685; 5679.117;   -6.784;10029.192
825.251; 5634.931;  -12.004;10199.230
825.816; 5739.413;  -11.474; 9820.189
826.382; 5529.767;   -9.174; 9297.248
826.948; 5267.901;   -9.214; 9381.347
827.513; 5036.987;  -10.774; 9450.726
828.079; 4972.565;  -11.924; 9472.444
828.645; 5082.053;  -10.543; 9292.643
829.210; 5305.140;  -10.533; 9065.341
829.776; 5325.716;  -10.753; 9132.620
830.341; 5214.469;  -10.173; 9092.878
830.906; 5279.814;  -10.743; 9078.557
831.472; 5150.136;  -11.113; 8534.535
832.037; 4665.455;  -10.603; 8677.874
832.602; 4604.132;  -13.323; 8628.692
833.167; 4968.699;  -10.823; 8879.031
833.733; 4957.500;  -10.113; 9189.790
834.298; 4716.984;  -13.583; 9052.608
834.863; 4596.453;  -12.703; 8895.087
835.428; 4475.296;  -10.523; 8824.266
835.993; 4421.931;   -6.963; 8845.385
836.558; 4516.642;  -10.763; 8888.563
837.123; 4630.856;   -9.903; 8966.582
837.688; 4466.800;   -9.913; 8617.860
838.253; 4307.197;  -10.283; 8590.699
838.817; 4431.747;  -12.963; 8443.797
839.382; 4607.871;  -14.243; 8799.356
839.947; 4510.598;  -10.733; 8810.595
840.511; 4586.791;   -9.383; 8796.394
841.076; 4602.805;  -12.563; 8347.231
841.641; 4398.893;  -12.953; 8224.330
842.205; 4121.688;   -7.043; 8223.349
842.770; 4083.642;   -8.163; 8622.107
843.334; 4133.603;  -12.503; 8410.386
843.898; 4091.368;  -11.693; 8337.465
844.463; 3976.139;  -10.203; 8506.283
845.027; 3898.823;   -9.533; 8280.962
845.591; 3961.716;  -13.443; 8231.141
846.156; 3892.563;  -13.143; 7969.179
846.720; 3699.512;   -9.433; 7768.278
847.284; 3404.103;  -11.033; 7630.957
847.848; 3242.374;  -10.403; 7472.395
848.412; 3251.458;  -11.553; 7437.394
848.976; 3423.199;   -8.393; 7674.592
849.540; 3460.729;   -8.713; 7836.011
850.104; 3432.634;  -12.463; 7913.669
850.668; 3567.921;  -12.973; 7694.508
851.232; 3607.791;  -10.793; 7756.887
851.796; 3525.180;  -10.662; 7926.545
852.359; 3563.481;  -13.082; 7827.844
852.923; 3342.901;  -12.192; 7641.163
853.487; 3280.018;  -11.912; 7342.501
854.050; 3441.094;  -10.892; 7042.820
854.614; 3422.539;  -13.992; 7151.338
855.177; 3301.741;  -11.732; 7105.077
855.741; 3211.979;   -8.962; 6989.675
856.304; 3098.110;   -9.442; 6596.634
856.868; 2850.634;  -14.192; 6356.272
857.431; 2641.571;  -12.702; 6468.571
857.995; 2685.033;   -9.942; 6373.210
858.558; 2716.229;   -9.112; 6324.448
859.121; 2536.756;  -12.932; 6408.327
859.684; 2493.652;  -13.442; 6347.886
860.247; 2906.142;  -10.632; 6321.264
860.810; 3233.088;  -11.272; 6301.903
861.374; 3250.443;   -9.832; 6607.881
861.937; 3225.447;  -11.762; 6408.200
862.500; 3089.167;   -9.722; 6572.639
863.062; 2785.058;  -10.512; 6387.297
863.625; 2660.879;  -11.232; 6190.836
864.188; 2652.940;  -14.112; 5807.254
864.751; 2645.111;  -11.302; 5682.413
865.314; 2751.946;  -10.112; 5547.492
865.876; 2788.870;  -12.182; 5500.150
866.439; 2706.344;  -10.722; 5415.909
867.002; 2550.532;   -9.252; 5501.567
867.564; 2444.223;   -9.572; 5413.946
868.127; 2317.588;  -13.142; 5160.325
868.689; 2039.273;  -12.902; 5133.183
869.252; 1907.917;   -9.732; 5252.382
869.814; 1917.449;   -9.432; 5297.141
870.377; 2011.539;  -11.552; 5390.919
870.939; 1991.490;   -9.052; 5599.898
871.501; 1925.165;  -10.982; 5248.336
872.063; 1962.058;  -12.292; 4854.235
872.626; 1976.969;  -14.912; 4817.074
873.188; 1979.003;  -13.112; 4987.732
873.750; 1926.309;  -13.442; 4868.651
874.312; 1983.188;   -9.402; 4779.330
874.874; 2119.661;  -11.062; 4866.348
875.436; 2010.646;  -13.931; 4718.887
875.998; 1730.933;   -9.561; 4660.005
876.560; 1568.621;  -11.321; 4462.964
877.122; 1556.500;  -12.221; 4145.042
877.683; 1543.481;  -12.191; 4056.481
878.245; 1636.140;  -12.101; 3950.740
878.807; 1785.682;   -8.971; 4058.958
879.369; 1824.604;  -12.071; 3954.677
879.930; 1755.447;  -14.621; 3941.495
880.492; 1586.257;  -10.311; 4067.014
881.053; 1427.055;  -10.901; 3859.633
881.615; 1403.421;  -14.411; 3776.071
882.176; 1432.027;  -13.761; 3734.750
882.738; 1448.107;   -9.181; 3678.489
883.299; 1413.337;  -11.791; 3405.407
883.860; 1337.909;  -13.121; 3351.106
884.422; 1233.281;  -11.211; 3394.044
884.983; 1154.376;  -10.091; 3166.443
885.544; 1131.516;   -8.461; 3189.802
886.105; 1078.177;  -12.361; 3160.360
886.666; 1002.908;  -14.141; 3093.059
887.227;  971.664;  -11.361; 2941.957
887.788;  983.756;  -11.401; 2974.836
888.349;  941.678;  -13.791; 2721.214
888.910;  851.584;  -13.191; 2696.493
889.471;  752.297;   -9.881; 2560.172
890.032;  680.563;   -9.881; 2558.190
890.593;  677.023;  -10.371; 2567.669
891.153;  678.309;  -13.301; 2460.307
891.714;  619.641;  -11.431; 2372.046
892.275;  572.802;  -11.291; 2309.505
892.835;  557.519;  -11.471; 2382.543
893.396;  545.704;  -11.541; 2295.502
893.956;  541.674;  -11.181; 2162.420
894.517;  529.431;  -11.741; 2125.439
895.077;  485.582;  -11.671; 2086.978
895.638;  437.476;  -11.311; 2126.316
896.198;  417.943;   -9.831; 1838.275
896.758;  417.334;   -8.421; 1892.813
897.319;  410.368;  -12.351; 1792.232
897.879;  391.045;  -13.511; 1762.751
898.439;  366.338;  -12.001; 1661.149
898.999;  348.075;  -10.180; 1781.468
899.559;  335.124;  -12.030; 1703.347
900.119;  327.343;  -15.710; 1537.525
900.679;  307.569;   -8.900; 1638.384
901.239;  281.134;   -8.340; 1527.902
901.799;  266.562;  -13.910; 1456.441
902.359;  257.027;  -13.460; 1357.140
902.919;  251.794;  -11.490; 1331.118
903.479;  248.306;  -12.110; 1317.257
904.038;  241.265;  -11.720; 1262.595
904.598;  227.391;  -13.610; 1152.034
905.158;  215.327;  -11.040; 1240.893
905.717;  210.878;  -10.900; 1233.691
906.277;  205.652;  -15.080; 1217.330
906.836;  202.409;  -13.380; 1222.408
907.396;  199.966;  -10.780; 1193.047
907.955;  193.890;   -8.500; 1182.526
908.515;  185.963;  -12.760; 1099.364
909.074;  181.892;  -11.900; 1092.863
909.633;  179.748;   -8.950; 1069.121
910.192;  176.807;   -8.770; 1196.460
910.752;  172.611;  -12.390; 1029.960
911.311;  169.086;  -13.680; 1009.780
911.870;  164.360;  -12.370;  971.460
912.429;  160.974;  -10.900; 1094.080
912.988;  159.417;  -11.690; 1081.060
913.547;  154.515;  -13.240;  940.380
914.106;  153.796;  -11.990;  999.420
914.665;  154.471;   -9.990;  984.020
915.224;  152.941;  -12.880; 1035.760
915.782;  151.925;  -12.350;  922.560
916.341;  151.435;   -9.110; 1049.840
916.900;  149.318;   -9.270;  925.260
917.458;  146.966;  -13.240;  884.220
918.017;  145.019;  -13.550;  942.600
918.576;  144.601;  -12.320;  904.440
919.134;  145.312;  -11.490;  837.980
919.693;  143.211;  -13.670;  893.060
920.251;  142.539;  -15.470;  876.500
920.809;  141.007;  -11.290;  839.580
921.368;  140.857;  -10.210;  885.360
921.926;  139.929;  -12.140;  842.940
922.484;  138.557;  -13.080;  903.360
923.042;  139.601;  -11.720;  880.340
923.601;  140.317;   -7.480;  998.680
924.159;  138.905;  -11.570;  935.560
924.717;  137.807;  -13.840;  841.080
925.275;  139.447;  -10.640;  903.240
925.833;  138.237;  -11.540;  779.320
926.391;  139.352;  -12.960;  938.380
926.949;  138.520;  -14.130;  857.680
927.506;  139.182;  -11.750;  903.500
928.064;  137.831;  -10.250;  877.580
928.622;  136.612;  -13.030;  880.100
929.180;  137.861;  -13.400;  814.180
929.737;  139.515;  -10.700;  808.540
930.295;  140.500;  -10.070;  928.480
930.853;  140.651;  -11.960;  849.100
931.410;  139.620;  -13.120;  821.120
931.968;  141.098;  -10.770;  940.660
932.525;  142.670;  -10.680;  909.380
933.082;  145.285;  -13.130;  811.440
933.640;  149.220;  -13.210;  925.900
934.197;  151.574;  -11.060;  886.360
934.754;  150.798;   -9.580;  897.780
935.312;  151.886;  -14.000;  863.340
935.869;  154.730;  -10.710; 1012.980
936.426;  152.670;   -9.860;  872.800
936.983;  152.318;   -9.710;  889.020
937.540;  150.504;  -13.990;  838.280
938.097;  150.604;  -14.040;  940.120
938.654;  152.925;  -10.310;  898.860
939.211;  153.973;  -10.560;  952.480
939.768;  152.129;  -13.900;  915.420
940.324;  152.717;  -14.760;  904.200
940.881;  157.526;  -10.370;  878.500
941.438;  164.235;   -8.260; 1021.200
941.995;  164.688;  -12.540;  992.560
942.551;  163.196;  -14.670;  875.620
943.108;  162.486;  -10.450;  937.920
943.664;  163.089;  -10.750;  869.340
944.221;  168.848;  -11.550; 1088.140
944.777;  169.347;  -14.770;  869.680
945.334;  169.629;  -12.820;  884.840
945.890;  167.570;  -10.130;  946.480
946.446;  165.698;  -13.470;  947.020
947.003;  166.473;  -12.120;  964.940
947.559;  165.468;   -9.980; 1063.040
948.115;  162.468;   -9.080; 1026.540
948.671;  159.112;  -10.830;  967.300
949.227;  156.528;  -12.440;  859.560
949.783;  156.930;  -12.910;  858.900
950.339;  159.260;  -10.270;  991.000
950.895;  159.733;  -13.630; 1023.840
951.451;  158.749;  -15.100;  925.280
952.007;  158.647;  -11.330;  998.540
952.563;  156.804;  -10.580;  937.780
953.118;  152.439;  -13.440;  904.940
953.674;  150.238;  -12.710;  935.780
954.230;  151.879;  -10.350;  949.640
954.785;  155.146;   -9.190;  936.640
955.341;  156.339;  -11.200;  998.160
955.897;  152.949;  -16.560;  834.660
956.452;  150.540;  -12.570;  953.840
957.008;  149.081;   -7.970; 1083.640
957.563;  147.970;  -11.940; 1009.540
958.118;  146.830;  -13.450;  877.700
958.674;  146.539;  -12.030;  946.780
959.229;  146.654;   -9.410; 1013.980
959.784;  144.274;  -12.000;  832.400
960.339;  141.718;  -14.780; 1001.280
960.894;  136.313;   -9.860;  963.760
961.449;  130.390;   -9.970;  859.960
962.004;  128.416;  -10.900; 1212.840
962.559;  123.334;  -13.150;  860.140
963.114;  120.781;  -13.740;  742.480
963.669;  123.245;   -9.820;  915.500
964.224;  121.895;  -13.890;  874.340
964.779;  121.523;  -12.600;  828.420
965.334;  122.738;  -10.950; 1017.860
965.888;  121.015;  -11.170;  875.360
966.443;  121.443;  -12.540;  972.380
966.998;  122.301;  -15.780;  819.460
967.552;  120.937;   -9.760;  908.380
968.107;  115.888;   -9.060;  868.300
968.661;  114.584;  -11.950;  922.440
969.216;  113.710;  -12.800;  856.280
969.770;  113.939;  -11.210;  917.200
970.324;  111.580;  -11.610;  923.140
970.879;  108.914;  -11.370;  947.180
971.433;  108.090;  -12.540;  952.720
971.987;  107.764;  -11.320;  895.340
972.541;  106.753;  -10.720;  917.100
973.095;  106.901;   -9.680; 1009.460
973.649;  106.380;  -11.440;  809.480
974.203;  105.912;  -11.210;  829.040
974.757;  106.327;  -10.240;  855.220
975.311;  106.169;  -13.720;  872.600
975.865;  106.547;  -13.770;  881.820
976.419;  105.963;  -11.690;  857.400
976.973;  105.314;   -9.510;  849.620
977.526;  105.133;  -12.620;  949.920
978.080;  101.330;  -12.010;  796.780
978.634;  101.036;  -10.170;  921.320
979.187;   97.853;   -9.020;  905.400
979.741;   96.366;   -9.820; 1018.380
980.294;   92.471;  -14.870;  789.160
980.848;   88.013;  -12.380;  717.220
981.401;   88.795;  -10.350;  816.540
981.955;   87.663;  -13.720;  844.300
982.508;   84.686;  -11.490;  746.340
983.061;   85.570;  -10.000;  915.260
983.615;   84.071;  -11.480;  798.800
984.168;   83.604;  -13.220;  770.080
984.721;   83.597;  -13.960;  880.760
985.274;   81.721;  -10.870;  867.500
985.827;   80.960;   -9.790;  834.220
986.380;   78.363;  -13.120;  721.340
986.933;   79.092;  -12.450;  864.800
987.486;   78.883;  -10.210;  861.920
988.039;   78.551;   -8.430;  863.100
988.591;   75.320;  -10.520;  893.260
989.144;   72.025;  -14.860;  737.260
989.697;   69.778;  -13.080;  758.740
990.250;   69.713;  -10.150;  858.100
990.802;   66.740;  -13.430;  755.860
991.355;   66.516;  -12.750;  974.880
991.907;   64.683;  -12.040;  864.320
992.460;   62.849;  -11.330;  753.760
993.012;   61.530;  -13.610;  749.540
993.565;   60.045;  -13.460;  711.360
994.117;   61.206;   -9.360;  950.780
994.669;   59.791;  -11.300;  701.320
995.221;   58.563;  -13.540;  791.920
995.774;   57.734;  -13.430;  787.580
996.326;   57.036;  -12.520;  740.220
996.878;   57.189;  -10.950;  838.420
997.430;   55.432;  -14.300;  699.860
997.982;   53.158;  -13.760;  750.140
998.534;   53.412;  -11.530;  739.060
999.086;   51.661;  -10.310;  738.220
999.638;   50.745;  -12.530;  661.380
1000.190;   49.728;  -11.840;  699.320
1000.741;   49.718;  -10.260;  742.700
1001.293;   49.584;   -8.860;  686.020
1001.845;   47.841;  -13.700;  676.640
1002.396;   49.055;  -12.100;  743.400
1002.948;   48.919;  -12.760;  737.400
1003.500;   46.772;  -10.380;  723.780
1004.051;   47.575;  -11.900;  907.580
1004.603;   46.015;  -12.250;  791.820
1005.154;   42.494;  -13.210;  608.980
1005.705;   42.453;  -10.950;  723.960
1006.257;   41.871;  -13.880;  707.220
1006.808;   41.351;  -12.840;  685.460
1007.359;   41.052;  -10.570;  763.240
1007.910;   39.320;   -9.620;  646.640
1008.461;   39.117;  -13.630;  732.940
1009.013;   37.882;  -17.200;  588.340
1009.564;   39.614;  -10.200;  793.520
1010.115;   37.486;  -12.570;  597.040
1010.665;   37.469;  -15.150;  602.160
1011.216;   38.165;  -14.480;  667.920
1011.767;   36.665;  -11.340;  697.920
1012.318;   37.408;   -9.780;  736.980
1012.869;   35.767;  -12.380;  679.000
1013.419;   35.157;  -15.560;  603.120
1013.970;   35.349;  -11.010;  666.640
1014.521;   34.085;  -11.610;  620.620
1015.071;   35.469;  -13.450;  670.380
1015.622;   34.211;  -13.870;  635.460
1016.172;   34.358;  -11.610;  596.820
1016.723;   33.468;  -12.120;  614.380
1017.273;   33.506;  -13.620;  604.160
1017.823;   33.542;  -14.140;  650.340
1018.374;   33.098;  -12.800;  611.760
1018.924;   33.523;  -12.340;  716.880
1019.474;   32.769;  -11.410;  718.880
1020.024;   31.393;  -14.770;  657.580
1020.574;   33.026;   -9.780;  726.160
1021.124;   33.158;   -8.560;  673.580
1021.674;   31.394;  -15.190;  559.120
1022.224;   32.447;  -13.530;  708.940
1022.774;   31.661;  -13.280;  668.820
1023.324;   32.711;  -10.690;  753.520
1023.874;   34.307;  -10.240;  875.760
1024.423;   30.923;  -12.540;  613.700
1024.973;   30.336;  -10.010;  610.760
1025.523;   29.852;  -10.550;  620.960
1026.072;   30.433;  -13.560;  606.420
1026.622;   28.596;  -15.120;  675.740
1027.172;   29.718;  -11.260;  715.660
1027.721;   28.954;  -11.410;  601.220
1028.270;   29.837;  -13.530;  663.400
1028.820;   29.493;  -13.680;  638.080
1029.369;   28.237;  -13.520;  612.700
1029.918;   29.382;  -10.980;  649.840
1030.468;   29.042;  -13.530;  564.780
1031.017;   28.703;  -13.170;  634.800
1031.566;   27.653;  -12.200;  608.900
1032.115;   28.805;   -9.960;  694.500
1032.664;   26.997;  -13.210;  596.480
1033.213;   27.869;  -12.500;  735.420
1033.762;   27.501;  -11.910;  635.620
1034.311;   27.297;   -9.640;  677.220
1034.860;   27.317;  -13.310;  691.000
1035.408;   27.209;  -11.830;  722.720
1035.957;   27.942;  -12.000;  719.540
1036.506;   24.916;  -11.690;  530.800
1037.055;   27.991;  -10.990;  844.320
1037.603;   26.533;  -15.120;  664.000
1038.152;   24.028;  -12.450;  534.760
1038.700;   25.410;  -10.560;  585.740
1039.249;   25.204;  -11.080;  681.220
1039.797;   25.263;  -12.540;  633.360
1040.345;   25.111;  -11.920;  705.420
1040.894;   25.069;  -11.410;  625.300
1041.442;   25.281;  -14.320;  632.200
1041.990;   24.389;  -16.240;  559.160
1042.538;   23.861;  -11.680;  536.180
1043.087;   23.892;  -10.760;  570.860
1043.635;   25.263;  -11.850;  670.500
1044.183;   23.679;  -15.480;  586.400
1044.731;   23.486;  -11.770;  576.000
1045.279;   24.548;  -13.090;  674.920
1045.827;   26.034;  -12.440;  892.400
1046.374;   22.114;  -13.840;  515.420
1046.922;   21.846;  -13.220;  590.580
1047.470;   24.308;  -10.230;  691.300
1048.018;   23.189;  -14.590;  647.960
1048.565;   23.913;  -12.050;  708.600
1049.113;   22.306;  -11.650;  557.000
1049.660;   22.257;  -10.510;  629.660
1050.208;   22.852;  -13.310;  675.640
1050.755;   21.391;  -15.900;  606.580
1051.303;   23.031;  -11.430;  686.820
1051.850;   22.021;   -8.480;  635.120
1052.397;   20.163;  -15.010;  473.960
1052.945;   20.515;  -13.960;  617.760
1053.492;   21.826;  -13.150;  741.840
1054.039;   21.930;   -9.630;  720.180
1054.586;   21.268;  -13.680;  557.240
1055.133;   21.685;  -14.570;  693.140
1055.680;   21.410;  -13.820;  646.620
1056.227;   19.858;  -11.730;  542.780
1056.774;   22.336;  -12.480;  794.980
1057.321;   19.739;  -13.930;  523.260
1057.868;   20.731;  -11.690;  651.320
1058.415;   20.078;   -9.520;  651.980
1058.961;   20.670;  -13.160;  678.940
1059.508;   20.090;  -12.920;  643.820
1060.055;   19.495;  -11.920;  581.780
1060.601;   20.891;  -11.500;  624.300
1061.148;   19.902;  -14.330;  616.820
1061.694;   18.468;  -16.870;  592.580
1062.241;   19.475;  -10.330;  596.320
1062.787;   19.587;  -10.620;  663.140
1063.334;   21.074;  -10.110;  808.560
1063.880;   18.891;  -13.400;  668.360
1064.426;   18.778;  -10.680;  706.820
1064.972;   18.014;   -9.920;  601.340
1065.518;   17.381;  -10.980;  566.640
1066.065;   18.585;  -14.890;  624.460
1066.611;   17.941;  -12.870;  598.800
1067.157;   18.685;  -12.950;  641.860
1067.703;   17.884;  -13.540;  668.480
1068.249;   17.906;  -13.540;  605.220
1068.794;   17.203;  -12.600;  626.880
1069.340;   17.117;  -10.620;  578.960
1069.886;   17.353;  -12.830;  590.700
1070.432;   16.272;  -14.870;  541.720
1070.977;   16.343;  -11.980;  601.080
1071.523;   17.015;   -8.200;  573.060
1072.068;   16.725;  -12.330;  582.000
1072.614;   16.281;  -16.370;  527.760
1073.160;   17.486;  -11.100;  687.040
1073.705;   15.739;  -10.480;  572.520
1074.250;   16.360;  -14.520;  559.900
1074.796;   16.809;  -11.460;  655.160
1075.341;   16.910;  -11.950;  664.100
1075.886;   16.216;  -11.460;  594.240
1076.431;   15.855;  -13.770;  649.880
1076.976;   16.214;  -12.680;  639.220
1077.521;   15.246;  -13.170;  583.080
1078.067;   15.101;  -10.860;  579.400
1078.612;   14.793;  -13.920;  661.620
1079.156;   15.008;  -13.880;  601.540
1079.701;   15.135;  -13.120;  693.260
1080.246;   16.321;   -9.940;  696.300
1080.791;   14.860;  -14.740;  625.020
1081.336;   15.115;  -13.750;  659.320
1081.880;   14.865;  -13.400;  649.680
1082.425;   13.883;  -12.220;  573.480
1082.970;   15.900;  -11.610;  717.040
1083.514;   13.560;  -13.580;  597.000
1084.059;   13.837;  -12.810;  586.720
1084.603;   13.778;  -12.320;  565.840
1085.147;   14.265;  -13.190;  645.220
1085.692;   14.602;  -12.480;  716.800
1086.236;   12.589;  -13.020;  503.140
1086.780;   15.251;   -9.190;  751.440
1087.325;   13.615;  -12.480;  654.620
1087.869;   13.890;  -12.450;  610.700
1088.413;   14.324;  -12.240;  705.040
1088.957;   12.266;   -9.020;  543.400
1089.501;   14.110;  -10.320;  766.640
1090.045;   13.540;  -12.720;  726.480
1090.589;   11.103;  -13.690;  569.920
1091.133;   12.840;  -10.020;  673.340
1091.676;   13.086;  -12.330;  591.940
1092.220;   11.914;  -14.970;  600.920
1092.764;   12.850;  -12.430;  706.960
1093.307;   12.554;   -9.800;  673.780
1093.851;   12.186;  -14.970;  556.540
1094.395;   12.123;  -15.310;  683.140
1094.938;   12.201;  -10.370;  632.520
1095.482;   11.339;  -11.050;  559.800
1096.025;   12.850;  -11.840;  710.880
1096.568;   12.222;  -12.840;  779.280
1097.112;   10.069;  -14.700;  508.180
1097.655;   12.021;   -8.720;  603.000
1098.198;    9.679;  -13.610;  600.180
1098.741;   10.142;  -13.350;  612.860
1099.285;   11.033;  -11.230;  657.300
1099.828;   10.149;  -11.840;  439.400
1100.371;   10.875;  -10.840;  608.160
1100.914;   11.061;  -14.190;  682.660
1101.457;   10.620;  -11.240;  679.900
1101.999;    9.430;  -11.270;  584.680
1102.542;    9.995;  -11.480;  641.440
1103.085;    9.624;  -11.750;  658.500
1103.628;   10.104;  -11.400;  762.060
1104.170;    9.945;  -10.490;  588.280
1104.713;   10.908;  -10.600;  646.700
1105.256;    9.252;  -14.360;  557.440
1105.798;    8.122;  -13.210;  499.980
1106.341;   11.481;  -10.270;  728.900
1106.883;    9.311;  -12.200;  521.340
1107.425;    9.187;  -13.110;  668.180
1107.968;    9.219;  -12.840;  612.380
1108.510;    9.567;   -6.480;  684.960
1109.052;    8.248;  -13.940;  612.620
1109.594;    8.225;  -13.690;  554.440
1110.136;    9.009;  -11.880;  643.220
1110.679;    7.715;   -9.500;  633.080
1111.221;    9.236;  -14.160;  604.460
1111.763;    8.084;  -13.980;  559.220
1112.304;    8.049;  -13.880;  547.140
1112.846;    8.994;  -12.210;  666.240
1113.388;   11.455;  -11.390;  942.180
1113.930;    7.913;  -14.540;  694.200
1114.472;    8.086;  -12.640;  606.540
1115.013;    6.652;  -11.620;  551.280
1115.555;    7.422;  -13.640;  587.100
1116.097;    6.938;  -15.380;  579.480
1116.638;    7.388;  -12.640;  684.600
1117.180;    8.124;   -9.850;  667.740
1117.721;    7.227;  -13.690;  568.580
1118.262;    7.851;  -12.680;  677.960
1118.804;    8.221;  -12.530;  637.340
1119.345;    7.329;  -11.690;  578.400
1119.886;    8.132;  -13.380;  704.040
1120.427;    6.110;  -14.070;  589.020
1120.969;    6.181;  -13.500;  597.920
1121.510;    5.500;  -11.480;  563.060
1122.051;    7.652;  -12.830;  723.580
1122.592;    5.751;  -14.290;  655.420
1123.133;    5.263;  -12.400;  547.940
1123.673;    7.513;  -10.130;  706.480
1124.214;    5.632;  -12.930;  612.460
1124.755;    6.914;  -14.380;  639.460
1125.296;    6.555;  -14.000;  627.320
1125.836;    6.836;  -10.070;  691.500
1126.377;    6.188;  -12.640;  599.660
1126.918;    5.919;  -12.960;  614.980
1127.458;    5.335;  -13.350;  622.220
1127.999;    6.328;  -10.750;  656.980
1128.539;    5.418;  -12.350;  694.240
1129.079;    4.958;  -14.860;  632.720
1129.620;    4.787;  -13.840;  558.100
1130.160;    4.279;  -12.330;  539.480
1130.700;    5.479;  -14.530;  640.840
1131.240;    5.790;  -12.530;  643.700
1131.781;    4.511;  -14.450;  619.680
1132.321;    4.759;   -9.790;  599.120
1132.861;    4.044;  -14.860;  564.200
1133.401;    3.802;  -14.290;  593.940
1133.941;    5.000;  -11.750;  626.280
1134.481;    3.914;   -9.920;  597.580
1135.020;    3.795;  -12.290;  609.160
1135.560;    4.035;  -11.650;  674.940
1136.100;    2.837;  -16.270;  501.160
1136.640;    3.135;  -10.890;  510.480
1137.179;    3.626;  -14.180;  537.960
1137.719;    3.668;  -16.250;  605.400
1138.258;    3.226;  -14.230;  587.360
1138.798;    4.092;   -9.090;  663.780
1139.337;    3.263;  -15.130;  482.840
1139.877;    3.280;  -13.680;  642.360
1140.416;    5.819;  -11.320;  878.060
1140.955;    2.951;  -10.860;  535.380
1141.494;    3.365;  -12.920;  669.280
1142.034;    2.219;  -13.930;  583.520
1142.573;    3.565;  -11.440;  646.280
1143.112;    2.373;  -12.000;  553.480
1143.651;    3.088;  -13.670;  536.480
1144.190;    3.638;  -12.730;  691.640
1144.729;    2.812;  -14.560;  607.420
1145.267;    3.015;  -11.830;  584.900
1145.806;    3.735;  -12.230;  637.040
1146.345;    1.868;  -14.130;  635.020
1146.884;    2.167;  -11.590;  622.500
1147.422;    2.683;  -12.550;  533.060
1147.961;    3.851;  -11.180;  708.460
1148.500;    2.408;  -11.510;  669.720
1149.038;    2.825;  -11.640;  632.500
1149.577;    2.667;  -10.130;  698.640
1150.115;    1.069;  -13.970;  452.280
1150.653;    2.120;  -14.520;  607.340
1151.192;    2.005;  -12.810;  552.920
1151.730;    1.766;   -9.100;  652.560
1152.268;    1.587;  -12.220;  589.520
1152.806;    1.206;  -14.140;  571.180
1153.344;    0.229;  -12.350;  577.640
1153.882;    1.444;   -8.980;  600.060
1154.421;   -0.198;  -15.190;  470.620
1154.958;    0.820;  -15.210;  595.240
1155.496;    2.159;  -12.850;  645.280
1156.034;    1.747;   -9.940;  721.880
1156.572;    2.105;  -13.570;  667.060
1157.110;   -0.383;  -14.590;  473.940
1157.647;    1.227;  -13.030;  676.960
1158.185;    0.530;  -12.140;  564.320
1158.723;    0.306;  -14.390;  509.200
1159.260;    1.062;  -14.090;  701.700
1159.798;    1.449;  -11.920;  658.160
1160.335;   -0.197;  -11.110;  631.820

