gmr_left
Integration time [ms]: 238.412
Averaging Nr. [scans]: 40
Smoothing Nr. [pixels]: 0
Data measured with spectrometer [name]: 7414430SP
Wave   ;Sample   ;Dark     ;Reference
[nm]   ;[counts] ;[counts] ;[counts] 

288.544;  500.745;  332.182;    6.613
289.143;  438.753;  271.583;   14.216
289.742;  531.873;  358.283;   11.816
290.341;  498.755;  338.184;   -4.936
290.940;  472.233;  301.359;    0.852
291.538;  553.540;  386.909;    1.792
292.137;  507.336;  339.183;    6.262
292.736;  610.155;  448.984;    8.164
293.335;  475.198;  303.109;   -6.418
293.934;  497.058;  331.034;   -2.904
294.532;  651.003;  479.809;   -5.162
295.131;  525.549;  376.861;  -10.283
295.730;  511.714;  361.060;  -16.141
296.328;  500.559;  345.711;  -14.740
296.927;  496.033;  342.761;   -8.768
297.525;  492.279;  342.961;  -15.255
298.124;  417.290;  272.787;  -22.063
298.722;  479.228;  336.861;  -14.796
299.321;  455.817;  303.761;  -10.466
299.919;  478.661;  329.786;  -10.979
300.518;  440.755;  293.262;  -12.077
301.116;  442.277;  297.361;  -13.509
301.715;  461.718;  315.411;  -11.939
302.313;  444.143;  306.661;  -15.424
302.911;  463.614;  329.612;  -19.833
303.509;  575.903;  439.211;   -3.567
304.108;  477.803;  342.436;   -9.553
304.706;  505.438;  367.686;   -8.582
305.304;  500.715;  366.712;  -12.348
305.902;  496.698;  359.286;  -14.411
306.500;  458.677;  325.311;   -7.194
307.098;  470.621;  342.011;   -9.322
307.696;  486.215;  361.986;  -19.192
308.294;  458.881;  331.561;   -9.736
308.892;  481.678;  349.686;  -15.482
309.490;  443.046;  314.911;  -14.107
310.088;  487.660;  372.612;  -15.862
310.686;  502.912;  389.461;  -10.781
311.284;  477.311;  356.336;  -14.878
311.882;  448.550;  336.862;   -9.948
312.480;  432.464;  321.162;  -15.503
313.078;  496.165;  388.612;  -17.262
313.675;  428.227;  320.411;   -3.694
314.273;  484.314;  384.962;  -18.246
314.871;  366.519;  268.837;  -15.190
315.468;  400.389;  299.362;  -12.633
316.066;  430.397;  321.511;   -5.765
316.664;  403.438;  302.362;  -14.317
317.261;  539.175;  448.487;   -8.677
317.859;  466.534;  378.637;  -11.804
318.456;  498.781;  411.961;   -3.107
319.054;  467.500;  378.962;   -3.062
319.651;  453.885;  371.737;   -6.706
320.249;  482.260;  398.562;   -5.206
320.846;  424.216;  345.061;   -4.679
321.443;  492.650;  418.661;   -7.920
322.041;  480.450;  400.187;  -14.105
322.638;  410.195;  339.787;   -6.263
323.235;  389.418;  314.961;   -7.424
323.833;  439.052;  363.186;  -14.765
324.430;  354.891;  280.436;  -10.550
325.027;  515.567;  440.611;   -9.951
325.624;  382.894;  298.761;   -3.712
326.221;  406.723;  318.936;   -9.368
326.818;  482.992;  400.711;   -5.637
327.415;  439.459;  346.260;   -6.699
328.012;  401.145;  319.885;   -5.713
328.609;  425.734;  339.260;   -9.983
329.206;  456.878;  366.561;   -7.154
329.803;  429.598;  339.636;   -1.682
330.400;  414.134;  313.485;   -2.741
330.997;  473.958;  377.636;   -4.339
331.594;  457.075;  363.311;  -10.278
332.191;  424.763;  324.736;   -6.967
332.787;  491.507;  386.261;   -0.480
333.384;  438.854;  342.112;  -10.333
333.981;  464.826;  375.163;  -19.900
334.578;  403.287;  310.587;  -19.816
335.174;  418.852;  319.387;  -15.844
335.771;  472.130;  384.438;  -12.670
336.367;  409.674;  320.113;  -21.124
336.964;  455.190;  369.313;  -18.226
337.561;  421.804;  329.313;  -13.311
338.157;  516.516;  432.764;  -19.006
338.754;  452.955;  371.839;  -19.418
339.350;  406.646;  324.864;  -29.433
339.946;  435.783;  348.714;  -16.622
340.543;  473.509;  399.465;  -16.744
341.139;  402.062;  331.215;  -21.841
341.735;  437.312;  363.566;  -25.012
342.332;  390.672;  316.015;  -19.156
342.928;  451.978;  376.415;  -20.443
343.524;  429.981;  357.341;  -14.397
344.120;  417.871;  353.591;  -20.654
344.716;  405.924;  332.640;   -5.730
345.313;  447.763;  378.515;  -10.929
345.909;  343.943;  276.840;  -19.843
346.505;  415.494;  349.565;  -19.645
347.101;  468.075;  394.639;   -9.618
347.697;  443.391;  377.889;  -10.305
348.293;  340.615;  275.590;  -23.189
348.889;  418.670;  352.389;  -18.418
349.485;  377.586;  316.289;  -10.476
350.081;  437.636;  364.839;  -17.320
350.676;  380.740;  319.940;  -21.088
351.272;  452.052;  385.314;  -12.821
351.868;  434.568;  359.189;  -13.165
352.464;  409.272;  339.314;  -12.464
353.059;  357.971;  297.664;  -22.547
353.655;  443.692;  371.639;   -9.379
354.251;  426.939;  356.313;   -8.266
354.846;  414.871;  350.714;  -17.705
355.442;  420.590;  355.915;   -9.317
356.038;  419.532;  352.164;  -11.049
356.633;  406.217;  340.389;  -10.006
357.229;  403.526;  340.089;  -13.120
357.824;  393.770;  327.589;  -15.647
358.420;  382.256;  310.939;  -19.204
359.015;  388.296;  318.914;  -12.263
359.610;  431.257;  365.289;  -16.421
360.206;  335.174;  270.590;  -20.074
360.801;  361.361;  291.064;  -13.277
361.396;  413.008;  343.139;   -5.822
361.992;  379.620;  306.264;  -11.247
362.587;  368.269;  308.515;  -21.502
363.182;  389.675;  322.764;   -7.461
363.777;  420.616;  351.864;   -8.719
364.372;  418.001;  358.189;  -14.590
364.967;  386.554;  321.715;  -15.145
365.563;  459.627;  388.039;   -7.192
366.158;  388.536;  320.264;   -5.662
366.753;  366.352;  295.314;   -8.378
367.348;  426.650;  357.064;  -14.990
367.942;  394.516;  327.764;   -6.005
368.537;  427.515;  361.689;  -11.504
369.132;  402.911;  329.614;  -10.576
369.727;  362.359;  298.440;  -12.573
370.322;  335.020;  266.940;  -11.560
370.917;  405.465;  339.490;  -10.388
371.511;  492.216;  427.164;   -9.161
372.106;  445.704;  379.790;  -10.245
372.701;  337.188;  272.315;  -10.158
373.296;  494.436;  427.564;   -4.719
373.890;  370.219;  307.915;  -11.802
374.485;  395.763;  337.115;  -13.500
375.079;  428.670;  362.789;   -6.276
375.674;  474.416;  401.664;   -0.447
376.268;  398.354;  332.240;   -6.916
376.863;  334.086;  276.716;  -14.483
377.457;  382.005;  314.690;   -6.903
378.052;  442.564;  374.315;   -9.844
378.646;  432.684;  370.840;  -12.601
379.240;  417.698;  351.240;  -14.715
379.835;  373.930;  308.715;  -12.331
380.429;  332.109;  266.490;   -9.074
381.023;  453.213;  393.115;   -1.729
381.617;  395.738;  332.440;  -13.714
382.212;  396.005;  334.815;   -7.060
382.806;  440.080;  377.590;   -2.303
383.400;  387.588;  331.115;   -0.815
383.994;  378.478;  329.140;   -4.429
384.588;  405.980;  348.039;   -6.261
385.182;  425.362;  362.014;    0.008
385.776;  413.331;  356.039;   -3.247
386.370;  394.444;  341.465;   -1.030
386.964;  398.740;  342.840;   -1.346
387.558;  344.641;  293.714;   -2.020
388.152;  397.139;  343.690;   -5.345
388.745;  472.130;  419.915;   -2.774
389.339;  440.256;  385.039;    3.510
389.933;  405.737;  347.289;    5.280
390.527;  498.145;  452.139;    2.610
391.120;  343.173;  295.940;   -7.914
391.714;  411.630;  363.840;   -1.903
392.308;  465.741;  405.564;    6.023
392.901;  378.560;  324.365;   -4.103
393.495;  346.649;  301.415;    3.284
394.089;  453.309;  399.790;    8.655
394.682;  409.064;  361.290;    2.312
395.275;  422.349;  373.240;   -7.402
395.869;  389.629;  342.490;   -1.072
396.462;  354.085;  315.340;    6.454
397.056;  452.381;  403.889;    8.494
397.649;  428.414;  381.015;    1.599
398.242;  411.985;  373.064;    3.153
398.836;  449.596;  402.914;   11.395
399.429;  369.691;  324.289;   14.695
400.022;  386.184;  345.590;    3.627
400.615;  470.024;  432.340;    8.383
401.208;  401.711;  354.989;   13.295
401.802;  406.305;  365.940;    6.211
402.395;  402.459;  361.290;    7.227
402.988;  398.818;  362.265;    2.700
403.581;  375.190;  336.689;   11.225
404.174;  397.417;  354.064;   18.922
404.767;  370.920;  339.265;   14.169
405.360;  356.568;  326.690;    8.999
405.953;  436.631;  403.039;   13.138
406.545;  418.127;  377.889;   13.937
407.138;  354.875;  313.990;   10.869
407.731;  355.210;  317.039;   12.768
408.324;  384.538;  343.789;   22.921
408.917;  393.537;  359.814;   15.308
409.509;  429.315;  395.314;   12.239
410.102;  370.454;  340.165;   13.741
410.695;  387.683;  347.989;   20.249
411.287;  350.687;  311.239;   21.793
411.880;  333.982;  302.339;   22.965
412.472;  345.380;  318.389;   15.082
413.065;  361.576;  336.289;   23.423
413.657;  331.488;  298.039;   21.077
414.250;  372.098;  336.714;   12.349
414.842;  389.807;  352.064;   20.423
415.434;  331.443;  296.714;   19.906
416.027;  372.960;  339.988;   26.574
416.619;  410.543;  384.414;   15.705
417.211;  335.923;  309.039;   17.791
417.804;  357.461;  325.263;   30.244
418.396;  353.378;  319.364;   24.177
418.988;  375.634;  348.488;   24.904
419.580;  321.823;  292.489;   20.692
420.172;  313.404;  278.713;   22.275
420.764;  389.091;  355.763;   26.773
421.356;  369.930;  338.413;   25.731
421.948;  385.119;  359.838;   24.876
422.540;  388.947;  355.188;   30.042
423.132;  346.792;  313.387;   32.728
423.724;  318.895;  290.788;   21.317
424.316;  351.441;  323.238;   29.359
424.908;  338.678;  304.287;   28.798
425.500;  370.693;  335.712;   30.512
426.092;  367.353;  336.912;   26.741
426.683;  397.787;  362.463;   27.029
427.275;  366.969;  336.387;   32.611
427.867;  385.854;  351.337;   33.796
428.458;  420.809;  385.937;   34.453
429.050;  388.843;  356.687;   34.255
429.642;  428.649;  391.712;   39.082
430.233;  321.355;  287.987;   41.138
430.825;  420.254;  384.287;   31.581
431.416;  393.388;  366.212;   35.755
432.008;  372.715;  337.812;   40.566
432.599;  373.380;  335.336;   46.322
433.190;  366.488;  333.212;   46.897
433.782;  336.288;  302.337;   41.069
434.373;  508.761;  470.836;   48.778
434.964;  341.971;  307.636;   50.078
435.556;  362.759;  329.587;   52.381
436.147;  430.405;  392.887;   38.251
436.738;  399.210;  360.061;   47.237
437.329;  412.373;  372.511;   61.304
437.920;  378.679;  345.062;   48.611
438.511;  317.279;  279.837;   44.910
439.103;  353.768;  315.036;   62.404
439.694;  390.108;  350.436;   63.075
440.285;  442.793;  400.436;   61.033
440.876;  481.466;  444.436;   57.249
441.466;  327.067;  290.086;   61.306
442.057;  378.185;  331.460;   65.773
442.648;  429.913;  386.736;   65.676
443.239;  353.932;  312.761;   55.963
443.830;  404.379;  361.860;   69.631
444.421;  370.910;  328.660;   69.943
445.011;  395.677;  350.386;   72.791
445.602;  425.762;  379.461;   68.848
446.193;  276.919;  228.810;   80.044
446.783;  365.786;  313.585;   82.599
447.374;  396.208;  357.311;   77.419
447.964;  406.937;  362.536;   72.605
448.555;  475.021;  424.460;   82.041
449.145;  379.105;  330.310;   76.230
449.736;  460.169;  414.985;   75.545
450.326;  412.999;  359.935;   67.945
450.917;  387.107;  333.685;   77.598
451.507;  344.781;  290.635;   68.027
452.097;  437.336;  383.935;   67.771
452.688;  425.036;  368.435;   62.884
453.278;  321.441;  275.160;   65.512
453.868;  457.103;  403.809;   71.796
454.458;  374.271;  318.910;   60.956
455.048;  409.021;  353.535;   62.356
455.639;  327.868;  268.759;   58.782
456.229;  407.349;  346.284;   65.209
456.819;  431.959;  368.959;   61.466
457.409;  441.978;  386.634;   59.967
457.999;  427.710;  361.034;   58.093
458.589;  391.989;  333.359;   59.536
459.179;  418.964;  349.659;   55.994
459.769;  354.088;  298.609;   43.624
460.358;  461.120;  390.959;   46.978
460.948;  400.775;  328.684;   49.821
461.538;  380.280;  310.534;   54.678
462.128;  380.449;  315.259;   49.309
462.717;  407.397;  337.158;   52.774
463.307;  410.618;  332.983;   48.101
463.897;  377.875;  311.684;   45.606
464.486;  483.943;  417.409;   45.010
465.076;  428.391;  353.758;   45.519
465.666;  374.698;  297.008;   50.058
466.255;  457.016;  380.084;   44.463
466.845;  382.030;  313.384;   41.206
467.434;  417.631;  343.333;   44.847
468.023;  380.727;  300.133;   46.760
468.613;  416.389;  335.959;   39.736
469.202;  372.732;  295.883;   46.461
469.791;  429.003;  345.133;   47.944
470.381;  434.329;  347.033;   47.529
470.970;  410.348;  332.058;   43.773
471.559;  425.347;  342.008;   41.646
472.148;  390.594;  303.683;   37.914
472.738;  447.459;  356.482;   48.071
473.327;  364.359;  281.358;   47.871
473.916;  427.768;  344.183;   37.716
474.505;  436.670;  347.732;   40.256
475.094;  468.931;  376.407;   43.269
475.683;  460.360;  365.032;   36.499
476.272;  427.334;  330.607;   44.542
476.861;  410.026;  312.082;   42.297
477.449;  423.534;  321.156;   46.878
478.038;  398.824;  303.132;   35.156
478.627;  412.679;  312.283;   42.514
479.216;  446.492;  339.082;   43.937
479.805;  458.363;  342.281;   51.393
480.393;  586.226;  478.332;   53.239
480.982;  508.620;  400.307;   38.955
481.571;  499.793;  389.631;   45.436
482.159;  408.623;  293.706;   51.007
482.748;  477.587;  366.357;   49.695
483.336;  500.818;  381.181;   48.280
483.925;  452.927;  334.082;   47.166
484.513;  442.130;  315.681;   55.404
485.102;  469.717;  343.207;   54.238
485.690;  590.275;  454.581;   55.748
486.278;  572.485;  440.606;   55.934
486.867;  468.299;  333.306;   57.106
487.455;  528.883;  388.156;   56.979
488.043;  434.513;  294.606;   57.564
488.631;  582.795;  434.606;   57.432
489.220;  534.241;  375.931;   63.646
489.808;  438.049;  280.831;   65.449
490.396;  534.775;  376.381;   61.977
490.984;  489.704;  312.181;   68.834
491.572;  556.160;  372.756;   70.775
492.160;  542.763;  353.331;   67.564
492.748;  516.668;  321.856;   66.808
493.336;  601.580;  385.406;   79.747
493.924;  558.206;  328.880;   88.688
494.512;  621.474;  377.506;   84.120
495.100;  638.698;  368.731;   86.250
495.687;  697.101;  385.755;  103.074
496.275;  665.531;  306.906;  108.717
496.863;  731.769;  320.381;  107.035
497.451;  808.883;  318.181;  117.993
498.038;  902.407;  337.580;  120.116
498.626;  986.371;  323.705;  143.059
499.214; 1122.609;  350.431;  153.434
499.801; 1250.594;  340.156;  175.121
500.389; 1355.906;  273.880;  185.617
500.976; 1600.836;  353.806;  215.789
501.564; 1843.889;  344.506;  240.321
502.151; 1956.318;  238.081;  267.007
502.738; 2213.420;  318.731;  317.961
503.326; 2561.487;  325.180;  361.216
503.913; 2924.450;  343.006;  401.433
504.500; 3257.134;  355.181;  446.492
505.088; 3567.044;  301.106;  512.063
505.675; 4037.452;  330.580;  586.387
506.262; 4529.533;  325.506;  671.021
506.849; 5088.965;  335.756;  759.062
507.436; 5727.621;  380.255;  849.788
508.023; 6136.376;  334.181;  944.288
508.610; 6591.100;  374.231; 1020.690
509.197; 7066.327;  357.257; 1089.052
509.784; 7648.545;  331.206; 1133.776
510.371; 8335.522;  273.280; 1165.501
510.958; 9278.729;  344.181; 1251.735
511.545; 9368.965;  392.581; 1350.248
512.132; 9347.151;  338.105; 1525.945
512.719; 9812.325;  294.131; 1834.933
513.305;10711.770;  302.831; 1965.349
513.892;11861.968;  390.881; 1963.265
514.479;12624.491;  344.106; 2046.446
515.066;13140.700;  381.056; 2252.803
515.652;13673.960;  342.181; 2567.247
516.239;14403.100;  367.031; 2636.919
516.825;14912.175;  280.781; 2482.304
517.412;15816.761;  440.656; 2427.031
517.998;16295.074;  326.831; 2540.463
518.585;16696.943;  321.031; 2609.007
519.171;17618.406;  344.230; 2842.088
519.758;19414.275;  289.856; 3090.703
520.344;20667.494;  375.481; 3176.076
520.930;21269.172;  299.831; 3295.037
521.516;22154.201;  355.580; 3500.959
522.103;22330.555;  395.056; 3736.704
522.689;23146.094;  322.431; 3971.022
523.275;24256.213;  381.706; 4213.778
523.861;24487.045;  331.131; 4190.361
524.447;24239.117;  380.380; 4070.602
525.033;24762.064;  381.681; 4088.892
525.619;24791.389;  303.906; 4416.851
526.205;25523.809;  288.856; 4836.835
526.791;26861.365;  321.731; 4885.903
527.377;27684.258;  315.431; 4544.907
527.963;27999.543;  343.282; 4321.995
528.549;27358.492;  352.506; 4473.979
529.135;26440.414;  304.081; 4788.663
529.721;25661.689;  338.481; 4888.577
530.306;26326.443;  466.581; 4775.779
530.892;27494.889;  318.656; 4793.906
531.478;28591.615;  312.706; 4956.948
532.063;30461.998;  298.081; 5136.936
532.649;31988.832;  423.182; 5336.867
533.235;33336.293;  301.356; 5748.092
533.820;34526.977;  387.506; 6456.875
534.406;34231.688;  323.132; 6590.167
534.991;33547.422;  297.731; 6179.622
535.576;32640.004;  323.756; 6098.691
536.162;32617.119;  473.231; 6441.234
536.747;32965.652;  284.632; 6816.224
537.333;34188.840;  300.207; 6889.752
537.918;33907.043;  334.732; 7154.280
538.503;34512.750;  313.831; 7150.848
539.088;34872.816;  347.831; 7253.308
539.673;33991.512;  326.957; 7625.180
540.259;33505.262;  310.081; 8226.793
540.844;35059.891;  268.181; 8745.092
541.429;35308.160;  415.182; 8762.553
542.014;35282.176;  283.257; 8871.497
542.599;36277.668;  349.206; 8886.008
543.184;37582.262;  292.582; 9079.139
543.769;37145.945;  299.932; 9076.182
544.354;36013.465;  316.832; 8354.081
544.938;34460.766;  346.957; 8236.809
545.523;33650.438;  408.931; 8222.179
546.108;35091.313;  333.957; 8114.082
546.693;35167.426;  329.582; 8535.912
547.278;34370.238;  329.756; 9238.322
547.862;32662.154;  335.231; 9034.405
548.447;31665.740;  375.007; 7795.011
549.031;31293.500;  323.407; 7485.099
549.616;31190.912;  345.556; 7626.308
550.201;30823.371;  317.957; 7627.909
550.785;31391.346;  360.657; 7859.125
551.370;32302.506;  285.157; 7990.654
551.954;33576.008;  376.732; 8196.468
552.538;35779.480;  363.782; 7959.495
553.123;36887.438;  305.957; 7964.826
553.707;37251.230;  321.858; 8515.957
554.291;37166.340;  389.882; 8724.024
554.876;37283.305;  368.932; 8524.211
555.460;37186.121;  314.232; 8704.456
556.044;37407.289;  312.058; 9141.473
556.628;36816.211;  331.082; 9250.197
557.212;36300.211;  381.732; 9444.237
557.796;35215.895;  322.682; 9379.783
558.380;36580.289;  349.858; 9353.658
558.964;36340.316;  337.832; 9210.310
559.548;35056.352;  285.732; 8475.153
560.132;35217.508;  317.732; 7954.084
560.716;36525.020;  287.633; 7489.529
561.300;38178.906;  293.532; 7211.952
561.884;39673.004;  356.157; 7141.313
562.467;38835.660;  357.083; 7155.386
563.051;38523.859;  332.158; 7323.158
563.635;38646.504;  321.708; 7709.114
564.219;38032.977;  329.757; 7678.855
564.802;37703.813;  354.833; 7376.187
565.386;37388.582;  337.983; 7054.372
565.969;37175.750;  393.007; 6589.196
566.553;36487.285;  431.132; 6279.371
567.136;35546.680;  387.258; 5967.930
567.720;35446.086;  333.033; 5660.703
568.303;34954.637;  350.983; 5648.615
568.887;35562.777;  336.083; 5618.443
569.470;35565.594;  347.808; 5411.875
570.053;36067.469;  362.008; 5149.274
570.637;36349.035;  311.582; 5122.798
571.220;36963.320;  370.182; 4957.369
571.803;36288.773;  431.408; 4933.018
572.386;35962.813;  321.158; 4840.973
572.969;36520.457;  324.383; 4592.886
573.552;37487.793;  327.358; 4348.387
574.135;34904.590;  301.458; 4002.290
574.718;29803.242;  306.533; 3654.773
575.301;29185.537;  305.583; 3502.288
575.884;28567.832;  304.633; 3349.803
576.467;30115.438;  382.608; 3191.403
577.050;31769.313;  344.783; 3062.418
577.633;33305.223;  419.133; 3214.200
578.216;34092.578;  323.983; 3284.889
578.799;33958.520;  325.158; 3189.777
579.381;34950.016;  437.358; 3064.502
579.964;35556.504;  306.433; 2888.357
580.547;35392.258;  343.283; 2905.760
581.129;35635.180;  402.609; 2966.849
581.712;37320.387;  353.784; 2887.292
582.294;38231.863;  340.783; 2771.631
582.877;38211.109;  440.133; 2711.602
583.459;37579.852;  337.109; 2577.049
584.042;36385.012;  331.484; 2454.707
584.624;36128.000;  309.609; 2305.893
585.206;35258.207;  266.683; 2189.546
585.789;33134.207;  312.459; 2112.577
586.371;31359.895;  356.459; 2153.065
586.953;31577.596;  368.459; 2197.806
587.536;32763.602;  400.958; 2105.489
588.118;32922.117;  328.560; 1963.911
588.700;33586.035;  402.784; 1843.179
589.282;33739.633;  356.533; 1813.834
589.864;33383.672;  339.384; 1777.620
590.446;33746.703;  270.159; 1733.780
591.028;34438.984;  335.084; 1676.008
591.610;35461.566;  269.934; 1631.649
592.192;34580.012;  343.883; 1632.362
592.774;32646.619;  296.959; 1569.507
593.356;30948.457;  308.434; 1524.539
593.937;31026.420;  305.209; 1569.720
594.519;31561.951;  385.159; 1569.049
595.101;32478.389;  280.159; 1545.452
595.683;32834.219;  312.384; 1607.568
596.264;33215.711;  329.084; 1615.506
596.846;33349.055;  316.159; 1667.622
597.427;34041.996;  311.585; 1670.469
598.009;35239.656;  306.135; 1640.312
598.591;33542.898;  368.334; 1541.022
599.172;32674.238;  329.159; 1598.665
599.753;33453.582;  287.835; 1619.068
600.335;31906.867;  399.860; 1548.612
600.916;29681.088;  330.059; 1607.510
601.498;30631.482;  352.434; 1745.181
602.079;32088.902;  332.735; 1801.011
602.660;32605.973;  331.085; 1834.640
603.241;32119.984;  266.484; 1787.351
603.823;32111.158;  312.009; 1684.266
604.404;31330.537;  294.460; 1654.241
604.985;31381.537;  311.435; 1758.741
605.566;30342.850;  373.284; 1697.679
606.147;29602.176;  326.810; 1526.728
606.728;31081.580;  287.885; 1484.086
607.309;32102.932;  312.260; 1421.070
607.890;32123.412;  320.084; 1369.867
608.471;32176.332;  305.985; 1277.826
609.051;31258.939;  345.735; 1180.416
609.632;31432.715;  298.910; 1075.816
610.213;32061.342;  327.260; 1053.313
610.794;31415.621;  319.860;  979.442
611.374;30725.016;  353.585;  917.414
611.955;29978.869;  279.385;  819.987
612.536;30260.537;  350.760;  752.627
613.116;31577.781;  314.485;  690.799
613.697;32186.840;  306.310;  674.974
614.277;32006.629;  296.261;  663.846
614.858;29858.367;  315.435;  665.898
615.438;28151.246;  331.435;  660.712
616.019;27258.678;  396.911;  632.732
616.599;27204.514;  257.935;  551.759
617.179;28151.635;  288.785;  512.871
617.760;29311.256;  453.610;  473.655
618.340;29311.268;  327.786;  440.004
618.920;30159.379;  411.910;  429.731
619.500;29705.912;  317.361;  441.361
620.080;30165.754;  299.235;  425.202
620.660;30438.291;  298.436;  408.164
621.241;30316.707;  315.461;  387.161
621.821;30892.738;  335.836;  378.017
622.401;30398.885;  382.235;  379.188
622.980;29952.758;  283.836;  350.019
623.560;28966.059;  316.836;  336.446
624.140;26566.600;  340.235;  336.473
624.720;25362.549;  346.736;  334.974
625.300;24695.135;  297.610;  325.717
625.880;26142.152;  329.611;  308.519
626.459;28483.799;  329.936;  307.117
627.039;30779.252;  273.711;  290.890
627.619;33397.961;  432.161;  286.635
628.198;33038.000;  382.786;  282.535
628.778;30046.898;  359.011;  285.474
629.357;28290.619;  289.461;  284.103
629.937;28564.697;  314.761;  292.178
630.516;30381.182;  404.261;  290.749
631.096;30881.354;  305.311;  285.489
631.675;31247.770;  395.186;  287.022
632.254;31608.875;  305.012;  286.038
632.834;30844.930;  326.362;  276.451
633.413;29302.863;  400.736;  279.447
633.992;29018.070;  375.962;  264.508
634.571;29252.260;  361.012;  271.010
635.151;29327.686;  293.462;  277.338
635.730;29267.457;  321.436;  289.305
636.309;27765.766;  358.911;  285.306
636.888;26691.859;  354.262;  254.051
637.467;26279.254;  269.612;  230.324
638.046;27022.492;  400.486;  253.349
638.625;29135.199;  386.537;  246.866
639.204;29573.725;  345.112;  240.825
639.782;28713.193;  333.362;  261.970
640.361;28090.283;  391.961;  277.780
640.940;27066.510;  308.461;  270.101
641.519;26646.537;  360.011;  248.622
642.097;26570.789;  353.961;  239.843
642.676;27008.541;  338.986;  244.264
643.255;28700.418;  319.311;  234.985
643.833;30540.521;  360.561;  244.406
644.412;31144.947;  314.386;  244.927
644.990;29221.375;  338.211;  249.948
645.569;28430.928;  355.861;  249.569
646.147;28111.979;  372.611;  243.290
646.726;29646.482;  335.211;  249.511
647.304;30933.484;  321.061;  228.032
647.882;30331.910;  270.686;  214.552
648.461;28571.363;  342.686;  214.973
649.039;26874.791;  366.261;  223.394
649.617;25921.768;  357.161;  261.415
650.195;25988.645;  346.036;  298.736
650.773;27325.521;  314.336;  309.557
651.352;26804.799;  258.236;  297.978
651.930;24293.352;  257.711;  289.399
652.508;24435.479;  366.686;  285.620
653.086;25128.230;  350.436;  272.241
653.663;26611.982;  306.061;  265.062
654.241;28470.885;  282.711;  286.083
654.819;29363.113;  288.861;  286.404
655.397;29661.215;  297.536;  291.825
655.975;29585.492;  319.561;  299.145
656.553;29525.369;  400.861;  288.866
657.130;30165.021;  294.961;  304.087
657.708;29654.148;  344.761;  302.908
658.286;28916.375;  337.811;  294.629
658.863;28628.578;  338.536;  293.350
659.441;29260.029;  343.611;  318.671
660.018;29489.758;  327.111;  333.692
660.596;29240.209;  265.536;  335.013
661.173;29461.287;  309.686;  371.534
661.750;29193.289;  294.510;  365.155
662.328;28884.217;  357.635;  349.976
662.905;27685.018;  312.110;  332.997
663.482;26764.145;  325.085;  321.717
664.060;26420.672;  303.885;  314.438
664.637;27638.674;  362.985;  306.259
665.214;28587.652;  343.760;  314.580
665.791;28548.754;  318.410;  334.501
666.368;28369.781;  312.610;  329.222
666.945;27623.834;  360.485;  342.143
667.522;27101.336;  298.035;  370.964
668.099;26573.563;  321.685;  396.885
668.676;27416.715;  327.960;  391.706
669.253;27884.043;  403.010;  369.627
669.830;28161.420;  384.935;  360.348
670.407;27895.947;  321.710;  344.769
670.984;27742.174;  324.710;  322.890
671.560;27053.502;  366.585;  316.910
672.137;25910.703;  316.510;  322.531
672.714;25242.980;  348.160;  318.552
673.290;25537.258;  339.310;  324.473
673.867;25217.760;  305.735;  340.594
674.443;24616.361;  280.660;  319.515
675.020;25179.164;  334.360;  286.336
675.596;26879.266;  325.335;  247.557
676.173;27415.869;  284.685;  227.778
676.749;27848.945;  241.110;  224.399
677.326;27306.873;  276.485;  230.520
677.902;26604.701;  299.535;  241.841
678.478;26968.352;  287.935;  239.762
679.054;26631.754;  496.185;  248.583
679.631;25606.807;  350.035;  237.503
680.207;25983.334;  420.585;  245.924
680.783;25683.111;  257.685;  224.845
681.359;25341.988;  328.635;  209.666
681.935;25112.590;  333.235;  191.687
682.511;25285.818;  334.310;  210.008
683.087;25421.121;  353.460;  213.329
683.663;25714.047;  316.860;  216.850
684.239;25343.625;  282.010;  229.471
684.815;25495.377;  371.410;  248.792
685.390;25698.703;  420.910;  231.813
685.966;25313.480;  330.384;  221.234
686.542;25070.258;  293.884;  214.255
687.118;24471.410;  337.609;  212.276
687.693;24536.063;  354.159;  233.096
688.269;24848.789;  319.759;  246.917
688.844;24130.367;  348.934;  236.938
689.420;23620.818;  332.309;  242.059
689.995;23969.922;  412.309;  245.480
690.571;23959.123;  387.209;  244.701
691.146;23837.326;  318.634;  251.922
691.722;24957.277;  346.309;  284.743
692.297;25265.131;  309.209;  320.664
692.872;25193.383;  292.359;  313.885
693.448;24644.436;  286.509;  290.106
694.023;24358.537;  338.409;  304.327
694.598;24751.639;  330.909;  319.648
695.173;25405.516;  309.734;  323.169
695.748;25156.518;  262.034;  376.389
696.323;24230.920;  322.634;  397.610
696.898;24472.898;  380.859;  430.231
697.473;24926.574;  270.409;  454.952
698.048;24373.002;  315.859;  478.973
698.623;24322.129;  275.434;  477.094
699.198;24578.781;  332.634;  496.915
699.773;25235.084;  296.709;  490.236
700.348;26384.186;  286.534;  519.957
700.922;26109.463;  335.884;  575.678
701.497;25414.865;  329.484;  621.399
702.072;25031.393;  368.459;  664.420
702.646;25573.195;  358.209;  690.541
703.221;25445.748;  345.334;  748.862
703.795;24213.375;  292.784;  774.282
704.370;23760.652;  240.209;  799.803
704.944;24367.479;  308.359;  875.824
705.519;24991.705;  341.384;  902.945
706.093;25121.934;  295.009;  889.266
706.668;24260.410;  352.859;  903.487
707.242;24073.688;  362.059;  881.708
707.816;23672.789;  319.884;  892.329
708.390;23890.416;  325.334;  970.250
708.965;23836.645;  337.084;  984.671
709.539;23140.621;  317.284; 1026.092
710.113;22797.674;  331.783; 1067.913
710.687;23643.727;  359.383; 1166.434
711.261;24647.652;  281.883; 1190.854
711.835;24957.654;  289.733; 1197.275
712.409;25082.258;  268.058; 1308.096
712.983;25880.959;  265.958; 1461.617
713.557;25301.012;  264.508; 1611.838
714.131;25357.289;  313.533; 1554.359
714.704;25431.691;  298.083; 1520.780
715.278;24590.193;  328.983; 1575.101
715.852;23388.320;  353.558; 1689.822
716.425;23971.297;  415.733; 1829.143
716.999;24636.100;  263.658; 2008.664
717.573;24488.053;  348.733; 2000.485
718.146;25421.229;  407.658; 1914.506
718.720;25703.357;  336.808; 1818.026
719.293;25168.133;  347.408; 1734.147
719.867;24779.811;  302.283; 1716.968
720.440;25200.963;  390.233; 1918.589
721.013;25957.439;  307.233; 1975.410
721.587;25716.867;  270.283; 2073.331
722.160;25404.570;  369.008; 2357.852
722.733;25575.521;  340.358; 2657.073
723.306;26192.424;  324.358; 2703.894
723.880;27107.451;  337.958; 2549.415
724.453;27277.729;  381.208; 2414.336
725.026;27182.406;  305.433; 2298.557
725.599;26612.107;  334.183; 2168.778
726.172;26054.385;  349.033; 2106.099
726.745;26832.887;  346.783; 2253.320
727.318;26090.914;  364.533; 2404.740
727.891;25613.393;  335.333; 2680.161
728.463;25844.318;  334.933; 2838.882
729.036;24942.570;  296.258; 2755.103
729.609;23762.748;  294.583; 2731.824
730.182;23229.900;  360.033; 2855.645
730.754;24401.578;  246.233; 2946.866
731.327;24755.180;  351.758; 2840.187
731.900;23841.883;  271.533; 2647.608
732.472;23390.109;  323.433; 2473.929
733.045;23146.961;  313.083; 2445.750
733.617;23105.738;  262.832; 2511.771
734.190;22548.066;  346.907; 2581.592
734.762;22975.344;  316.282; 2710.813
735.334;23738.145;  329.782; 3005.733
735.907;23320.447;  333.132; 3154.954
736.479;22366.600;  370.857; 3171.675
737.051;22814.002;  347.357; 3217.496
737.623;25265.404;  357.882; 3246.217
738.195;26147.207;  299.482; 2985.238
738.768;24959.484;  252.782; 2727.559
739.340;24122.236;  304.857; 2666.880
739.912;23489.688;  357.657; 2769.601
740.484;22225.965;  350.757; 2731.422
741.056;22379.918;  312.057; 2963.043
741.628;24093.070;  289.782; 3361.364
742.199;25061.396;  383.907; 3641.185
742.771;24725.699;  280.457; 3932.005
743.343;24813.400;  292.832; 4319.926
743.915;24568.504;  344.282; 4706.647
744.487;24045.031;  347.457; 4874.968
745.058;23504.107;  353.457; 4616.589
745.630;22951.436;  348.382; 4253.410
746.201;22868.088;  304.807; 4056.131
746.773;22611.564;  349.032; 3772.952
747.344;22380.766;  322.357; 3642.473
747.916;22630.020;  333.257; 3752.294
748.487;22374.021;  359.432; 4106.215
749.059;21217.822;  284.982; 4457.835
749.630;20740.551;  297.432; 4366.457
750.201;21327.578;  320.057; 4600.078
750.773;22027.055;  303.332; 4658.499
751.344;22072.857;  327.382; 4609.319
751.915;21776.033;  322.882; 4526.440
752.486;22064.711;  293.582; 4536.061
753.057;21383.738;  329.332; 4383.282
753.628;20397.816;  295.257; 4296.503
754.199;19862.393;  310.882; 4383.224
754.770;19465.070;  353.057; 4653.545
755.341;18775.748;  360.857; 4831.666
755.912;18567.725;  319.107; 4831.387
756.483;19148.277;  345.682; 4735.808
757.054;19518.180;  311.757; 4685.029
757.625;19251.230;  283.281; 4994.250
758.195;18397.883;  271.456; 5051.471
758.766;18365.586;  334.106; 5317.792
759.337;18505.313;  271.731; 5646.512
759.907;18963.914;  273.281; 5404.133
760.478;19051.441;  301.906; 5090.954
761.048;18987.193;  350.156; 4871.175
761.619;18729.322;  343.981; 4589.396
762.189;18547.424;  323.481; 4171.317
762.760;18007.076;  353.681; 3872.538
763.330;18300.678;  348.956; 3832.259
763.900;19042.080;  336.956; 4150.180
764.471;18764.758;  288.831; 4529.801
765.041;17820.885;  377.656; 4715.922
765.611;17770.938;  345.006; 4681.442
766.181;18848.965;  313.381; 4717.063
766.751;18670.592;  326.356; 4710.285
767.321;17748.568;  281.681; 4450.305
767.891;17949.795;  335.006; 4274.126
768.461;17850.424;  317.181; 4215.047
769.031;17075.125;  319.931; 4173.068
769.601;16561.328;  371.706; 4174.689
770.171;16381.479;  271.681; 4229.310
770.741;16696.207;  308.231; 4352.031
771.311;16411.283;  349.906; 4336.652
771.880;15657.486;  290.606; 4300.873
772.450;15886.613;  293.831; 4387.194
773.020;16951.766;  265.356; 4220.415
773.589;17241.568;  304.181; 4075.835
774.159;17203.721;  303.806; 4105.756
774.729;16788.021;  302.231; 4114.978
775.298;16561.350;  295.981; 3693.298
775.867;16520.301;  299.481; 3343.119
776.437;15503.778;  327.631; 3062.040
777.006;15180.181;  274.856; 2927.161
777.576;15313.683;  344.456; 3046.482
778.145;15397.561;  343.356; 3230.203
778.714;15059.737;  322.006; 3253.324
779.283;14701.915;  348.206; 3129.745
779.853;14403.816;  314.331; 2983.566
780.422;14895.844;  318.631; 2929.887
780.991;14864.521;  342.380; 2863.908
781.560;14361.123;  388.455; 2948.029
782.129;13893.426;  340.005; 3074.149
782.698;13929.978;  380.505; 2893.970
783.267;13593.880;  307.955; 2721.391
783.836;13515.482;  330.805; 2659.712
784.404;13333.859;  279.880; 2622.233
784.973;13628.986;  237.455; 2600.754
785.542;13760.289;  315.855; 2528.475
786.111;13518.516;  374.280; 2404.396
786.679;12871.019;  344.680; 2365.717
787.248;12512.296;  267.330; 2498.438
787.817;12424.947;  303.955; 2645.659
788.385;12542.225;  369.230; 2709.280
788.954;12573.478;  275.655; 2620.500
789.522;12768.829;  355.780; 2625.422
790.090;12824.257;  278.980; 2743.843
790.659;12500.184;  306.080; 2635.163
791.227;12075.236;  311.805; 2495.484
791.795;11816.588;  331.755; 2413.705
792.364;11813.740;  290.980; 2345.326
792.932;11888.317;  340.980; 2350.447
793.500;11420.194;  316.380; 2429.768
794.068;10950.872;  268.080; 2513.589
794.636;11044.474;  295.280; 2664.310
795.204;11066.276;  262.980; 2721.431
795.772;10618.703;  290.305; 2802.052
796.340;10250.581;  299.005; 2847.173
796.908;10393.883;  261.530; 2997.194
797.476;10600.135;  284.905; 3151.615
798.044;10560.112;  253.155; 3110.735
798.612;10374.890;  314.105; 2931.656
799.180;10266.592;  325.680; 2785.777
799.747;10080.194;  319.580; 2899.098
800.315; 9809.396;  274.780; 2955.519
800.883; 9673.798;  252.155; 2948.940
801.450; 9458.051;  315.580; 2965.361
802.018; 9415.628;  334.130; 3070.582
802.585; 9266.705;  322.055; 3156.103
803.153; 9296.057;  289.680; 3199.524
803.720; 9056.984;  296.830; 3168.845
804.287; 8791.986;  306.930; 3248.366
804.855; 8787.938;  359.104; 3406.187
805.422; 8513.241;  307.929; 3430.907
805.989; 8159.493;  290.679; 3453.528
806.556; 8075.295;  291.654; 3612.649
807.124; 8435.497;  357.604; 3736.570
807.691; 8478.800;  281.554; 3770.491
808.258; 8305.727;  319.179; 3705.012
808.825; 8084.879;  355.079; 3828.733
809.392; 8103.206;  385.954; 3986.754
809.959; 8006.758;  332.604; 4410.075
810.526; 7836.186;  389.054; 4774.996
811.093; 7581.638;  368.679; 4754.217
811.659; 7486.815;  315.429; 4661.238
812.226; 7841.017;  314.129; 4672.559
812.793; 7993.370;  327.529; 4822.979
813.360; 7637.646;  317.729; 5189.800
813.926; 7332.524;  328.854; 5310.622
814.493; 6856.076;  271.154; 5414.542
815.060; 6680.878;  255.704; 5548.963
815.626; 6784.806;  275.854; 5452.284
816.193; 6921.883;  325.404; 5339.305
816.759; 6857.135;  287.029; 5544.426
817.325; 6816.612;  257.729; 5706.547
817.892; 7088.164;  353.004; 5623.468
818.458; 7007.991;  337.154; 5586.689
819.024; 6947.418;  363.754; 5647.910
819.591; 6854.446;  321.029; 5762.031
820.157; 6587.323;  276.979; 6284.452
820.723; 6545.325;  336.229; 6906.973
821.289; 6882.002;  506.079; 7086.894
821.855; 6627.405;  346.254; 7054.915
822.421; 6491.207;  299.279; 7112.035
822.987; 6504.109;  280.329; 7256.156
823.553; 6449.511;  308.029; 7538.077
824.119; 6360.963;  357.979; 7594.298
824.685; 6340.166;  375.329; 7613.619
825.251; 6373.093;  349.804; 7644.140
825.816; 6307.670;  394.904; 7720.261
826.382; 5994.622;  353.229; 8014.282
826.948; 5847.750;  360.979; 8281.503
827.513; 5914.352;  312.229; 8289.624
828.079; 6128.929;  284.654; 8587.045
828.645; 6126.231;  331.953; 8821.865
829.210; 6094.158;  280.028; 9054.486
829.776; 6117.635;  341.478; 9054.607
830.341; 6064.138;  348.903; 9415.628
830.906; 5934.590;  366.128; 9932.449
831.472; 5831.017;  292.928;10150.271
832.037; 5951.419;  358.778; 9420.391
832.602; 5744.546;  297.278; 8664.912
833.167; 5602.549;  322.128; 8491.933
833.733; 5605.176;  355.203; 8872.854
834.298; 5416.278;  283.078; 9370.575
834.863; 5252.255;  335.253; 9610.695
835.428; 5201.107;  332.603; 9655.616
835.993; 5287.985;  346.478; 9437.838
836.558; 5404.712;  350.903; 9441.459
837.123; 5605.589;  435.803; 9600.979
837.688; 5379.091;  333.278; 9798.301
838.253; 5232.293;  336.928; 9902.921
838.817; 5342.571;  311.203;10339.742
839.382; 5714.748;  374.978;10548.363
839.947; 5692.000;  323.128;10252.484
840.511; 5460.602;  393.528;10040.005
841.076; 4972.054;  252.078;10099.926
841.641; 5036.856;  344.703;10347.347
842.205; 4992.434;  337.778;10817.368
842.770; 5198.411;  408.353;11435.289
843.334; 5400.063;  312.103;12072.409
843.898; 5404.190;  310.603;12635.431
844.463; 5384.518;  380.278;12537.252
845.027; 5350.070;  308.503;12759.673
845.591; 5451.022;  363.603;12821.993
846.156; 5230.874;  299.378;12520.914
846.720; 5015.626;  354.153;12390.436
847.284; 5053.529;  330.928;12956.456
847.848; 5117.731;  348.053;13240.177
848.412; 4952.733;  323.753;13216.998
848.976; 4921.760;  386.653;13014.619
849.540; 4920.163;  417.803;12355.740
850.104; 4814.064;  383.053;12208.761
850.668; 4564.717;  254.278;12106.882
851.232; 4637.994;  268.203;11862.103
851.796; 4784.696;  320.853;11700.523
852.359; 4804.124;  357.802;12375.944
852.923; 4782.576;  372.677;13087.966
853.487; 4622.328;  354.002;13297.187
854.050; 4338.005;  221.277;13851.207
854.614; 4255.307;  307.352;14854.229
855.177; 4222.359;  338.277;15802.149
855.741; 4032.887;  345.252;16603.570
856.304; 3888.914;  368.077;16359.891
856.868; 3764.991;  285.127;14365.512
857.431; 3876.668;  327.252;13361.333
857.995; 4051.021;  311.852;14130.554
858.558; 4185.573;  344.802;14883.175
859.121; 3998.450;  356.802;15754.195
859.684; 3556.477;  334.527;15995.017
860.247; 3262.354;  330.327;15149.537
860.810; 3106.381;  315.502;14640.358
861.374; 3179.434;  427.327;15551.079
861.937; 3151.061;  281.702;16519.801
862.500; 3433.338;  308.952;16796.521
863.062; 3499.290;  286.727;16538.742
863.625; 3511.192;  336.352;16716.764
864.188; 3436.670;  303.952;17055.084
864.751; 3430.272;  311.477;17197.705
865.314; 3433.824;  328.227;17151.625
865.876; 3436.551;  367.602;17783.547
866.439; 3436.479;  356.927;19283.467
867.002; 3399.056;  418.077;20256.389
867.564; 3314.383;  382.527;20485.410
868.127; 3207.460;  339.677;20789.730
868.689; 3089.162;  337.727;21981.951
869.252; 3042.764;  379.552;23803.771
869.814; 2966.192;  297.202;24974.094
870.377; 3067.244;  333.127;24690.314
870.939; 3248.746;  475.577;23963.436
871.501; 3131.273;  336.752;25167.156
872.063; 2904.225;  240.777;26995.477
872.626; 2918.378;  266.427;27443.098
873.188; 2946.005;  339.102;26718.418
873.750; 2855.107;  318.952;26558.840
874.312; 2868.034;  307.927;26701.561
874.874; 3012.611;  397.902;27970.582
875.436; 2917.039;  355.951;29173.402
875.998; 2909.841;  389.851;30376.623
876.560; 2771.768;  360.801;32507.344
877.122; 2558.795;  294.651;34833.066
877.683; 2447.872;  350.176;36458.285
878.245; 2388.450;  318.351;37248.207
878.807; 2510.052;  347.801;36758.027
879.369; 2466.904;  283.901;35223.551
879.930; 2475.581;  283.676;33824.969
880.492; 2596.458;  383.151;34436.492
881.053; 2543.260;  294.601;37745.313
881.615; 2459.863;  307.076;41184.633
882.176; 2380.190;  324.176;42871.555
882.738; 2421.367;  358.351;41693.074
883.299; 2298.844;  262.026;40289.895
883.860; 2221.322;  266.201;39231.215
884.422; 2226.499;  356.201;38264.039
884.983; 2119.026;  288.701;37171.859
885.544; 2097.153;  334.101;35842.379
886.105; 2080.230;  327.726;34810.000
886.666; 2033.433;  316.601;34519.020
887.227; 1929.460;  267.851;33905.641
887.788; 1919.962;  338.601;34502.965
888.349; 1775.914;  284.426;34241.785
888.910; 1749.491;  352.301;33722.203
889.471; 1637.619;  338.351;32539.625
890.032; 1570.671;  326.526;31528.346
890.593; 1561.648;  353.451;32655.068
891.153; 1549.800;  318.251;33882.289
891.714; 1497.852;  271.876;33318.711
892.275; 1451.780;  279.076;31848.930
892.835; 1477.482;  366.851;30339.752
893.396; 1418.009;  351.251;30074.973
893.956; 1315.811;  321.201;30338.393
894.517; 1287.438;  334.976;30864.113
895.077; 1260.791;  341.851;29766.734
895.638; 1285.593;  397.501;26379.557
896.198; 1138.320;  284.226;24056.277
896.758; 1175.247;  363.351;22961.898
897.319; 1086.224;  322.426;21772.020
897.879; 1068.652;  327.851;20877.539
898.439;  985.379;  269.326;19509.461
898.999; 1043.531;  347.950;17297.582
899.559; 1016.758;  342.950;14712.002
900.119;  926.060;  283.975;12790.224
900.679; 1009.388;  392.525;11586.744
901.239;  967.965;  353.950;10776.465
901.799;  909.767;  331.000; 9691.687
902.359;  845.044;  294.300; 8725.907
902.919;  826.671;  289.650; 8305.728
903.479;  805.874;  290.550; 8172.649
904.038;  763.401;  279.900; 7913.870
904.598;  713.728;  237.225; 7262.291
905.158;  767.505;  307.100; 6609.012
905.717;  771.807;  319.925; 6236.133
906.277;  742.110;  329.425; 5829.054
906.836;  741.862;  346.525; 5396.674
907.396;  731.464;  345.100; 4964.195
907.955;  727.691;  344.600; 4528.917
908.515;  675.618;  310.200; 4223.837
909.074;  666.171;  311.450; 4023.958
909.633;  651.173;  317.675; 4065.379
910.192;  720.050;  398.125; 4066.300
910.752;  633.400;  311.025; 3971.600
911.311;  617.325;  302.425; 3839.600
911.870;  600.875;  294.400; 3684.500
912.429;  663.250;  367.100; 3635.600
912.988;  641.525;  360.725; 3689.800
913.547;  565.925;  291.250; 3737.700
914.106;  601.225;  328.775; 3740.300
914.665;  592.925;  328.125; 3604.600
915.224;  627.775;  367.300; 3358.700
915.782;  553.225;  303.450; 3188.400
916.341;  628.325;  375.900; 3091.400
916.900;  556.425;  309.825; 3044.800
917.458;  532.900;  290.900; 2888.600
918.017;  567.525;  323.825; 2818.900
918.576;  543.750;  306.850; 2838.600
919.134;  503.775;  270.925; 2880.100
919.693;  535.275;  303.825; 2996.300
920.251;  522.500;  294.975; 3183.100
920.809;  505.375;  280.075; 3247.000
921.368;  532.325;  306.550; 3156.600
921.926;  510.700;  286.775; 2964.900
922.484;  542.050;  321.075; 2846.300
923.042;  528.075;  309.775; 2890.400
923.601;  594.225;  378.950; 2987.700
924.159;  562.425;  343.425; 3049.800
924.717;  507.450;  283.975; 3087.000
925.275;  535.600;  320.000; 3093.400
925.833;  468.100;  253.450; 3182.400
926.391;  561.425;  344.775; 3397.900
926.949;  517.100;  295.650; 3575.400
927.506;  539.550;  326.450; 3713.400
928.064;  527.900;  311.175; 3871.300
928.622;  526.350;  309.725; 4092.800
929.180;  486.550;  275.125; 4499.300
929.737;  482.675;  266.100; 4813.200
930.295;  556.900;  337.375; 5084.100
930.853;  505.425;  283.675; 5185.000
931.410;  487.125;  273.025; 5313.100
931.968;  561.000;  344.250; 5339.600
932.525;  545.050;  327.375; 5399.900
933.082;  485.000;  265.950; 5457.500
933.640;  551.750;  328.025; 5692.900
934.197;  528.500;  309.200; 5821.200
934.754;  531.475;  305.600; 5617.900
935.312;  505.800;  289.325; 5512.400
935.869;  592.975;  374.375; 5582.400
936.426;  511.825;  289.250; 5650.100
936.983;  519.725;  298.200; 5657.400
937.540;  491.725;  269.650; 5564.300
938.097;  552.725;  327.175; 5574.000
938.654;  534.825;  301.500; 5665.900
939.211;  562.500;  331.500; 5931.600
939.768;  540.400;  310.250; 6153.600
940.324;  534.675;  298.750; 6397.600
940.881;  525.850;  285.525; 6454.200
941.438;  603.100;  365.925; 6206.900
941.995;  593.125;  349.275; 6003.900
942.551;  518.950;  272.650; 6228.300
943.108;  563.675;  313.650; 6603.500
943.664;  525.500;  277.825; 7188.100
944.221;  647.100;  401.575; 7579.900
944.777;  515.475;  269.500; 7658.100
945.334;  531.975;  282.525; 7670.400
945.890;  565.300;  317.025; 7525.100
946.446;  568.400;  313.075; 7261.500
947.003;  574.125;  323.250; 6949.200
947.559;  631.550;  383.950; 6773.100
948.115;  608.725;  358.575; 6668.400
948.671;  569.650;  322.300; 6488.400
949.227;  516.875;  259.975; 6236.600
949.783;  507.000;  255.075; 6008.900
950.339;  581.350;  331.025; 5934.100
950.895;  600.300;  351.200; 5933.500
951.451;  541.125;  295.350; 6074.700
952.007;  579.475;  338.975; 6066.400
952.563;  547.450;  298.450; 5884.100
953.118;  538.600;  287.425; 5733.800
953.674;  557.500;  306.625; 5734.300
954.230;  560.000;  314.075; 6039.700
954.785;  566.800;  312.725; 6383.500
955.341;  592.575;  351.075; 6568.200
955.897;  501.675;  254.200; 6488.600
956.452;  567.750;  328.625; 6239.200
957.008;  649.400;  404.550; 5954.600
957.563;  605.175;  367.550; 5816.700
958.118;  525.100;  282.450; 5828.200
958.674;  563.925;  322.825; 5717.400
959.229;  608.500;  367.175; 5506.800
959.784;  499.150;  267.275; 5292.200
960.339;  599.925;  364.800; 5101.900
960.894;  581.125;  341.450; 5093.200
961.449;  515.325;  280.925; 5227.900
962.004;  711.475;  490.500; 5349.300
962.559;  514.350;  284.775; 5514.900
963.114;  449.225;  222.725; 5717.300
963.669;  546.075;  317.925; 5841.400
964.224;  528.025;  299.750; 5805.900
964.779;  497.300;  267.100; 5723.400
965.334;  606.125;  380.675; 5779.500
965.888;  524.575;  292.650; 5948.500
966.443;  574.000;  350.425; 6344.200
966.998;  477.350;  257.300; 6666.300
967.552;  533.975;  312.450; 6710.100
968.107;  516.575;  293.775; 6593.500
968.661;  547.800;  326.450; 6344.100
969.216;  505.975;  284.875; 6062.400
969.770;  539.900;  322.850; 5785.500
970.324;  551.200;  329.125; 5426.800
970.879;  560.625;  344.225; 5016.800
971.433;  557.875;  343.925; 4904.500
971.987;  527.650;  314.875; 4991.000
972.541;  544.500;  331.825; 4978.500
973.095;  594.975;  388.575; 4832.000
973.649;  476.725;  265.950; 4767.900
974.203;  492.850;  281.000; 4881.200
974.757;  510.925;  301.075; 4969.500
975.311;  520.800;  310.600; 4953.000
975.865;  529.300;  311.625; 4884.300
976.419;  507.775;  300.375; 4739.800
976.973;  500.525;  297.375; 4698.100
977.526;  558.500;  357.650; 4631.100
978.080;  467.750;  267.000; 4621.600
978.634;  535.050;  342.325; 4650.200
979.187;  529.175;  335.325; 4669.200
979.741;  593.750;  401.000; 4658.000
980.294;  459.125;  272.800; 4579.100
980.848;  426.550;  232.750; 4452.800
981.401;  488.350;  297.025; 4271.900
981.955;  503.225;  316.275; 4087.800
982.508;  448.800;  256.725; 3973.900
983.061;  546.450;  358.500; 3928.600
983.615;  478.675;  283.725; 3851.200
984.168;  451.950;  269.550; 3734.800
984.721;  514.675;  334.400; 3628.300
985.274;  505.800;  326.400; 3564.300
985.827;  491.325;  308.675; 3558.100
986.380;  421.850;  247.075; 3559.900
986.933;  502.550;  332.400; 3688.700
987.486;  499.625;  328.700; 3778.500
988.039;  507.800;  335.625; 3559.900
988.591;  519.850;  355.000; 3219.300
989.144;  429.125;  263.175; 2902.900
989.697;  446.200;  282.775; 2722.600
990.250;  508.875;  343.775; 2618.000
990.802;  441.825;  284.350; 2523.900
991.355;  564.625;  416.225; 2436.500
991.907;  502.850;  353.175; 2412.200
992.460;  441.075;  290.125; 2387.900
993.012;  440.575;  292.925; 2365.800
993.565;  413.400;  269.025; 2311.100
994.117;  551.350;  415.075; 2308.700
994.669;  410.550;  272.775; 2249.300
995.221;  461.650;  325.775; 2158.100
995.774;  453.500;  323.950; 2085.600
996.326;  435.450;  302.975; 2068.100
996.878;  482.625;  364.650; 1975.300
997.430;  401.675;  280.975; 1929.500
997.982;  431.125;  314.375; 1861.900
998.534;  431.475;  312.325; 1830.200
999.086;  426.000;  309.400; 1823.200
999.638;  380.150;  264.475; 1815.000
1000.190;  405.150;  289.550; 1796.600
1000.741;  430.100;  315.700; 1738.800
1001.293;  398.650;  285.475; 1666.200
1001.845;  386.950;  282.400; 1566.500
1002.396;  429.325;  323.025; 1471.900
1002.948;  424.400;  319.025; 1398.000
1003.500;  416.825;  311.450; 1356.500
1004.051;  525.675;  427.075; 1294.200
1004.603;  461.350;  355.975; 1190.000
1005.154;  347.150;  256.550; 1063.900
1005.705;  417.300;  327.275;  968.300
1006.257;  405.625;  321.050;  889.800
1006.808;  394.525;  307.300;  801.500
1007.359;  447.600;  357.950;  716.400
1007.910;  373.350;  292.775;  639.100
1008.461;  419.600;  340.400;  561.600
1009.013;  338.125;  260.275;  500.400
1009.564;  454.275;  379.075;  476.100
1010.115;  338.175;  266.650;  431.600
1010.665;  351.600;  276.375;  409.300
1011.216;  383.075;  307.725;  399.700
1011.767;  401.925;  322.300;  388.100
1012.318;  426.725;  346.275;  381.400
1012.869;  392.600;  312.400;  375.400
1013.419;  346.850;  272.200;  357.600
1013.970;  384.050;  308.450;  358.300
1014.521;  352.325;  282.075;  344.100
1015.071;  383.350;  311.900;  322.800
1015.622;  361.225;  293.350;  320.600
1016.172;  342.550;  275.300;  301.700
1016.723;  354.300;  282.900;  289.800
1017.273;  351.525;  277.850;  287.600
1017.823;  366.875;  300.200;  278.700
1018.374;  350.875;  284.275;  274.400
1018.924;  412.075;  341.950;  283.200
1019.474;  405.450;  342.125;  278.500
1020.024;  373.575;  308.475;  274.700
1020.574;  413.325;  347.200;  272.700
1021.124;  383.975;  320.825;  278.400
1021.674;  319.725;  254.500;  269.200
1022.224;  408.875;  338.750;  267.800
1022.774;  382.225;  316.850;  258.100
1023.324;  436.600;  367.150;  260.000
1023.874;  501.950;  441.500;  260.700
1024.423;  349.925;  279.150;  252.700
1024.973;  350.375;  281.275;  234.700
1025.523;  357.375;  289.800;  226.500
1026.072;  344.425;  285.275;  225.500
1026.622;  383.025;  318.725;  210.100
1027.172;  409.050;  346.700;  213.000
1027.721;  342.475;  280.500;  207.700
1028.270;  379.775;  319.175;  205.400
1028.820;  363.550;  302.250;  201.000
1029.369;  351.300;  286.450;  201.000
1029.918;  368.875;  305.700;  198.400
1030.468;  318.975;  259.425;  199.200
1031.017;  363.550;  300.400;  192.600
1031.566;  344.525;  289.275;  197.400
1032.115;  400.150;  337.900;  188.300
1032.664;  342.000;  279.900;  193.700
1033.213;  418.425;  362.050;  191.900
1033.762;  365.050;  302.625;  184.500
1034.311;  383.950;  326.850;  194.300
1034.860;  394.600;  336.175;  192.300
1035.408;  409.825;  355.150;  182.600
1035.957;  414.025;  352.700;  173.900
1036.506;  307.600;  245.850;  185.200
1037.055;  479.975;  423.375;  182.500
1037.603;  379.175;  320.150;  167.600
1038.152;  306.350;  250.525;  168.200
1038.700;  333.950;  274.950;  169.600
1039.249;  388.375;  332.200;  164.300
1039.797;  358.250;  305.675;  169.600
1040.345;  401.650;  345.400;  167.100
1040.894;  354.550;  301.950;  164.400
1041.442;  366.675;  304.750;  158.300
1041.990;  315.800;  259.475;  160.000
1042.538;  303.325;  249.225;  156.800
1043.087;  322.450;  270.350;  146.600
1043.635;  382.000;  327.075;  162.400
1044.183;  332.875;  279.725;  156.300
1044.731;  325.750;  269.300;  158.100
1045.279;  383.100;  328.825;  154.500
1045.827;  514.300;  462.875;  146.200
1046.374;  291.900;  240.950;  154.000
1046.922;  337.575;  281.025;  149.000
1047.470;  393.025;  341.475;  154.900
1048.018;  372.475;  315.450;  148.400
1048.565;  403.800;  353.925;  146.300
1049.113;  312.450;  260.775;  156.100
1049.660;  352.650;  302.650;  154.300
1050.208;  384.500;  324.875;  149.400
1050.755;  339.575;  293.275;  157.500
1051.303;  388.800;  336.200;  157.700
1051.850;  362.300;  310.850;  152.800
1052.397;  265.800;  222.000;  146.300
1052.945;  344.375;  296.750;  149.500
1053.492;  421.375;  369.875;  149.300
1054.039;  409.750;  360.975;  163.100
1054.586;  315.525;  262.725;  150.400
1055.133;  390.425;  338.550;  153.500
1055.680;  369.500;  315.200;  155.600
1056.227;  304.850;  253.400;  148.700
1056.774;  455.450;  404.600;  151.500
1057.321;  294.050;  244.250;  143.700
1057.868;  371.525;  313.950;  145.300
1058.415;  373.900;  324.800;  153.500
1058.961;  384.825;  330.150;  149.900
1059.508;  358.275;  315.850;  147.300
1060.055;  330.375;  281.250;  151.000
1060.601;  354.275;  303.950;  148.700
1061.148;  350.425;  301.600;  153.800
1061.694;  333.525;  287.700;  150.500
1062.241;  332.300;  287.650;  149.100
1062.787;  381.425;  328.450;  153.000
1063.334;  458.750;  410.750;  153.200
1063.880;  378.250;  329.225;  148.400
1064.426;  402.925;  352.025;  149.200
1064.972;  340.575;  292.350;  156.400
1065.518;  321.925;  271.775;  144.700
1066.065;  351.950;  308.625;  139.400
1066.611;  338.350;  293.475;  139.300
1067.157;  360.400;  319.775;  138.400
1067.703;  380.200;  337.575;  142.700
1068.249;  338.825;  296.225;  136.700
1068.794;  358.125;  305.000;  139.400
1069.340;  323.450;  280.900;  142.700
1069.886;  338.975;  290.950;  135.600
1070.432;  300.550;  253.750;  133.400
1070.977;  338.625;  291.550;  138.200
1071.523;  321.550;  279.700;  132.400
1072.068;  327.125;  284.200;  132.700
1072.614;  294.650;  251.100;  127.000
1073.160;  390.550;  348.150;  131.300
1073.705;  322.800;  283.500;  135.700
1074.250;  313.675;  269.250;  133.000
1074.796;  370.350;  324.700;  138.000
1075.341;  376.525;  336.700;  137.300
1075.886;  336.750;  289.575;  134.300
1076.431;  371.100;  329.275;  138.200
1076.976;  361.375;  318.550;  132.200
1077.521;  329.875;  283.600;  138.900
1078.067;  331.125;  282.450;  128.600
1078.612;  376.025;  332.075;  138.900
1079.156;  335.725;  295.750;  128.900
1079.701;  394.400;  343.350;  129.700
1080.246;  395.325;  347.850;  128.600
1080.791;  354.725;  314.325;  122.600
1081.336;  370.600;  326.775;  122.000
1081.880;  369.750;  325.175;  123.900
1082.425;  326.875;  278.750;  120.600
1082.970;  408.425;  366.800;  124.500
1083.514;  333.975;  294.050;  112.000
1084.059;  328.675;  286.600;  120.700
1084.603;  323.475;  274.100;  116.000
1085.147;  365.750;  324.250;  116.300
1085.692;  409.675;  361.250;  108.200
1086.236;  281.325;  241.150;  114.600
1086.780;  425.300;  384.150;  118.900
1087.325;  370.525;  325.450;  120.400
1087.869;  345.475;  304.775;  110.500
1088.413;  401.550;  356.525;  114.000
1088.957;  305.000;  263.950;  114.300
1089.501;  435.925;  396.225;  114.600
1090.045;  409.975;  370.525;  114.200
1090.589;  319.200;  276.525;  105.500
1091.133;  383.000;  345.450;  111.800
1091.676;  333.975;  298.200;  110.900
1092.220;  335.650;  299.475;  110.100
1092.764;  402.700;  361.925;  108.100
1093.307;  380.600;  337.525;  109.900
1093.851;  311.425;  275.925;  107.500
1094.395;  384.950;  345.675;   96.200
1094.938;  355.275;  322.825;   99.300
1095.482;  318.025;  278.475;   97.700
1096.025;  406.950;  364.550;   84.900
1096.568;  446.400;  405.000;   88.500
1097.112;  286.575;  246.200;   95.700
1097.655;  339.150;  296.650;   97.300
1098.198;  333.450;  297.750;   92.600
1098.741;  348.400;  304.700;   91.800
1099.285;  369.100;  328.800;   88.000
1099.828;  246.400;  211.775;   91.700
1100.371;  349.550;  306.475;   89.900
1100.914;  387.375;  345.300;   91.500
1101.457;  384.550;  348.450;   88.100
1101.999;  325.725;  287.650;   86.400
1102.542;  362.550;  326.525;   90.800
1103.085;  368.675;  334.825;   95.400
1103.628;  430.200;  402.425;   97.700
1104.170;  334.450;  294.100;   84.000
1104.713;  366.850;  327.975;   93.900
1105.256;  312.875;  274.375;   93.000
1105.798;  278.675;  242.750;   85.600
1106.341;  412.050;  376.200;   87.100
1106.883;  295.725;  254.050;   85.200
1107.425;  376.400;  336.150;   85.000
1107.968;  351.550;  308.475;   84.300
1108.510;  392.425;  354.625;   88.200
1109.052;  344.550;  312.325;   86.600
1109.594;  314.750;  276.450;   79.400
1110.136;  363.900;  324.750;   81.700
1110.679;  355.075;  320.200;   75.500
1111.221;  338.700;  303.300;   88.500
1111.763;  304.700;  273.725;   87.700
1112.304;  305.300;  269.975;   89.700
1112.846;  376.175;  338.350;   81.900
1113.388;  538.600;  503.625;   86.400
1113.930;  387.925;  350.625;   84.700
1114.472;  342.625;  306.975;   78.900
1115.013;  307.925;  274.675;   78.100
1115.555;  329.075;  300.175;   84.900
1116.097;  320.850;  286.175;   79.200
1116.638;  391.775;  351.800;   83.700
1117.180;  375.725;  340.000;   85.500
1117.721;  316.925;  284.650;   78.800
1118.262;  380.100;  346.125;   77.400
1118.804;  357.050;  323.675;   81.400
1119.345;  323.825;  293.650;   77.800
1119.886;  401.400;  365.925;   81.200
1120.427;  328.250;  298.125;   77.200
1120.969;  335.100;  303.125;   75.200
1121.510;  318.950;  283.075;   80.900
1122.051;  409.775;  375.375;   77.300
1122.592;  371.775;  336.725;   73.300
1123.133;  304.300;  273.850;   90.100
1123.673;  404.150;  369.875;   75.000
1124.214;  343.525;  315.175;   80.600
1124.755;  359.825;  324.350;   78.000
1125.296;  344.600;  318.250;   77.500
1125.836;  391.975;  351.500;   80.400
1126.377;  337.950;  300.875;   75.600
1126.918;  344.775;  309.250;   78.900
1127.458;  349.450;  318.050;   78.000
1127.999;  369.675;  336.250;   76.100
1128.539;  393.550;  364.625;   81.400
1129.079;  353.000;  324.475;   77.400
1129.620;  311.575;  279.875;   68.000
1130.160;  300.675;  272.075;   77.500
1130.700;  358.125;  329.225;   76.300
1131.240;  356.500;  328.450;   66.800
1131.781;  348.300;  314.900;   70.600
1132.321;  334.550;  306.150;   77.200
1132.861;  314.575;  285.675;   70.400
1133.401;  334.150;  300.900;   68.700
1133.941;  353.175;  321.400;   68.500
1134.481;  337.025;  307.900;   75.900
1135.020;  346.150;  309.675;   66.600
1135.560;  379.075;  351.150;   68.100
1136.100;  282.050;  248.900;   64.900
1136.640;  287.475;  255.600;   72.500
1137.179;  298.500;  268.675;   69.700
1137.719;  335.750;  312.975;   68.400
1138.258;  328.075;  301.025;   67.000
1138.798;  374.325;  340.800;   69.600
1139.337;  267.175;  239.200;   64.000
1139.877;  361.425;  332.125;   64.500
1140.416;  493.725;  470.975;   74.900
1140.955;  294.950;  271.575;   67.200
1141.494;  378.300;  350.025;   69.900
1142.034;  323.025;  296.600;   59.100
1142.573;  369.225;  339.400;   65.900
1143.112;  311.725;  283.425;   70.600
1143.651;  302.525;  277.975;   67.100
1144.190;  387.675;  356.875;   56.700
1144.729;  338.575;  310.675;   61.800
1145.267;  324.650;  295.200;   62.500
1145.806;  357.175;  333.350;   68.500
1146.345;  356.500;  329.875;   58.300
1146.884;  349.150;  323.775;   63.100
1147.422;  292.350;  268.350;   54.800
1147.961;  405.125;  375.600;   67.600
1148.500;  373.875;  349.175;   64.700
1149.038;  355.925;  329.975;   61.000
1149.577;  393.150;  366.025;   65.100
1150.115;  246.600;  223.975;   58.100
1150.653;  337.425;  315.175;   60.500
1151.192;  308.975;  282.875;   56.600
1151.730;  372.050;  342.650;   62.300
1152.268;  327.450;  299.225;   55.500
1152.806;  320.875;  289.175;   58.200
1153.344;  317.125;  294.550;   55.000
1153.882;  337.600;  313.275;   64.200
1154.421;  263.925;  238.175;   60.300
1154.958;  331.625;  307.400;   58.100
1155.496;  360.450;  336.925;   55.800
1156.034;  409.500;  380.375;   61.000
1156.572;  376.800;  353.500;   56.200
1157.110;  259.725;  234.675;   53.200
1157.647;  387.550;  356.575;   57.400
1158.185;  317.475;  288.850;   55.500
1158.723;  281.950;  260.925;   58.000
1159.260;  392.725;  364.100;   53.700
1159.798;  372.175;  340.225;   51.700
1160.335;  353.225;  326.400;   59.600

