gmr_right
Integration time [ms]: 238.412
Averaging Nr. [scans]: 40
Smoothing Nr. [pixels]: 0
Data measured with spectrometer [name]: 7414430SP
Wave   ;Sample   ;Dark     ;Reference
[nm]   ;[counts] ;[counts] ;[counts] 

288.544;  515.240;  332.182;    6.613
289.143;  442.619;  271.583;   14.216
289.742;  537.409;  358.283;   11.816
290.341;  509.666;  338.184;   -4.936
290.940;  473.480;  301.359;    0.852
291.538;  562.260;  386.909;    1.792
292.137;  510.884;  339.183;    6.262
292.736;  622.666;  448.984;    8.164
293.335;  481.150;  303.109;   -6.418
293.934;  504.558;  331.034;   -2.904
294.532;  655.032;  479.809;   -5.162
295.131;  535.530;  376.861;  -10.283
295.730;  522.669;  361.060;  -16.141
296.328;  505.156;  345.711;  -14.740
296.927;  502.230;  342.761;   -8.768
297.525;  505.686;  342.961;  -15.255
298.124;  431.304;  272.787;  -22.063
298.722;  494.546;  336.861;  -14.796
299.321;  461.041;  303.761;  -10.466
299.919;  481.539;  329.786;  -10.979
300.518;  450.896;  293.262;  -12.077
301.116;  449.229;  297.361;  -13.509
301.715;  467.797;  315.411;  -11.939
302.313;  456.479;  306.661;  -15.424
302.911;  473.693;  329.612;  -19.833
303.509;  579.367;  439.211;   -3.567
304.108;  489.729;  342.436;   -9.553
304.706;  511.229;  367.686;   -8.582
305.304;  510.839;  366.712;  -12.348
305.902;  497.879;  359.286;  -14.411
306.500;  468.189;  325.311;   -7.194
307.098;  480.955;  342.011;   -9.322
307.696;  495.786;  361.986;  -19.192
308.294;  465.039;  331.561;   -9.736
308.892;  484.783;  349.686;  -15.482
309.490;  446.112;  314.911;  -14.107
310.088;  493.191;  372.612;  -15.862
310.686;  516.999;  389.461;  -10.781
311.284;  484.187;  356.336;  -14.878
311.882;  463.957;  336.862;   -9.948
312.480;  439.212;  321.162;  -15.503
313.078;  502.177;  388.612;  -17.262
313.675;  437.589;  320.411;   -3.694
314.273;  497.004;  384.962;  -18.246
314.871;  375.411;  268.837;  -15.190
315.468;  405.218;  299.362;  -12.633
316.066;  430.749;  321.511;   -5.765
316.664;  404.575;  302.362;  -14.317
317.261;  548.788;  448.487;   -8.677
317.859;  473.406;  378.637;  -11.804
318.456;  504.358;  411.961;   -3.107
319.054;  476.170;  378.962;   -3.062
319.651;  463.163;  371.737;   -6.706
320.249;  489.463;  398.562;   -5.206
320.846;  430.775;  345.061;   -4.679
321.443;  492.583;  418.661;   -7.920
322.041;  486.765;  400.187;  -14.105
322.638;  423.065;  339.787;   -6.263
323.235;  396.104;  314.961;   -7.424
323.833;  440.785;  363.186;  -14.765
324.430;  359.371;  280.436;  -10.550
325.027;  525.751;  440.611;   -9.951
325.624;  386.273;  298.761;   -3.712
326.221;  410.934;  318.936;   -9.368
326.818;  487.512;  400.711;   -5.637
327.415;  441.194;  346.260;   -6.699
328.012;  406.030;  319.885;   -5.713
328.609;  434.601;  339.260;   -9.983
329.206;  461.681;  366.561;   -7.154
329.803;  437.147;  339.636;   -1.682
330.400;  416.584;  313.485;   -2.741
330.997;  478.926;  377.636;   -4.339
331.594;  464.641;  363.311;  -10.278
332.191;  428.263;  324.736;   -6.967
332.787;  493.711;  386.261;   -0.480
333.384;  442.999;  342.112;  -10.333
333.981;  474.751;  375.163;  -19.900
334.578;  411.868;  310.587;  -19.816
335.174;  423.825;  319.387;  -15.844
335.771;  487.275;  384.438;  -12.670
336.367;  408.535;  320.113;  -21.124
336.964;  458.949;  369.313;  -18.226
337.561;  429.485;  329.313;  -13.311
338.157;  528.295;  432.764;  -19.006
338.754;  464.057;  371.839;  -19.418
339.350;  410.379;  324.864;  -29.433
339.946;  446.397;  348.714;  -16.622
340.543;  485.782;  399.465;  -16.744
341.139;  408.880;  331.215;  -21.841
341.735;  441.999;  363.566;  -25.012
342.332;  397.617;  316.015;  -19.156
342.928;  452.916;  376.415;  -20.443
343.524;  435.398;  357.341;  -14.397
344.120;  418.407;  353.591;  -20.654
344.716;  404.198;  332.640;   -5.730
345.313;  454.177;  378.515;  -10.929
345.909;  349.598;  276.840;  -19.843
346.505;  420.708;  349.565;  -19.645
347.101;  470.644;  394.639;   -9.618
347.697;  451.242;  377.889;  -10.305
348.293;  347.219;  275.590;  -23.189
348.889;  422.286;  352.389;  -18.418
349.485;  388.528;  316.289;  -10.476
350.081;  436.097;  364.839;  -17.320
350.676;  390.317;  319.940;  -21.088
351.272;  458.659;  385.314;  -12.821
351.868;  435.637;  359.189;  -13.165
352.464;  412.540;  339.314;  -12.464
353.059;  368.067;  297.664;  -22.547
353.655;  443.898;  371.639;   -9.379
354.251;  431.007;  356.313;   -8.266
354.846;  420.103;  350.714;  -17.705
355.442;  422.271;  355.915;   -9.317
356.038;  423.543;  352.164;  -11.049
356.633;  414.097;  340.389;  -10.006
357.229;  415.701;  340.089;  -13.120
357.824;  399.515;  327.589;  -15.647
358.420;  386.169;  310.939;  -19.204
359.015;  387.885;  318.914;  -12.263
359.610;  437.617;  365.289;  -16.421
360.206;  343.797;  270.590;  -20.074
360.801;  364.705;  291.064;  -13.277
361.396;  420.547;  343.139;   -5.822
361.992;  376.965;  306.264;  -11.247
362.587;  379.488;  308.515;  -21.502
363.182;  389.539;  322.764;   -7.461
363.777;  425.905;  351.864;   -8.719
364.372;  425.970;  358.189;  -14.590
364.967;  389.401;  321.715;  -15.145
365.563;  462.552;  388.039;   -7.192
366.158;  391.565;  320.264;   -5.662
366.753;  374.114;  295.314;   -8.378
367.348;  427.893;  357.064;  -14.990
367.942;  397.292;  327.764;   -6.005
368.537;  432.860;  361.689;  -11.504
369.132;  404.650;  329.614;  -10.576
369.727;  365.713;  298.440;  -12.573
370.322;  336.126;  266.940;  -11.560
370.917;  410.292;  339.490;  -10.388
371.511;  499.920;  427.164;   -9.161
372.106;  451.026;  379.790;  -10.245
372.701;  337.855;  272.315;  -10.158
373.296;  500.845;  427.564;   -4.719
373.890;  374.938;  307.915;  -11.802
374.485;  402.870;  337.115;  -13.500
375.079;  430.044;  362.789;   -6.276
375.674;  477.107;  401.664;   -0.447
376.268;  403.422;  332.240;   -6.916
376.863;  337.045;  276.716;  -14.483
377.457;  383.514;  314.690;   -6.903
378.052;  446.967;  374.315;   -9.844
378.646;  435.290;  370.840;  -12.601
379.240;  422.682;  351.240;  -14.715
379.835;  372.390;  308.715;  -12.331
380.429;  330.666;  266.490;   -9.074
381.023;  459.099;  393.115;   -1.729
381.617;  395.356;  332.440;  -13.714
382.212;  399.694;  334.815;   -7.060
382.806;  443.314;  377.590;   -2.303
383.400;  392.311;  331.115;   -0.815
383.994;  387.228;  329.140;   -4.429
384.588;  413.947;  348.039;   -6.261
385.182;  425.896;  362.014;    0.008
385.776;  419.886;  356.039;   -3.247
386.370;  403.014;  341.465;   -1.030
386.964;  396.277;  342.840;   -1.346
387.558;  351.108;  293.714;   -2.020
388.152;  398.522;  343.690;   -5.345
388.745;  470.483;  419.915;   -2.774
389.339;  438.581;  385.039;    3.510
389.933;  409.100;  347.289;    5.280
390.527;  503.682;  452.139;    2.610
391.120;  352.779;  295.940;   -7.914
391.714;  416.611;  363.840;   -1.903
392.308;  461.713;  405.564;    6.023
392.901;  378.847;  324.365;   -4.103
393.495;  349.034;  301.415;    3.284
394.089;  447.012;  399.790;    8.655
394.682;  411.364;  361.290;    2.312
395.275;  421.924;  373.240;   -7.402
395.869;  396.750;  342.490;   -1.072
396.462;  360.089;  315.340;    6.454
397.056;  455.824;  403.889;    8.494
397.649;  429.375;  381.015;    1.599
398.242;  421.844;  373.064;    3.153
398.836;  444.000;  402.914;   11.395
399.429;  366.690;  324.289;   14.695
400.022;  391.436;  345.590;    3.627
400.615;  470.364;  432.340;    8.383
401.208;  406.107;  354.989;   13.295
401.802;  410.473;  365.940;    6.211
402.395;  398.186;  361.290;    7.227
402.988;  404.906;  362.265;    2.700
403.581;  379.983;  336.689;   11.225
404.174;  401.593;  354.064;   18.922
404.767;  378.644;  339.265;   14.169
405.360;  357.708;  326.690;    8.999
405.953;  443.004;  403.039;   13.138
406.545;  426.473;  377.889;   13.937
407.138;  350.805;  313.990;   10.869
407.731;  355.503;  317.039;   12.768
408.324;  386.140;  343.789;   22.921
408.917;  396.821;  359.814;   15.308
409.509;  428.943;  395.314;   12.239
410.102;  379.464;  340.165;   13.741
410.695;  388.828;  347.989;   20.249
411.287;  346.166;  311.239;   21.793
411.880;  338.932;  302.339;   22.965
412.472;  347.855;  318.389;   15.082
413.065;  369.034;  336.289;   23.423
413.657;  334.687;  298.039;   21.077
414.250;  374.959;  336.714;   12.349
414.842;  387.697;  352.064;   20.423
415.434;  331.416;  296.714;   19.906
416.027;  377.691;  339.988;   26.574
416.619;  415.719;  384.414;   15.705
417.211;  343.717;  309.039;   17.791
417.804;  360.723;  325.263;   30.244
418.396;  348.216;  319.364;   24.177
418.988;  380.905;  348.488;   24.904
419.580;  323.462;  292.489;   20.692
420.172;  310.323;  278.713;   22.275
420.764;  390.429;  355.763;   26.773
421.356;  369.198;  338.413;   25.731
421.948;  385.627;  359.838;   24.876
422.540;  390.601;  355.188;   30.042
423.132;  341.781;  313.387;   32.728
423.724;  319.865;  290.788;   21.317
424.316;  360.992;  323.238;   29.359
424.908;  338.936;  304.287;   28.798
425.500;  372.902;  335.712;   30.512
426.092;  367.194;  336.912;   26.741
426.683;  392.743;  362.463;   27.029
427.275;  368.659;  336.387;   32.611
427.867;  387.770;  351.337;   33.796
428.458;  421.173;  385.937;   34.453
429.050;  395.809;  356.687;   34.255
429.642;  428.898;  391.712;   39.082
430.233;  319.456;  287.987;   41.138
430.825;  420.436;  384.287;   31.581
431.416;  400.774;  366.212;   35.755
432.008;  370.150;  337.812;   40.566
432.599;  376.826;  335.336;   46.322
433.190;  364.834;  333.212;   46.897
433.782;  339.088;  302.337;   41.069
434.373;  504.809;  470.836;   48.778
434.964;  344.705;  307.636;   50.078
435.556;  358.372;  329.587;   52.381
436.147;  427.470;  392.887;   38.251
436.738;  393.171;  360.061;   47.237
437.329;  410.838;  372.511;   61.304
437.920;  385.552;  345.062;   48.611
438.511;  321.680;  279.837;   44.910
439.103;  352.600;  315.036;   62.404
439.694;  387.188;  350.436;   63.075
440.285;  445.521;  400.436;   61.033
440.876;  488.823;  444.436;   57.249
441.466;  325.545;  290.086;   61.306
442.057;  384.123;  331.460;   65.773
442.648;  430.544;  386.736;   65.676
443.239;  357.241;  312.761;   55.963
443.830;  406.327;  361.860;   69.631
444.421;  378.332;  328.660;   69.943
445.011;  396.982;  350.386;   72.791
445.602;  426.218;  379.461;   68.848
446.193;  279.020;  228.810;   80.044
446.783;  365.406;  313.585;   82.599
447.374;  393.391;  357.311;   77.419
447.964;  403.965;  362.536;   72.605
448.555;  468.985;  424.460;   82.041
449.145;  380.457;  330.310;   76.230
449.736;  455.318;  414.985;   75.545
450.326;  415.728;  359.935;   67.945
450.917;  389.500;  333.685;   77.598
451.507;  349.769;  290.635;   68.027
452.097;  434.355;  383.935;   67.771
452.688;  427.394;  368.435;   62.884
453.278;  321.878;  275.160;   65.512
453.868;  458.272;  403.809;   71.796
454.458;  375.644;  318.910;   60.956
455.048;  408.067;  353.535;   62.356
455.639;  326.642;  268.759;   58.782
456.229;  405.203;  346.284;   65.209
456.819;  438.517;  368.959;   61.466
457.409;  447.879;  386.634;   59.967
457.999;  425.995;  361.034;   58.093
458.589;  396.786;  333.359;   59.536
459.179;  415.100;  349.659;   55.994
459.769;  360.739;  298.609;   43.624
460.358;  457.557;  390.959;   46.978
460.948;  398.147;  328.684;   49.821
461.538;  383.928;  310.534;   54.678
462.128;  384.103;  315.259;   49.309
462.717;  408.299;  337.158;   52.774
463.307;  411.042;  332.983;   48.101
463.897;  379.691;  311.684;   45.606
464.486;  488.915;  417.409;   45.010
465.076;  425.139;  353.758;   45.519
465.666;  382.522;  297.008;   50.058
466.255;  457.192;  380.084;   44.463
466.845;  388.101;  313.384;   41.206
467.434;  418.516;  343.333;   44.847
468.023;  380.272;  300.133;   46.760
468.613;  413.361;  335.959;   39.736
469.202;  369.655;  295.883;   46.461
469.791;  424.645;  345.133;   47.944
470.381;  429.436;  347.033;   47.529
470.970;  411.181;  332.058;   43.773
471.559;  429.078;  342.008;   41.646
472.148;  390.658;  303.683;   37.914
472.738;  442.634;  356.482;   48.071
473.327;  370.157;  281.358;   47.871
473.916;  429.573;  344.183;   37.716
474.505;  434.496;  347.732;   40.256
475.094;  471.933;  376.407;   43.269
475.683;  464.433;  365.032;   36.499
476.272;  426.488;  330.607;   44.542
476.861;  413.047;  312.082;   42.297
477.449;  424.390;  321.156;   46.878
478.038;  403.479;  303.132;   35.156
478.627;  414.479;  312.283;   42.514
479.216;  445.243;  339.082;   43.937
479.805;  454.832;  342.281;   51.393
480.393;  591.004;  478.332;   53.239
480.982;  511.048;  400.307;   38.955
481.571;  504.600;  389.631;   45.436
482.159;  410.265;  293.706;   51.007
482.748;  482.147;  366.357;   49.695
483.336;  505.003;  381.181;   48.280
483.925;  453.208;  334.082;   47.166
484.513;  444.038;  315.681;   55.404
485.102;  479.638;  343.207;   54.238
485.690;  586.655;  454.581;   55.748
486.278;  572.239;  440.606;   55.934
486.867;  475.945;  333.306;   57.106
487.455;  529.287;  388.156;   56.979
488.043;  436.211;  294.606;   57.564
488.631;  583.890;  434.606;   57.432
489.220;  535.369;  375.931;   63.646
489.808;  435.475;  280.831;   65.449
490.396;  534.976;  376.381;   61.977
490.984;  487.629;  312.181;   68.834
491.572;  551.327;  372.756;   70.775
492.160;  538.236;  353.331;   67.564
492.748;  518.852;  321.856;   66.808
493.336;  597.645;  385.406;   79.747
493.924;  560.986;  328.880;   88.688
494.512;  623.306;  377.506;   84.120
495.100;  638.645;  368.731;   86.250
495.687;  695.113;  385.755;  103.074
496.275;  662.077;  306.906;  108.717
496.863;  733.978;  320.381;  107.035
497.451;  806.949;  318.181;  117.993
498.038;  902.334;  337.580;  120.116
498.626;  988.293;  323.705;  143.059
499.214; 1122.239;  350.431;  153.434
499.801; 1259.694;  340.156;  175.121
500.389; 1351.479;  273.880;  185.617
500.976; 1600.266;  353.806;  215.789
501.564; 1836.608;  344.506;  240.321
502.151; 1959.179;  238.081;  267.007
502.738; 2221.936;  318.731;  317.961
503.326; 2554.770;  325.180;  361.216
503.913; 2910.023;  343.006;  401.433
504.500; 3264.104;  355.181;  446.492
505.088; 3567.329;  301.106;  512.063
505.675; 4040.778;  330.580;  586.387
506.262; 4530.870;  325.506;  671.021
506.849; 5108.623;  335.756;  759.062
507.436; 5747.390;  380.255;  849.788
508.023; 6163.623;  334.181;  944.288
508.610; 6621.315;  374.231; 1020.690
509.197; 7122.823;  357.257; 1089.052
509.784; 7705.968;  331.206; 1133.776
510.371; 8390.331;  273.280; 1165.501
510.958; 9397.999;  344.181; 1251.735
511.545; 9534.934;  392.581; 1350.248
512.132; 9499.119;  338.105; 1525.945
512.719;10021.698;  294.131; 1834.933
513.305;11042.042;  302.831; 1965.349
513.892;12290.469;  390.881; 1963.265
514.479;13314.943;  344.106; 2046.446
515.066;14199.954;  381.056; 2252.803
515.652;15290.631;  342.181; 2567.247
516.239;16269.109;  367.031; 2636.919
516.825;16437.727;  280.781; 2482.304
517.412;16681.549;  440.656; 2427.031
517.998;16550.461;  326.831; 2540.463
518.585;16550.354;  321.031; 2609.007
519.171;17287.410;  344.230; 2842.088
519.758;19049.031;  289.856; 3090.703
520.344;20217.418;  375.481; 3176.076
520.930;20810.307;  299.831; 3295.037
521.516;21698.379;  355.580; 3500.959
522.103;21913.988;  395.056; 3736.704
522.689;22729.039;  322.431; 3971.022
523.275;23861.350;  381.706; 4213.778
523.861;24042.609;  331.131; 4190.361
524.447;23840.266;  380.380; 4070.602
525.033;24397.537;  381.681; 4088.892
525.619;24471.199;  303.906; 4416.851
526.205;25278.709;  288.856; 4836.835
526.791;26616.461;  321.731; 4885.903
527.377;27466.709;  315.431; 4544.907
527.963;27720.010;  343.282; 4321.995
528.549;27080.980;  352.506; 4473.979
529.135;26204.318;  304.081; 4788.663
529.721;25432.703;  338.481; 4888.577
530.306;26096.480;  466.581; 4775.779
530.892;27248.998;  318.656; 4793.906
531.478;28344.311;  312.706; 4956.948
532.063;30247.611;  298.081; 5136.936
532.649;31853.215;  423.182; 5336.867
533.235;33260.695;  301.356; 5748.092
533.820;34414.938;  387.506; 6456.875
534.406;34100.777;  323.132; 6590.167
534.991;33415.426;  297.731; 6179.622
535.576;32485.068;  323.756; 6098.691
536.162;32500.658;  473.231; 6441.234
536.747;32916.746;  284.632; 6816.224
537.333;34156.801;  300.207; 6889.752
537.918;33824.176;  334.732; 7154.280
538.503;34441.129;  313.831; 7150.848
539.088;34748.051;  347.831; 7253.308
539.673;33899.590;  326.957; 7625.180
540.259;33385.633;  310.081; 8226.793
540.844;34890.910;  268.181; 8745.092
541.429;35246.137;  415.182; 8762.553
542.014;35262.117;  283.257; 8871.497
542.599;36235.078;  349.206; 8886.008
543.184;37534.652;  292.582; 9079.139
543.769;37093.355;  299.932; 9076.182
544.354;36105.645;  316.832; 8354.081
544.938;34649.973;  346.957; 8236.809
545.523;33863.672;  408.931; 8222.179
546.108;35362.883;  333.957; 8114.082
546.693;35514.449;  329.582; 8535.912
547.278;34776.176;  329.756; 9238.322
547.862;33195.230;  335.231; 9034.405
548.447;32360.938;  375.007; 7795.011
549.031;32223.486;  323.407; 7485.099
549.616;32690.465;  345.556; 7626.308
550.201;33712.379;  317.957; 7627.909
550.785;35538.660;  360.657; 7859.125
551.370;36881.820;  285.157; 7990.654
551.954;37356.410;  376.732; 8196.468
552.538;37820.266;  363.782; 7959.495
553.123;37428.285;  305.957; 7964.826
553.707;36851.461;  321.858; 8515.957
554.291;36369.402;  389.882; 8724.024
554.876;36496.191;  368.932; 8524.211
555.460;36370.422;  314.232; 8704.456
556.044;36617.109;  312.058; 9141.473
556.628;36105.813;  331.082; 9250.197
557.212;35622.609;  381.732; 9444.237
557.796;34581.148;  322.682; 9379.783
558.380;35914.551;  349.858; 9353.658
558.964;35672.641;  337.832; 9210.310
559.548;34434.695;  285.732; 8475.153
560.132;34618.848;  317.732; 7954.084
560.716;35715.191;  287.633; 7489.529
561.300;37170.883;  293.532; 7211.952
561.884;38390.836;  356.157; 7141.313
562.467;37389.813;  357.083; 7155.386
563.051;36539.844;  332.158; 7323.158
563.635;36066.055;  321.708; 7709.114
564.219;35388.285;  329.757; 7678.855
564.802;35622.973;  354.833; 7376.187
565.386;36138.453;  337.983; 7054.372
565.969;36562.301;  393.007; 6589.196
566.553;36302.309;  431.132; 6279.371
567.136;35486.383;  387.258; 5967.930
567.720;35450.727;  333.033; 5660.703
568.303;35032.496;  350.983; 5648.615
568.887;35562.398;  336.083; 5618.443
569.470;35555.910;  347.808; 5411.875
570.053;36095.289;  362.008; 5149.274
570.637;36348.910;  311.582; 5122.798
571.220;36986.336;  370.182; 4957.369
571.803;36253.477;  431.408; 4933.018
572.386;35927.207;  321.158; 4840.973
572.969;36507.168;  324.383; 4592.886
573.552;37513.781;  327.358; 4348.387
574.135;34990.918;  301.458; 4002.290
574.718;29863.693;  306.533; 3654.773
575.301;29230.090;  305.583; 3502.288
575.884;28596.488;  304.633; 3349.803
576.467;30160.502;  382.608; 3191.403
577.050;31768.258;  344.783; 3062.418
577.633;33250.906;  419.133; 3214.200
578.216;34032.617;  323.983; 3284.889
578.799;33940.113;  325.158; 3189.777
579.381;34955.113;  437.358; 3064.502
579.964;35600.609;  306.433; 2888.357
580.547;35406.379;  343.283; 2905.760
581.129;35694.434;  402.609; 2966.849
581.712;37354.648;  353.784; 2887.292
582.294;38275.996;  340.783; 2771.631
582.877;38362.168;  440.133; 2711.602
583.459;37639.098;  337.109; 2577.049
584.042;36421.660;  331.484; 2454.707
584.624;36129.375;  309.609; 2305.893
585.206;35164.047;  266.683; 2189.546
585.789;33061.355;  312.459; 2112.577
586.371;31382.340;  356.459; 2153.065
586.953;31603.707;  368.459; 2197.806
587.536;32844.117;  400.958; 2105.489
588.118;33012.734;  328.560; 1963.911
588.700;33697.832;  402.784; 1843.179
589.282;33769.977;  356.533; 1813.834
589.864;33383.668;  339.384; 1777.620
590.446;33671.191;  270.159; 1733.780
591.028;34459.277;  335.084; 1676.008
591.610;35492.227;  269.934; 1631.649
592.192;34610.984;  343.883; 1632.362
592.774;32666.125;  296.959; 1569.507
593.356;30923.088;  308.434; 1524.539
593.937;31029.670;  305.209; 1569.720
594.519;31517.824;  385.159; 1569.049
595.101;32452.738;  280.159; 1545.452
595.683;32810.879;  312.384; 1607.568
596.264;33205.887;  329.084; 1615.506
596.846;33314.480;  316.159; 1667.622
597.427;33982.086;  311.585; 1670.469
598.009;35172.711;  306.135; 1640.312
598.591;33478.797;  368.334; 1541.022
599.172;32591.055;  329.159; 1598.665
599.753;33278.281;  287.835; 1619.068
600.335;31679.078;  399.860; 1548.612
600.916;29430.602;  330.059; 1607.510
601.498;30289.852;  352.434; 1745.181
602.079;31581.729;  332.735; 1801.011
602.660;31574.463;  331.085; 1834.640
603.241;30305.535;  266.484; 1787.351
603.823;29722.367;  312.009; 1684.266
604.404;29108.766;  294.460; 1654.241
604.985;29898.963;  311.435; 1758.741
605.566;29639.287;  373.284; 1697.679
606.147;29506.479;  326.810; 1526.728
606.728;31330.629;  287.885; 1484.086
607.309;32487.850;  312.260; 1421.070
607.890;32575.447;  320.084; 1369.867
608.471;32619.947;  305.985; 1277.826
609.051;31682.086;  345.735; 1180.416
609.632;31815.613;  298.910; 1075.816
610.213;32522.553;  327.260; 1053.313
610.794;31803.932;  319.860;  979.442
611.374;31083.723;  353.585;  917.414
611.955;30335.656;  279.385;  819.987
612.536;30611.855;  350.760;  752.627
613.116;31920.045;  314.485;  690.799
613.697;32540.629;  306.310;  674.974
614.277;32395.109;  296.261;  663.846
614.858;30152.291;  315.435;  665.898
615.438;28449.189;  331.435;  660.712
616.019;27502.146;  396.911;  632.732
616.599;27510.572;  257.935;  551.759
617.179;28480.404;  288.785;  512.871
617.760;29608.818;  453.610;  473.655
618.340;29670.252;  327.786;  440.004
618.920;30489.877;  411.910;  429.731
619.500;30009.709;  317.361;  441.361
620.080;30486.480;  299.235;  425.202
620.660;30834.607;  298.436;  408.164
621.241;30680.727;  315.461;  387.161
621.821;31244.508;  335.836;  378.017
622.401;30747.930;  382.235;  379.188
622.980;30294.139;  283.836;  350.019
623.560;29316.143;  316.836;  336.446
624.140;26913.299;  340.235;  336.473
624.720;25689.621;  346.736;  334.974
625.300;25022.750;  297.610;  325.717
625.880;26497.129;  329.611;  308.519
626.459;28860.277;  329.936;  307.117
627.039;31188.084;  273.711;  290.890
627.619;33781.625;  432.161;  286.635
628.198;33441.660;  382.786;  282.535
628.778;30434.422;  359.011;  285.474
629.357;28685.807;  289.461;  284.103
629.937;28918.480;  314.761;  292.178
630.516;30755.105;  404.261;  290.749
631.096;31346.467;  305.311;  285.489
631.675;31765.031;  395.186;  287.022
632.254;32122.371;  305.012;  286.038
632.834;31232.520;  326.362;  276.451
633.413;29579.748;  400.736;  279.447
633.992;29324.270;  375.962;  264.508
634.571;29611.689;  361.012;  271.010
635.151;29756.041;  293.462;  277.338
635.730;29674.104;  321.436;  289.305
636.309;28142.219;  358.911;  285.306
636.888;26995.506;  354.262;  254.051
637.467;26544.242;  269.612;  230.324
638.046;27272.227;  400.486;  253.349
638.625;29457.471;  386.537;  246.866
639.204;29882.729;  345.112;  240.825
639.782;29041.992;  333.362;  261.970
640.361;28367.498;  391.961;  277.780
640.940;27362.131;  308.461;  270.101
641.519;26987.791;  360.011;  248.622
642.097;26886.975;  353.961;  239.843
642.676;27425.607;  338.986;  244.264
643.255;29050.266;  319.311;  234.985
643.833;30902.176;  360.561;  244.406
644.412;31545.635;  314.386;  244.927
644.990;29642.443;  338.211;  249.948
645.569;28805.377;  355.861;  249.569
646.147;28437.436;  372.611;  243.290
646.726;29973.395;  335.211;  249.511
647.304;31333.777;  321.061;  228.032
647.882;30777.936;  270.686;  214.552
648.461;29007.221;  342.686;  214.973
649.039;27285.154;  366.261;  223.394
649.617;26323.213;  357.161;  261.415
650.195;26358.197;  346.036;  298.736
650.773;27752.555;  314.336;  309.557
651.352;27301.738;  258.236;  297.978
651.930;24790.623;  257.711;  289.399
652.508;24830.607;  366.686;  285.620
653.086;25555.615;  350.436;  272.241
653.663;27013.773;  306.061;  265.062
654.241;28893.809;  282.711;  286.083
654.819;29860.566;  288.861;  286.404
655.397;30150.650;  297.536;  291.825
655.975;30006.584;  319.561;  299.145
656.553;29911.943;  400.861;  288.866
657.130;30523.102;  294.961;  304.087
657.708;30079.736;  344.761;  302.908
658.286;29346.594;  337.811;  294.629
658.863;29069.578;  338.536;  293.350
659.441;29743.762;  343.611;  318.671
660.018;29962.096;  327.111;  333.692
660.596;29723.580;  265.536;  335.013
661.173;30004.588;  309.686;  371.534
661.750;29673.422;  294.510;  365.155
662.328;29376.406;  357.635;  349.976
662.905;28241.689;  312.110;  332.997
663.482;27306.898;  325.085;  321.717
664.060;26953.207;  303.885;  314.438
664.637;28218.990;  362.985;  306.259
665.214;29100.600;  343.760;  314.580
665.791;29065.959;  318.410;  334.501
666.368;28869.018;  312.610;  329.222
666.945;28151.400;  360.485;  342.143
667.522;27569.584;  298.035;  370.964
668.099;26980.693;  321.685;  396.885
668.676;27844.227;  327.960;  391.706
669.253;28395.910;  403.010;  369.627
669.830;28701.420;  384.935;  360.348
670.407;28381.004;  321.710;  344.769
670.984;28168.086;  324.710;  322.890
671.560;27521.596;  366.585;  316.910
672.137;26408.029;  316.510;  322.531
672.714;25776.488;  348.160;  318.552
673.290;26088.271;  339.310;  324.473
673.867;25700.080;  305.735;  340.594
674.443;25056.814;  280.660;  319.515
675.020;25601.498;  334.360;  286.336
675.596;27352.857;  325.335;  247.557
676.173;27894.516;  284.685;  227.778
676.749;28304.975;  241.110;  224.399
677.326;27769.809;  276.485;  230.520
677.902;27183.742;  299.535;  241.841
678.478;27509.926;  287.935;  239.762
679.054;27125.434;  496.185;  248.583
679.631;26190.893;  350.035;  237.503
680.207;26608.502;  420.585;  245.924
680.783;26385.785;  257.685;  224.845
681.359;26088.320;  328.635;  209.666
681.935;25756.604;  333.235;  191.687
682.511;25883.688;  334.310;  210.008
683.087;25908.670;  353.460;  213.329
683.663;26175.154;  316.860;  216.850
684.239;25801.088;  282.010;  229.471
684.815;25990.021;  371.410;  248.792
685.390;26171.781;  420.910;  231.813
685.966;25764.340;  330.384;  221.234
686.542;25504.848;  293.884;  214.255
687.118;24917.156;  337.609;  212.276
687.693;25053.041;  354.159;  233.096
688.269;25456.475;  319.759;  246.917
688.844;24623.883;  348.934;  236.938
689.420;24096.842;  332.309;  242.059
689.995;24507.352;  412.309;  245.480
690.571;24545.260;  387.209;  244.701
691.146;24497.969;  318.634;  251.922
691.722;25637.428;  346.309;  284.743
692.297;25899.236;  309.209;  320.664
692.872;25819.395;  292.359;  313.885
693.448;25179.553;  286.509;  290.106
694.023;24916.063;  338.409;  304.327
694.598;25497.471;  330.909;  319.648
695.173;26382.504;  309.734;  323.169
695.748;26463.088;  262.034;  376.389
696.323;25715.822;  322.634;  397.610
696.898;26003.406;  380.859;  430.231
697.473;26395.141;  270.409;  454.952
698.048;25438.049;  315.859;  478.973
698.623;25205.557;  275.434;  477.094
699.198;25331.967;  332.634;  496.915
699.773;26007.100;  296.709;  490.236
700.348;27157.758;  286.534;  519.957
700.922;26864.518;  335.884;  575.678
701.497;26086.701;  329.484;  621.399
702.072;25648.561;  368.459;  664.420
702.646;26251.469;  358.209;  690.541
703.221;26017.203;  345.334;  748.862
703.795;24799.137;  292.784;  774.282
704.370;24336.770;  240.209;  799.803
704.944;24976.203;  308.359;  875.824
705.519;25650.938;  341.384;  902.945
706.093;25751.570;  295.009;  889.266
706.668;24881.355;  352.859;  903.487
707.242;24776.238;  362.059;  881.708
707.816;24459.848;  319.884;  892.329
708.390;24650.506;  325.334;  970.250
708.965;24540.865;  337.084;  984.671
709.539;23750.648;  317.284; 1026.092
710.113;23406.332;  331.783; 1067.913
710.687;24271.592;  359.383; 1166.434
711.261;25285.150;  281.883; 1190.854
711.835;25625.658;  289.733; 1197.275
712.409;25774.518;  268.058; 1308.096
712.983;26594.051;  265.958; 1461.617
713.557;25887.135;  264.508; 1611.838
714.131;25999.818;  313.533; 1554.359
714.704;26182.152;  298.083; 1520.780
715.278;25154.537;  328.983; 1575.101
715.852;23981.670;  353.558; 1689.822
716.425;24583.479;  415.733; 1829.143
716.999;25282.389;  263.658; 2008.664
717.573;25180.021;  348.733; 2000.485
718.146;26225.006;  407.658; 1914.506
718.720;26507.238;  336.808; 1818.026
719.293;25893.723;  347.408; 1734.147
719.867;25627.006;  302.283; 1716.968
720.440;26101.916;  390.233; 1918.589
721.013;26718.824;  307.233; 1975.410
721.587;26470.533;  270.283; 2073.331
722.160;26268.992;  369.008; 2357.852
722.733;26407.400;  340.358; 2657.073
723.306;27024.033;  324.358; 2703.894
723.880;28063.094;  337.958; 2549.415
724.453;28335.301;  381.208; 2414.336
725.026;28244.836;  305.433; 2298.557
725.599;27675.895;  334.183; 2168.778
726.172;27115.502;  349.033; 2106.099
726.745;27950.461;  346.783; 2253.320
727.318;27319.445;  364.533; 2404.740
727.891;26750.930;  335.333; 2680.161
728.463;26764.162;  334.933; 2838.882
729.036;25866.922;  296.258; 2755.103
729.609;24720.781;  294.583; 2731.824
730.182;24163.664;  360.033; 2855.645
730.754;25238.072;  246.233; 2946.866
731.327;25578.781;  351.758; 2840.187
731.900;24614.965;  271.533; 2647.608
732.472;24177.148;  323.433; 2473.929
733.045;24011.959;  313.083; 2445.750
733.617;23921.316;  262.832; 2511.771
734.190;23178.326;  346.907; 2581.592
734.762;23739.809;  316.282; 2710.813
735.334;24723.242;  329.782; 3005.733
735.907;24245.102;  333.132; 3154.954
736.479;23453.285;  370.857; 3171.675
737.051;23806.568;  347.357; 3217.496
737.623;26088.152;  357.882; 3246.217
738.195;26800.787;  299.482; 2985.238
738.768;25756.070;  252.782; 2727.559
739.340;24997.529;  304.857; 2666.880
739.912;24334.338;  357.657; 2769.601
740.484;23084.197;  350.757; 2731.422
741.056;23358.305;  312.057; 2963.043
741.628;25101.514;  289.782; 3361.364
742.199;26005.973;  383.907; 3641.185
742.771;25593.707;  280.457; 3932.005
743.343;25735.291;  292.832; 4319.926
743.915;25724.625;  344.282; 4706.647
744.487;25050.107;  347.457; 4874.968
745.058;24494.566;  353.457; 4616.589
745.630;23923.551;  348.382; 4253.410
746.201;23767.859;  304.807; 4056.131
746.773;23671.119;  349.032; 3772.952
747.344;23316.127;  322.357; 3642.473
747.916;23668.936;  333.257; 3752.294
748.487;23777.770;  359.432; 4106.215
749.059;22612.053;  284.982; 4457.835
749.630;21856.037;  297.432; 4366.457
750.201;22505.596;  320.057; 4600.078
750.773;23281.129;  303.332; 4658.499
751.344;23055.363;  327.382; 4609.319
751.915;22497.623;  322.882; 4526.440
752.486;22545.980;  293.582; 4536.061
753.057;22020.389;  329.332; 4383.282
753.628;21426.174;  295.257; 4296.503
754.199;20964.807;  310.882; 4383.224
754.770;20584.941;  353.057; 4653.545
755.341;19763.699;  360.857; 4831.666
755.912;19509.408;  319.107; 4831.387
756.483;20071.867;  345.682; 4735.808
757.054;20837.352;  311.757; 4685.029
757.625;20455.109;  283.281; 4994.250
758.195;19503.793;  271.456; 5051.471
758.766;19486.703;  334.106; 5317.792
759.337;19521.137;  271.731; 5646.512
759.907;19852.744;  273.281; 5404.133
760.478;19923.529;  301.906; 5090.954
761.048;20040.588;  350.156; 4871.175
761.619;19842.047;  343.981; 4589.396
762.189;19601.555;  323.481; 4171.317
762.760;19053.613;  353.681; 3872.538
763.330;19201.197;  348.956; 3832.259
763.900;19967.682;  336.956; 4150.180
764.471;19575.715;  288.831; 4529.801
765.041;18469.123;  377.656; 4715.922
765.611;18542.982;  345.006; 4681.442
766.181;19495.740;  313.381; 4717.063
766.751;19473.650;  326.356; 4710.285
767.321;18779.408;  281.681; 4450.305
767.891;18931.168;  335.006; 4274.126
768.461;18523.176;  317.181; 4215.047
769.031;17914.334;  319.931; 4173.068
769.601;17606.443;  371.706; 4174.689
770.171;17256.777;  271.681; 4229.310
770.741;17670.986;  308.231; 4352.031
771.311;17109.494;  349.906; 4336.652
771.880;16295.903;  290.606; 4300.873
772.450;16510.463;  293.831; 4387.194
773.020;17539.672;  265.356; 4220.415
773.589;18139.930;  304.181; 4075.835
774.159;17977.613;  303.806; 4105.756
774.729;17472.123;  302.231; 4114.978
775.298;17387.707;  295.981; 3693.298
775.867;17243.465;  299.481; 3343.119
776.437;16423.725;  327.631; 3062.040
777.006;16045.532;  274.856; 2927.161
777.576;16181.041;  344.456; 3046.482
778.145;16420.199;  343.356; 3230.203
778.714;15862.959;  322.006; 3253.324
779.283;15467.643;  348.206; 3129.745
779.853;15303.826;  314.331; 2983.566
780.422;15716.960;  318.631; 2929.887
780.991;15664.844;  342.380; 2863.908
781.560;15141.978;  388.455; 2948.029
782.129;14724.312;  340.005; 3074.149
782.698;14716.370;  380.505; 2893.970
783.267;14589.654;  307.955; 2721.391
783.836;14470.788;  330.805; 2659.712
784.404;14361.347;  279.880; 2622.233
784.973;14617.580;  237.455; 2600.754
785.542;14402.014;  315.855; 2528.475
786.111;14264.897;  374.280; 2404.396
786.679;13825.307;  344.680; 2365.717
787.248;13570.891;  267.330; 2498.438
787.817;13518.949;  303.955; 2645.659
788.385;13651.658;  369.230; 2709.280
788.954;13538.892;  275.655; 2620.500
789.522;13871.500;  355.780; 2625.422
790.090;13881.834;  278.980; 2743.843
790.659;13774.268;  306.080; 2635.163
791.227;13131.401;  311.805; 2495.484
791.795;12734.210;  331.755; 2413.705
792.364;12491.169;  290.980; 2345.326
792.932;12568.728;  340.980; 2350.447
793.500;12181.462;  316.380; 2429.768
794.068;12037.646;  268.080; 2513.589
794.636;12275.629;  295.280; 2664.310
795.204;12036.238;  262.980; 2721.431
795.772;11597.422;  290.305; 2802.052
796.340;11136.806;  299.005; 2847.173
796.908;11335.989;  261.530; 2997.194
797.476;11471.473;  284.905; 3151.615
798.044;11343.557;  253.155; 3110.735
798.612;11051.865;  314.105; 2931.656
799.180;10961.624;  325.680; 2785.777
799.747;10932.308;  319.580; 2899.098
800.315;10525.917;  274.780; 2955.519
800.883;10280.400;  252.155; 2948.940
801.450;10247.435;  315.580; 2965.361
802.018;10085.218;  334.130; 3070.582
802.585; 9985.427;  322.055; 3156.103
803.153; 9884.261;  289.680; 3199.524
803.720; 9656.669;  296.830; 3168.845
804.287; 9512.378;  306.930; 3248.366
804.855; 9513.587;  359.104; 3406.187
805.422; 9122.596;  307.929; 3430.907
805.989; 8751.754;  290.679; 3453.528
806.556; 8587.713;  291.654; 3612.649
807.124; 8971.672;  357.604; 3736.570
807.691; 9059.730;  281.554; 3770.491
808.258; 8699.765;  319.179; 3705.012
808.825; 8429.798;  355.079; 3828.733
809.392; 8353.257;  385.954; 3986.754
809.959; 8365.791;  332.604; 4410.075
810.526; 8310.675;  389.054; 4774.996
811.093; 8093.133;  368.679; 4754.217
811.659; 8067.092;  315.429; 4661.238
812.226; 8334.525;  314.129; 4672.559
812.793; 8484.859;  327.529; 4822.979
813.360; 8187.818;  317.729; 5189.800
813.926; 7910.302;  328.854; 5310.622
814.493; 7508.761;  271.154; 5414.542
815.060; 7230.970;  255.704; 5548.963
815.626; 7253.853;  275.854; 5452.284
816.193; 7603.712;  325.404; 5339.305
816.759; 7418.596;  287.029; 5544.426
817.325; 7374.405;  257.729; 5706.547
817.892; 7534.688;  353.004; 5623.468
818.458; 7375.672;  337.154; 5586.689
819.024; 7417.006;  363.754; 5647.910
819.591; 7310.689;  321.029; 5762.031
820.157; 7063.673;  276.979; 6284.452
820.723; 7185.482;  336.229; 6906.973
821.289; 7352.141;  506.079; 7086.894
821.855; 7118.524;  346.254; 7054.915
822.421; 7183.458;  299.279; 7112.035
822.987; 7251.842;  280.329; 7256.156
823.553; 7124.176;  308.029; 7538.077
824.119; 7004.185;  357.979; 7594.298
824.685; 6937.568;  375.329; 7613.619
825.251; 6877.027;  349.804; 7644.140
825.816; 6840.761;  394.904; 7720.261
826.382; 6525.095;  353.229; 8014.282
826.948; 6304.104;  360.979; 8281.503
827.513; 6439.237;  312.229; 8289.624
828.079; 6585.121;  284.654; 8587.045
828.645; 6534.055;  331.953; 8821.865
829.210; 6537.863;  280.028; 9054.486
829.776; 6574.772;  341.478; 9054.607
830.341; 6495.331;  348.903; 9415.628
830.906; 6361.815;  366.128; 9932.449
831.472; 6284.874;  292.928;10150.271
832.037; 6345.708;  358.778; 9420.391
832.602; 6145.491;  297.278; 8664.912
833.167; 6084.300;  322.128; 8491.933
833.733; 6033.909;  355.203; 8872.854
834.298; 5700.643;  283.078; 9370.575
834.863; 5675.301;  335.253; 9610.695
835.428; 5704.060;  332.603; 9655.616
835.993; 5726.144;  346.478; 9437.838
836.558; 5782.953;  350.903; 9441.459
837.123; 6016.536;  435.803; 9600.979
837.688; 5828.095;  333.278; 9798.301
838.253; 5636.304;  336.928; 9902.921
838.817; 5775.887;  311.203;10339.742
839.382; 6173.321;  374.978;10548.363
839.947; 6037.355;  323.128;10252.484
840.511; 5677.039;  393.528;10040.005
841.076; 5182.848;  252.078;10099.926
841.641; 5191.806;  344.703;10347.347
842.205; 5243.115;  337.778;10817.368
842.770; 5447.824;  408.353;11435.289
843.334; 5587.433;  312.103;12072.409
843.898; 5642.066;  310.603;12635.431
844.463; 5762.725;  380.278;12537.252
845.027; 5653.659;  308.503;12759.673
845.591; 5652.042;  363.603;12821.993
846.156; 5481.102;  299.378;12520.914
846.720; 5295.135;  354.153;12390.436
847.284; 5331.469;  330.928;12956.456
847.848; 5386.403;  348.053;13240.177
848.412; 5283.136;  323.753;13216.998
848.976; 5240.270;  386.653;13014.619
849.540; 5178.679;  417.803;12355.740
850.104; 5160.938;  383.053;12208.761
850.668; 4947.122;  254.278;12106.882
851.232; 4973.255;  268.203;11862.103
851.796; 5091.414;  320.853;11700.523
852.359; 5073.473;  357.802;12375.944
852.923; 5033.606;  372.677;13087.966
853.487; 4859.665;  354.002;13297.187
854.050; 4538.224;  221.277;13851.207
854.614; 4580.383;  307.352;14854.229
855.177; 4583.767;  338.277;15802.149
855.741; 4435.650;  345.252;16603.570
856.304; 4198.459;  368.077;16359.891
856.868; 3982.343;  285.127;14365.512
857.431; 4026.152;  327.252;13361.333
857.995; 4098.885;  311.852;14130.554
858.558; 4285.669;  344.802;14883.175
859.121; 4303.703;  356.802;15754.195
859.684; 4103.086;  334.527;15995.017
860.247; 3936.795;  330.327;15149.537
860.810; 3901.929;  315.502;14640.358
861.374; 4042.913;  427.327;15551.079
861.937; 4025.722;  281.702;16519.801
862.500; 4305.630;  308.952;16796.521
863.062; 4225.464;  286.727;16538.742
863.625; 4111.473;  336.352;16716.764
864.188; 3923.757;  303.952;17055.084
864.751; 3880.916;  311.477;17197.705
865.314; 3901.749;  328.227;17151.625
865.876; 3886.133;  367.602;17783.547
866.439; 3739.867;  356.927;19283.467
867.002; 3737.426;  418.077;20256.389
867.564; 3576.834;  382.527;20485.410
868.127; 3511.993;  339.677;20789.730
868.689; 3437.527;  337.727;21981.951
869.252; 3446.410;  379.552;23803.771
869.814; 3369.269;  297.202;24974.094
870.377; 3466.328;  333.127;24690.314
870.939; 3632.462;  475.577;23963.436
871.501; 3462.321;  336.752;25167.156
872.063; 3239.704;  240.777;26995.477
872.626; 3310.713;  266.427;27443.098
873.188; 3342.947;  339.102;26718.418
873.750; 3227.381;  318.952;26558.840
874.312; 3268.914;  307.927;26701.561
874.874; 3360.073;  397.902;27970.582
875.436; 3219.757;  355.951;29173.402
875.998; 3175.291;  389.851;30376.623
876.560; 3038.349;  360.801;32507.344
877.122; 2821.308;  294.651;34833.066
877.683; 2705.517;  350.176;36458.285
878.245; 2629.551;  318.351;37248.207
878.807; 2749.359;  347.801;36758.027
879.369; 2772.868;  283.901;35223.551
879.930; 2698.077;  283.676;33824.969
880.492; 2790.536;  383.151;34436.492
881.053; 2700.195;  294.601;37745.313
881.615; 2608.253;  307.076;41184.633
882.176; 2533.687;  324.176;42871.555
882.738; 2574.146;  358.351;41693.074
883.299; 2405.030;  262.026;40289.895
883.860; 2298.413;  266.201;39231.215
884.422; 2299.022;  356.201;38264.039
884.983; 2168.431;  288.701;37171.859
885.544; 2176.040;  334.101;35842.379
886.105; 2165.023;  327.726;34810.000
886.666; 2198.932;  316.601;34519.020
887.227; 2102.991;  267.851;33905.641
887.788; 2105.475;  338.601;34502.965
888.349; 1967.608;  284.426;34241.785
888.910; 1943.942;  352.301;33722.203
889.471; 1789.251;  338.351;32539.625
890.032; 1701.060;  326.526;31528.346
890.593; 1681.368;  353.451;32655.068
891.153; 1663.902;  318.251;33882.289
891.714; 1602.486;  271.876;33318.711
892.275; 1590.845;  279.076;31848.930
892.835; 1621.278;  366.851;30339.752
893.396; 1553.262;  351.251;30074.973
893.956; 1432.896;  321.201;30338.393
894.517; 1395.055;  334.976;30864.113
895.077; 1369.438;  341.851;29766.734
895.638; 1403.397;  397.501;26379.557
896.198; 1271.731;  284.226;24056.277
896.758; 1285.615;  363.351;22961.898
897.319; 1192.573;  322.426;21772.020
897.879; 1150.982;  327.851;20877.539
898.439; 1071.791;  269.326;19509.461
898.999; 1125.725;  347.950;17297.582
899.559; 1087.609;  342.950;14712.002
900.119;  995.992;  283.975;12790.224
900.679; 1072.851;  392.525;11586.744
901.239;  999.010;  353.950;10776.465
901.799;  950.619;  331.000; 9691.687
902.359;  894.577;  294.300; 8725.907
902.919;  864.186;  289.650; 8305.728
903.479;  844.845;  290.550; 8172.649
904.038;  796.704;  279.900; 7913.870
904.598;  740.187;  237.225; 7262.291
905.158;  788.571;  307.100; 6609.012
905.717;  789.755;  319.925; 6236.133
906.277;  774.514;  329.425; 5829.054
906.836;  761.972;  346.525; 5396.674
907.396;  752.156;  345.100; 4964.195
907.955;  747.765;  344.600; 4528.917
908.515;  698.374;  310.200; 4223.837
909.074;  694.307;  311.450; 4023.958
909.633;  677.541;  317.675; 4065.379
910.192;  744.950;  398.125; 4066.300
910.752;  652.575;  311.025; 3971.600
911.311;  635.650;  302.425; 3839.600
911.870;  613.625;  294.400; 3684.500
912.429;  678.150;  367.100; 3635.600
912.988;  660.775;  360.725; 3689.800
913.547;  587.050;  291.250; 3737.700
914.106;  622.225;  328.775; 3740.300
914.665;  610.675;  328.125; 3604.600
915.224;  645.125;  367.300; 3358.700
915.782;  575.725;  303.450; 3188.400
916.341;  639.775;  375.900; 3091.400
916.900;  568.700;  309.825; 3044.800
917.458;  549.825;  290.900; 2888.600
918.017;  579.550;  323.825; 2818.900
918.576;  559.625;  306.850; 2838.600
919.134;  517.450;  270.925; 2880.100
919.693;  550.650;  303.825; 2996.300
920.251;  543.250;  294.975; 3183.100
920.809;  519.350;  280.075; 3247.000
921.368;  546.550;  306.550; 3156.600
921.926;  526.875;  286.775; 2964.900
922.484;  555.225;  321.075; 2846.300
923.042;  537.500;  309.775; 2890.400
923.601;  605.925;  378.950; 2987.700
924.159;  573.975;  343.425; 3049.800
924.717;  518.275;  283.975; 3087.000
925.275;  553.275;  320.000; 3093.400
925.833;  486.075;  253.450; 3182.400
926.391;  572.525;  344.775; 3397.900
926.949;  530.850;  295.650; 3575.400
927.506;  555.775;  326.450; 3713.400
928.064;  538.450;  311.175; 3871.300
928.622;  540.450;  309.725; 4092.800
929.180;  501.925;  275.125; 4499.300
929.737;  500.050;  266.100; 4813.200
930.295;  570.125;  337.375; 5084.100
930.853;  521.575;  283.675; 5185.000
931.410;  503.975;  273.025; 5313.100
931.968;  578.900;  344.250; 5339.600
932.525;  559.925;  327.375; 5399.900
933.082;  499.600;  265.950; 5457.500
933.640;  564.850;  328.025; 5692.900
934.197;  545.125;  309.200; 5821.200
934.754;  548.975;  305.600; 5617.900
935.312;  534.450;  289.325; 5512.400
935.869;  615.550;  374.375; 5582.400
936.426;  529.950;  289.250; 5650.100
936.983;  539.925;  298.200; 5657.400
937.540;  511.450;  269.650; 5564.300
938.097;  579.300;  327.175; 5574.000
938.654;  554.700;  301.500; 5665.900
939.211;  584.225;  331.500; 5931.600
939.768;  564.200;  310.250; 6153.600
940.324;  555.425;  298.750; 6397.600
940.881;  550.950;  285.525; 6454.200
941.438;  629.400;  365.925; 6206.900
941.995;  617.500;  349.275; 6003.900
942.551;  544.975;  272.650; 6228.300
943.108;  586.700;  313.650; 6603.500
943.664;  542.075;  277.825; 7188.100
944.221;  659.975;  401.575; 7579.900
944.777;  528.150;  269.500; 7658.100
945.334;  526.925;  282.525; 7670.400
945.890;  565.850;  317.025; 7525.100
946.446;  570.900;  313.075; 7261.500
947.003;  584.975;  323.250; 6949.200
947.559;  635.650;  383.950; 6773.100
948.115;  616.075;  358.575; 6668.400
948.671;  586.825;  322.300; 6488.400
949.227;  526.625;  259.975; 6236.600
949.783;  519.350;  255.075; 6008.900
950.339;  593.000;  331.025; 5934.100
950.895;  613.825;  351.200; 5933.500
951.451;  548.875;  295.350; 6074.700
952.007;  601.550;  338.975; 6066.400
952.563;  568.475;  298.450; 5884.100
953.118;  553.025;  287.425; 5733.800
953.674;  576.150;  306.625; 5734.300
954.230;  579.475;  314.075; 6039.700
954.785;  576.125;  312.725; 6383.500
955.341;  608.550;  351.075; 6568.200
955.897;  518.775;  254.200; 6488.600
956.452;  586.750;  328.625; 6239.200
957.008;  663.250;  404.550; 5954.600
957.563;  619.800;  367.550; 5816.700
958.118;  541.575;  282.450; 5828.200
958.674;  578.050;  322.825; 5717.400
959.229;  624.500;  367.175; 5506.800
959.784;  522.200;  267.275; 5292.200
960.339;  616.325;  364.800; 5101.900
960.894;  593.850;  341.450; 5093.200
961.449;  532.025;  280.925; 5227.900
962.004;  731.225;  490.500; 5349.300
962.559;  531.125;  284.775; 5514.900
963.114;  468.450;  222.725; 5717.300
963.669;  562.025;  317.925; 5841.400
964.224;  539.650;  299.750; 5805.900
964.779;  516.250;  267.100; 5723.400
965.334;  627.800;  380.675; 5779.500
965.888;  537.600;  292.650; 5948.500
966.443;  591.300;  350.425; 6344.200
966.998;  499.950;  257.300; 6666.300
967.552;  555.400;  312.450; 6710.100
968.107;  535.400;  293.775; 6593.500
968.661;  562.275;  326.450; 6344.100
969.216;  522.050;  284.875; 6062.400
969.770;  557.525;  322.850; 5785.500
970.324;  555.075;  329.125; 5426.800
970.879;  574.300;  344.225; 5016.800
971.433;  574.200;  343.925; 4904.500
971.987;  549.075;  314.875; 4991.000
972.541;  559.475;  331.825; 4978.500
973.095;  608.750;  388.575; 4832.000
973.649;  500.875;  265.950; 4767.900
974.203;  512.300;  281.000; 4881.200
974.757;  521.325;  301.075; 4969.500
975.311;  533.975;  310.600; 4953.000
975.865;  537.150;  311.625; 4884.300
976.419;  523.925;  300.375; 4739.800
976.973;  515.250;  297.375; 4698.100
977.526;  574.125;  357.650; 4631.100
978.080;  479.150;  267.000; 4621.600
978.634;  555.100;  342.325; 4650.200
979.187;  540.400;  335.325; 4669.200
979.741;  616.350;  401.000; 4658.000
980.294;  481.250;  272.800; 4579.100
980.848;  434.525;  232.750; 4452.800
981.401;  495.850;  297.025; 4271.900
981.955;  519.125;  316.275; 4087.800
982.508;  461.050;  256.725; 3973.900
983.061;  559.550;  358.500; 3928.600
983.615;  482.275;  283.725; 3851.200
984.168;  466.200;  269.550; 3734.800
984.721;  529.775;  334.400; 3628.300
985.274;  519.150;  326.400; 3564.300
985.827;  498.000;  308.675; 3558.100
986.380;  432.025;  247.075; 3559.900
986.933;  520.225;  332.400; 3688.700
987.486;  511.950;  328.700; 3778.500
988.039;  514.750;  335.625; 3559.900
988.591;  531.600;  355.000; 3219.300
989.144;  446.025;  263.175; 2902.900
989.697;  453.875;  282.775; 2722.600
990.250;  510.275;  343.775; 2618.000
990.802;  455.650;  284.350; 2523.900
991.355;  577.575;  416.225; 2436.500
991.907;  514.138;  353.175; 2412.200
992.460;  450.700;  290.125; 2387.900
993.012;  449.575;  292.925; 2365.800
993.565;  425.450;  269.025; 2311.100
994.117;  564.125;  415.075; 2308.700
994.669;  420.775;  272.775; 2249.300
995.221;  475.750;  325.775; 2158.100
995.774;  466.200;  323.950; 2085.600
996.326;  442.950;  302.975; 2068.100
996.878;  496.075;  364.650; 1975.300
997.430;  416.425;  280.975; 1929.500
997.982;  441.600;  314.375; 1861.900
998.534;  439.300;  312.325; 1830.200
999.086;  432.575;  309.400; 1823.200
999.638;  390.600;  264.475; 1815.000
1000.190;  414.975;  289.550; 1796.600
1000.741;  437.075;  315.700; 1738.800
1001.293;  403.425;  285.475; 1666.200
1001.845;  398.375;  282.400; 1566.500
1002.396;  439.975;  323.025; 1471.900
1002.948;  430.325;  319.025; 1398.000
1003.500;  424.400;  311.450; 1356.500
1004.051;  537.175;  427.075; 1294.200
1004.603;  467.150;  355.975; 1190.000
1005.154;  350.200;  256.550; 1063.900
1005.705;  419.450;  327.275;  968.300
1006.257;  414.425;  321.050;  889.800
1006.808;  401.700;  307.300;  801.500
1007.359;  450.150;  357.950;  716.400
1007.910;  379.475;  292.775;  639.100
1008.461;  432.975;  340.400;  561.600
1009.013;  346.125;  260.275;  500.400
1009.564;  460.125;  379.075;  476.100
1010.115;  343.700;  266.650;  431.600
1010.665;  355.925;  276.375;  409.300
1011.216;  392.350;  307.725;  399.700
1011.767;  403.600;  322.300;  388.100
1012.318;  423.475;  346.275;  381.400
1012.869;  393.750;  312.400;  375.400
1013.419;  355.975;  272.200;  357.600
1013.970;  391.000;  308.450;  358.300
1014.521;  358.500;  282.075;  344.100
1015.071;  391.650;  311.900;  322.800
1015.622;  367.975;  293.350;  320.600
1016.172;  344.450;  275.300;  301.700
1016.723;  353.325;  282.900;  289.800
1017.273;  352.300;  277.850;  287.600
1017.823;  374.675;  300.200;  278.700
1018.374;  353.575;  284.275;  274.400
1018.924;  418.050;  341.950;  283.200
1019.474;  413.750;  342.125;  278.500
1020.024;  377.600;  308.475;  274.700
1020.574;  419.925;  347.200;  272.700
1021.124;  388.475;  320.825;  278.400
1021.674;  327.550;  254.500;  269.200
1022.224;  412.475;  338.750;  267.800
1022.774;  385.600;  316.850;  258.100
1023.324;  437.475;  367.150;  260.000
1023.874;  509.600;  441.500;  260.700
1024.423;  355.550;  279.150;  252.700
1024.973;  358.700;  281.275;  234.700
1025.523;  357.275;  289.800;  226.500
1026.072;  351.625;  285.275;  225.500
1026.622;  395.000;  318.725;  210.100
1027.172;  414.525;  346.700;  213.000
1027.721;  348.675;  280.500;  207.700
1028.270;  387.100;  319.175;  205.400
1028.820;  368.075;  302.250;  201.000
1029.369;  356.375;  286.450;  201.000
1029.918;  371.825;  305.700;  198.400
1030.468;  326.500;  259.425;  199.200
1031.017;  364.300;  300.400;  192.600
1031.566;  351.125;  289.275;  197.400
1032.115;  400.925;  337.900;  188.300
1032.664;  348.025;  279.900;  193.700
1033.213;  419.275;  362.050;  191.900
1033.762;  363.600;  302.625;  184.500
1034.311;  395.850;  326.850;  194.300
1034.860;  399.675;  336.175;  192.300
1035.408;  418.975;  355.150;  182.600
1035.957;  412.525;  352.700;  173.900
1036.506;  305.850;  245.850;  185.200
1037.055;  488.975;  423.375;  182.500
1037.603;  380.925;  320.150;  167.600
1038.152;  304.725;  250.525;  168.200
1038.700;  334.700;  274.950;  169.600
1039.249;  394.150;  332.200;  164.300
1039.797;  366.350;  305.675;  169.600
1040.345;  402.350;  345.400;  167.100
1040.894;  357.700;  301.950;  164.400
1041.442;  363.800;  304.750;  158.300
1041.990;  322.875;  259.475;  160.000
1042.538;  305.525;  249.225;  156.800
1043.087;  326.175;  270.350;  146.600
1043.635;  389.250;  327.075;  162.400
1044.183;  339.775;  279.725;  156.300
1044.731;  334.525;  269.300;  158.100
1045.279;  388.750;  328.825;  154.500
1045.827;  516.325;  462.875;  146.200
1046.374;  295.775;  240.950;  154.000
1046.922;  340.100;  281.025;  149.000
1047.470;  395.475;  341.475;  154.900
1048.018;  371.625;  315.450;  148.400
1048.565;  409.725;  353.925;  146.300
1049.113;  316.850;  260.775;  156.100
1049.660;  361.700;  302.650;  154.300
1050.208;  390.325;  324.875;  149.400
1050.755;  348.825;  293.275;  157.500
1051.303;  394.075;  336.200;  157.700
1051.850;  359.875;  310.850;  152.800
1052.397;  270.400;  222.000;  146.300
1052.945;  351.750;  296.750;  149.500
1053.492;  422.300;  369.875;  149.300
1054.039;  409.425;  360.975;  163.100
1054.586;  318.275;  262.725;  150.400
1055.133;  399.075;  338.550;  153.500
1055.680;  369.325;  315.200;  155.600
1056.227;  305.350;  253.400;  148.700
1056.774;  456.600;  404.600;  151.500
1057.321;  298.950;  244.250;  143.700
1057.868;  370.350;  313.950;  145.300
1058.415;  375.100;  324.800;  153.500
1058.961;  387.500;  330.150;  149.900
1059.508;  364.550;  315.850;  147.300
1060.055;  333.500;  281.250;  151.000
1060.601;  356.875;  303.950;  148.700
1061.148;  354.175;  301.600;  153.800
1061.694;  339.775;  287.700;  150.500
1062.241;  338.450;  287.650;  149.100
1062.787;  380.875;  328.450;  153.000
1063.334;  464.125;  410.750;  153.200
1063.880;  387.450;  329.225;  148.400
1064.426;  407.325;  352.025;  149.200
1064.972;  339.425;  292.350;  156.400
1065.518;  322.225;  271.775;  144.700
1066.065;  361.625;  308.625;  139.400
1066.611;  341.525;  293.475;  139.300
1067.157;  364.675;  319.775;  138.400
1067.703;  383.300;  337.575;  142.700
1068.249;  350.025;  296.225;  136.700
1068.794;  364.475;  305.000;  139.400
1069.340;  327.925;  280.900;  142.700
1069.886;  344.500;  290.950;  135.600
1070.432;  304.850;  253.750;  133.400
1070.977;  351.050;  291.550;  138.200
1071.523;  327.200;  279.700;  132.400
1072.068;  331.950;  284.200;  132.700
1072.614;  301.275;  251.100;  127.000
1073.160;  396.775;  348.150;  131.300
1073.705;  328.225;  283.500;  135.700
1074.250;  315.925;  269.250;  133.000
1074.796;  377.150;  324.700;  138.000
1075.341;  375.750;  336.700;  137.300
1075.886;  335.200;  289.575;  134.300
1076.431;  371.300;  329.275;  138.200
1076.976;  367.350;  318.550;  132.200
1077.521;  331.225;  283.600;  138.900
1078.067;  332.000;  282.450;  128.600
1078.612;  380.450;  332.075;  138.900
1079.156;  340.850;  295.750;  128.900
1079.701;  397.725;  343.350;  129.700
1080.246;  397.450;  347.850;  128.600
1080.791;  361.850;  314.325;  122.600
1081.336;  376.475;  326.775;  122.000
1081.880;  371.775;  325.175;  123.900
1082.425;  329.075;  278.750;  120.600
1082.970;  410.575;  366.800;  124.500
1083.514;  341.700;  294.050;  112.000
1084.059;  328.750;  286.600;  120.700
1084.603;  327.125;  274.100;  116.000
1085.147;  367.275;  324.250;  116.300
1085.692;  409.875;  361.250;  108.200
1086.236;  287.850;  241.150;  114.600
1086.780;  432.075;  384.150;  118.900
1087.325;  374.275;  325.450;  120.400
1087.869;  348.825;  304.775;  110.500
1088.413;  399.050;  356.525;  114.000
1088.957;  301.250;  263.950;  114.300
1089.501;  435.525;  396.225;  114.600
1090.045;  415.950;  370.525;  114.200
1090.589;  324.700;  276.525;  105.500
1091.133;  388.675;  345.450;  111.800
1091.676;  339.775;  298.200;  110.900
1092.220;  338.650;  299.475;  110.100
1092.764;  406.450;  361.925;  108.100
1093.307;  378.200;  337.525;  109.900
1093.851;  315.525;  275.925;  107.500
1094.395;  393.275;  345.675;   96.200
1094.938;  358.400;  322.825;   99.300
1095.482;  315.325;  278.475;   97.700
1096.025;  407.625;  364.550;   84.900
1096.568;  449.900;  405.000;   88.500
1097.112;  282.975;  246.200;   95.700
1097.655;  339.525;  296.650;   97.300
1098.198;  337.375;  297.750;   92.600
1098.741;  348.900;  304.700;   91.800
1099.285;  374.550;  328.800;   88.000
1099.828;  245.375;  211.775;   91.700
1100.371;  349.225;  306.475;   89.900
1100.914;  389.325;  345.300;   91.500
1101.457;  390.250;  348.450;   88.100
1101.999;  327.650;  287.650;   86.400
1102.542;  365.850;  326.525;   90.800
1103.085;  373.100;  334.825;   95.400
1103.628;  435.125;  402.425;   97.700
1104.170;  334.300;  294.100;   84.000
1104.713;  372.125;  327.975;   93.900
1105.256;  316.675;  274.375;   93.000
1105.798;  281.225;  242.750;   85.600
1106.341;  417.825;  376.200;   87.100
1106.883;  293.400;  254.050;   85.200
1107.425;  384.050;  336.150;   85.000
1107.968;  351.000;  308.475;   84.300
1108.510;  393.150;  354.625;   88.200
1109.052;  348.150;  312.325;   86.600
1109.594;  317.000;  276.450;   79.400
1110.136;  365.875;  324.750;   81.700
1110.679;  356.275;  320.200;   75.500
1111.221;  340.225;  303.300;   88.500
1111.763;  314.450;  273.725;   87.700
1112.304;  307.925;  269.975;   89.700
1112.846;  381.475;  338.350;   81.900
1113.388;  545.625;  503.625;   86.400
1113.930;  392.625;  350.625;   84.700
1114.472;  339.275;  306.975;   78.900
1115.013;  308.850;  274.675;   78.100
1115.555;  332.625;  300.175;   84.900
1116.097;  320.400;  286.175;   79.200
1116.638;  388.725;  351.800;   83.700
1117.180;  375.700;  340.000;   85.500
1117.721;  319.975;  284.650;   78.800
1118.262;  388.250;  346.125;   77.400
1118.804;  357.875;  323.675;   81.400
1119.345;  328.775;  293.650;   77.800
1119.886;  401.125;  365.925;   81.200
1120.427;  333.950;  298.125;   77.200
1120.969;  341.700;  303.125;   75.200
1121.510;  313.100;  283.075;   80.900
1122.051;  416.075;  375.375;   77.300
1122.592;  370.325;  336.725;   73.300
1123.133;  307.525;  273.850;   90.100
1123.673;  403.525;  369.875;   75.000
1124.214;  343.500;  315.175;   80.600
1124.755;  360.500;  324.350;   78.000
1125.296;  347.925;  318.250;   77.500
1125.836;  392.000;  351.500;   80.400
1126.377;  340.750;  300.875;   75.600
1126.918;  351.775;  309.250;   78.900
1127.458;  351.250;  318.050;   78.000
1127.999;  371.775;  336.250;   76.100
1128.539;  397.275;  364.625;   81.400
1129.079;  358.025;  324.475;   77.400
1129.620;  311.725;  279.875;   68.000
1130.160;  303.675;  272.075;   77.500
1130.700;  361.375;  329.225;   76.300
1131.240;  364.100;  328.450;   66.800
1131.781;  348.675;  314.900;   70.600
1132.321;  337.325;  306.150;   77.200
1132.861;  316.725;  285.675;   70.400
1133.401;  333.675;  300.900;   68.700
1133.941;  356.675;  321.400;   68.500
1134.481;  338.725;  307.900;   75.900
1135.020;  341.775;  309.675;   66.600
1135.560;  384.200;  351.150;   68.100
1136.100;  281.325;  248.900;   64.900
1136.640;  286.225;  255.600;   72.500
1137.179;  300.050;  268.675;   69.700
1137.719;  344.500;  312.975;   68.400
1138.258;  330.900;  301.025;   67.000
1138.798;  372.200;  340.800;   69.600
1139.337;  269.750;  239.200;   64.000
1139.877;  368.625;  332.125;   64.500
1140.416;  498.800;  470.975;   74.900
1140.955;  295.875;  271.575;   67.200
1141.494;  385.800;  350.025;   69.900
1142.034;  327.900;  296.600;   59.100
1142.573;  366.350;  339.400;   65.900
1143.112;  310.075;  283.425;   70.600
1143.651;  306.300;  277.975;   67.100
1144.190;  394.950;  356.875;   56.700
1144.729;  342.575;  310.675;   61.800
1145.267;  326.450;  295.200;   62.500
1145.806;  361.500;  333.350;   68.500
1146.345;  363.550;  329.875;   58.300
1146.884;  350.750;  323.775;   63.100
1147.422;  297.825;  268.350;   54.800
1147.961;  403.350;  375.600;   67.600
1148.500;  379.800;  349.175;   64.700
1149.038;  362.400;  329.975;   61.000
1149.577;  394.475;  366.025;   65.100
1150.115;  247.375;  223.975;   58.100
1150.653;  343.950;  315.175;   60.500
1151.192;  311.750;  282.875;   56.600
1151.730;  371.425;  342.650;   62.300
1152.268;  332.400;  299.225;   55.500
1152.806;  321.675;  289.175;   58.200
1153.344;  323.675;  294.550;   55.000
1153.882;  336.550;  313.275;   64.200
1154.421;  263.675;  238.175;   60.300
1154.958;  336.175;  307.400;   58.100
1155.496;  362.950;  336.925;   55.800
1156.034;  411.400;  380.375;   61.000
1156.572;  380.650;  353.500;   56.200
1157.110;  262.100;  234.675;   53.200
1157.647;  382.500;  356.575;   57.400
1158.185;  317.425;  288.850;   55.500
1158.723;  289.250;  260.925;   58.000
1159.260;  393.525;  364.100;   53.700
1159.798;  367.050;  340.225;   51.700
1160.335;  352.950;  326.400;   59.600

