membrane
Integration time [ms]: 238.412
Averaging Nr. [scans]: 40
Smoothing Nr. [pixels]: 0
Data measured with spectrometer [name]: 7414430SP
Wave   ;Sample   ;Dark     ;Reference
[nm]   ;[counts] ;[counts] ;[counts] 

288.544;  520.936;  332.182;    6.613
289.143;  452.013;  271.583;   14.216
289.742;  541.702;  358.283;   11.816
290.341;  519.931;  338.184;   -4.936
290.940;  480.718;  301.359;    0.852
291.538;  569.376;  386.909;    1.792
292.137;  516.425;  339.183;    6.262
292.736;  625.231;  448.984;    8.164
293.335;  483.837;  303.109;   -6.418
293.934;  510.320;  331.034;   -2.904
294.532;  662.771;  479.809;   -5.162
295.131;  543.813;  376.861;  -10.283
295.730;  525.427;  361.060;  -16.141
296.328;  511.339;  345.711;  -14.740
296.927;  510.462;  342.761;   -8.768
297.525;  507.144;  342.961;  -15.255
298.124;  431.433;  272.787;  -22.063
298.722;  501.728;  336.861;  -14.796
299.321;  467.097;  303.761;  -10.466
299.919;  487.844;  329.786;  -10.979
300.518;  454.100;  293.262;  -12.077
301.116;  458.110;  297.361;  -13.509
301.715;  477.954;  315.411;  -11.939
302.313;  462.511;  306.661;  -15.424
302.911;  474.070;  329.612;  -19.833
303.509;  588.524;  439.211;   -3.567
304.108;  494.261;  342.436;   -9.553
304.706;  521.236;  367.686;   -8.582
305.304;  515.342;  366.712;  -12.348
305.902;  505.686;  359.286;  -14.411
306.500;  476.344;  325.311;   -7.194
307.098;  481.460;  342.011;   -9.322
307.696;  503.190;  361.986;  -19.192
308.294;  472.869;  331.561;   -9.736
308.892;  492.115;  349.686;  -15.482
309.490;  452.641;  314.911;  -14.107
310.088;  504.219;  372.612;  -15.862
310.686;  524.680;  389.461;  -10.781
311.284;  486.516;  356.336;  -14.878
311.882;  464.935;  336.862;   -9.948
312.480;  444.089;  321.162;  -15.503
313.078;  507.330;  388.612;  -17.262
313.675;  442.544;  320.411;   -3.694
314.273;  501.856;  384.962;  -18.246
314.871;  376.389;  268.837;  -15.190
315.468;  418.120;  299.362;  -12.633
316.066;  434.930;  321.511;   -5.765
316.664;  412.652;  302.362;  -14.317
317.261;  556.467;  448.487;   -8.677
317.859;  480.509;  378.637;  -11.804
318.456;  513.437;  411.961;   -3.107
319.054;  480.923;  378.962;   -3.062
319.651;  466.692;  371.737;   -6.706
320.249;  489.692;  398.562;   -5.206
320.846;  435.104;  345.061;   -4.679
321.443;  500.187;  418.661;   -7.920
322.041;  486.368;  400.187;  -14.105
322.638;  422.118;  339.787;   -6.263
323.235;  403.936;  314.961;   -7.424
323.833;  444.815;  363.186;  -14.765
324.430;  366.550;  280.436;  -10.550
325.027;  530.631;  440.611;   -9.951
325.624;  388.956;  298.761;   -3.712
326.221;  414.441;  318.936;   -9.368
326.818;  493.968;  400.711;   -5.637
327.415;  447.153;  346.260;   -6.699
328.012;  416.690;  319.885;   -5.713
328.609;  429.934;  339.260;   -9.983
329.206;  470.339;  366.561;   -7.154
329.803;  443.079;  339.636;   -1.682
330.400;  420.942;  313.485;   -2.741
330.997;  486.633;  377.636;   -4.339
331.594;  466.670;  363.311;  -10.278
332.191;  434.320;  324.736;   -6.967
332.787;  497.067;  386.261;   -0.480
333.384;  447.177;  342.112;  -10.333
333.981;  471.250;  375.163;  -19.900
334.578;  420.318;  310.587;  -19.816
335.174;  431.026;  319.387;  -15.844
335.771;  487.174;  384.438;  -12.670
336.367;  415.232;  320.113;  -21.124
336.964;  463.647;  369.313;  -18.226
337.561;  433.082;  329.313;  -13.311
338.157;  530.863;  432.764;  -19.006
338.754;  458.325;  371.839;  -19.418
339.350;  418.772;  324.864;  -29.433
339.946;  452.642;  348.714;  -16.622
340.543;  488.422;  399.465;  -16.744
341.139;  415.743;  331.215;  -21.841
341.735;  445.387;  363.566;  -25.012
342.332;  397.330;  316.015;  -19.156
342.928;  454.206;  376.415;  -20.443
343.524;  435.885;  357.341;  -14.397
344.120;  419.219;  353.591;  -20.654
344.716;  412.763;  332.640;   -5.730
345.313;  458.842;  378.515;  -10.929
345.909;  350.613;  276.840;  -19.843
346.505;  428.624;  349.565;  -19.645
347.101;  475.511;  394.639;   -9.618
347.697;  451.210;  377.889;  -10.305
348.293;  346.011;  275.590;  -23.189
348.889;  430.953;  352.389;  -18.418
349.485;  388.646;  316.289;  -10.476
350.081;  439.716;  364.839;  -17.320
350.676;  392.833;  319.940;  -21.088
351.272;  464.703;  385.314;  -12.821
351.868;  437.733;  359.189;  -13.165
352.464;  415.960;  339.314;  -12.464
353.059;  368.160;  297.664;  -22.547
353.655;  448.493;  371.639;   -9.379
354.251;  439.653;  356.313;   -8.266
354.846;  423.621;  350.714;  -17.705
355.442;  428.312;  355.915;   -9.317
356.038;  429.387;  352.164;  -11.049
356.633;  419.516;  340.389;  -10.006
357.229;  415.170;  340.089;  -13.120
357.824;  401.607;  327.589;  -15.647
358.420;  387.011;  310.939;  -19.204
359.015;  393.404;  318.914;  -12.263
359.610;  440.986;  365.289;  -16.421
360.206;  347.213;  270.590;  -20.074
360.801;  370.024;  291.064;  -13.277
361.396;  420.742;  343.139;   -5.822
361.992;  379.882;  306.264;  -11.247
362.587;  375.754;  308.515;  -21.502
363.182;  390.181;  322.764;   -7.461
363.777;  423.623;  351.864;   -8.719
364.372;  425.063;  358.189;  -14.590
364.967;  393.142;  321.715;  -15.145
365.563;  469.471;  388.039;   -7.192
366.158;  399.033;  320.264;   -5.662
366.753;  373.933;  295.314;   -8.378
367.348;  427.535;  357.064;  -14.990
367.942;  401.935;  327.764;   -6.005
368.537;  436.877;  361.689;  -11.504
369.132;  408.218;  329.614;  -10.576
369.727;  368.279;  298.440;  -12.573
370.322;  339.968;  266.940;  -11.560
370.917;  413.058;  339.490;  -10.388
371.511;  500.513;  427.164;   -9.161
372.106;  453.742;  379.790;  -10.245
372.701;  340.996;  272.315;  -10.158
373.296;  498.988;  427.564;   -4.719
373.890;  375.704;  307.915;  -11.802
374.485;  403.860;  337.115;  -13.500
375.079;  438.011;  362.789;   -6.276
375.674;  477.075;  401.664;   -0.447
376.268;  403.088;  332.240;   -6.916
376.863;  337.208;  276.716;  -14.483
377.457;  389.006;  314.690;   -6.903
378.052;  449.083;  374.315;   -9.844
378.646;  434.355;  370.840;  -12.601
379.240;  424.522;  351.240;  -14.715
379.835;  376.882;  308.715;  -12.331
380.429;  336.057;  266.490;   -9.074
381.023;  455.339;  393.115;   -1.729
381.617;  393.370;  332.440;  -13.714
382.212;  402.686;  334.815;   -7.060
382.806;  452.006;  377.590;   -2.303
383.400;  395.901;  331.115;   -0.815
383.994;  391.243;  329.140;   -4.429
384.588;  407.739;  348.039;   -6.261
385.182;  428.440;  362.014;    0.008
385.776;  414.478;  356.039;   -3.247
386.370;  398.980;  341.465;   -1.030
386.964;  406.294;  342.840;   -1.346
387.558;  350.726;  293.714;   -2.020
388.152;  399.863;  343.690;   -5.345
388.745;  476.849;  419.915;   -2.774
389.339;  448.873;  385.039;    3.510
389.933;  414.719;  347.289;    5.280
390.527;  504.224;  452.139;    2.610
391.120;  350.494;  295.940;   -7.914
391.714;  420.478;  363.840;   -1.903
392.308;  457.431;  405.564;    6.023
392.901;  379.039;  324.365;   -4.103
393.495;  352.175;  301.415;    3.284
394.089;  451.128;  399.790;    8.655
394.682;  411.055;  361.290;    2.312
395.275;  423.690;  373.240;   -7.402
395.869;  392.615;  342.490;   -1.072
396.462;  360.581;  315.340;    6.454
397.056;  454.567;  403.889;    8.494
397.649;  430.941;  381.015;    1.599
398.242;  417.961;  373.064;    3.153
398.836;  454.243;  402.914;   11.395
399.429;  376.683;  324.289;   14.695
400.022;  390.276;  345.590;    3.627
400.615;  473.055;  432.340;    8.383
401.208;  405.350;  354.989;   13.295
401.802;  412.840;  365.940;    6.211
402.395;  401.926;  361.290;    7.227
402.988;  403.295;  362.265;    2.700
403.581;  383.176;  336.689;   11.225
404.174;  403.337;  354.064;   18.922
404.767;  377.361;  339.265;   14.169
405.360;  363.498;  326.690;    8.999
405.953;  443.297;  403.039;   13.138
406.545;  425.117;  377.889;   13.937
407.138;  359.221;  313.990;   10.869
407.731;  356.970;  317.039;   12.768
408.324;  386.735;  343.789;   22.921
408.917;  399.890;  359.814;   15.308
409.509;  432.310;  395.314;   12.239
410.102;  376.705;  340.165;   13.741
410.695;  391.798;  347.989;   20.249
411.287;  349.961;  311.239;   21.793
411.880;  341.502;  302.339;   22.965
412.472;  352.297;  318.389;   15.082
413.065;  368.128;  336.289;   23.423
413.657;  339.608;  298.039;   21.077
414.250;  373.130;  336.714;   12.349
414.842;  390.041;  352.064;   20.423
415.434;  335.287;  296.714;   19.906
416.027;  379.214;  339.988;   26.574
416.619;  417.414;  384.414;   15.705
417.211;  341.188;  309.039;   17.791
417.804;  362.921;  325.263;   30.244
418.396;  354.387;  319.364;   24.177
418.988;  380.427;  348.488;   24.904
419.580;  327.857;  292.489;   20.692
420.172;  313.520;  278.713;   22.275
420.764;  393.378;  355.763;   26.773
421.356;  374.721;  338.413;   25.731
421.948;  385.799;  359.838;   24.876
422.540;  395.776;  355.188;   30.042
423.132;  348.406;  313.387;   32.728
423.724;  323.438;  290.788;   21.317
424.316;  358.991;  323.238;   29.359
424.908;  344.837;  304.287;   28.798
425.500;  377.453;  335.712;   30.512
426.092;  373.670;  336.912;   26.741
426.683;  400.018;  362.463;   27.029
427.275;  376.411;  336.387;   32.611
427.867;  386.198;  351.337;   33.796
428.458;  426.801;  385.937;   34.453
429.050;  392.036;  356.687;   34.255
429.642;  431.826;  391.712;   39.082
430.233;  324.034;  287.987;   41.138
430.825;  426.389;  384.287;   31.581
431.416;  395.225;  366.212;   35.755
432.008;  375.629;  337.812;   40.566
432.599;  377.305;  335.336;   46.322
433.190;  375.586;  333.212;   46.897
433.782;  338.590;  302.337;   41.069
434.373;  513.764;  470.836;   48.778
434.964;  351.210;  307.636;   50.078
435.556;  366.375;  329.587;   52.381
436.147;  439.299;  392.887;   38.251
436.738;  405.800;  360.061;   47.237
437.329;  423.245;  372.511;   61.304
437.920;  382.204;  345.062;   48.611
438.511;  324.332;  279.837;   44.910
439.103;  357.707;  315.036;   62.404
439.694;  398.445;  350.436;   63.075
440.285;  445.203;  400.436;   61.033
440.876;  488.003;  444.436;   57.249
441.466;  331.226;  290.086;   61.306
442.057;  381.532;  331.460;   65.773
442.648;  436.425;  386.736;   65.676
443.239;  357.472;  312.761;   55.963
443.830;  409.285;  361.860;   69.631
444.421;  387.791;  328.660;   69.943
445.011;  400.013;  350.386;   72.791
445.602;  427.473;  379.461;   68.848
446.193;  283.804;  228.810;   80.044
446.783;  366.417;  313.585;   82.599
447.374;  400.747;  357.311;   77.419
447.964;  411.946;  362.536;   72.605
448.555;  474.621;  424.460;   82.041
449.145;  382.266;  330.310;   76.230
449.736;  466.376;  414.985;   75.545
450.326;  416.112;  359.935;   67.945
450.917;  393.762;  333.685;   77.598
451.507;  357.530;  290.635;   68.027
452.097;  435.090;  383.935;   67.771
452.688;  433.580;  368.435;   62.884
453.278;  329.839;  275.160;   65.512
453.868;  463.085;  403.809;   71.796
454.458;  380.005;  318.910;   60.956
455.048;  414.027;  353.535;   62.356
455.639;  332.480;  268.759;   58.782
456.229;  413.192;  346.284;   65.209
456.819;  439.855;  368.959;   61.466
457.409;  453.492;  386.634;   59.967
457.999;  434.885;  361.034;   58.093
458.589;  403.125;  333.359;   59.536
459.179;  421.764;  349.659;   55.994
459.769;  365.302;  298.609;   43.624
460.358;  465.147;  390.959;   46.978
460.948;  403.287;  328.684;   49.821
461.538;  391.043;  310.534;   54.678
462.128;  391.942;  315.259;   49.309
462.717;  415.116;  337.158;   52.774
463.307;  418.635;  332.983;   48.101
463.897;  392.631;  311.684;   45.606
464.486;  487.703;  417.409;   45.010
465.076;  431.930;  353.758;   45.519
465.666;  385.741;  297.008;   50.058
466.255;  463.483;  380.084;   44.463
466.845;  390.467;  313.384;   41.206
467.434;  428.233;  343.333;   44.847
468.023;  388.915;  300.133;   46.760
468.613;  418.075;  335.959;   39.736
469.202;  379.373;  295.883;   46.461
469.791;  434.114;  345.133;   47.944
470.381;  440.905;  347.033;   47.529
470.970;  415.775;  332.058;   43.773
471.559;  438.420;  342.008;   41.646
472.148;  393.853;  303.683;   37.914
472.738;  452.955;  356.482;   48.071
473.327;  380.602;  281.358;   47.871
473.916;  437.842;  344.183;   37.716
474.505;  445.592;  347.732;   40.256
475.094;  486.130;  376.407;   43.269
475.683;  468.103;  365.032;   36.499
476.272;  439.709;  330.607;   44.542
476.861;  416.794;  312.082;   42.297
477.449;  435.665;  321.156;   46.878
478.038;  409.524;  303.132;   35.156
478.627;  421.799;  312.283;   42.514
479.216;  459.192;  339.082;   43.937
479.805;  469.257;  342.281;   51.393
480.393;  595.752;  478.332;   53.239
480.982;  519.144;  400.307;   38.955
481.571;  510.750;  389.631;   45.436
482.159;  421.015;  293.706;   51.007
482.748;  493.920;  366.357;   49.695
483.336;  513.303;  381.181;   48.280
483.925;  461.981;  334.082;   47.166
484.513;  456.815;  315.681;   55.404
485.102;  481.761;  343.207;   54.238
485.690;  593.431;  454.581;   55.748
486.278;  586.190;  440.606;   55.934
486.867;  487.370;  333.306;   57.106
487.455;  537.862;  388.156;   56.979
488.043;  447.661;  294.606;   57.564
488.631;  597.492;  434.606;   57.432
489.220;  548.196;  375.931;   63.646
489.808;  451.076;  280.831;   65.449
490.396;  550.477;  376.381;   61.977
490.984;  499.005;  312.181;   68.834
491.572;  568.404;  372.756;   70.775
492.160;  555.711;  353.331;   67.564
492.748;  535.126;  321.856;   66.808
493.336;  618.523;  385.406;   79.747
493.924;  587.289;  328.880;   88.688
494.512;  646.782;  377.506;   84.120
495.100;  660.945;  368.731;   86.250
495.687;  721.091;  385.755;  103.074
496.275;  698.279;  306.906;  108.717
496.863;  774.553;  320.381;  107.035
497.451;  847.499;  318.181;  117.993
498.038;  968.313;  337.580;  120.116
498.626; 1061.297;  323.705;  143.059
499.214; 1206.516;  350.431;  153.434
499.801; 1358.294;  340.156;  175.121
500.389; 1472.882;  273.880;  185.617
500.976; 1745.419;  353.806;  215.789
501.564; 2003.533;  344.506;  240.321
502.151; 2155.729;  238.081;  267.007
502.738; 2435.538;  318.731;  317.961
503.326; 2806.973;  325.180;  361.216
503.913; 3201.725;  343.006;  401.433
504.500; 3585.180;  355.181;  446.492
505.088; 3931.055;  301.106;  512.063
505.675; 4479.781;  330.580;  586.387
506.262; 4997.370;  325.506;  671.021
506.849; 5636.750;  335.756;  759.062
507.436; 6348.843;  380.255;  849.788
508.023; 6807.400;  334.181;  944.288
508.610; 7322.942;  374.231; 1020.690
509.197; 7858.247;  357.257; 1089.052
509.784; 8512.694;  331.206; 1133.776
510.371; 9311.210;  273.280; 1165.501
510.958;10404.124;  344.181; 1251.735
511.545;10536.910;  392.581; 1350.248
512.132;10532.398;  338.105; 1525.945
512.719;11098.875;  294.131; 1834.933
513.305;12169.743;  302.831; 1965.349
513.892;13559.544;  390.881; 1963.265
514.479;14669.422;  344.106; 2046.446
515.066;15643.457;  381.056; 2252.803
515.652;16864.033;  342.181; 2567.247
516.239;17939.234;  367.031; 2636.919
516.825;18088.029;  280.781; 2482.304
517.412;18346.576;  440.656; 2427.031
517.998;18208.287;  326.831; 2540.463
518.585;18239.104;  321.031; 2609.007
519.171;19076.789;  344.230; 2842.088
519.758;20994.834;  289.856; 3090.703
520.344;22255.020;  375.481; 3176.076
520.930;22905.180;  299.831; 3295.037
521.516;23861.082;  355.580; 3500.959
522.103;24052.664;  395.056; 3736.704
522.689;24963.438;  322.431; 3971.022
523.275;26138.850;  381.706; 4213.778
523.861;26395.861;  331.131; 4190.361
524.447;26123.520;  380.380; 4070.602
525.033;26715.738;  381.681; 4088.892
525.619;26796.148;  303.906; 4416.851
526.205;27702.484;  288.856; 4836.835
526.791;29162.164;  321.731; 4885.903
527.377;30049.559;  315.431; 4544.907
527.963;30298.510;  343.282; 4321.995
528.549;29620.955;  352.506; 4473.979
529.135;28715.568;  304.081; 4788.663
529.721;27838.254;  338.481; 4888.577
530.306;28518.156;  466.581; 4775.779
530.892;29759.100;  318.656; 4793.906
531.478;30924.912;  312.706; 4956.948
532.063;32963.609;  298.081; 5136.936
532.649;34749.391;  423.182; 5336.867
533.235;36269.496;  301.356; 5748.092
533.820;37497.137;  387.506; 6456.875
534.406;37117.375;  323.132; 6590.167
534.991;36361.598;  297.731; 6179.622
535.576;35380.492;  323.756; 6098.691
536.162;35363.859;  473.231; 6441.234
536.747;35879.570;  284.632; 6816.224
537.333;37223.496;  300.207; 6889.752
537.918;36818.773;  334.732; 7154.280
538.503;37431.031;  313.831; 7150.848
539.088;37758.672;  347.831; 7253.308
539.673;36803.340;  326.957; 7625.180
540.259;36189.285;  310.081; 8226.793
540.844;37916.938;  268.181; 8745.092
541.429;38213.160;  415.182; 8762.553
542.014;38297.664;  283.257; 8871.497
542.599;39280.426;  349.206; 8886.008
543.184;40680.801;  292.582; 9079.139
543.769;40213.953;  299.932; 9076.182
544.354;39091.043;  316.832; 8354.081
544.938;37505.547;  346.957; 8236.809
545.523;36715.449;  408.931; 8222.179
546.108;38309.930;  333.957; 8114.082
546.693;38408.598;  329.582; 8535.912
547.278;37661.500;  329.756; 9238.322
547.862;35891.605;  335.231; 9034.405
548.447;34968.359;  375.007; 7795.011
549.031;34813.832;  323.407; 7485.099
549.616;35305.215;  345.556; 7626.308
550.201;36382.902;  317.957; 7627.909
550.785;38321.906;  360.657; 7859.125
551.370;39732.344;  285.157; 7990.654
551.954;40241.184;  376.732; 8196.468
552.538;40759.762;  363.782; 7959.495
553.123;40362.082;  305.957; 7964.826
553.707;39734.355;  321.858; 8515.957
554.291;39280.426;  389.882; 8724.024
554.876;39458.387;  368.932; 8524.211
555.460;39277.340;  314.232; 8704.456
556.044;39553.930;  312.058; 9141.473
556.628;39044.258;  331.082; 9250.197
557.212;38596.809;  381.732; 9444.237
557.796;37398.469;  322.682; 9379.783
558.380;38788.668;  349.858; 9353.658
558.964;38508.090;  337.832; 9210.310
559.548;37179.168;  285.732; 8475.153
560.132;37469.543;  317.732; 7954.084
560.716;38777.008;  287.633; 7489.529
561.300;40426.953;  293.532; 7211.952
561.884;41934.656;  356.157; 7141.313
562.467;41221.734;  357.083; 7155.386
563.051;40970.336;  332.158; 7323.158
563.635;41033.848;  321.708; 7709.114
564.219;40317.355;  329.757; 7678.855
564.802;39998.367;  354.833; 7376.187
565.386;39727.898;  337.983; 7054.372
565.969;39510.223;  393.007; 6589.196
566.553;38815.379;  431.132; 6279.371
567.136;37778.152;  387.258; 5967.930
567.720;37613.117;  333.033; 5660.703
568.303;37051.316;  350.983; 5648.615
568.887;37649.445;  336.083; 5618.443
569.470;37721.453;  347.808; 5411.875
570.053;38270.055;  362.008; 5149.274
570.637;38538.055;  311.582; 5122.798
571.220;39178.055;  370.182; 4957.369
571.803;38372.418;  431.408; 4933.018
572.386;37994.801;  321.158; 4840.973
572.969;38627.637;  324.383; 4592.886
573.552;39681.852;  327.358; 4348.387
574.135;36998.309;  301.458; 4002.290
574.718;31584.311;  306.533; 3654.773
575.301;30933.859;  305.583; 3502.288
575.884;30283.406;  304.633; 3349.803
576.467;31895.619;  382.608; 3191.403
577.050;33639.602;  344.783; 3062.418
577.633;35178.152;  419.133; 3214.200
578.216;35996.410;  323.983; 3284.889
578.799;35894.105;  325.158; 3189.777
579.381;36999.031;  437.358; 3064.502
579.964;37702.828;  306.433; 2888.357
580.547;37463.746;  343.283; 2905.760
581.129;37733.973;  402.609; 2966.849
581.712;39370.664;  353.784; 2887.292
582.294;40343.340;  340.783; 2771.631
582.877;40361.563;  440.133; 2711.602
583.459;39608.387;  337.109; 2577.049
584.042;38299.875;  331.484; 2454.707
584.624;38004.992;  309.609; 2305.893
585.206;37013.438;  266.683; 2189.546
585.789;34804.297;  312.459; 2112.577
586.371;33011.305;  356.459; 2153.065
586.953;33288.848;  368.459; 2197.806
587.536;34518.160;  400.958; 2105.489
588.118;34660.793;  328.560; 1963.911
588.700;35315.949;  402.784; 1843.179
589.282;35433.816;  356.533; 1813.834
589.864;34942.559;  339.384; 1777.620
590.446;35357.555;  270.159; 1733.780
591.028;36151.992;  335.084; 1676.008
591.610;37236.270;  269.934; 1631.649
592.192;36324.250;  343.883; 1632.362
592.774;34234.691;  296.959; 1569.507
593.356;32368.750;  308.434; 1524.539
593.937;32521.135;  305.209; 1569.720
594.519;32988.563;  385.159; 1569.049
595.101;33940.750;  280.159; 1545.452
595.683;34372.066;  312.384; 1607.568
596.264;34771.004;  329.084; 1615.506
596.846;34882.047;  316.159; 1667.622
597.427;35591.848;  311.585; 1670.469
598.009;36848.750;  306.135; 1640.312
598.591;35070.961;  368.334; 1541.022
599.172;34171.492;  329.159; 1598.665
599.753;34993.520;  287.835; 1619.068
600.335;33345.164;  399.860; 1548.612
600.916;31100.391;  330.059; 1607.510
601.498;32156.264;  352.434; 1745.181
602.079;33651.168;  332.735; 1801.011
602.660;34164.422;  331.085; 1834.640
603.241;33594.172;  266.484; 1787.351
603.823;33562.328;  312.009; 1684.266
604.404;32713.953;  294.460; 1654.241
604.985;32839.449;  311.435; 1758.741
605.566;31626.326;  373.284; 1697.679
606.147;30869.639;  326.810; 1526.728
606.728;32377.213;  287.885; 1484.086
607.309;33497.910;  312.260; 1421.070
607.890;33561.285;  320.084; 1369.867
608.471;33653.508;  305.985; 1277.826
609.051;32589.744;  345.735; 1180.416
609.632;32762.047;  298.910; 1075.816
610.213;33425.465;  327.260; 1053.313
610.794;32717.844;  319.860;  979.442
611.374;32018.959;  353.585;  917.414
611.955;31327.014;  279.385;  819.987
612.536;31577.541;  350.760;  752.627
613.116;32928.258;  314.485;  690.799
613.697;33527.762;  306.310;  674.974
614.277;33335.117;  296.261;  663.846
614.858;31057.277;  315.435;  665.898
615.438;29212.850;  331.435;  660.712
616.019;28297.605;  396.911;  632.732
616.599;28268.230;  257.935;  551.759
617.179;29266.115;  288.785;  512.871
617.760;30411.555;  453.610;  473.655
618.340;30472.109;  327.786;  440.004
618.920;31226.586;  411.910;  429.731
619.500;30837.141;  317.361;  441.361
620.080;31371.039;  299.235;  425.202
620.660;31672.813;  298.436;  408.164
621.241;31556.934;  315.461;  387.161
621.821;32080.492;  335.836;  378.017
622.401;31553.412;  382.235;  379.188
622.980;31085.119;  283.836;  350.019
623.560;30098.174;  316.836;  336.446
624.140;27683.133;  340.235;  336.473
624.720;26410.305;  346.736;  334.974
625.300;25707.158;  297.610;  325.717
625.880;27203.684;  329.611;  308.519
626.459;29652.436;  329.936;  307.117
627.039;31971.592;  273.711;  290.890
627.619;34611.582;  432.161;  286.635
628.198;34213.215;  382.786;  282.535
628.778;31185.205;  359.011;  285.474
629.357;29404.115;  289.461;  284.103
629.937;29613.209;  314.761;  292.178
630.516;31476.061;  404.261;  290.749
631.096;32031.350;  305.311;  285.489
631.675;32493.559;  395.186;  287.022
632.254;32847.047;  305.012;  286.038
632.834;31986.299;  326.362;  276.451
633.413;30321.729;  400.736;  279.447
633.992;30025.422;  375.962;  264.508
634.571;30299.143;  361.012;  271.010
635.151;30394.094;  293.462;  277.338
635.730;30406.160;  321.436;  289.305
636.309;28708.799;  358.911;  285.306
636.888;27557.084;  354.262;  254.051
637.467;27093.318;  269.612;  230.324
638.046;27864.980;  400.486;  253.349
638.625;30049.574;  386.537;  246.866
639.204;30466.682;  345.112;  240.825
639.782;29668.916;  333.362;  261.970
640.361;29001.477;  391.961;  277.780
640.940;27843.961;  308.461;  270.101
641.519;27430.596;  360.011;  248.622
642.097;27383.604;  353.961;  239.843
642.676;27918.213;  338.986;  244.264
643.255;29613.322;  319.311;  234.985
643.833;31418.430;  360.561;  244.406
644.412;32057.113;  314.386;  244.927
644.990;30125.998;  338.211;  249.948
645.569;29189.656;  355.861;  249.569
646.147;28886.666;  372.611;  243.290
646.726;30517.049;  335.211;  249.511
647.304;31910.684;  321.061;  228.032
647.882;31335.691;  270.686;  214.552
648.461;29526.102;  342.686;  214.973
649.039;27689.160;  366.261;  223.394
649.617;26705.969;  357.161;  261.415
650.195;26777.354;  346.036;  298.736
650.773;28217.211;  314.336;  309.557
651.352;27758.295;  258.236;  297.978
651.930;25203.330;  257.711;  289.399
652.508;25296.264;  366.686;  285.620
653.086;26005.822;  350.436;  272.241
653.663;27492.531;  306.061;  265.062
654.241;29353.564;  282.711;  286.083
654.819;30354.449;  288.861;  286.404
655.397;30618.307;  297.536;  291.825
655.975;30513.467;  319.561;  299.145
656.553;30352.650;  400.861;  288.866
657.130;30977.359;  294.961;  304.087
657.708;30436.367;  344.761;  302.908
658.286;29726.002;  337.811;  294.629
658.863;29466.061;  338.536;  293.350
659.441;30132.645;  343.611;  318.671
660.018;30340.652;  327.111;  333.692
660.596;30112.438;  265.536;  335.013
661.173;30388.746;  309.686;  371.534
661.750;30013.654;  294.510;  365.155
662.328;29615.988;  357.635;  349.976
662.905;28512.598;  312.110;  332.997
663.482;27564.980;  325.085;  321.717
664.060;27230.840;  303.885;  314.438
664.637;28491.174;  362.985;  306.259
665.214;29357.533;  343.760;  314.580
665.791;29326.691;  318.410;  334.501
666.368;29082.500;  312.610;  329.222
666.945;28370.635;  360.485;  342.143
667.522;27776.193;  298.035;  370.964
668.099;27181.527;  321.685;  396.885
668.676;28113.986;  327.960;  391.706
669.253;28618.420;  403.010;  369.627
669.830;28852.053;  384.935;  360.348
670.407;28548.688;  321.710;  344.769
670.984;28361.922;  324.710;  322.890
671.560;27693.705;  366.585;  316.910
672.137;26528.715;  316.510;  322.531
672.714;25915.424;  348.160;  318.552
673.290;26219.531;  339.310;  324.473
673.867;25895.041;  305.735;  340.594
674.443;25230.775;  280.660;  319.515
675.020;25803.609;  334.360;  286.336
675.596;27554.992;  325.335;  247.557
676.173;28037.701;  284.685;  227.778
676.749;28382.910;  241.110;  224.399
677.326;27833.318;  276.485;  230.520
677.902;27239.178;  299.535;  241.841
678.478;27614.961;  287.935;  239.762
679.054;27232.971;  496.185;  248.583
679.631;26214.879;  350.035;  237.503
680.207;26640.264;  420.585;  245.924
680.783;26362.322;  257.685;  224.845
681.359;26038.381;  328.635;  209.666
681.935;25750.391;  333.235;  191.687
682.511;25935.473;  334.310;  210.008
683.087;26072.283;  353.460;  213.329
683.663;26275.217;  316.860;  216.850
684.239;25867.801;  282.010;  229.471
684.815;26091.158;  371.410;  248.792
685.390;26234.117;  420.910;  231.813
685.966;25757.277;  330.384;  221.234
686.542;25517.561;  293.884;  214.255
687.118;25009.670;  337.609;  212.276
687.693;25184.979;  354.159;  233.096
688.269;25519.787;  319.759;  246.917
688.844;24729.945;  348.934;  236.938
689.420;24261.355;  332.309;  242.059
689.995;24640.613;  412.309;  245.480
690.571;24594.398;  387.209;  244.701
691.146;24506.656;  318.634;  251.922
691.722;25615.791;  346.309;  284.743
692.297;25859.574;  309.209;  320.664
692.872;25804.309;  292.359;  313.885
693.448;25268.342;  286.509;  290.106
694.023;24871.926;  338.409;  304.327
694.598;25367.084;  330.909;  319.648
695.173;26251.693;  309.734;  323.169
695.748;26327.477;  262.034;  376.389
696.323;25654.686;  322.634;  397.610
696.898;25923.721;  380.859;  430.231
697.473;26349.055;  270.409;  454.952
698.048;25505.412;  315.859;  478.973
698.623;25207.172;  275.434;  477.094
699.198;25296.631;  332.634;  496.915
699.773;25887.215;  296.709;  490.236
700.348;27029.148;  286.534;  519.957
700.922;26716.656;  335.884;  575.678
701.497;25945.840;  329.484;  621.399
702.072;25516.375;  368.459;  664.420
702.646;26183.709;  358.209;  690.541
703.221;26058.068;  345.334;  748.862
703.795;24843.201;  292.784;  774.282
704.370;24363.061;  240.209;  799.803
704.944;24961.145;  308.359;  875.824
705.519;25643.854;  341.384;  902.945
706.093;25682.236;  295.009;  889.266
706.668;24739.420;  352.859;  903.487
707.242;24602.180;  362.059;  881.708
707.816;24342.838;  319.884;  892.329
708.390;24608.723;  325.334;  970.250
708.965;24327.906;  337.084;  984.671
709.539;23548.215;  317.284; 1026.092
710.113;23279.498;  331.783; 1067.913
710.687;24163.732;  359.383; 1166.434
711.261;25166.842;  281.883; 1190.854
711.835;25611.650;  289.733; 1197.275
712.409;25747.260;  268.058; 1308.096
712.983;26508.219;  265.958; 1461.617
713.557;25930.303;  264.508; 1611.838
714.131;26056.086;  313.533; 1554.359
714.704;26027.820;  298.083; 1520.780
715.278;25169.578;  328.983; 1575.101
715.852;24086.338;  353.558; 1689.822
716.425;24523.070;  415.733; 1829.143
716.999;25188.631;  263.658; 2008.664
717.573;25087.338;  348.733; 2000.485
718.146;26169.598;  407.658; 1914.506
718.720;26440.506;  336.808; 1818.026
719.293;25767.590;  347.408; 1734.147
719.867;25511.475;  302.283; 1716.968
720.440;26061.133;  390.233; 1918.589
721.013;26700.066;  307.233; 1975.410
721.587;26433.727;  270.283; 2073.331
722.160;26155.660;  369.008; 2357.852
722.733;26239.293;  340.358; 2657.073
723.306;26855.428;  324.358; 2703.894
723.880;27709.262;  337.958; 2549.415
724.453;27858.369;  381.208; 2414.336
725.026;27798.180;  305.433; 2298.557
725.599;27411.912;  334.183; 2168.778
726.172;26959.471;  349.033; 2106.099
726.745;27826.180;  346.783; 2253.320
727.318;26981.389;  364.533; 2404.740
727.891;26318.898;  335.333; 2680.161
728.463;26610.156;  334.933; 2838.882
729.036;25761.941;  296.258; 2755.103
729.609;24517.574;  294.583; 2731.824
730.182;23983.658;  360.033; 2855.645
730.754;25076.518;  246.233; 2946.866
731.327;25605.951;  351.758; 2840.187
731.900;24628.410;  271.533; 2647.608
732.472;24149.318;  323.433; 2473.929
733.045;23956.752;  313.083; 2445.750
733.617;23752.086;  262.832; 2511.771
734.190;23261.996;  346.907; 2581.592
734.762;23867.604;  316.282; 2710.813
735.334;24676.639;  329.782; 3005.733
735.907;24124.297;  333.132; 3154.954
736.479;23382.881;  370.857; 3171.675
737.051;23809.340;  347.357; 3217.496
737.623;26099.199;  357.882; 3246.217
738.195;27014.082;  299.482; 2985.238
738.768;25968.266;  252.782; 2727.559
739.340;24907.900;  304.857; 2666.880
739.912;24225.059;  357.657; 2769.601
740.484;23185.742;  350.757; 2731.422
741.056;23516.977;  312.057; 2963.043
741.628;25096.186;  289.782; 3361.364
742.199;25990.545;  383.907; 3641.185
742.771;25849.654;  280.457; 3932.005
743.343;25899.512;  292.832; 4319.926
743.915;25776.396;  344.282; 4706.647
744.487;24995.705;  347.457; 4874.968
745.058;24445.039;  353.457; 4616.589
745.630;23795.023;  348.382; 4253.410
746.201;23658.832;  304.807; 4056.131
746.773;23495.365;  349.032; 3772.952
747.344;23250.324;  322.357; 3642.473
747.916;23706.209;  333.257; 3752.294
748.487;23701.092;  359.432; 4106.215
749.059;22618.602;  284.982; 4457.835
749.630;22146.359;  297.432; 4366.457
750.201;22335.193;  320.057; 4600.078
750.773;22900.928;  303.332; 4658.499
751.344;22824.936;  327.382; 4609.319
751.915;22405.545;  322.882; 4526.440
752.486;22774.805;  293.582; 4536.061
753.057;21983.838;  329.332; 4383.282
753.628;21178.723;  295.257; 4296.503
754.199;20607.205;  310.882; 4383.224
754.770;20361.965;  353.057; 4653.545
755.341;19703.324;  360.857; 4831.666
755.912;19401.457;  319.107; 4831.387
756.483;20086.967;  345.682; 4735.808
757.054;20487.199;  311.757; 4685.029
757.625;20005.359;  283.281; 4994.250
758.195;19371.242;  271.456; 5051.471
758.766;19492.176;  334.106; 5317.792
759.337;19665.609;  271.731; 5646.512
759.907;19949.670;  273.281; 5404.133
760.478;19849.328;  301.906; 5090.954
761.048;19996.361;  350.156; 4871.175
761.619;19763.545;  343.981; 4589.396
762.189;19813.305;  323.481; 4171.317
762.760;19295.688;  353.681; 3872.538
763.330;19415.396;  348.956; 3832.259
763.900;20123.582;  336.956; 4150.180
764.471;19418.891;  288.831; 4529.801
765.041;18564.049;  377.656; 4715.922
765.611;18836.107;  345.006; 4681.442
766.181;19650.967;  313.381; 4717.063
766.751;19522.125;  326.356; 4710.285
767.321;18914.434;  281.681; 4450.305
767.891;19325.844;  335.006; 4274.126
768.461;18922.127;  317.181; 4215.047
769.031;18021.961;  319.931; 4173.068
769.601;17999.070;  371.706; 4174.689
770.171;17752.178;  271.681; 4229.310
770.741;17685.287;  308.231; 4352.031
771.311;17033.922;  349.906; 4336.652
771.880;16379.080;  290.606; 4300.873
772.450;16550.889;  293.831; 4387.194
773.020;17680.848;  265.356; 4220.415
773.589;18398.832;  304.181; 4075.835
774.159;18439.840;  303.806; 4105.756
774.729;17946.875;  302.231; 4114.978
775.298;17572.059;  295.981; 3693.298
775.867;17366.566;  299.481; 3343.119
776.437;16274.576;  327.631; 3062.040
777.006;15819.385;  274.856; 2927.161
777.576;16169.169;  344.456; 3046.482
778.145;16299.527;  343.356; 3230.203
778.714;15966.161;  322.006; 3253.324
779.283;15591.596;  348.206; 3129.745
779.853;15487.329;  314.331; 2983.566
780.422;15926.113;  318.631; 2929.887
780.991;16057.922;  342.380; 2863.908
781.560;15598.631;  388.455; 2948.029
782.129;14924.915;  340.005; 3074.149
782.698;14820.873;  380.505; 2893.970
783.267;14517.332;  307.955; 2721.391
783.836;14540.741;  330.805; 2659.712
784.404;14584.825;  279.880; 2622.233
784.973;14710.909;  237.455; 2600.754
785.542;14771.317;  315.855; 2528.475
786.111;14508.177;  374.280; 2404.396
786.679;13914.561;  344.680; 2365.717
787.248;13464.119;  267.330; 2498.438
787.817;13599.653;  303.955; 2645.659
788.385;13946.537;  369.230; 2709.280
788.954;13864.696;  275.655; 2620.500
789.522;13991.505;  355.780; 2625.422
790.090;13958.913;  278.980; 2743.843
790.659;13616.647;  306.080; 2635.163
791.227;13124.356;  311.805; 2495.484
791.795;12995.641;  331.755; 2413.705
792.364;12787.549;  290.980; 2345.326
792.932;12741.633;  340.980; 2350.447
793.500;12502.642;  316.380; 2429.768
794.068;11900.051;  268.080; 2513.589
794.636;12014.334;  295.280; 2664.310
795.204;12159.318;  262.980; 2721.431
795.772;11813.052;  290.305; 2802.052
796.340;11435.461;  299.005; 2847.173
796.908;11327.620;  261.530; 2997.194
797.476;11449.028;  284.905; 3151.615
798.044;11429.612;  253.155; 3110.735
798.612;11322.222;  314.105; 2931.656
799.180;11042.705;  325.680; 2785.777
799.747;10920.289;  319.580; 2899.098
800.315;10518.598;  274.780; 2955.519
800.883;10409.981;  252.155; 2948.940
801.450;10496.565;  315.580; 2965.361
802.018;10403.324;  334.130; 3070.582
802.585;10173.083;  322.055; 3156.103
803.153; 9958.792;  289.680; 3199.524
803.720; 9510.826;  296.830; 3168.845
804.287; 9504.235;  306.930; 3248.366
804.855; 9399.644;  359.104; 3406.187
805.422; 9032.853;  307.929; 3430.907
805.989; 8761.212;  290.679; 3453.528
806.556; 8620.745;  291.654; 3612.649
807.124; 9059.279;  357.604; 3736.570
807.691; 9312.488;  281.554; 3770.491
808.258; 9058.347;  319.179; 3705.012
808.825; 8727.706;  355.079; 3828.733
809.392; 8553.465;  385.954; 3986.754
809.959; 8371.424;  332.604; 4410.075
810.526; 8235.032;  389.054; 4774.996
811.093; 8129.016;  368.679; 4754.217
811.659; 8197.875;  315.429; 4661.238
812.226; 8496.809;  314.129; 4672.559
812.793; 8736.493;  327.529; 4822.979
813.360; 8581.177;  317.729; 5189.800
813.926; 8097.610;  328.854; 5310.622
814.493; 7519.895;  271.154; 5414.542
815.060; 7330.353;  255.704; 5548.963
815.626; 7447.862;  275.854; 5452.284
816.193; 7541.821;  325.404; 5339.305
816.759; 7312.005;  287.029; 5544.426
817.325; 7381.589;  257.729; 5706.547
817.892; 7680.047;  353.004; 5623.468
818.458; 7479.631;  337.154; 5586.689
819.024; 7442.790;  363.754; 5647.910
819.591; 7180.549;  321.029; 5762.031
820.157; 6931.833;  276.979; 6284.452
820.723; 7077.092;  336.229; 6906.973
821.289; 7386.651;  506.079; 7086.894
821.855; 7059.035;  346.254; 7054.915
822.421; 7032.769;  299.279; 7112.035
822.987; 7081.602;  280.329; 7256.156
823.553; 7075.961;  308.029; 7538.077
824.119; 6977.495;  357.979; 7594.298
824.685; 6905.904;  375.329; 7613.619
825.251; 6889.688;  349.804; 7644.140
825.816; 6915.546;  394.904; 7720.261
826.382; 6523.581;  353.229; 8014.282
826.948; 6139.264;  360.979; 8281.503
827.513; 6241.323;  312.229; 8289.624
828.079; 6443.682;  284.654; 8587.045
828.645; 6704.041;  331.953; 8821.865
829.210; 6707.200;  280.028; 9054.486
829.776; 6653.358;  341.478; 9054.607
830.341; 6436.143;  348.903; 9415.628
830.906; 6345.226;  366.128; 9932.449
831.472; 6231.985;  292.928;10150.271
832.037; 6338.169;  358.778; 9420.391
832.602; 6223.653;  297.278; 8664.912
833.167; 6091.237;  322.128; 8491.933
833.733; 6059.021;  355.203; 8872.854
834.298; 5924.054;  283.078; 9370.575
834.863; 5682.363;  335.253; 9610.695
835.428; 5549.822;  332.603; 9655.616
835.993; 5688.081;  346.478; 9437.838
836.558; 5954.615;  350.903; 9441.459
837.123; 6032.674;  435.803; 9600.979
837.688; 5832.583;  333.278; 9798.301
838.253; 5745.741;  336.928; 9902.921
838.817; 5808.850;  311.203;10339.742
839.382; 6097.984;  374.978;10548.363
839.947; 5973.018;  323.128;10252.484
840.511; 5656.077;  393.528;10040.005
841.076; 5210.986;  252.078;10099.926
841.641; 5312.669;  344.703;10347.347
842.205; 5307.753;  337.778;10817.368
842.770; 5514.362;  408.353;11435.289
843.334; 5668.621;  312.103;12072.409
843.898; 5732.955;  310.603;12635.431
844.463; 5752.189;  380.278;12537.252
845.027; 5607.022;  308.503;12759.673
845.591; 5553.682;  363.603;12821.993
846.156; 5360.465;  299.378;12520.914
846.720; 5526.899;  354.153;12390.436
847.284; 5547.158;  330.928;12956.456
847.848; 5557.417;  348.053;13240.177
848.412; 5308.826;  323.753;13216.998
848.976; 5232.435;  386.653;13014.619
849.540; 5203.318;  417.803;12355.740
850.104; 5048.402;  383.053;12208.761
850.668; 4896.361;  254.278;12106.882
851.232; 4989.795;  268.203;11862.103
851.796; 4967.454;  320.853;11700.523
852.359; 4989.763;  357.802;12375.944
852.923; 5038.097;  372.677;13087.966
853.487; 4912.855;  354.002;13297.187
854.050; 4646.139;  221.277;13851.207
854.614; 4625.048;  307.352;14854.229
855.177; 4588.582;  338.277;15802.149
855.741; 4375.541;  345.252;16603.570
856.304; 4061.225;  368.077;16359.891
856.868; 3881.584;  285.127;14365.512
857.431; 3943.843;  327.252;13361.333
857.995; 4043.801;  311.852;14130.554
858.558; 4201.735;  344.802;14883.175
859.121; 4249.069;  356.802;15754.195
859.684; 3995.853;  334.527;15995.017
860.247; 3900.662;  330.327;15149.537
860.810; 3902.421;  315.502;14640.358
861.374; 4129.705;  427.327;15551.079
861.937; 3994.413;  281.702;16519.801
862.500; 4121.722;  308.952;16796.521
863.062; 4207.856;  286.727;16538.742
863.625; 4148.090;  336.352;16716.764
864.188; 3977.999;  303.952;17055.084
864.751; 3949.933;  311.477;17197.705
865.314; 3937.816;  328.227;17151.625
865.876; 3881.700;  367.602;17783.547
866.439; 3784.809;  356.927;19283.467
867.002; 3711.318;  418.077;20256.389
867.564; 3597.077;  382.527;20485.410
868.127; 3508.486;  339.677;20789.730
868.689; 3352.145;  337.727;21981.951
869.252; 3318.053;  379.552;23803.771
869.814; 3282.537;  297.202;24974.094
870.377; 3425.846;  333.127;24690.314
870.939; 3567.605;  475.577;23963.436
871.501; 3484.764;  336.752;25167.156
872.063; 3359.223;  240.777;26995.477
872.626; 3351.781;  266.427;27443.098
873.188; 3327.690;  339.102;26718.418
873.750; 3226.674;  318.952;26558.840
874.312; 3175.308;  307.927;26701.561
874.874; 3263.542;  397.902;27970.582
875.436; 3144.326;  355.951;29173.402
875.998; 3225.735;  389.851;30376.623
876.560; 3099.769;  360.801;32507.344
877.122; 2935.103;  294.651;34833.066
877.683; 2836.186;  350.176;36458.285
878.245; 2711.445;  318.351;37248.207
878.807; 2751.204;  347.801;36758.027
879.369; 2681.813;  283.901;35223.551
879.930; 2752.972;  283.676;33824.969
880.492; 2835.056;  383.151;34436.492
881.053; 2724.839;  294.601;37745.313
881.615; 2641.673;  307.076;41184.633
882.176; 2609.532;  324.176;42871.555
882.738; 2621.666;  358.351;41693.074
883.299; 2467.150;  262.026;40289.895
883.860; 2348.859;  266.201;39231.215
884.422; 2319.843;  356.201;38264.039
884.983; 2182.826;  288.701;37171.859
885.544; 2171.860;  334.101;35842.379
886.105; 2154.619;  327.726;34810.000
886.666; 2140.478;  316.601;34519.020
887.227; 2073.237;  267.851;33905.641
887.788; 2066.971;  338.601;34502.965
888.349; 1932.430;  284.426;34241.785
888.910; 1919.513;  352.301;33722.203
889.471; 1780.247;  338.351;32539.625
890.032; 1675.656;  326.526;31528.346
890.593; 1680.365;  353.451;32655.068
891.153; 1660.474;  318.251;33882.289
891.714; 1583.933;  271.876;33318.711
892.275; 1552.617;  279.076;31848.930
892.835; 1572.175;  366.851;30339.752
893.396; 1537.384;  351.251;30074.973
893.956; 1426.943;  321.201;30338.393
894.517; 1387.502;  334.976;30864.113
895.077; 1373.086;  341.851;29766.734
895.638; 1426.320;  397.501;26379.557
896.198; 1275.954;  284.226;24056.277
896.758; 1282.987;  363.351;22961.898
897.319; 1183.171;  322.426;21772.020
897.879; 1156.380;  327.851;20877.539
898.439; 1083.789;  269.326;19509.461
898.999; 1137.648;  347.950;17297.582
899.559; 1105.557;  342.950;14712.002
900.119; 1006.516;  283.975;12790.224
900.679; 1071.399;  392.525;11586.744
901.239; 1003.458;  353.950;10776.465
901.799;  951.642;  331.000; 9691.687
902.359;  898.626;  294.300; 8725.907
902.919;  869.035;  289.650; 8305.728
903.479;  840.294;  290.550; 8172.649
904.038;  809.028;  279.900; 7913.870
904.598;  742.636;  237.225; 7262.291
905.158;  795.470;  307.100; 6609.012
905.717;  794.304;  319.925; 6236.133
906.277;  787.363;  329.425; 5829.054
906.836;  772.847;  346.525; 5396.674
907.396;  762.156;  345.100; 4964.195
907.955;  743.415;  344.600; 4528.917
908.515;  699.973;  310.200; 4223.837
909.074;  685.607;  311.450; 4023.958
909.633;  677.041;  317.675; 4065.379
910.192;  748.400;  398.125; 4066.300
910.752;  655.375;  311.025; 3971.600
911.311;  638.550;  302.425; 3839.600
911.870;  612.500;  294.400; 3684.500
912.429;  688.800;  367.100; 3635.600
912.988;  671.725;  360.725; 3689.800
913.547;  588.025;  291.250; 3737.700
914.106;  623.000;  328.775; 3740.300
914.665;  618.850;  328.125; 3604.600
915.224;  639.300;  367.300; 3358.700
915.782;  574.775;  303.450; 3188.400
916.341;  652.425;  375.900; 3091.400
916.900;  572.875;  309.825; 3044.800
917.458;  556.300;  290.900; 2888.600
918.017;  583.200;  323.825; 2818.900
918.576;  564.350;  306.850; 2838.600
919.134;  520.900;  270.925; 2880.100
919.693;  551.275;  303.825; 2996.300
920.251;  538.875;  294.975; 3183.100
920.809;  521.300;  280.075; 3247.000
921.368;  550.175;  306.550; 3156.600
921.926;  525.000;  286.775; 2964.900
922.484;  552.150;  321.075; 2846.300
923.042;  548.425;  309.775; 2890.400
923.601;  612.700;  378.950; 2987.700
924.159;  575.225;  343.425; 3049.800
924.717;  517.550;  283.975; 3087.000
925.275;  556.300;  320.000; 3093.400
925.833;  484.050;  253.450; 3182.400
926.391;  572.775;  344.775; 3397.900
926.949;  528.800;  295.650; 3575.400
927.506;  554.100;  326.450; 3713.400
928.064;  540.050;  311.175; 3871.300
928.622;  540.450;  309.725; 4092.800
929.180;  501.000;  275.125; 4499.300
929.737;  500.750;  266.100; 4813.200
930.295;  573.650;  337.375; 5084.100
930.853;  521.200;  283.675; 5185.000
931.410;  508.575;  273.025; 5313.100
931.968;  578.750;  344.250; 5339.600
932.525;  560.100;  327.375; 5399.900
933.082;  500.675;  265.950; 5457.500
933.640;  566.575;  328.025; 5692.900
934.197;  543.500;  309.200; 5821.200
934.754;  552.625;  305.600; 5617.900
935.312;  529.125;  289.325; 5512.400
935.869;  618.775;  374.375; 5582.400
936.426;  532.700;  289.250; 5650.100
936.983;  545.700;  298.200; 5657.400
937.540;  515.375;  269.650; 5564.300
938.097;  571.700;  327.175; 5574.000
938.654;  556.800;  301.500; 5665.900
939.211;  583.575;  331.500; 5931.600
939.768;  562.575;  310.250; 6153.600
940.324;  556.050;  298.750; 6397.600
940.881;  540.575;  285.525; 6454.200
941.438;  622.875;  365.925; 6206.900
941.995;  608.425;  349.275; 6003.900
942.551;  538.625;  272.650; 6228.300
943.108;  589.775;  313.650; 6603.500
943.664;  553.900;  277.825; 7188.100
944.221;  670.275;  401.575; 7579.900
944.777;  540.825;  269.500; 7658.100
945.334;  551.725;  282.525; 7670.400
945.890;  588.700;  317.025; 7525.100
946.446;  587.675;  313.075; 7261.500
947.003;  595.025;  323.250; 6949.200
947.559;  655.075;  383.950; 6773.100
948.115;  633.350;  358.575; 6668.400
948.671;  599.750;  322.300; 6488.400
949.227;  540.950;  259.975; 6236.600
949.783;  531.525;  255.075; 6008.900
950.339;  607.825;  331.025; 5934.100
950.895;  619.075;  351.200; 5933.500
951.451;  564.575;  295.350; 6074.700
952.007;  616.950;  338.975; 6066.400
952.563;  571.475;  298.450; 5884.100
953.118;  557.525;  287.425; 5733.800
953.674;  578.775;  306.625; 5734.300
954.230;  584.450;  314.075; 6039.700
954.785;  583.175;  312.725; 6383.500
955.341;  611.375;  351.075; 6568.200
955.897;  519.050;  254.200; 6488.600
956.452;  587.075;  328.625; 6239.200
957.008;  668.725;  404.550; 5954.600
957.563;  624.600;  367.550; 5816.700
958.118;  541.350;  282.450; 5828.200
958.674;  585.275;  322.825; 5717.400
959.229;  624.125;  367.175; 5506.800
959.784;  530.800;  267.275; 5292.200
960.339;  625.500;  364.800; 5101.900
960.894;  609.450;  341.450; 5093.200
961.449;  538.900;  280.925; 5227.900
962.004;  741.250;  490.500; 5349.300
962.559;  534.400;  284.775; 5514.900
963.114;  474.500;  222.725; 5717.300
963.669;  568.575;  317.925; 5841.400
964.224;  543.500;  299.750; 5805.900
964.779;  520.675;  267.100; 5723.400
965.334;  626.425;  380.675; 5779.500
965.888;  545.950;  292.650; 5948.500
966.443;  599.200;  350.425; 6344.200
966.998;  502.175;  257.300; 6666.300
967.552;  554.875;  312.450; 6710.100
968.107;  531.525;  293.775; 6593.500
968.661;  562.325;  326.450; 6344.100
969.216;  525.825;  284.875; 6062.400
969.770;  560.425;  322.850; 5785.500
970.324;  560.800;  329.125; 5426.800
970.879;  580.475;  344.225; 5016.800
971.433;  576.400;  343.925; 4904.500
971.987;  552.375;  314.875; 4991.000
972.541;  561.100;  331.825; 4978.500
973.095;  608.900;  388.575; 4832.000
973.649;  487.725;  265.950; 4767.900
974.203;  508.725;  281.000; 4881.200
974.757;  521.975;  301.075; 4969.500
975.311;  530.225;  310.600; 4953.000
975.865;  541.200;  311.625; 4884.300
976.419;  524.625;  300.375; 4739.800
976.973;  520.500;  297.375; 4698.100
977.526;  579.925;  357.650; 4631.100
978.080;  479.525;  267.000; 4621.600
978.634;  550.900;  342.325; 4650.200
979.187;  542.275;  335.325; 4669.200
979.741;  609.750;  401.000; 4658.000
980.294;  476.850;  272.800; 4579.100
980.848;  438.525;  232.750; 4452.800
981.401;  498.525;  297.025; 4271.900
981.955;  518.675;  316.275; 4087.800
982.508;  454.000;  256.725; 3973.900
983.061;  560.775;  358.500; 3928.600
983.615;  489.400;  283.725; 3851.200
984.168;  468.500;  269.550; 3734.800
984.721;  525.350;  334.400; 3628.300
985.274;  522.525;  326.400; 3564.300
985.827;  502.225;  308.675; 3558.100
986.380;  434.000;  247.075; 3559.900
986.933;  522.050;  332.400; 3688.700
987.486;  514.975;  328.700; 3778.500
988.039;  519.600;  335.625; 3559.900
988.591;  535.875;  355.000; 3219.300
989.144;  440.750;  263.175; 2902.900
989.697;  457.800;  282.775; 2722.600
990.250;  520.475;  343.775; 2618.000
990.802;  462.025;  284.350; 2523.900
991.355;  584.425;  416.225; 2436.500
991.907;  521.175;  353.175; 2412.200
992.460;  457.925;  290.125; 2387.900
993.012;  444.775;  292.925; 2365.800
993.565;  420.400;  269.025; 2311.100
994.117;  561.150;  415.075; 2308.700
994.669;  415.000;  272.775; 2249.300
995.221;  471.175;  325.775; 2158.100
995.774;  466.100;  323.950; 2085.600
996.326;  438.325;  302.975; 2068.100
996.878;  497.650;  364.650; 1975.300
997.430;  415.300;  280.975; 1929.500
997.982;  442.350;  314.375; 1861.900
998.534;  441.575;  312.325; 1830.200
999.086;  432.250;  309.400; 1823.200
999.638;  390.375;  264.475; 1815.000
1000.190;  414.125;  289.550; 1796.600
1000.741;  440.800;  315.700; 1738.800
1001.293;  409.350;  285.475; 1666.200
1001.845;  401.375;  282.400; 1566.500
1002.396;  442.175;  323.025; 1471.900
1002.948;  433.800;  319.025; 1398.000
1003.500;  426.350;  311.450; 1356.500
1004.051;  537.800;  427.075; 1294.200
1004.603;  467.975;  355.975; 1190.000
1005.154;  359.825;  256.550; 1063.900
1005.705;  426.575;  327.275;  968.300
1006.257;  414.200;  321.050;  889.800
1006.808;  399.050;  307.300;  801.500
1007.359;  449.050;  357.950;  716.400
1007.910;  380.925;  292.775;  639.100
1008.461;  425.700;  340.400;  561.600
1009.013;  341.900;  260.275;  500.400
1009.564;  463.825;  379.075;  476.100
1010.115;  347.350;  266.650;  431.600
1010.665;  354.050;  276.375;  409.300
1011.216;  391.375;  307.725;  399.700
1011.767;  409.800;  322.300;  388.100
1012.318;  428.725;  346.275;  381.400
1012.869;  397.775;  312.400;  375.400
1013.419;  351.500;  272.200;  357.600
1013.970;  389.725;  308.450;  358.300
1014.521;  358.550;  282.075;  344.100
1015.071;  393.325;  311.900;  322.800
1015.622;  364.800;  293.350;  320.600
1016.172;  349.300;  275.300;  301.700
1016.723;  360.250;  282.900;  289.800
1017.273;  352.950;  277.850;  287.600
1017.823;  375.200;  300.200;  278.700
1018.374;  352.400;  284.275;  274.400
1018.924;  417.250;  341.950;  283.200
1019.474;  413.200;  342.125;  278.500
1020.024;  379.900;  308.475;  274.700
1020.574;  421.775;  347.200;  272.700
1021.124;  391.575;  320.825;  278.400
1021.674;  325.875;  254.500;  269.200
1022.224;  410.875;  338.750;  267.800
1022.774;  391.475;  316.850;  258.100
1023.324;  436.275;  367.150;  260.000
1023.874;  508.425;  441.500;  260.700
1024.423;  353.300;  279.150;  252.700
1024.973;  362.275;  281.275;  234.700
1025.523;  356.325;  289.800;  226.500
1026.072;  348.875;  285.275;  225.500
1026.622;  387.950;  318.725;  210.100
1027.172;  416.400;  346.700;  213.000
1027.721;  347.900;  280.500;  207.700
1028.270;  385.325;  319.175;  205.400
1028.820;  365.500;  302.250;  201.000
1029.369;  355.075;  286.450;  201.000
1029.918;  377.025;  305.700;  198.400
1030.468;  320.575;  259.425;  199.200
1031.017;  363.825;  300.400;  192.600
1031.566;  352.975;  289.275;  197.400
1032.115;  401.525;  337.900;  188.300
1032.664;  346.250;  279.900;  193.700
1033.213;  421.050;  362.050;  191.900
1033.762;  363.450;  302.625;  184.500
1034.311;  394.525;  326.850;  194.300
1034.860;  400.125;  336.175;  192.300
1035.408;  415.975;  355.150;  182.600
1035.957;  414.075;  352.700;  173.900
1036.506;  307.550;  245.850;  185.200
1037.055;  488.075;  423.375;  182.500
1037.603;  378.325;  320.150;  167.600
1038.152;  313.250;  250.525;  168.200
1038.700;  337.050;  274.950;  169.600
1039.249;  395.250;  332.200;  164.300
1039.797;  361.650;  305.675;  169.600
1040.345;  406.400;  345.400;  167.100
1040.894;  358.225;  301.950;  164.400
1041.442;  362.700;  304.750;  158.300
1041.990;  318.375;  259.475;  160.000
1042.538;  306.750;  249.225;  156.800
1043.087;  325.825;  270.350;  146.600
1043.635;  392.575;  327.075;  162.400
1044.183;  338.425;  279.725;  156.300
1044.731;  328.750;  269.300;  158.100
1045.279;  387.800;  328.825;  154.500
1045.827;  517.000;  462.875;  146.200
1046.374;  294.750;  240.950;  154.000
1046.922;  337.550;  281.025;  149.000
1047.470;  399.450;  341.475;  154.900
1048.018;  373.775;  315.450;  148.400
1048.565;  411.900;  353.925;  146.300
1049.113;  317.375;  260.775;  156.100
1049.660;  354.625;  302.650;  154.300
1050.208;  383.575;  324.875;  149.400
1050.755;  347.750;  293.275;  157.500
1051.303;  394.550;  336.200;  157.700
1051.850;  368.425;  310.850;  152.800
1052.397;  270.425;  222.000;  146.300
1052.945;  345.850;  296.750;  149.500
1053.492;  424.425;  369.875;  149.300
1054.039;  414.250;  360.975;  163.100
1054.586;  319.100;  262.725;  150.400
1055.133;  397.850;  338.550;  153.500
1055.680;  372.175;  315.200;  155.600
1056.227;  308.600;  253.400;  148.700
1056.774;  461.250;  404.600;  151.500
1057.321;  298.450;  244.250;  143.700
1057.868;  368.450;  313.950;  145.300
1058.415;  370.675;  324.800;  153.500
1058.961;  386.425;  330.150;  149.900
1059.508;  362.925;  315.850;  147.300
1060.055;  332.600;  281.250;  151.000
1060.601;  359.525;  303.950;  148.700
1061.148;  352.250;  301.600;  153.800
1061.694;  339.475;  287.700;  150.500
1062.241;  337.700;  287.650;  149.100
1062.787;  378.600;  328.450;  153.000
1063.334;  465.500;  410.750;  153.200
1063.880;  383.475;  329.225;  148.400
1064.426;  397.950;  352.025;  149.200
1064.972;  341.575;  292.350;  156.400
1065.518;  321.525;  271.775;  144.700
1066.065;  354.800;  308.625;  139.400
1066.611;  342.875;  293.475;  139.300
1067.157;  366.900;  319.775;  138.400
1067.703;  383.450;  337.575;  142.700
1068.249;  346.175;  296.225;  136.700
1068.794;  361.875;  305.000;  139.400
1069.340;  327.150;  280.900;  142.700
1069.886;  339.675;  290.950;  135.600
1070.432;  305.000;  253.750;  133.400
1070.977;  341.200;  291.550;  138.200
1071.523;  326.950;  279.700;  132.400
1072.068;  333.300;  284.200;  132.700
1072.614;  296.975;  251.100;  127.000
1073.160;  394.750;  348.150;  131.300
1073.705;  326.300;  283.500;  135.700
1074.250;  316.500;  269.250;  133.000
1074.796;  373.975;  324.700;  138.000
1075.341;  382.650;  336.700;  137.300
1075.886;  341.850;  289.575;  134.300
1076.431;  373.525;  329.275;  138.200
1076.976;  364.600;  318.550;  132.200
1077.521;  332.575;  283.600;  138.900
1078.067;  331.025;  282.450;  128.600
1078.612;  381.575;  332.075;  138.900
1079.156;  340.200;  295.750;  128.900
1079.701;  396.025;  343.350;  129.700
1080.246;  394.475;  347.850;  128.600
1080.791;  361.900;  314.325;  122.600
1081.336;  371.175;  326.775;  122.000
1081.880;  369.975;  325.175;  123.900
1082.425;  321.950;  278.750;  120.600
1082.970;  410.125;  366.800;  124.500
1083.514;  339.050;  294.050;  112.000
1084.059;  333.475;  286.600;  120.700
1084.603;  322.650;  274.100;  116.000
1085.147;  372.825;  324.250;  116.300
1085.692;  406.475;  361.250;  108.200
1086.236;  285.950;  241.150;  114.600
1086.780;  429.950;  384.150;  118.900
1087.325;  372.475;  325.450;  120.400
1087.869;  341.925;  304.775;  110.500
1088.413;  406.925;  356.525;  114.000
1088.957;  303.625;  263.950;  114.300
1089.501;  437.600;  396.225;  114.600
1090.045;  412.375;  370.525;  114.200
1090.589;  320.650;  276.525;  105.500
1091.133;  386.200;  345.450;  111.800
1091.676;  340.625;  298.200;  110.900
1092.220;  344.225;  299.475;  110.100
1092.764;  403.575;  361.925;  108.100
1093.307;  385.125;  337.525;  109.900
1093.851;  315.575;  275.925;  107.500
1094.395;  389.075;  345.675;   96.200
1094.938;  360.125;  322.825;   99.300
1095.482;  318.450;  278.475;   97.700
1096.025;  405.150;  364.550;   84.900
1096.568;  445.250;  405.000;   88.500
1097.112;  286.300;  246.200;   95.700
1097.655;  339.675;  296.650;   97.300
1098.198;  342.275;  297.750;   92.600
1098.741;  347.550;  304.700;   91.800
1099.285;  371.725;  328.800;   88.000
1099.828;  245.650;  211.775;   91.700
1100.371;  343.550;  306.475;   89.900
1100.914;  386.875;  345.300;   91.500
1101.457;  391.100;  348.450;   88.100
1101.999;  333.125;  287.650;   86.400
1102.542;  368.350;  326.525;   90.800
1103.085;  368.175;  334.825;   95.400
1103.628;  437.175;  402.425;   97.700
1104.170;  334.500;  294.100;   84.000
1104.713;  369.950;  327.975;   93.900
1105.256;  314.825;  274.375;   93.000
1105.798;  285.875;  242.750;   85.600
1106.341;  418.125;  376.200;   87.100
1106.883;  294.875;  254.050;   85.200
1107.425;  378.300;  336.150;   85.000
1107.968;  350.550;  308.475;   84.300
1108.510;  390.900;  354.625;   88.200
1109.052;  352.425;  312.325;   86.600
1109.594;  312.750;  276.450;   79.400
1110.136;  366.600;  324.750;   81.700
1110.679;  362.625;  320.200;   75.500
1111.221;  339.175;  303.300;   88.500
1111.763;  307.500;  273.725;   87.700
1112.304;  306.125;  269.975;   89.700
1112.846;  381.425;  338.350;   81.900
1113.388;  540.575;  503.625;   86.400
1113.930;  391.700;  350.625;   84.700
1114.472;  348.000;  306.975;   78.900
1115.013;  310.950;  274.675;   78.100
1115.555;  337.075;  300.175;   84.900
1116.097;  321.075;  286.175;   79.200
1116.638;  390.600;  351.800;   83.700
1117.180;  381.075;  340.000;   85.500
1117.721;  323.300;  284.650;   78.800
1118.262;  381.350;  346.125;   77.400
1118.804;  355.475;  323.675;   81.400
1119.345;  330.250;  293.650;   77.800
1119.886;  401.700;  365.925;   81.200
1120.427;  330.350;  298.125;   77.200
1120.969;  338.350;  303.125;   75.200
1121.510;  319.775;  283.075;   80.900
1122.051;  413.275;  375.375;   77.300
1122.592;  372.425;  336.725;   73.300
1123.133;  308.550;  273.850;   90.100
1123.673;  403.025;  369.875;   75.000
1124.214;  343.475;  315.175;   80.600
1124.755;  364.975;  324.350;   78.000
1125.296;  347.600;  318.250;   77.500
1125.836;  391.450;  351.500;   80.400
1126.377;  338.800;  300.875;   75.600
1126.918;  348.000;  309.250;   78.900
1127.458;  352.250;  318.050;   78.000
1127.999;  375.150;  336.250;   76.100
1128.539;  391.875;  364.625;   81.400
1129.079;  362.725;  324.475;   77.400
1129.620;  317.150;  279.875;   68.000
1130.160;  304.475;  272.075;   77.500
1130.700;  360.625;  329.225;   76.300
1131.240;  367.025;  328.450;   66.800
1131.781;  349.775;  314.900;   70.600
1132.321;  343.000;  306.150;   77.200
1132.861;  319.475;  285.675;   70.400
1133.401;  336.550;  300.900;   68.700
1133.941;  355.600;  321.400;   68.500
1134.481;  340.900;  307.900;   75.900
1135.020;  342.150;  309.675;   66.600
1135.560;  379.925;  351.150;   68.100
1136.100;  279.475;  248.900;   64.900
1136.640;  288.550;  255.600;   72.500
1137.179;  306.050;  268.675;   69.700
1137.719;  339.450;  312.975;   68.400
1138.258;  328.750;  301.025;   67.000
1138.798;  378.225;  340.800;   69.600
1139.337;  270.775;  239.200;   64.000
1139.877;  368.025;  332.125;   64.500
1140.416;  502.100;  470.975;   74.900
1140.955;  297.900;  271.575;   67.200
1141.494;  383.525;  350.025;   69.900
1142.034;  326.025;  296.600;   59.100
1142.573;  369.325;  339.400;   65.900
1143.112;  313.200;  283.425;   70.600
1143.651;  300.825;  277.975;   67.100
1144.190;  386.450;  356.875;   56.700
1144.729;  336.575;  310.675;   61.800
1145.267;  328.450;  295.200;   62.500
1145.806;  363.975;  333.350;   68.500
1146.345;  359.850;  329.875;   58.300
1146.884;  355.075;  323.775;   63.100
1147.422;  295.400;  268.350;   54.800
1147.961;  404.250;  375.600;   67.600
1148.500;  374.425;  349.175;   64.700
1149.038;  356.300;  329.975;   61.000
1149.577;  394.400;  366.025;   65.100
1150.115;  254.725;  223.975;   58.100
1150.653;  341.750;  315.175;   60.500
1151.192;  309.300;  282.875;   56.600
1151.730;  370.500;  342.650;   62.300
1152.268;  329.650;  299.225;   55.500
1152.806;  319.750;  289.175;   58.200
1153.344;  323.375;  294.550;   55.000
1153.882;  342.000;  313.275;   64.200
1154.421;  264.950;  238.175;   60.300
1154.958;  331.750;  307.400;   58.100
1155.496;  363.625;  336.925;   55.800
1156.034;  408.200;  380.375;   61.000
1156.572;  379.450;  353.500;   56.200
1157.110;  258.500;  234.675;   53.200
1157.647;  383.550;  356.575;   57.400
1158.185;  327.500;  288.850;   55.500
1158.723;  283.600;  260.925;   58.000
1159.260;  390.850;  364.100;   53.700
1159.798;  369.675;  340.225;   51.700
1160.335;  359.275;  326.400;   59.600

