source
Integration time [ms]: 238.412
Averaging Nr. [scans]: 40
Smoothing Nr. [pixels]: 0
Data measured with spectrometer [name]: 7414430SP
Wave   ;Sample   ;Dark     ;Reference
[nm]   ;[counts] ;[counts] ;[counts] 

288.544;  595.932;  332.182;    6.613
289.143;  535.793;  271.583;   14.216
289.742;  618.626;  358.283;   11.816
290.341;  601.872;  338.184;   -4.936
290.940;  558.452;  301.359;    0.852
291.538;  638.100;  386.909;    1.792
292.137;  589.583;  339.183;    6.262
292.736;  699.347;  448.984;    8.164
293.335;  559.394;  303.109;   -6.418
293.934;  585.087;  331.034;   -2.904
294.532;  735.800;  479.809;   -5.162
295.131;  607.800;  376.861;  -10.283
295.730;  593.347;  361.060;  -16.141
296.328;  576.074;  345.711;  -14.740
296.927;  576.173;  342.761;   -8.768
297.525;  574.905;  342.961;  -15.255
298.124;  498.045;  272.787;  -22.063
298.722;  566.686;  336.861;  -14.796
299.321;  534.053;  303.761;  -10.466
299.919;  554.014;  329.786;  -10.979
300.518;  515.527;  293.262;  -12.077
301.116;  515.088;  297.361;  -13.509
301.715;  534.794;  315.411;  -11.939
302.313;  524.390;  306.661;  -15.424
302.911;  537.288;  329.612;  -19.833
303.509;  649.675;  439.211;   -3.567
304.108;  551.335;  342.436;   -9.553
304.706;  576.779;  367.686;   -8.582
305.304;  565.398;  366.712;  -12.348
305.902;  561.673;  359.286;  -14.411
306.500;  526.716;  325.311;   -7.194
307.098;  538.180;  342.011;   -9.322
307.696;  551.738;  361.986;  -19.192
308.294;  526.927;  331.561;   -9.736
308.892;  545.146;  349.686;  -15.482
309.490;  503.751;  314.911;  -14.107
310.088;  551.647;  372.612;  -15.862
310.686;  571.891;  389.461;  -10.781
311.284;  536.232;  356.336;  -14.878
311.882;  510.999;  336.862;   -9.948
312.480;  486.720;  321.162;  -15.503
313.078;  554.538;  388.612;  -17.262
313.675;  485.591;  320.411;   -3.694
314.273;  543.597;  384.962;  -18.246
314.871;  421.778;  268.837;  -15.190
315.468;  449.938;  299.362;  -12.633
316.066;  480.163;  321.511;   -5.765
316.664;  449.260;  302.362;  -14.317
317.261;  591.543;  448.487;   -8.677
317.859;  511.542;  378.637;  -11.804
318.456;  537.609;  411.961;   -3.107
319.054;  509.664;  378.962;   -3.062
319.651;  500.837;  371.737;   -6.706
320.249;  518.287;  398.562;   -5.206
320.846;  465.755;  345.061;   -4.679
321.443;  531.251;  418.661;   -7.920
322.041;  516.723;  400.187;  -14.105
322.638;  446.411;  339.787;   -6.263
323.235;  434.540;  314.961;   -7.424
323.833;  472.179;  363.186;  -14.765
324.430;  402.518;  280.436;  -10.550
325.027;  553.407;  440.611;   -9.951
325.624;  421.870;  298.761;   -3.712
326.221;  447.015;  318.936;   -9.368
326.818;  520.917;  400.711;   -5.637
327.415;  482.286;  346.260;   -6.699
328.012;  456.290;  319.885;   -5.713
328.609;  471.433;  339.260;   -9.983
329.206;  502.216;  366.561;   -7.154
329.803;  480.380;  339.636;   -1.682
330.400;  466.731;  313.485;   -2.741
330.997;  529.361;  377.636;   -4.339
331.594;  510.349;  363.311;  -10.278
332.191;  478.632;  324.736;   -6.967
332.787;  543.467;  386.261;   -0.480
333.384;  497.862;  342.112;  -10.333
333.981;  518.722;  375.163;  -19.900
334.578;  460.215;  310.587;  -19.816
335.174;  468.594;  319.387;  -15.844
335.771;  535.332;  384.438;  -12.670
336.367;  454.980;  320.113;  -21.124
336.964;  506.199;  369.313;  -18.226
337.561;  467.138;  329.313;  -13.311
338.157;  567.877;  432.764;  -19.006
338.754;  498.171;  371.839;  -19.418
339.350;  452.967;  324.864;  -29.433
339.946;  483.561;  348.714;  -16.622
340.543;  516.584;  399.465;  -16.744
341.139;  444.367;  331.215;  -21.841
341.735;  469.548;  363.566;  -25.012
342.332;  422.171;  316.015;  -19.156
342.928;  483.929;  376.415;  -20.443
343.524;  461.610;  357.341;  -14.397
344.120;  448.319;  353.591;  -20.654
344.716;  434.111;  332.640;   -5.730
345.313;  482.203;  378.515;  -10.929
345.909;  376.578;  276.840;  -19.843
346.505;  448.880;  349.565;  -19.645
347.101;  499.148;  394.639;   -9.618
347.697;  481.145;  377.889;  -10.305
348.293;  377.779;  275.590;  -23.189
348.889;  453.663;  352.389;  -18.418
349.485;  417.617;  316.289;  -10.476
350.081;  469.701;  364.839;  -17.320
350.676;  415.097;  319.940;  -21.088
351.272;  492.788;  385.314;  -12.821
351.868;  471.677;  359.189;  -13.165
352.464;  448.298;  339.314;  -12.464
353.059;  397.732;  297.664;  -22.547
353.655;  470.785;  371.639;   -9.379
354.251;  468.274;  356.313;   -8.266
354.846;  452.937;  350.714;  -17.705
355.442;  454.684;  355.915;   -9.317
356.038;  450.053;  352.164;  -11.049
356.633;  444.484;  340.389;  -10.006
357.229;  446.318;  340.089;  -13.120
357.824;  428.525;  327.589;  -15.647
358.420;  414.806;  310.939;  -19.204
359.015;  421.335;  318.914;  -12.263
359.610;  470.448;  365.289;  -16.421
360.206;  375.008;  270.590;  -20.074
360.801;  395.524;  291.064;  -13.277
361.396;  449.911;  343.139;   -5.822
361.992;  409.475;  306.264;  -11.247
362.587;  412.572;  308.515;  -21.502
363.182;  424.956;  322.764;   -7.461
363.777;  456.935;  351.864;   -8.719
364.372;  458.100;  358.189;  -14.590
364.967;  425.756;  321.715;  -15.145
365.563;  501.470;  388.039;   -7.192
366.158;  424.177;  320.264;   -5.662
366.753;  406.805;  295.314;   -8.378
367.348;  458.568;  357.064;  -14.990
367.942;  431.495;  327.764;   -6.005
368.537;  465.925;  361.689;  -11.504
369.132;  439.486;  329.614;  -10.576
369.727;  401.477;  298.440;  -12.573
370.322;  371.283;  266.940;  -11.560
370.917;  443.322;  339.490;  -10.388
371.511;  533.355;  427.164;   -9.161
372.106;  477.656;  379.790;  -10.245
372.701;  370.740;  272.315;  -10.158
373.296;  530.169;  427.564;   -4.719
373.890;  409.397;  307.915;  -11.802
374.485;  433.760;  337.115;  -13.500
375.079;  462.087;  362.789;   -6.276
375.674;  506.215;  401.664;   -0.447
376.268;  431.794;  332.240;   -6.916
376.863;  368.812;  276.716;  -14.483
377.457;  417.118;  314.690;   -6.903
378.052;  477.975;  374.315;   -9.844
378.646;  462.257;  370.840;  -12.601
379.240;  452.164;  351.240;  -14.715
379.835;  406.998;  308.715;  -12.331
380.429;  358.284;  266.490;   -9.074
381.023;  479.597;  393.115;   -1.729
381.617;  423.193;  332.440;  -13.714
382.212;  427.209;  334.815;   -7.060
382.806;  472.468;  377.590;   -2.303
383.400;  421.157;  331.115;   -0.815
383.994;  418.189;  329.140;   -4.429
384.588;  438.791;  348.039;   -6.261
385.182;  452.846;  362.014;    0.008
385.776;  445.983;  356.039;   -3.247
386.370;  424.177;  341.465;   -1.030
386.964;  425.027;  342.840;   -1.346
387.558;  378.717;  293.714;   -2.020
388.152;  421.789;  343.690;   -5.345
388.745;  499.674;  419.915;   -2.774
389.339;  463.691;  385.039;    3.510
389.933;  433.632;  347.289;    5.280
390.527;  523.277;  452.139;    2.610
391.120;  367.058;  295.940;   -7.914
391.714;  441.661;  363.840;   -1.903
392.308;  481.009;  405.564;    6.023
392.901;  406.277;  324.365;   -4.103
393.495;  368.546;  301.415;    3.284
394.089;  467.647;  399.790;    8.655
394.682;  425.840;  361.290;    2.312
395.275;  440.863;  373.240;   -7.402
395.869;  406.104;  342.490;   -1.072
396.462;  381.929;  315.340;    6.454
397.056;  476.444;  403.889;    8.494
397.649;  443.823;  381.015;    1.599
398.242;  435.642;  373.064;    3.153
398.836;  465.855;  402.914;   11.395
399.429;  387.339;  324.289;   14.695
400.022;  405.346;  345.590;    3.627
400.615;  481.735;  432.340;    8.383
401.208;  423.629;  354.989;   13.295
401.802;  418.221;  365.940;    6.211
402.395;  416.346;  361.290;    7.227
402.988;  417.876;  362.265;    2.700
403.581;  392.695;  336.689;   11.225
404.174;  413.272;  354.064;   18.922
404.767;  389.815;  339.265;   14.169
405.360;  368.908;  326.690;    8.999
405.953;  449.561;  403.039;   13.138
406.545;  439.183;  377.889;   13.937
407.138;  367.756;  313.990;   10.869
407.731;  368.621;  317.039;   12.768
408.324;  397.426;  343.789;   22.921
408.917;  411.371;  359.814;   15.308
409.509;  443.774;  395.314;   12.239
410.102;  379.771;  340.165;   13.741
410.695;  396.104;  347.989;   20.249
411.287;  356.256;  311.239;   21.793
411.880;  344.644;  302.339;   22.965
412.472;  359.339;  318.389;   15.082
413.065;  374.216;  336.289;   23.423
413.657;  339.341;  298.039;   21.077
414.250;  384.203;  336.714;   12.349
414.842;  394.364;  352.064;   20.423
415.434;  339.389;  296.714;   19.906
416.027;  382.190;  339.988;   26.574
416.619;  418.446;  384.414;   15.705
417.211;  349.127;  309.039;   17.791
417.804;  374.383;  325.263;   30.244
418.396;  358.358;  319.364;   24.177
418.988;  390.433;  348.488;   24.904
419.580;  334.038;  292.489;   20.692
420.172;  321.503;  278.713;   22.275
420.764;  393.738;  355.763;   26.773
421.356;  375.800;  338.413;   25.731
421.948;  390.846;  359.838;   24.876
422.540;  398.586;  355.188;   30.042
423.132;  349.766;  313.387;   32.728
423.724;  325.932;  290.788;   21.317
424.316;  363.803;  323.238;   29.359
424.908;  347.349;  304.287;   28.798
425.500;  387.101;  335.712;   30.512
426.092;  381.272;  336.912;   26.741
426.683;  402.843;  362.463;   27.029
427.275;  381.046;  336.387;   32.611
427.867;  394.526;  351.337;   33.796
428.458;  428.344;  385.937;   34.453
429.050;  400.100;  356.687;   34.255
429.642;  432.299;  391.712;   39.082
430.233;  327.906;  287.987;   41.138
430.825;  429.072;  384.287;   31.581
431.416;  402.408;  366.212;   35.755
432.008;  380.658;  337.812;   40.566
432.599;  381.791;  335.336;   46.322
433.190;  377.663;  333.212;   46.897
433.782;  346.675;  302.337;   41.069
434.373;  513.897;  470.836;   48.778
434.964;  350.405;  307.636;   50.078
435.556;  369.914;  329.587;   52.381
436.147;  440.022;  392.887;   38.251
436.738;  413.160;  360.061;   47.237
437.329;  427.302;  372.511;   61.304
437.920;  386.822;  345.062;   48.611
438.511;  328.379;  279.837;   44.910
439.103;  366.579;  315.036;   62.404
439.694;  402.221;  350.436;   63.075
440.285;  453.317;  400.436;   61.033
440.876;  495.525;  444.436;   57.249
441.466;  335.040;  290.086;   61.306
442.057;  396.023;  331.460;   65.773
442.648;  435.299;  386.736;   65.676
443.239;  360.859;  312.761;   55.963
443.830;  422.001;  361.860;   69.631
444.421;  391.098;  328.660;   69.943
445.011;  403.345;  350.386;   72.791
445.602;  441.022;  379.461;   68.848
446.193;  292.060;  228.810;   80.044
446.783;  383.219;  313.585;   82.599
447.374;  410.231;  357.311;   77.419
447.964;  419.637;  362.536;   72.605
448.555;  487.176;  424.460;   82.041
449.145;  395.515;  330.310;   76.230
449.736;  477.254;  414.985;   75.545
450.326;  425.245;  359.935;   67.945
450.917;  400.542;  333.685;   77.598
451.507;  363.998;  290.635;   68.027
452.097;  445.968;  383.935;   67.771
452.688;  442.334;  368.435;   62.884
453.278;  337.846;  275.160;   65.512
453.868;  479.920;  403.809;   71.796
454.458;  396.579;  318.910;   60.956
455.048;  425.547;  353.535;   62.356
455.639;  347.209;  268.759;   58.782
456.229;  426.827;  346.284;   65.209
456.819;  450.912;  368.959;   61.466
457.409;  465.714;  386.634;   59.967
457.999;  442.745;  361.034;   58.093
458.589;  411.428;  333.359;   59.536
459.179;  437.673;  349.659;   55.994
459.769;  381.716;  298.609;   43.624
460.358;  481.574;  390.959;   46.978
460.948;  420.907;  328.684;   49.821
461.538;  404.957;  310.534;   54.678
462.128;  404.577;  315.259;   49.309
462.717;  436.946;  337.158;   52.774
463.307;  438.588;  332.983;   48.101
463.897;  404.886;  311.684;   45.606
464.486;  504.729;  417.409;   45.010
465.076;  454.083;  353.758;   45.519
465.666;  402.013;  297.008;   50.058
466.255;  483.468;  380.084;   44.463
466.845;  412.152;  313.384;   41.206
467.434;  445.146;  343.333;   44.847
468.023;  407.703;  300.133;   46.760
468.613;  440.378;  335.959;   39.736
469.202;  407.662;  295.883;   46.461
469.791;  457.944;  345.133;   47.944
470.381;  462.641;  347.033;   47.529
470.970;  445.916;  332.058;   43.773
471.559;  455.233;  342.008;   41.646
472.148;  422.537;  303.683;   37.914
472.738;  475.644;  356.482;   48.071
473.327;  404.662;  281.358;   47.871
473.916;  462.235;  344.183;   37.716
474.505;  469.873;  347.732;   40.256
475.094;  507.155;  376.407;   43.269
475.683;  498.964;  365.032;   36.499
476.272;  463.656;  330.607;   44.542
476.861;  453.283;  312.082;   42.297
477.449;  470.843;  321.156;   46.878
478.038;  434.983;  303.132;   35.156
478.627;  451.944;  312.283;   42.514
479.216;  491.576;  339.082;   43.937
479.805;  501.606;  342.281;   51.393
480.393;  630.032;  478.332;   53.239
480.982;  554.705;  400.307;   38.955
481.571;  545.696;  389.631;   45.436
482.159;  459.024;  293.706;   51.007
482.748;  523.029;  366.357;   49.695
483.336;  546.256;  381.181;   48.280
483.925;  509.715;  334.082;   47.166
484.513;  498.699;  315.681;   55.404
485.102;  519.887;  343.207;   54.238
485.690;  643.942;  454.581;   55.748
486.278;  626.040;  440.606;   55.934
486.867;  524.212;  333.306;   57.106
487.455;  582.036;  388.156;   56.979
488.043;  491.968;  294.606;   57.564
488.631;  641.911;  434.606;   57.432
489.220;  593.836;  375.931;   63.646
489.808;  501.704;  280.831;   65.449
490.396;  603.930;  376.381;   61.977
490.984;  555.148;  312.181;   68.834
491.572;  624.327;  372.756;   70.775
492.160;  614.218;  353.331;   67.564
492.748;  591.026;  321.856;   66.808
493.336;  680.497;  385.406;   79.747
493.924;  652.240;  328.880;   88.688
494.512;  717.122;  377.506;   84.120
495.100;  747.990;  368.731;   86.250
495.687;  818.364;  385.755;  103.074
496.275;  803.765;  306.906;  108.717
496.863;  895.552;  320.381;  107.035
497.451;  994.071;  318.181;  117.993
498.038; 1125.360;  337.580;  120.116
498.626; 1233.294;  323.705;  143.059
499.214; 1414.490;  350.431;  153.434
499.801; 1585.249;  340.156;  175.121
500.389; 1729.897;  273.880;  185.617
500.976; 2043.193;  353.806;  215.789
501.564; 2356.658;  344.506;  240.321
502.151; 2544.257;  238.081;  267.007
502.738; 2855.399;  318.731;  317.961
503.326; 3324.052;  325.180;  361.216
503.913; 3915.946;  343.006;  401.433
504.500; 4434.660;  355.181;  446.492
505.088; 4802.729;  301.106;  512.063
505.675; 5347.831;  330.580;  586.387
506.262; 5973.635;  325.506;  671.021
506.849; 6772.776;  335.756;  759.062
507.436; 7741.658;  380.255;  849.788
508.023; 8305.992;  334.181;  944.288
508.610; 8865.422;  374.231; 1020.690
509.197; 9526.037;  357.257; 1089.052
509.784;10280.496;  331.206; 1133.776
510.371;11099.381;  273.280; 1165.501
510.958;12225.410;  344.181; 1251.735
511.545;12596.609;  392.581; 1350.248
512.132;12744.582;  338.105; 1525.945
512.719;13379.096;  294.131; 1834.933
513.305;14458.119;  302.831; 1965.349
513.892;16644.602;  390.881; 1963.265
514.479;18206.611;  344.106; 2046.446
515.066;19531.465;  381.056; 2252.803
515.652;21116.363;  342.181; 2567.247
516.239;22323.379;  367.031; 2636.919
516.825;22810.406;  280.781; 2482.304
517.412;23125.717;  440.656; 2427.031
517.998;23179.939;  326.831; 2540.463
518.585;23114.457;  321.031; 2609.007
519.171;23199.041;  344.230; 2842.088
519.758;24680.045;  289.856; 3090.703
520.344;26950.521;  375.481; 3176.076
520.930;28169.674;  299.831; 3295.037
521.516;29957.910;  355.580; 3500.959
522.103;30041.699;  395.056; 3736.704
522.689;30721.461;  322.431; 3971.022
523.275;32273.934;  381.706; 4213.778
523.861;33143.844;  331.131; 4190.361
524.447;33667.527;  380.380; 4070.602
525.033;34936.496;  381.681; 4088.892
525.619;34843.059;  303.906; 4416.851
526.205;34979.250;  288.856; 4836.835
526.791;36802.465;  321.731; 4885.903
527.377;37865.773;  315.431; 4544.907
527.963;38950.801;  343.282; 4321.995
528.549;38331.711;  352.506; 4473.979
529.135;37132.363;  304.081; 4788.663
529.721;36813.691;  338.481; 4888.577
530.306;38254.164;  466.581; 4775.779
530.892;39614.055;  318.656; 4793.906
531.478;41154.867;  312.706; 4956.948
532.063;44369.461;  298.081; 5136.936
532.649;46696.949;  423.182; 5336.867
533.235;46841.680;  301.356; 5748.092
533.820;47687.582;  387.506; 6456.875
534.406;47234.367;  323.132; 6590.167
534.991;46238.902;  297.731; 6179.622
535.576;44667.242;  323.756; 6098.691
536.162;44648.766;  473.231; 6441.234
536.747;44754.684;  284.632; 6816.224
537.333;45586.723;  300.207; 6889.752
537.918;45942.250;  334.732; 7154.280
538.503;46979.816;  313.831; 7150.848
539.088;47899.219;  347.831; 7253.308
539.673;47794.031;  326.957; 7625.180
540.259;47412.512;  310.081; 8226.793
540.844;49197.871;  268.181; 8745.092
541.429;49203.598;  415.182; 8762.553
542.014;50271.352;  283.257; 8871.497
542.599;52898.324;  349.206; 8886.008
543.184;54684.973;  292.582; 9079.139
543.769;54397.195;  299.932; 9076.182
544.354;53421.711;  316.832; 8354.081
544.938;50162.836;  346.957; 8236.809
545.523;48069.676;  408.931; 8222.179
546.108;48561.563;  333.957; 8114.082
546.693;48914.949;  329.582; 8535.912
547.278;48111.211;  329.756; 9238.322
547.862;46983.004;  335.231; 9034.405
548.447;45872.586;  375.007; 7795.011
549.031;45952.207;  323.407; 7485.099
549.616;47961.703;  345.556; 7626.308
550.201;48928.672;  317.957; 7627.909
550.785;51755.035;  360.657; 7859.125
551.370;53985.168;  285.157; 7990.654
551.954;53788.387;  376.732; 8196.468
552.538;54233.445;  363.782; 7959.495
553.123;52928.074;  305.957; 7964.826
553.707;52179.063;  321.858; 8515.957
554.291;52027.004;  389.882; 8724.024
554.876;52154.727;  368.932; 8524.211
555.460;51907.750;  314.232; 8704.456
556.044;52392.934;  312.058; 9141.473
556.628;50767.254;  331.082; 9250.197
557.212;49323.414;  381.732; 9444.237
557.796;48682.074;  322.682; 9379.783
558.380;50693.129;  349.858; 9353.658
558.964;51672.750;  337.832; 9210.310
559.548;50709.223;  285.732; 8475.153
560.132;50443.180;  317.732; 7954.084
560.716;52387.184;  287.633; 7489.529
561.300;56072.547;  293.532; 7211.952
561.884;57560.340;  356.157; 7141.313
562.467;55111.234;  357.083; 7155.386
563.051;53191.797;  332.158; 7323.158
563.635;54411.445;  321.708; 7709.114
564.219;54735.648;  329.757; 7678.855
564.802;53857.344;  354.833; 7376.187
565.386;52964.906;  337.983; 7054.372
565.969;52497.141;  393.007; 6589.196
566.553;51311.117;  431.132; 6279.371
567.136;50829.086;  387.258; 5967.930
567.720;51516.410;  333.033; 5660.703
568.303;50188.391;  350.983; 5648.615
568.887;50742.809;  336.083; 5618.443
569.470;50461.223;  347.808; 5411.875
570.053;49858.531;  362.008; 5149.274
570.637;50574.320;  311.582; 5122.798
571.220;52000.141;  370.182; 4957.369
571.803;52567.805;  431.408; 4933.018
572.386;53523.402;  321.158; 4840.973
572.969;54111.391;  324.383; 4592.886
573.552;54545.211;  327.358; 4348.387
574.135;49998.746;  301.458; 4002.290
574.718;43293.719;  306.533; 3654.773
575.301;42728.953;  305.583; 3502.288
575.884;42164.188;  304.633; 3349.803
576.467;44252.582;  382.608; 3191.403
577.050;45973.680;  344.783; 3062.418
577.633;48401.020;  419.133; 3214.200
578.216;49942.766;  323.983; 3284.889
578.799;48658.395;  325.158; 3189.777
579.381;48667.949;  437.358; 3064.502
579.964;49484.984;  306.433; 2888.357
580.547;49338.211;  343.283; 2905.760
581.129;50450.676;  402.609; 2966.849
581.712;53603.453;  353.784; 2887.292
582.294;54927.973;  340.783; 2771.631
582.877;54815.023;  440.133; 2711.602
583.459;54638.328;  337.109; 2577.049
584.042;53788.211;  331.484; 2454.707
584.624;53959.594;  309.609; 2305.893
585.206;53840.633;  266.683; 2189.546
585.789;49469.914;  312.459; 2112.577
586.371;46172.527;  356.459; 2153.065
586.953;46224.227;  368.459; 2197.806
587.536;48258.742;  400.958; 2105.489
588.118;48817.086;  328.560; 1963.911
588.700;48616.035;  402.784; 1843.179
589.282;48535.305;  356.533; 1813.834
589.864;49227.828;  339.384; 1777.620
590.446;50752.105;  270.159; 1733.780
591.028;51594.516;  335.084; 1676.008
591.610;53187.203;  269.934; 1631.649
592.192;52218.059;  343.883; 1632.362
592.774;50454.883;  296.959; 1569.507
593.356;48377.703;  308.434; 1524.539
593.937;47524.637;  305.209; 1569.720
594.519;47682.008;  385.159; 1569.049
595.101;47903.313;  280.159; 1545.452
595.683;48250.949;  312.384; 1607.568
596.264;48352.742;  329.084; 1615.506
596.846;49352.766;  316.159; 1667.622
597.427;51018.477;  311.585; 1670.469
598.009;53069.926;  306.135; 1640.312
598.591;51331.426;  368.334; 1541.022
599.172;49583.758;  329.159; 1598.665
599.753;49288.461;  287.835; 1619.068
600.335;46531.996;  399.860; 1548.612
600.916;43728.133;  330.059; 1607.510
601.498;45845.391;  352.434; 1745.181
602.079;48001.242;  332.735; 1801.011
602.660;48660.258;  331.085; 1834.640
603.241;49440.191;  266.484; 1787.351
603.823;51015.387;  312.009; 1684.266
604.404;50382.598;  294.460; 1654.241
604.985;50383.867;  311.435; 1758.741
605.566;48899.727;  373.284; 1697.679
606.147;47423.242;  326.810; 1526.728
606.728;48895.031;  287.885; 1484.086
607.309;49871.715;  312.260; 1421.070
607.890;48212.789;  320.084; 1369.867
608.471;47963.555;  305.985; 1277.826
609.051;47638.000;  345.735; 1180.416
609.632;47710.957;  298.910; 1075.816
610.213;49236.770;  327.260; 1053.313
610.794;47919.020;  319.860;  979.442
611.374;46549.359;  353.585;  917.414
611.955;44365.090;  279.385;  819.987
612.536;44079.238;  350.760;  752.627
613.116;46853.254;  314.485;  690.799
613.697;49062.777;  306.310;  674.974
614.277;48006.949;  296.261;  663.846
614.858;43767.109;  315.435;  665.898
615.438;42177.063;  331.435;  660.712
616.019;42675.488;  396.911;  632.732
616.599;42931.855;  257.935;  551.759
617.179;43866.770;  288.785;  512.871
617.760;45224.918;  453.610;  473.655
618.340;45655.535;  327.786;  440.004
618.920;48246.453;  411.910;  429.731
619.500;46330.570;  317.361;  441.361
620.080;44855.012;  299.235;  425.202
620.660;44983.379;  298.436;  408.164
621.241;45420.813;  315.461;  387.161
621.821;47849.793;  335.836;  378.017
622.401;47061.043;  382.235;  379.188
622.980;44572.348;  283.836;  350.019
623.560;43163.406;  316.836;  336.446
624.140;40160.207;  340.235;  336.473
624.720;38249.801;  346.736;  334.974
625.300;37166.633;  297.610;  325.717
625.880;39445.883;  329.611;  308.519
626.459;42824.293;  329.936;  307.117
627.039;46137.250;  273.711;  290.890
627.619;50267.750;  432.161;  286.635
628.198;49413.328;  382.786;  282.535
628.778;45517.227;  359.011;  285.474
629.357;43272.547;  289.461;  284.103
629.937;43492.004;  314.761;  292.178
630.516;46149.398;  404.261;  290.749
631.096;47004.973;  305.311;  285.489
631.675;47091.758;  395.186;  287.022
632.254;46439.313;  305.012;  286.038
632.834;45856.848;  326.362;  276.451
633.413;44397.660;  400.736;  279.447
633.992;44567.297;  375.962;  264.508
634.571;45017.469;  361.012;  271.010
635.151;45184.273;  293.462;  277.338
635.730;44517.973;  321.436;  289.305
636.309;41793.910;  358.911;  285.306
636.888;39938.465;  354.262;  254.051
637.467;40368.563;  269.612;  230.324
638.046;41908.656;  400.486;  253.349
638.625;45786.391;  386.537;  246.866
639.204;46357.766;  345.112;  240.825
639.782;44624.996;  333.362;  261.970
640.361;43074.902;  391.961;  277.780
640.940;41197.160;  308.461;  270.101
641.519;40249.066;  360.011;  248.622
642.097;40611.473;  353.961;  239.843
642.676;42090.230;  338.986;  244.264
643.255;44513.910;  319.311;  234.985
643.833;47347.492;  360.561;  244.406
644.412;47541.473;  314.386;  244.927
644.990;45356.156;  338.211;  249.948
645.569;45547.613;  355.861;  249.569
646.147;44513.094;  372.611;  243.290
646.726;45670.824;  335.211;  249.511
647.304;46449.508;  321.061;  228.032
647.882;45370.938;  270.686;  214.552
648.461;44834.895;  342.686;  214.973
649.039;43188.375;  366.261;  223.394
649.617;41678.734;  357.161;  261.415
650.195;41127.738;  346.036;  298.736
650.773;42316.598;  314.336;  309.557
651.352;41392.352;  258.236;  297.978
651.930;38075.285;  257.711;  289.399
652.508;38147.191;  366.686;  285.620
653.086;37931.598;  350.436;  272.241
653.663;39297.180;  306.061;  265.062
654.241;42653.410;  282.711;  286.083
654.819;44367.566;  288.861;  286.404
655.397;44966.449;  297.536;  291.825
655.975;44904.156;  319.561;  299.145
656.553;45011.813;  400.861;  288.866
657.130;46862.219;  294.961;  304.087
657.708;46244.500;  344.761;  302.908
658.286;44790.109;  337.811;  294.629
658.863;44140.941;  338.536;  293.350
659.441;44735.973;  343.611;  318.671
660.018;45391.879;  327.111;  333.692
660.596;45347.859;  265.536;  335.013
661.173;44412.465;  309.686;  371.534
661.750;44451.746;  294.510;  365.155
662.328;45634.055;  357.635;  349.976
662.905;42941.285;  312.110;  332.997
663.482;40708.344;  325.085;  321.717
664.060;41060.723;  303.885;  314.438
664.637;42415.680;  362.985;  306.259
665.214;43930.113;  343.760;  314.580
665.791;44151.543;  318.410;  334.501
666.368;44835.625;  312.610;  329.222
666.945;44173.633;  360.485;  342.143
667.522;42629.215;  298.035;  370.964
668.099;41726.246;  321.685;  396.885
668.676;42523.004;  327.960;  391.706
669.253;43614.383;  403.010;  369.627
669.830;44473.789;  384.935;  360.348
670.407;43239.996;  321.710;  344.769
670.984;43142.379;  324.710;  322.890
671.560;42315.285;  366.585;  316.910
672.137;40228.566;  316.510;  322.531
672.714;37694.551;  348.160;  318.552
673.290;38174.531;  339.310;  324.473
673.867;38259.637;  305.735;  340.594
674.443;37904.742;  280.660;  319.515
675.020;38500.902;  334.360;  286.336
675.596;41426.355;  325.335;  247.557
676.173;43335.715;  284.685;  227.778
676.749;44565.672;  241.110;  224.399
677.326;42927.176;  276.485;  230.520
677.902;41033.133;  299.535;  241.841
678.478;42431.617;  287.935;  239.762
679.054;41857.320;  496.185;  248.583
679.631;40860.879;  350.035;  237.503
680.207;41208.410;  420.585;  245.924
680.783;40099.293;  257.685;  224.845
681.359;40146.672;  328.635;  209.666
681.935;40179.254;  333.235;  191.687
682.511;40215.613;  334.310;  210.008
683.087;40506.895;  353.460;  213.329
683.663;41640.824;  316.860;  216.850
684.239;41087.605;  282.010;  229.471
684.815;40050.465;  371.410;  248.792
685.390;40157.746;  420.910;  231.813
685.966;41143.602;  330.384;  221.234
686.542;41885.258;  293.884;  214.255
687.118;41053.914;  337.609;  212.276
687.693;40710.672;  354.159;  233.096
688.269;39844.754;  319.759;  246.917
688.844;37804.887;  348.934;  236.938
689.420;37339.266;  332.309;  242.059
689.995;38426.098;  412.309;  245.480
690.571;38932.180;  387.209;  244.701
691.146;39052.137;  318.634;  251.922
691.722;41013.117;  346.309;  284.743
692.297;41304.500;  309.209;  320.664
692.872;40181.730;  292.359;  313.885
693.448;39578.590;  286.509;  290.106
694.023;40383.645;  338.409;  304.327
694.598;41319.125;  330.909;  319.648
695.173;43099.781;  309.734;  323.169
695.748;43478.914;  262.034;  376.389
696.323;42110.395;  322.634;  397.610
696.898;41679.203;  380.859;  430.231
697.473;41731.859;  270.409;  454.952
698.048;40663.293;  315.859;  478.973
698.623;41124.996;  275.434;  477.094
699.198;41517.281;  332.634;  496.915
699.773;42477.586;  296.709;  490.236
700.348;44032.020;  286.534;  519.957
700.922;43932.574;  335.884;  575.678
701.497;43227.480;  329.484;  621.399
702.072;42054.586;  368.459;  664.420
702.646;42039.969;  358.209;  690.541
703.221;42694.199;  345.334;  748.862
703.795;41800.508;  292.784;  774.282
704.370;40996.289;  240.209;  799.803
704.944;40534.320;  308.359;  875.824
705.519;40827.227;  341.384;  902.945
706.093;41460.734;  295.009;  889.266
706.668;40319.039;  352.859;  903.487
707.242;40052.223;  362.059;  881.708
707.816;39362.953;  319.884;  892.329
708.390;40094.961;  325.334;  970.250
708.965;40658.594;  337.084;  984.671
709.539;40548.824;  317.284; 1026.092
710.113;40415.832;  331.783; 1067.913
710.687;40808.711;  359.383; 1166.434
711.261;41590.344;  281.883; 1190.854
711.835;41669.301;  289.733; 1197.275
712.409;41939.457;  268.058; 1308.096
712.983;43127.215;  265.958; 1461.617
713.557;42702.922;  264.508; 1611.838
714.131;43321.254;  313.533; 1554.359
714.704;43274.160;  298.083; 1520.780
715.278;41832.766;  328.983; 1575.101
715.852;40413.172;  353.558; 1689.822
716.425;40859.254;  415.733; 1829.143
716.999;41643.285;  263.658; 2008.664
717.573;41804.969;  348.733; 2000.485
718.146;42864.898;  407.658; 1914.506
718.720;43636.305;  336.808; 1818.026
719.293;42505.563;  347.408; 1734.147
719.867;42480.070;  302.283; 1716.968
720.440;44262.574;  390.233; 1918.589
721.013;46556.656;  307.233; 1975.410
721.587;46144.188;  270.283; 2073.331
722.160;45883.070;  369.008; 2357.852
722.733;45979.953;  340.358; 2657.073
723.306;45901.484;  324.358; 2703.894
723.880;47588.914;  337.958; 2549.415
724.453;48660.996;  381.208; 2414.336
725.026;47805.754;  305.433; 2298.557
725.599;45713.910;  334.183; 2168.778
726.172;44192.141;  349.033; 2106.099
726.745;45389.848;  346.783; 2253.320
727.318;44860.531;  364.533; 2404.740
727.891;44101.211;  335.333; 2680.161
728.463;44611.867;  334.933; 2838.882
729.036;43449.227;  296.258; 2755.103
729.609;41552.730;  294.583; 2731.824
730.182;40305.789;  360.033; 2855.645
730.754;41640.570;  246.233; 2946.866
731.327;42466.328;  351.758; 2840.187
731.900;42243.684;  271.533; 2647.608
732.472;42265.590;  323.433; 2473.929
733.045;42125.672;  313.083; 2445.750
733.617;41584.578;  262.832; 2511.771
734.190;40373.684;  346.907; 2581.592
734.762;40911.191;  316.282; 2710.813
735.334;41705.324;  329.782; 3005.733
735.907;40747.355;  333.132; 3154.954
736.479;39683.137;  370.857; 3171.675
737.051;41096.566;  347.357; 3217.496
737.623;44460.723;  357.882; 3246.217
738.195;45374.531;  299.482; 2985.238
738.768;43166.063;  252.782; 2727.559
739.340;42068.496;  304.857; 2666.880
739.912;41328.152;  357.657; 2769.601
740.484;40312.434;  350.757; 2731.422
741.056;41696.465;  312.057; 2963.043
741.628;45026.473;  289.782; 3361.364
742.199;45570.227;  383.907; 3641.185
742.771;45065.859;  280.457; 3932.005
743.343;45073.516;  292.832; 4319.926
743.915;44579.699;  344.282; 4706.647
744.487;43471.527;  347.457; 4874.968
745.058;42430.035;  353.457; 4616.589
745.630;42781.344;  348.382; 4253.410
746.201;42558.273;  304.807; 4056.131
746.773;41492.707;  349.032; 3772.952
747.344;39955.363;  322.357; 3642.473
747.916;39373.219;  333.257; 3752.294
748.487;39489.375;  359.432; 4106.215
749.059;37854.031;  284.982; 4457.835
749.630;37329.113;  297.432; 4366.457
750.201;38627.469;  320.057; 4600.078
750.773;39150.977;  303.332; 4658.499
751.344;38966.309;  327.382; 4609.319
751.915;37768.766;  322.882; 4526.440
752.486;37734.047;  293.582; 4536.061
753.057;37382.629;  329.332; 4383.282
753.628;37004.410;  295.257; 4296.503
754.199;36764.094;  310.882; 4383.224
754.770;36074.949;  353.057; 4653.545
755.341;34841.031;  360.857; 4831.666
755.912;34054.563;  319.107; 4831.387
756.483;34635.918;  345.682; 4735.808
757.054;35581.398;  311.757; 4685.029
757.625;35098.684;  283.281; 4994.250
758.195;34149.289;  271.456; 5051.471
758.766;34205.121;  334.106; 5317.792
759.337;34871.828;  271.731; 5646.512
759.907;35460.957;  273.281; 5404.133
760.478;35373.016;  301.906; 5090.954
761.048;34937.273;  350.156; 4871.175
761.619;34670.102;  343.981; 4589.396
762.189;34483.809;  323.481; 4171.317
762.760;33934.742;  353.681; 3872.538
763.330;34475.574;  348.956; 3832.259
763.900;35405.555;  336.956; 4150.180
764.471;34519.836;  288.831; 4529.801
765.041;32465.693;  377.656; 4715.922
765.611;32419.074;  345.006; 4681.442
766.181;34528.980;  313.381; 4717.063
766.751;34712.664;  326.356; 4710.285
767.321;33024.918;  281.681; 4450.305
767.891;32819.453;  335.006; 4274.126
768.461;32580.232;  317.181; 4215.047
769.031;31696.814;  319.931; 4173.068
769.601;30862.896;  371.706; 4174.689
770.171;30962.328;  271.681; 4229.310
770.741;31509.010;  308.231; 4352.031
771.311;30950.641;  349.906; 4336.652
771.880;29997.648;  290.606; 4300.873
772.450;29764.154;  293.831; 4387.194
773.020;30776.912;  265.356; 4220.415
773.589;31153.793;  304.181; 4075.835
774.159;30790.725;  303.806; 4105.756
774.729;30557.156;  302.231; 4114.978
775.298;30786.412;  295.981; 3693.298
775.867;30709.295;  299.481; 3343.119
776.437;29107.150;  327.631; 3062.040
777.006;28430.684;  274.856; 2927.161
777.576;28354.189;  344.456; 3046.482
778.145;28318.172;  343.356; 3230.203
778.714;28170.729;  322.006; 3253.324
779.283;27367.234;  348.206; 3129.745
779.853;27148.740;  314.331; 2983.566
780.422;27823.148;  318.631; 2929.887
780.991;27894.080;  342.380; 2863.908
781.560;27186.887;  388.455; 2948.029
782.129;26310.168;  340.005; 3074.149
782.698;26314.000;  380.505; 2893.970
783.267;25985.080;  307.955; 2721.391
783.836;25704.713;  330.805; 2659.712
784.404;25680.969;  279.880; 2622.233
784.973;25927.076;  237.455; 2600.754
785.542;25622.582;  315.855; 2528.475
786.111;24834.789;  374.280; 2404.396
786.679;24033.646;  344.680; 2365.717
787.248;23329.102;  267.330; 2498.438
787.817;23172.408;  303.955; 2645.659
788.385;23161.441;  369.230; 2709.280
788.954;23208.348;  275.655; 2620.500
789.522;23375.504;  355.780; 2625.422
790.090;23324.461;  278.980; 2743.843
790.659;23120.316;  306.080; 2635.163
791.227;22656.074;  311.805; 2495.484
791.795;22200.455;  331.755; 2413.705
792.364;22294.611;  290.980; 2345.326
792.932;22432.594;  340.980; 2350.447
793.500;22141.600;  316.380; 2429.768
794.068;21708.781;  268.080; 2513.589
794.636;21303.439;  295.280; 2664.310
795.204;20635.621;  262.980; 2721.431
795.772;19764.727;  290.305; 2802.052
796.340;19149.959;  299.005; 2847.173
796.908;19439.115;  261.530; 2997.194
797.476;19972.473;  284.905; 3151.615
798.044;20011.178;  253.155; 3110.735
798.612;19526.160;  314.105; 2931.656
799.180;19364.691;  325.680; 2785.777
799.747;18931.723;  319.580; 2899.098
800.315;18456.256;  274.780; 2955.519
800.883;18186.912;  252.155; 2948.940
801.450;17957.094;  315.580; 2965.361
802.018;17855.725;  334.130; 3070.582
802.585;17513.531;  322.055; 3156.103
803.153;17303.664;  289.680; 3199.524
803.720;16774.895;  296.830; 3168.845
804.287;16299.451;  306.930; 3248.366
804.855;16574.033;  359.104; 3406.187
805.422;16023.640;  307.929; 3430.907
805.989;15138.246;  290.679; 3453.528
806.556;14895.003;  291.654; 3612.649
807.124;15355.859;  357.604; 3736.570
807.691;15576.017;  281.554; 3770.491
808.258;15381.423;  319.179; 3705.012
808.825;15193.779;  355.079; 3828.733
809.392;15140.636;  385.954; 3986.754
809.959;15173.268;  332.604; 4410.075
810.526;14887.175;  389.054; 4774.996
811.093;14747.981;  368.679; 4754.217
811.659;14703.788;  315.429; 4661.238
812.226;15055.994;  314.129; 4672.559
812.793;15048.526;  327.529; 4822.979
813.360;14275.032;  317.729; 5189.800
813.926;13692.015;  328.854; 5310.622
814.493;13294.746;  271.154; 5414.542
815.060;13276.128;  255.704; 5548.963
815.626;13284.909;  275.854; 5452.284
816.193;13418.190;  325.404; 5339.305
816.759;12959.372;  287.029; 5544.426
817.325;12875.554;  257.729; 5706.547
817.892;13221.561;  353.004; 5623.468
818.458;13010.492;  337.154; 5586.689
819.024;12833.049;  363.754; 5647.910
819.591;12958.181;  321.029; 5762.031
820.157;12814.112;  276.979; 6284.452
820.723;12663.844;  336.229; 6906.973
821.289;12822.075;  506.079; 7086.894
821.855;12674.558;  346.254; 7054.915
822.421;12456.313;  299.279; 7112.035
822.987;12508.945;  280.329; 7256.156
823.553;12523.777;  308.029; 7538.077
824.119;12342.084;  357.979; 7594.298
824.685;12111.766;  375.329; 7613.619
825.251;11951.022;  349.804; 7644.140
825.816;11749.104;  394.904; 7720.261
826.382;11460.761;  353.229; 8014.282
826.948;11260.392;  360.979; 8281.503
827.513;11434.799;  312.229; 8289.624
828.079;11445.580;  284.654; 8587.045
828.645;11621.462;  331.953; 8821.865
829.210;11752.044;  280.028; 9054.486
829.776;11924.125;  341.478; 9054.607
830.341;11584.382;  348.903; 9415.628
830.906;11366.363;  366.128; 9932.449
831.472;11365.820;  292.928;10150.271
832.037;11483.977;  358.778; 9420.391
832.602;10968.658;  297.278; 8664.912
833.167;10641.315;  322.128; 8491.933
833.733;10378.146;  355.203; 8872.854
834.298;10122.679;  283.078; 9370.575
834.863;10247.835;  335.253; 9610.695
835.428;10351.717;  332.603; 9655.616
835.993;10378.099;  346.478; 9437.838
836.558;10436.330;  350.903; 9441.459
837.123;10717.512;  435.803; 9600.979
837.688;10467.118;  333.278; 9798.301
838.253;10395.875;  336.928; 9902.921
838.817;10625.831;  311.203;10339.742
839.382;10961.538;  374.978;10548.363
839.947;10854.695;  323.128;10252.484
840.511;10423.552;  393.528;10040.005
841.076; 9710.633;  252.078;10099.926
841.641; 9598.040;  344.703;10347.347
842.205; 9718.521;  337.778;10817.368
842.770;10126.979;  408.353;11435.289
843.334;10235.859;  312.103;12072.409
843.898;10219.316;  310.603;12635.431
844.463;10118.098;  380.278;12537.252
845.027; 9939.330;  308.503;12759.673
845.591; 9894.961;  363.603;12821.993
846.156; 9615.218;  299.378;12520.914
846.720; 9595.949;  354.153;12390.436
847.284; 9608.981;  330.928;12956.456
847.848; 9516.763;  348.053;13240.177
848.412; 9257.295;  323.753;13216.998
848.976; 9162.852;  386.653;13014.619
849.540; 9217.933;  417.803;12355.740
850.104; 9084.890;  383.053;12208.761
850.668; 8768.646;  254.278;12106.882
851.232; 8955.053;  268.203;11862.103
851.796; 9063.984;  320.853;11700.523
852.359; 9030.966;  357.802;12375.944
852.923; 9029.998;  372.677;13087.966
853.487; 8855.154;  354.002;13297.187
854.050; 8417.636;  221.277;13851.207
854.614; 8212.942;  307.352;14854.229
855.177; 8095.449;  338.277;15802.149
855.741; 7804.906;  345.252;16603.570
856.304; 7457.212;  368.077;16359.891
856.868; 7220.669;  285.127;14365.512
857.431; 7254.901;  327.252;13361.333
857.995; 7404.708;  311.852;14130.554
858.558; 7487.014;  344.802;14883.175
859.121; 7313.196;  356.802;15754.195
859.684; 6984.177;  334.527;15995.017
860.247; 6836.384;  330.327;15149.537
860.810; 6875.416;  315.502;14640.358
861.374; 7045.072;  427.327;15551.079
861.937; 6816.854;  281.702;16519.801
862.500; 6971.110;  308.952;16796.521
863.062; 7036.992;  286.727;16538.742
863.625; 6960.349;  336.352;16716.764
864.188; 6649.706;  303.952;17055.084
864.751; 6632.512;  311.477;17197.705
865.314; 6689.519;  328.227;17151.625
865.876; 6656.475;  367.602;17783.547
866.439; 6487.857;  356.927;19283.467
867.002; 6472.563;  418.077;20256.389
867.564; 6334.045;  382.527;20485.410
868.127; 6101.252;  339.677;20789.730
868.689; 5926.184;  337.727;21981.951
869.252; 5857.565;  379.552;23803.771
869.814; 5802.472;  297.202;24974.094
870.377; 5911.854;  333.127;24690.314
870.939; 6060.635;  475.577;23963.436
871.501; 5956.417;  336.752;25167.156
872.063; 5670.223;  240.777;26995.477
872.626; 5585.955;  266.427;27443.098
873.188; 5515.437;  339.102;26718.418
873.750; 5430.793;  318.952;26558.840
874.312; 5562.500;  307.927;26701.561
874.874; 5669.657;  397.902;27970.582
875.436; 5492.163;  355.951;29173.402
875.998; 5395.070;  389.851;30376.623
876.560; 5226.501;  360.801;32507.344
877.122; 4898.708;  294.651;34833.066
877.683; 4737.840;  350.176;36458.285
878.245; 4598.171;  318.351;37248.207
878.807; 4693.128;  347.801;36758.027
879.369; 4640.710;  283.901;35223.551
879.930; 4668.566;  283.676;33824.969
880.492; 4793.923;  383.151;34436.492
881.053; 4677.030;  294.601;37745.313
881.615; 4546.111;  307.076;41184.633
882.176; 4408.193;  324.176;42871.555
882.738; 4371.875;  358.351;41693.074
883.299; 4192.756;  262.026;40289.895
883.860; 4080.613;  266.201;39231.215
884.422; 3920.520;  356.201;38264.039
884.983; 3744.501;  288.701;37171.859
885.544; 3714.633;  334.101;35842.379
886.105; 3650.414;  327.726;34810.000
886.666; 3583.521;  316.601;34519.020
887.227; 3456.728;  267.851;33905.641
887.788; 3383.759;  338.601;34502.965
888.349; 3151.691;  284.426;34241.785
888.910; 3093.848;  352.301;33722.203
889.471; 2925.729;  338.351;32539.625
890.032; 2839.136;  326.526;31528.346
890.593; 2871.417;  353.451;32655.068
891.153; 2871.249;  318.251;33882.289
891.714; 2796.181;  271.876;33318.711
892.275; 2665.037;  279.076;31848.930
892.835; 2612.069;  366.851;30339.752
893.396; 2481.676;  351.251;30074.973
893.956; 2316.182;  321.201;30338.393
894.517; 2251.739;  334.976;30864.113
895.077; 2215.396;  341.851;29766.734
895.638; 2199.427;  397.501;26379.557
896.198; 2007.934;  284.226;24056.277
896.758; 2019.441;  363.351;22961.898
897.319; 1884.572;  322.426;21772.020
897.879; 1798.479;  327.851;20877.539
898.439; 1690.485;  269.326;19509.461
898.999; 1743.392;  347.950;17297.582
899.559; 1687.549;  342.950;14712.002
900.119; 1576.780;  283.975;12790.224
900.679; 1598.437;  392.525;11586.744
901.239; 1496.469;  353.950;10776.465
901.799; 1414.900;  331.000; 9691.687
902.359; 1337.157;  294.300; 8725.907
902.919; 1289.864;  289.650; 8305.728
903.479; 1250.045;  290.550; 8172.649
904.038; 1191.652;  279.900; 7913.870
904.598; 1126.959;  237.225; 7262.291
905.158; 1151.190;  307.100; 6609.012
905.717; 1121.797;  319.925; 6236.133
906.277; 1104.078;  329.425; 5829.054
906.836; 1074.735;  346.525; 5396.674
907.396; 1039.567;  345.100; 4964.195
907.955; 1025.573;  344.600; 4528.917
908.515;  969.805;  310.200; 4223.837
909.074;  948.287;  311.450; 4023.958
909.633;  928.868;  317.675; 4065.379
910.192;  988.600;  398.125; 4066.300
910.752;  886.600;  311.025; 3971.600
911.311;  854.225;  302.425; 3839.600
911.870;  832.625;  294.400; 3684.500
912.429;  889.250;  367.100; 3635.600
912.988;  865.800;  360.725; 3689.800
913.547;  779.325;  291.250; 3737.700
914.106;  806.725;  328.775; 3740.300
914.665;  790.575;  328.125; 3604.600
915.224;  818.000;  367.300; 3358.700
915.782;  752.300;  303.450; 3188.400
916.341;  809.950;  375.900; 3091.400
916.900;  734.750;  309.825; 3044.800
917.458;  717.150;  290.900; 2888.600
918.017;  741.700;  323.825; 2818.900
918.576;  721.475;  306.850; 2838.600
919.134;  677.350;  270.925; 2880.100
919.693;  708.075;  303.825; 2996.300
920.251;  697.900;  294.975; 3183.100
920.809;  666.325;  280.075; 3247.000
921.368;  697.975;  306.550; 3156.600
921.926;  669.900;  286.775; 2964.900
922.484;  701.250;  321.075; 2846.300
923.042;  684.600;  309.775; 2890.400
923.601;  758.025;  378.950; 2987.700
924.159;  717.475;  343.425; 3049.800
924.717;  659.450;  283.975; 3087.000
925.275;  699.775;  320.000; 3093.400
925.833;  626.250;  253.450; 3182.400
926.391;  719.225;  344.775; 3397.900
926.949;  670.625;  295.650; 3575.400
927.506;  698.675;  326.450; 3713.400
928.064;  682.225;  311.175; 3871.300
928.622;  683.825;  309.725; 4092.800
929.180;  648.950;  275.125; 4499.300
929.737;  631.350;  266.100; 4813.200
930.295;  715.650;  337.375; 5084.100
930.853;  666.325;  283.675; 5185.000
931.410;  658.850;  273.025; 5313.100
931.968;  724.475;  344.250; 5339.600
932.525;  707.075;  327.375; 5399.900
933.082;  651.675;  265.950; 5457.500
933.640;  712.700;  328.025; 5692.900
934.197;  691.900;  309.200; 5821.200
934.754;  698.475;  305.600; 5617.900
935.312;  688.075;  289.325; 5512.400
935.869;  763.275;  374.375; 5582.400
936.426;  688.975;  289.250; 5650.100
936.983;  696.850;  298.200; 5657.400
937.540;  672.500;  269.650; 5564.300
938.097;  738.425;  327.175; 5574.000
938.654;  714.875;  301.500; 5665.900
939.211;  747.950;  331.500; 5931.600
939.768;  729.525;  310.250; 6153.600
940.324;  724.250;  298.750; 6397.600
940.881;  711.200;  285.525; 6454.200
941.438;  794.375;  365.925; 6206.900
941.995;  782.475;  349.275; 6003.900
942.551;  721.125;  272.650; 6228.300
943.108;  753.375;  313.650; 6603.500
943.664;  725.350;  277.825; 7188.100
944.221;  850.875;  401.575; 7579.900
944.777;  723.100;  269.500; 7658.100
945.334;  727.525;  282.525; 7670.400
945.890;  765.225;  317.025; 7525.100
946.446;  771.875;  313.075; 7261.500
947.003;  779.700;  323.250; 6949.200
947.559;  830.925;  383.950; 6773.100
948.115;  802.125;  358.575; 6668.400
948.671;  773.550;  322.300; 6488.400
949.227;  713.475;  259.975; 6236.600
949.783;  709.975;  255.075; 6008.900
950.339;  786.800;  331.025; 5934.100
950.895;  802.675;  351.200; 5933.500
951.451;  754.150;  295.350; 6074.700
952.007;  790.250;  338.975; 6066.400
952.563;  754.375;  298.450; 5884.100
953.118;  745.200;  287.425; 5733.800
953.674;  761.050;  306.625; 5734.300
954.230;  762.375;  314.075; 6039.700
954.785;  762.375;  312.725; 6383.500
955.341;  799.450;  351.075; 6568.200
955.897;  706.375;  254.200; 6488.600
956.452;  772.050;  328.625; 6239.200
957.008;  849.425;  404.550; 5954.600
957.563;  806.975;  367.550; 5816.700
958.118;  726.250;  282.450; 5828.200
958.674;  764.475;  322.825; 5717.400
959.229;  805.425;  367.175; 5506.800
959.784;  695.800;  267.275; 5292.200
960.339;  804.450;  364.800; 5101.900
960.894;  779.300;  341.450; 5093.200
961.449;  708.300;  280.925; 5227.900
962.004;  909.600;  490.500; 5349.300
962.559;  706.150;  284.775; 5514.900
963.114;  636.900;  222.725; 5717.300
963.669;  744.025;  317.925; 5841.400
964.224;  728.700;  299.750; 5805.900
964.779;  693.050;  267.100; 5723.400
965.334;  793.100;  380.675; 5779.500
965.888;  714.500;  292.650; 5948.500
966.443;  772.100;  350.425; 6344.200
966.998;  675.125;  257.300; 6666.300
967.552;  724.850;  312.450; 6710.100
968.107;  704.950;  293.775; 6593.500
968.661;  735.075;  326.450; 6344.100
969.216;  701.775;  284.875; 6062.400
969.770;  739.200;  322.850; 5785.500
970.324;  739.450;  329.125; 5426.800
970.879;  752.400;  344.225; 5016.800
971.433;  749.900;  343.925; 4904.500
971.987;  715.650;  314.875; 4991.000
972.541;  722.825;  331.825; 4978.500
973.095;  770.225;  388.575; 4832.000
973.649;  650.650;  265.950; 4767.900
974.203;  663.800;  281.000; 4881.200
974.757;  673.800;  301.075; 4969.500
975.311;  688.500;  310.600; 4953.000
975.865;  694.225;  311.625; 4884.300
976.419;  675.250;  300.375; 4739.800
976.973;  666.550;  297.375; 4698.100
977.526;  717.975;  357.650; 4631.100
978.080;  628.700;  267.000; 4621.600
978.634;  696.750;  342.325; 4650.200
979.187;  681.875;  335.325; 4669.200
979.741;  750.250;  401.000; 4658.000
980.294;  618.850;  272.800; 4579.100
980.848;  573.300;  232.750; 4452.800
981.401;  637.325;  297.025; 4271.900
981.955;  656.600;  316.275; 4087.800
982.508;  595.625;  256.725; 3973.900
983.061;  693.125;  358.500; 3928.600
983.615;  617.950;  283.725; 3851.200
984.168;  604.000;  269.550; 3734.800
984.721;  656.525;  334.400; 3628.300
985.274;  648.025;  326.400; 3564.300
985.827;  625.600;  308.675; 3558.100
986.380;  557.475;  247.075; 3559.900
986.933;  635.975;  332.400; 3688.700
987.486;  634.400;  328.700; 3778.500
988.039;  631.125;  335.625; 3559.900
988.591;  645.250;  355.000; 3219.300
989.144;  559.400;  263.175; 2902.900
989.697;  570.550;  282.775; 2722.600
990.250;  624.650;  343.775; 2618.000
990.802;  566.350;  284.350; 2523.900
991.355;  687.800;  416.225; 2436.500
991.907;  620.000;  353.175; 2412.200
992.460;  552.200;  290.125; 2387.900
993.012;  543.375;  292.925; 2365.800
993.565;  526.925;  269.025; 2311.100
994.117;  660.000;  415.075; 2308.700
994.669;  518.675;  272.775; 2249.300
995.221;  568.700;  325.775; 2158.100
995.774;  562.350;  323.950; 2085.600
996.326;  526.825;  302.975; 2068.100
996.878;  583.850;  364.650; 1975.300
997.430;  503.575;  280.975; 1929.500
997.982;  524.850;  314.375; 1861.900
998.534;  525.450;  312.325; 1830.200
999.086;  518.900;  309.400; 1823.200
999.638;  472.350;  264.475; 1815.000
1000.190;  492.400;  289.550; 1796.600
1000.741;  514.075;  315.700; 1738.800
1001.293;  485.750;  285.475; 1666.200
1001.845;  477.925;  282.400; 1566.500
1002.396;  514.000;  323.025; 1471.900
1002.948;  508.050;  319.025; 1398.000
1003.500;  496.900;  311.450; 1356.500
1004.051;  601.850;  427.075; 1294.200
1004.603;  536.700;  355.975; 1190.000
1005.154;  423.175;  256.550; 1063.900
1005.705;  484.475;  327.275;  968.300
1006.257;  470.600;  321.050;  889.800
1006.808;  458.300;  307.300;  801.500
1007.359;  508.725;  357.950;  716.400
1007.910;  432.300;  292.775;  639.100
1008.461;  486.400;  340.400;  561.600
1009.013;  400.300;  260.275;  500.400
1009.564;  519.275;  379.075;  476.100
1010.115;  397.875;  266.650;  431.600
1010.665;  402.450;  276.375;  409.300
1011.216;  438.475;  307.725;  399.700
1011.767;  455.200;  322.300;  388.100
1012.318;  481.450;  346.275;  381.400
1012.869;  452.025;  312.400;  375.400
1013.419;  400.750;  272.200;  357.600
1013.970;  435.575;  308.450;  358.300
1014.521;  406.725;  282.075;  344.100
1015.071;  438.700;  311.900;  322.800
1015.622;  417.375;  293.350;  320.600
1016.172;  391.100;  275.300;  301.700
1016.723;  404.200;  282.900;  289.800
1017.273;  399.225;  277.850;  287.600
1017.823;  421.625;  300.200;  278.700
1018.374;  404.300;  284.275;  274.400
1018.924;  459.625;  341.950;  283.200
1019.474;  460.050;  342.125;  278.500
1020.024;  426.250;  308.475;  274.700
1020.574;  460.300;  347.200;  272.700
1021.124;  433.525;  320.825;  278.400
1021.674;  368.925;  254.500;  269.200
1022.224;  460.125;  338.750;  267.800
1022.774;  431.150;  316.850;  258.100
1023.324;  475.250;  367.150;  260.000
1023.874;  555.825;  441.500;  260.700
1024.423;  396.500;  279.150;  252.700
1024.973;  395.250;  281.275;  234.700
1025.523;  402.200;  289.800;  226.500
1026.072;  398.425;  285.275;  225.500
1026.622;  426.700;  318.725;  210.100
1027.172;  456.900;  346.700;  213.000
1027.721;  385.300;  280.500;  207.700
1028.270;  430.975;  319.175;  205.400
1028.820;  414.350;  302.250;  201.000
1029.369;  393.750;  286.450;  201.000
1029.918;  415.425;  305.700;  198.400
1030.468;  369.500;  259.425;  199.200
1031.017;  409.550;  300.400;  192.600
1031.566;  390.925;  289.275;  197.400
1032.115;  442.000;  337.900;  188.300
1032.664;  387.375;  279.900;  193.700
1033.213;  465.475;  362.050;  191.900
1033.762;  403.025;  302.625;  184.500
1034.311;  431.475;  326.850;  194.300
1034.860;  443.225;  336.175;  192.300
1035.408;  457.075;  355.150;  182.600
1035.957;  453.400;  352.700;  173.900
1036.506;  344.250;  245.850;  185.200
1037.055;  525.850;  423.375;  182.500
1037.603;  419.625;  320.150;  167.600
1038.152;  345.775;  250.525;  168.200
1038.700;  376.300;  274.950;  169.600
1039.249;  431.500;  332.200;  164.300
1039.797;  399.725;  305.675;  169.600
1040.345;  444.125;  345.400;  167.100
1040.894;  391.250;  301.950;  164.400
1041.442;  399.750;  304.750;  158.300
1041.990;  360.800;  259.475;  160.000
1042.538;  346.800;  249.225;  156.800
1043.087;  362.100;  270.350;  146.600
1043.635;  427.350;  327.075;  162.400
1044.183;  378.800;  279.725;  156.300
1044.731;  366.225;  269.300;  158.100
1045.279;  424.250;  328.825;  154.500
1045.827;  555.775;  462.875;  146.200
1046.374;  333.200;  240.950;  154.000
1046.922;  375.850;  281.025;  149.000
1047.470;  429.650;  341.475;  154.900
1048.018;  407.425;  315.450;  148.400
1048.565;  443.275;  353.925;  146.300
1049.113;  352.825;  260.775;  156.100
1049.660;  389.975;  302.650;  154.300
1050.208;  421.575;  324.875;  149.400
1050.755;  379.100;  293.275;  157.500
1051.303;  428.975;  336.200;  157.700
1051.850;  400.200;  310.850;  152.800
1052.397;  305.975;  222.000;  146.300
1052.945;  384.600;  296.750;  149.500
1053.492;  457.075;  369.875;  149.300
1054.039;  450.725;  360.975;  163.100
1054.586;  352.300;  262.725;  150.400
1055.133;  431.700;  338.550;  153.500
1055.680;  401.750;  315.200;  155.600
1056.227;  343.600;  253.400;  148.700
1056.774;  490.175;  404.600;  151.500
1057.321;  331.350;  244.250;  143.700
1057.868;  400.375;  313.950;  145.300
1058.415;  405.925;  324.800;  153.500
1058.961;  418.800;  330.150;  149.900
1059.508;  392.525;  315.850;  147.300
1060.055;  365.475;  281.250;  151.000
1060.601;  384.425;  303.950;  148.700
1061.148;  388.525;  301.600;  153.800
1061.694;  370.350;  287.700;  150.500
1062.241;  372.550;  287.650;  149.100
1062.787;  411.825;  328.450;  153.000
1063.334;  501.050;  410.750;  153.200
1063.880;  412.075;  329.225;  148.400
1064.426;  438.425;  352.025;  149.200
1064.972;  374.175;  292.350;  156.400
1065.518;  360.275;  271.775;  144.700
1066.065;  392.700;  308.625;  139.400
1066.611;  372.550;  293.475;  139.300
1067.157;  397.875;  319.775;  138.400
1067.703;  417.275;  337.575;  142.700
1068.249;  378.150;  296.225;  136.700
1068.794;  386.425;  305.000;  139.400
1069.340;  357.750;  280.900;  142.700
1069.886;  369.525;  290.950;  135.600
1070.432;  337.500;  253.750;  133.400
1070.977;  373.200;  291.550;  138.200
1071.523;  355.100;  279.700;  132.400
1072.068;  361.350;  284.200;  132.700
1072.614;  328.025;  251.100;  127.000
1073.160;  422.450;  348.150;  131.300
1073.705;  354.925;  283.500;  135.700
1074.250;  349.225;  269.250;  133.000
1074.796;  404.750;  324.700;  138.000
1075.341;  408.950;  336.700;  137.300
1075.886;  369.625;  289.575;  134.300
1076.431;  401.150;  329.275;  138.200
1076.976;  391.675;  318.550;  132.200
1077.521;  359.500;  283.600;  138.900
1078.067;  359.575;  282.450;  128.600
1078.612;  408.975;  332.075;  138.900
1079.156;  370.500;  295.750;  128.900
1079.701;  421.375;  343.350;  129.700
1080.246;  426.650;  347.850;  128.600
1080.791;  386.750;  314.325;  122.600
1081.336;  405.175;  326.775;  122.000
1081.880;  398.175;  325.175;  123.900
1082.425;  349.875;  278.750;  120.600
1082.970;  436.700;  366.800;  124.500
1083.514;  366.525;  294.050;  112.000
1084.059;  364.550;  286.600;  120.700
1084.603;  352.875;  274.100;  116.000
1085.147;  397.600;  324.250;  116.300
1085.692;  435.275;  361.250;  108.200
1086.236;  313.550;  241.150;  114.600
1086.780;  455.600;  384.150;  118.900
1087.325;  399.275;  325.450;  120.400
1087.869;  379.000;  304.775;  110.500
1088.413;  430.650;  356.525;  114.000
1088.957;  328.025;  263.950;  114.300
1089.501;  467.975;  396.225;  114.600
1090.045;  438.425;  370.525;  114.200
1090.589;  346.900;  276.525;  105.500
1091.133;  411.700;  345.450;  111.800
1091.676;  359.900;  298.200;  110.900
1092.220;  367.825;  299.475;  110.100
1092.764;  431.050;  361.925;  108.100
1093.307;  408.250;  337.525;  109.900
1093.851;  344.475;  275.925;  107.500
1094.395;  412.125;  345.675;   96.200
1094.938;  388.175;  322.825;   99.300
1095.482;  343.000;  278.475;   97.700
1096.025;  431.125;  364.550;   84.900
1096.568;  472.125;  405.000;   88.500
1097.112;  312.725;  246.200;   95.700
1097.655;  365.675;  296.650;   97.300
1098.198;  364.575;  297.750;   92.600
1098.741;  379.200;  304.700;   91.800
1099.285;  392.900;  328.800;   88.000
1099.828;  273.350;  211.775;   91.700
1100.371;  371.350;  306.475;   89.900
1100.914;  411.650;  345.300;   91.500
1101.457;  411.725;  348.450;   88.100
1101.999;  351.125;  287.650;   86.400
1102.542;  395.025;  326.525;   90.800
1103.085;  393.875;  334.825;   95.400
1103.628;  455.925;  402.425;   97.700
1104.170;  352.575;  294.100;   84.000
1104.713;  395.750;  327.975;   93.900
1105.256;  336.950;  274.375;   93.000
1105.798;  308.450;  242.750;   85.600
1106.341;  442.525;  376.200;   87.100
1106.883;  318.625;  254.050;   85.200
1107.425;  402.675;  336.150;   85.000
1107.968;  371.200;  308.475;   84.300
1108.510;  416.900;  354.625;   88.200
1109.052;  372.375;  312.325;   86.600
1109.594;  333.300;  276.450;   79.400
1110.136;  385.650;  324.750;   81.700
1110.679;  377.325;  320.200;   75.500
1111.221;  369.725;  303.300;   88.500
1111.763;  336.825;  273.725;   87.700
1112.304;  327.300;  269.975;   89.700
1112.846;  400.500;  338.350;   81.900
1113.388;  565.175;  503.625;   86.400
1113.930;  415.175;  350.625;   84.700
1114.472;  367.825;  306.975;   78.900
1115.013;  332.500;  274.675;   78.100
1115.555;  353.950;  300.175;   84.900
1116.097;  346.300;  286.175;   79.200
1116.638;  411.075;  351.800;   83.700
1117.180;  398.025;  340.000;   85.500
1117.721;  347.425;  284.650;   78.800
1118.262;  407.975;  346.125;   77.400
1118.804;  384.125;  323.675;   81.400
1119.345;  345.925;  293.650;   77.800
1119.886;  423.775;  365.925;   81.200
1120.427;  354.675;  298.125;   77.200
1120.969;  361.350;  303.125;   75.200
1121.510;  340.950;  283.075;   80.900
1122.051;  432.150;  375.375;   77.300
1122.592;  390.950;  336.725;   73.300
1123.133;  331.575;  273.850;   90.100
1123.673;  425.725;  369.875;   75.000
1124.214;  363.225;  315.175;   80.600
1124.755;  384.925;  324.350;   78.000
1125.296;  371.750;  318.250;   77.500
1125.836;  421.875;  351.500;   80.400
1126.377;  359.575;  300.875;   75.600
1126.918;  366.125;  309.250;   78.900
1127.458;  370.275;  318.050;   78.000
1127.999;  394.625;  336.250;   76.100
1128.539;  419.925;  364.625;   81.400
1129.079;  375.225;  324.475;   77.400
1129.620;  334.525;  279.875;   68.000
1130.160;  322.800;  272.075;   77.500
1130.700;  379.300;  329.225;   76.300
1131.240;  380.000;  328.450;   66.800
1131.781;  374.050;  314.900;   70.600
1132.321;  359.850;  306.150;   77.200
1132.861;  335.825;  285.675;   70.400
1133.401;  359.075;  300.900;   68.700
1133.941;  376.225;  321.400;   68.500
1134.481;  361.350;  307.900;   75.900
1135.020;  359.225;  309.675;   66.600
1135.560;  399.825;  351.150;   68.100
1136.100;  298.425;  248.900;   64.900
1136.640;  307.300;  255.600;   72.500
1137.179;  324.925;  268.675;   69.700
1137.719;  361.250;  312.975;   68.400
1138.258;  349.200;  301.025;   67.000
1138.798;  393.525;  340.800;   69.600
1139.337;  290.700;  239.200;   64.000
1139.877;  385.000;  332.125;   64.500
1140.416;  517.000;  470.975;   74.900
1140.955;  315.050;  271.575;   67.200
1141.494;  403.050;  350.025;   69.900
1142.034;  344.025;  296.600;   59.100
1142.573;  387.575;  339.400;   65.900
1143.112;  327.125;  283.425;   70.600
1143.651;  320.750;  277.975;   67.100
1144.190;  408.350;  356.875;   56.700
1144.729;  355.525;  310.675;   61.800
1145.267;  344.475;  295.200;   62.500
1145.806;  377.275;  333.350;   68.500
1146.345;  374.475;  329.875;   58.300
1146.884;  373.050;  323.775;   63.100
1147.422;  312.300;  268.350;   54.800
1147.961;  416.475;  375.600;   67.600
1148.500;  394.775;  349.175;   64.700
1149.038;  376.600;  329.975;   61.000
1149.577;  411.375;  366.025;   65.100
1150.115;  267.200;  223.975;   58.100
1150.653;  358.700;  315.175;   60.500
1151.192;  324.800;  282.875;   56.600
1151.730;  385.600;  342.650;   62.300
1152.268;  345.075;  299.225;   55.500
1152.806;  335.050;  289.175;   58.200
1153.344;  335.450;  294.550;   55.000
1153.882;  354.525;  313.275;   64.200
1154.421;  286.275;  238.175;   60.300
1154.958;  349.675;  307.400;   58.100
1155.496;  378.025;  336.925;   55.800
1156.034;  420.875;  380.375;   61.000
1156.572;  392.550;  353.500;   56.200
1157.110;  274.175;  234.675;   53.200
1157.647;  400.775;  356.575;   57.400
1158.185;  334.400;  288.850;   55.500
1158.723;  307.025;  260.925;   58.000
1159.260;  410.125;  364.100;   53.700
1159.798;  382.800;  340.225;   51.700
1160.335;  370.725;  326.400;   59.600

