gmr_right
Integration time [ms]: 412.139
Averaging Nr. [scans]: 50
Smoothing Nr. [pixels]: 0
Data measured with spectrometer [name]: 7414430SP
Wave   ;Sample   ;Dark     ;Reference
[nm]   ;[counts] ;[counts] ;[counts] 

288.544;  805.925;  556.129;  793.890
289.143;  702.943;  473.960;  681.602
289.742;  856.881;  630.955;  828.814
290.341;  808.916;  604.742;  789.841
290.940;  750.826;  520.634;  730.702
291.538;  896.550;  695.774;  881.108
292.137;  809.137;  626.824;  792.581
292.736;  994.656;  804.742;  975.101
293.335;  753.596;  547.569;  735.086
293.934;  797.424;  583.590;  781.677
294.532; 1052.800;  863.618; 1031.958
295.131;  857.631;  636.289;  834.394
295.730;  827.525;  641.311;  809.588
296.328;  809.618;  623.281;  783.442
296.927;  796.000;  603.233;  779.652
297.525;  799.737;  623.290;  781.236
298.124;  664.025;  481.013;  654.009
298.722;  775.648;  604.206;  761.933
299.321;  723.637;  559.141;  708.597
299.919;  765.277;  553.073;  751.918
300.518;  701.537;  530.992;  689.338
301.116;  705.269;  544.144;  691.381
301.715;  743.727;  611.240;  730.222
302.313;  722.340;  557.199;  704.943
302.911;  744.590;  609.932;  733.830
303.509;  943.032;  789.202;  925.627
304.108;  774.558;  611.213;  760.383
304.706;  815.516;  611.227;  801.664
305.304;  812.544;  619.998;  796.707
305.902;  799.854;  618.241;  784.484
306.500;  739.868;  594.129;  728.200
307.098;  765.716;  623.102;  746.560
307.696;  796.266;  633.042;  780.432
308.294;  743.013;  589.101;  731.359
308.892;  773.313;  600.217;  759.769
309.490;  721.549;  586.062;  712.161
310.088;  795.837;  644.982;  788.444
310.686;  830.783;  684.176;  821.749
311.284;  780.511;  668.048;  766.040
311.882;  737.000;  620.983;  731.225
312.480;  709.669;  581.903;  697.167
313.078;  821.378;  681.987;  808.331
313.675;  706.428;  565.129;  691.600
314.273;  805.658;  652.896;  797.837
314.871;  593.562;  479.945;  589.829
315.468;  660.770;  535.932;  652.090
316.066;  708.812;  572.120;  694.427
316.664;  659.683;  535.892;  656.351
317.261;  919.922;  792.012;  910.128
317.859;  778.880;  642.949;  768.735
318.456;  835.811;  727.072;  830.096
319.054;  791.175;  678.972;  787.828
319.651;  764.180;  687.026;  759.928
320.249;  813.640;  705.026;  810.188
320.846;  717.518;  625.079;  714.286
321.443;  841.098;  725.030;  832.135
322.041;  814.111;  720.990;  812.315
322.638;  707.546;  609.018;  701.456
323.235;  672.140;  590.199;  665.683
323.833;  746.233;  654.125;  740.354
324.430;  616.083;  500.075;  615.900
325.027;  884.676;  786.126;  876.855
325.624;  650.925;  552.287;  644.532
326.221;  691.318;  576.223;  689.717
326.818;  831.262;  694.137;  818.332
327.415;  752.541;  657.339;  748.828
328.012;  694.264;  552.364;  690.585
328.609;  733.194;  599.299;  731.389
329.206;  788.884;  659.239;  778.621
329.803;  749.212;  638.212;  737.841
330.400;  712.724;  574.306;  704.260
330.997;  827.405;  681.229;  817.147
331.594;  802.008;  641.038;  788.185
332.191;  737.095;  565.212;  728.722
332.787;  848.855;  722.145;  844.463
333.384;  767.594;  623.948;  763.093
333.981;  817.208;  655.739;  815.687
334.578;  713.684;  555.815;  708.378
335.174;  741.297;  561.809;  731.469
335.771;  845.034;  669.664;  836.456
336.367;  718.891;  540.538;  710.631
336.964;  806.055;  648.630;  793.266
337.561;  748.065;  610.580;  731.112
338.157;  917.631;  777.365;  911.916
338.754;  804.750;  639.292;  796.589
339.350;  723.554;  573.322;  722.493
339.946;  781.068;  597.446;  773.135
340.543;  849.968;  714.147;  846.136
341.139;  726.657;  573.024;  720.836
341.735;  787.915;  621.995;  772.593
342.332;  703.240;  559.049;  691.472
342.928;  798.114;  679.091;  795.394
343.524;  773.953;  653.975;  761.684
344.120;  747.415;  598.947;  738.562
344.716;  722.371;  620.148;  723.717
345.313;  801.328;  676.138;  795.342
345.909;  622.077;  500.106;  627.336
346.505;  753.423;  634.209;  740.247
347.101;  827.802;  710.261;  827.864
347.697;  796.644;  683.339;  785.398
348.293;  629.064;  495.247;  627.244
348.889;  751.667;  619.282;  745.914
349.485;  690.048;  606.330;  688.205
350.081;  779.384;  640.348;  772.592
350.676;  699.538;  558.222;  691.606
351.272;  818.141;  716.415;  809.530
351.868;  781.747;  650.474;  780.497
352.464;  733.109;  630.403;  723.932
353.059;  659.349;  537.311;  646.017
353.655;  786.635;  684.438;  777.063
354.251;  773.058;  661.520;  759.845
354.846;  747.066;  610.344;  740.646
355.442;  747.573;  612.226;  753.071
356.038;  757.164;  635.373;  751.708
356.633;  733.377;  601.390;  728.594
357.229;  730.641;  605.338;  724.757
357.824;  708.362;  610.286;  703.600
358.420;  678.635;  535.303;  679.726
359.015;  696.816;  602.351;  695.357
359.610;  770.875;  643.395;  763.920
360.206;  614.940;  523.217;  603.240
360.801;  651.554;  522.356;  646.503
361.396;  733.928;  656.446;  725.975
361.992;  672.242;  552.286;  668.220
362.587;  669.387;  528.190;  670.160
363.182;  693.978;  598.280;  689.631
363.777;  748.599;  656.328;  738.242
364.372;  749.580;  627.309;  737.314
364.967;  686.759;  571.193;  680.744
365.563;  817.299;  665.386;  815.567
366.158;  690.013;  616.341;  685.161
366.753;  658.805;  539.397;  649.263
367.348;  747.793;  594.283;  746.056
367.942;  697.184;  606.339;  697.298
368.537;  760.105;  641.262;  754.245
369.132;  703.141;  599.305;  703.428
369.727;  641.329;  506.177;  638.079
370.322;  592.430;  504.249;  580.186
370.917;  716.438;  616.222;  710.646
371.511;  867.762;  771.295;  861.834
372.106;  780.599;  686.193;  776.964
372.701;  589.883;  500.141;  585.988
373.296;  861.957;  781.323;  863.135
373.890;  649.827;  529.190;  647.840
374.485;  701.887;  602.108;  691.199
375.079;  748.178;  642.289;  738.685
375.674;  813.948;  691.306;  812.970
376.268;  694.524;  579.190;  691.759
376.863;  582.660;  496.991;  580.327
377.457;  667.023;  578.252;  662.490
378.052;  765.409;  716.152;  764.884
378.646;  749.858;  652.155;  741.167
379.240;  723.450;  622.133;  721.176
379.835;  645.591;  609.230;  636.978
380.429;  568.396;  498.202;  562.557
381.023;  778.522;  699.112;  779.205
381.617;  681.354;  595.072;  680.106
382.212;  686.107;  592.234;  685.303
382.806;  759.183;  677.252;  760.690
383.400;  678.087;  608.123;  672.281
383.994;  666.219;  626.102;  664.870
384.588;  702.093;  648.259;  697.701
385.182;  736.855;  635.370;  726.624
385.776;  718.565;  629.296;  706.875
386.370;  684.136;  611.168;  681.968
386.964;  684.415;  594.255;  684.155
387.558;  605.685;  527.354;  598.360
388.152;  682.122;  610.204;  681.959
388.745;  813.561;  739.223;  814.707
389.339;  753.441;  660.314;  747.642
389.933;  695.230;  614.374;  695.370
390.527;  862.492;  788.278;  859.029
391.120;  594.523;  558.108;  595.318
391.714;  709.776;  636.226;  711.633
392.308;  786.829;  705.335;  780.253
392.901;  640.737;  564.231;  642.460
393.495;  596.796;  531.159;  595.414
394.089;  766.981;  720.198;  760.452
394.682;  699.551;  639.196;  697.188
395.275;  720.868;  651.195;  719.927
395.869;  670.242;  619.146;  667.314
396.462;  619.567;  566.224;  616.609
397.056;  777.408;  727.354;  776.621
397.649;  734.339;  664.160;  731.575
398.242;  715.240;  626.275;  712.645
398.836;  761.739;  710.318;  766.408
399.429;  632.358;  586.313;  631.041
400.022;  665.823;  592.151;  665.902
400.615;  806.629;  755.210;  805.609
401.208;  690.463;  652.334;  691.451
401.802;  698.662;  640.237;  699.329
402.395;  684.343;  634.151;  683.502
402.988;  692.028;  649.114;  696.627
403.581;  644.796;  614.284;  646.878
404.174;  677.622;  635.386;  686.568
404.767;  635.309;  607.220;  638.583
405.360;  622.754;  584.139;  621.445
405.953;  750.692;  727.336;  759.034
406.545;  720.204;  670.382;  725.342
407.138;  610.250;  552.225;  618.350
407.731;  610.879;  566.261;  613.303
408.324;  659.420;  649.458;  660.554
408.917;  677.095;  662.370;  681.864
409.509;  735.536;  708.269;  740.396
410.102;  636.194;  609.182;  643.948
410.695;  664.690;  622.475;  665.758
411.287;  604.749;  565.436;  599.821
411.880;  588.896;  552.409;  585.421
412.472;  609.203;  579.266;  613.092
413.065;  631.812;  611.346;  629.408
413.657;  579.262;  536.502;  576.678
414.250;  648.774;  627.490;  646.681
414.842;  663.559;  645.376;  676.353
415.434;  567.142;  512.478;  570.463
416.027;  643.220;  616.651;  652.196
416.619;  711.909;  655.504;  713.400
417.211;  591.884;  552.498;  599.352
417.804;  623.461;  571.680;  628.499
418.396;  604.040;  599.492;  607.643
418.988;  654.485;  609.570;  659.238
419.580;  559.391;  524.446;  568.276
420.172;  535.339;  493.569;  536.196
420.764;  673.007;  660.681;  672.482
421.356;  634.508;  622.638;  636.898
421.948;  671.877;  647.558;  677.661
422.540;  675.683;  647.767;  680.027
423.132;  595.623;  569.776;  600.641
423.724;  566.280;  533.617;  561.267
424.316;  618.542;  568.670;  621.345
424.908;  595.893;  572.842;  591.517
425.500;  647.356;  620.842;  647.978
426.092;  639.684;  591.849;  648.268
426.683;  689.715;  661.746;  684.836
427.275;  644.456;  613.919;  641.471
427.867;  665.979;  647.944;  668.948
428.458;  730.610;  681.942;  732.344
429.050;  680.307;  598.850;  680.749
429.642;  740.432;  707.928;  743.124
430.233;  554.156;  513.977;  569.356
430.825;  723.180;  714.959;  724.809
431.416;  696.685;  657.844;  698.241
432.008;  642.970;  613.009;  651.723
432.599;  649.909;  627.043;  656.073
433.190;  635.742;  635.877;  637.670
433.782;  586.358;  552.881;  590.395
434.373;  881.933;  824.092;  884.765
434.964;  601.316;  520.102;  602.920
435.556;  625.641;  602.964;  634.537
436.147;  750.508;  727.013;  758.490
436.738;  693.770;  648.033;  701.099
437.329;  724.193;  683.226;  721.723
437.920;  662.592;  612.904;  666.688
438.511;  565.318;  476.929;  564.526
439.103;  618.685;  587.196;  623.998
439.694;  674.531;  625.240;  681.583
440.285;  758.850;  725.192;  764.432
440.876;  840.710;  782.101;  845.738
441.466;  571.552;  526.144;  575.162
442.057;  660.356;  583.343;  665.814
442.648;  747.639;  714.194;  746.255
443.239;  617.319;  550.127;  620.477
443.830;  704.358;  658.305;  704.958
444.421;  655.404;  628.398;  655.474
445.011;  685.336;  645.169;  693.619
445.602;  735.981;  670.147;  743.126
446.193;  488.488;  420.331;  488.117
446.783;  636.773;  594.467;  640.397
447.374;  684.188;  653.196;  692.759
447.964;  708.184;  642.191;  713.770
448.555;  821.466;  744.485;  822.742
449.145;  658.211;  605.356;  662.853
449.736;  798.921;  722.305;  803.179
450.326;  717.542;  646.311;  713.626
450.917;  674.625;  584.513;  675.324
451.507;  602.183;  555.484;  600.661
452.097;  745.635;  658.420;  746.267
452.688;  735.268;  686.456;  742.160
453.278;  562.240;  478.483;  566.840
453.868;  793.963;  743.585;  793.550
454.458;  650.005;  581.470;  651.141
455.048;  709.679;  608.444;  711.783
455.639;  564.221;  486.589;  567.096
456.229;  704.420;  634.642;  710.694
456.819;  743.992;  675.645;  751.158
457.409;  769.904;  692.614;  773.993
457.999;  737.936;  673.718;  737.505
458.589;  680.441;  614.705;  686.606
459.179;  717.424;  646.672;  717.658
459.769;  619.010;  541.591;  627.099
460.358;  790.279;  713.743;  797.262
460.948;  689.225;  616.730;  689.503
461.538;  658.062;  564.753;  660.677
462.128;  658.740;  586.642;  664.934
462.717;  706.164;  598.922;  710.326
463.307;  704.787;  600.990;  705.846
463.897;  651.392;  563.770;  656.942
464.486;  841.492;  723.611;  837.128
465.076;  733.314;  650.848;  733.776
465.666;  650.405;  545.014;  652.900
466.255;  785.312;  715.804;  785.651
466.845;  667.933;  567.775;  666.749
467.434;  726.283;  641.859;  725.873
468.023;  652.840;  540.916;  658.357
468.613;  709.681;  627.705;  713.946
469.202;  643.895;  525.896;  646.507
469.791;  731.220;  626.008;  737.811
470.381;  737.301;  661.022;  742.813
470.970;  705.944;  589.999;  711.099
471.559;  736.400;  623.926;  733.291
472.148;  670.406;  533.052;  675.737
472.738;  764.146;  651.086;  765.466
473.327;  632.959;  510.060;  637.529
473.916;  738.220;  572.950;  737.446
474.505;  752.749;  636.111;  751.703
475.094;  806.870;  694.183;  806.570
475.683;  796.977;  669.108;  797.699
476.272;  726.701;  595.090;  730.632
476.861;  707.780;  580.200;  706.754
477.449;  731.427;  596.399;  728.487
478.038;  684.244;  557.090;  692.513
478.627;  717.808;  606.063;  714.852
479.216;  771.853;  627.300;  769.441
479.805;  777.741;  620.364;  783.375
480.393; 1002.290;  828.208; 1008.945
480.982;  877.455;  686.137;  874.501
481.571;  858.033;  707.377;  858.333
482.159;  707.009;  535.385;  705.386
482.748;  823.755;  664.262;  821.385
483.336;  858.390;  674.333;  858.209
483.925;  780.534;  611.281;  774.373
484.513;  758.263;  609.518;  758.962
485.102;  807.401;  635.248;  810.965
485.690; 1003.979;  838.469; 1011.050
486.278;  983.056;  769.469;  979.329
486.867;  810.522;  615.437;  809.662
487.455;  899.881;  720.374;  898.229
488.043;  745.236;  535.368;  748.361
488.631; 1008.851;  783.530; 1005.079
489.220;  909.562;  664.562;  908.626
489.808;  742.486;  505.418;  741.415
490.396;  923.004;  674.466;  914.645
490.984;  831.695;  549.464;  830.161
491.572;  937.099;  689.527;  940.315
492.160;  916.996;  652.368;  919.081
492.748;  880.781;  574.355;  884.341
493.336; 1020.493;  697.526; 1019.693
493.924;  953.243;  614.610;  958.077
494.512; 1066.648;  664.448; 1066.638
495.100; 1092.453;  668.367; 1103.280
495.687; 1200.596;  685.594; 1206.373
496.275; 1136.955;  574.555; 1150.796
496.863; 1258.699;  607.402; 1281.171
497.451; 1363.586;  554.385; 1386.805
498.038; 1534.014;  602.632; 1556.729
498.626; 1695.915;  622.603; 1741.407
499.214; 1972.896;  631.469; 2016.609
499.801; 2195.380;  611.417; 2220.633
500.389; 2291.021;  493.581; 2312.494
500.976; 2711.971;  689.564; 2744.849
501.564; 3055.879;  635.412; 3148.565
502.151; 3346.748;  431.380; 3515.999
502.738; 3785.856;  553.526; 3971.274
503.326; 4214.935;  598.637; 4403.796
503.913; 4951.086;  610.510; 5161.749
504.500; 5760.239;  659.436; 5986.420
505.088; 6245.337;  541.450; 6381.201
505.675; 6964.308;  600.630; 6925.547
506.262; 7912.411;  615.381; 7619.060
506.849; 9161.168;  601.496; 8733.969
507.436;10494.601;  701.600; 9790.121
508.023;10758.495;  598.579; 9985.472
508.610;11241.136;  668.502;10434.618
509.197;12170.155;  657.295;11198.435
509.784;13265.188;  616.486;12391.194
510.371;14274.118;  496.662;13603.713
510.958;15040.882;  591.412;14426.586
511.545;15865.437;  714.459;15243.775
512.132;16228.857;  606.623;15945.876
512.719;16814.006;  562.510;16340.369
513.305;18962.971;  572.439;18011.766
513.892;21062.432;  693.347;19754.971
514.479;22218.361;  603.562;20967.805
515.066;23678.068;  709.539;22299.793
515.652;24414.955;  631.531;22908.660
516.239;25528.234;  654.473;23798.875
516.825;27323.602;  522.513;25567.275
517.412;29562.201;  781.571;28154.959
517.998;29830.551;  588.429;28344.111
518.585;27887.408;  565.380;27134.219
519.171;27705.203;  611.610;27268.576
519.758;29885.135;  499.565;28964.129
520.344;31274.068;  674.486;30664.494
520.930;32658.301;  526.330;32550.605
521.516;35751.777;  658.608;35422.895
522.103;38987.484;  739.518;38280.004
522.689;38581.188;  577.366;37835.117
523.275;36877.668;  707.404;37288.613
523.861;37323.309;  613.501;37281.395
524.447;38858.945;  697.606;37846.949
525.033;38846.293;  689.415;38321.949
525.619;38861.070;  550.357;38579.285
526.205;40459.223;  541.417;40622.875
526.791;41754.410;  624.554;42258.836
527.377;42709.426;  566.370;42966.902
527.963;42002.684;  642.292;42018.949
528.549;42957.797;  629.358;42476.828
529.135;43491.516;  566.445;41854.852
529.721;42917.133;  596.430;41237.711
530.306;42373.035;  869.358;41259.445
530.892;43653.941;  569.426;41506.047
531.478;45646.004;  556.485;43559.613
532.063;47477.652;  525.382;47695.563
532.649;49966.371;  756.260;50808.324
533.235;52232.648;  564.395;51787.500
533.820;52741.051;  682.568;52145.035
534.406;51953.352;  574.265;51133.488
534.991;50901.047;  534.371;49996.805
535.576;49387.996;  620.431;48882.852
536.162;48046.492;  834.453;46942.285
536.747;47025.438;  505.248;45711.746
537.333;49897.625;  547.259;48510.180
537.918;51883.324;  629.307;50439.891
538.503;51906.500;  608.469;50863.711
539.088;51433.934;  639.329;50906.922
539.673;52299.023;  590.302;52621.965
540.259;52115.508;  539.390;52368.094
540.844;51378.734;  520.415;50879.109
541.429;51487.258;  726.229;52077.777
542.014;52030.574;  511.175;52716.695
542.599;53637.301;  629.355;52363.281
543.184;54597.598;  539.243;53187.137
543.769;55322.027;  580.235;54697.605
544.354;53699.371;  583.256;53913.914
544.938;49361.730;  631.303;49680.164
545.523;46785.922;  738.379;47386.277
546.108;49089.063;  595.225;49151.949
546.693;51437.246;  596.134;51384.637
547.278;50444.219;  581.335;51853.254
547.862;48760.645;  617.442;51173.750
548.447;49813.223;  689.201;51691.395
549.031;50446.715;  571.098;52456.703
549.616;50888.715;  628.324;52714.516
550.201;51075.703;  560.283;52414.598
550.785;51739.410;  664.217;52355.059
551.370;53410.004;  518.172;54589.453
551.954;56584.555;  671.209;58267.348
552.538;56979.961;  716.282;59062.176
553.123;57116.359;  548.181;58115.285
553.707;54774.371;  580.044;56556.285
554.291;53389.113;  703.237;56201.668
554.876;51450.820;  687.191;55335.762
555.460;50566.910;  578.111;54155.703
556.044;52392.742;  569.989;53721.484
556.628;53581.488;  604.159;53731.016
557.212;52700.957;  705.320;54312.531
557.796;51310.727;  583.159;53797.773
558.380;52831.262;  629.003;56145.984
558.964;54245.855;  611.252;57277.930
559.548;55364.141;  520.244;56459.641
560.132;54121.230;  588.097;54434.543
560.716;53310.477;  513.012;54800.617
561.300;55223.469;  526.275;57606.945
561.884;55694.047;  661.139;58972.445
562.467;55037.793;  654.020;57327.570
563.051;53630.988;  618.024;54962.434
563.635;50006.809;  580.063;52594.473
564.219;46844.137;  589.142;50610.410
564.802;45984.266;  648.000;49551.180
565.386;46834.051;  619.035;48370.953
565.969;48278.168;  689.226;48178.871
566.553;49583.047;  768.086;49957.305
567.136;49870.273;  695.997;50369.594
567.720;49100.133;  619.934;49492.004
568.303;49987.578;  621.022;50616.352
568.887;50885.852;  646.059;50727.148
569.470;51650.336;  631.891;51698.379
570.053;51674.305;  659.917;52122.078
570.637;53745.664;  558.134;52536.438
571.220;54117.422;  654.148;51186.098
571.803;54384.344;  776.878;51032.762
572.386;52055.094;  555.963;49609.887
572.969;50579.438;  574.046;48285.926
573.552;49623.270;  601.005;47624.285
574.135;47465.809;  536.851;45498.641
574.718;42869.938;  541.968;41970.434
575.301;42852.941;  548.436;41447.137
575.884;42835.945;  554.903;40923.836
576.467;46192.473;  701.934;45267.723
577.050;48215.625;  603.894;48175.543
577.633;48732.402;  781.047;47729.328
578.216;48763.785;  599.913;47579.793
578.799;49583.277;  610.820;47820.996
579.381;50218.914;  766.939;48115.551
579.964;47958.871;  564.044;47333.766
580.547;47112.215;  601.896;46668.969
581.129;46138.285;  725.782;44466.141
581.712;46717.082;  648.744;44164.922
582.294;48266.438;  614.930;46477.855
582.877;49135.840;  769.954;48244.254
583.459;48029.895;  602.752;47437.895
584.042;48317.906;  576.755;46943.219
584.624;48014.398;  565.733;46792.227
585.206;47343.957;  460.910;46557.250
585.789;46181.629;  590.779;45793.773
586.371;43826.180;  626.681;43836.391
586.953;43590.418;  661.790;42972.492
587.536;43643.246;  738.913;42487.211
588.118;42925.273;  617.534;42086.414
588.700;44628.449;  760.707;43389.930
589.282;45704.730;  634.823;43646.039
589.864;44822.258;  610.776;43438.109
590.446;44542.875;  496.651;43151.926
591.028;44468.527;  620.678;42781.867
591.610;45005.141;  483.767;42839.098
592.192;44811.816;  588.824;42820.402
592.774;42574.578;  554.714;40724.277
593.356;41136.668;  581.572;39874.789
593.937;41016.664;  573.801;39980.648
594.519;43629.563;  693.777;42069.633
595.101;45152.820;  541.613;42976.031
595.683;45538.316;  574.578;44084.441
596.264;44380.695;  600.780;43478.797
596.846;44386.418;  584.709;43803.672
597.427;43883.004;  562.532;42986.934
598.009;44350.730;  556.524;42832.219
598.591;43977.457;  644.704;42580.086
599.172;44110.281;  605.676;43061.805
599.753;43284.328;  519.542;41691.469
600.335;42205.500;  678.483;40692.520
600.916;40662.184;  613.581;39982.422
601.498;40792.152;  643.630;40318.617
602.079;41419.195;  598.545;40670.609
602.660;41090.691;  557.510;41450.898
603.241;39584.777;  494.685;41137.738
603.823;37633.871;  564.645;38868.797
604.404;37047.789;  507.500;38182.785
604.985;38505.184;  558.474;38078.047
605.566;40178.789;  668.697;38056.633
606.147;39943.027;  572.428;37020.418
606.728;40854.914;  535.400;37883.359
607.309;41604.129;  545.466;38748.273
607.890;41105.301;  558.599;38850.230
608.471;39483.609;  525.510;37457.918
609.051;39034.574;  627.304;36066.457
609.632;39947.121;  551.330;35991.074
610.213;41724.602;  574.483;37402.641
610.794;42256.918;  594.459;38383.363
611.374;43917.246;  634.432;40562.387
611.955;42804.586;  501.364;38533.727
612.536;42434.105;  617.489;36951.789
613.116;42244.070;  584.462;37197.891
613.697;42544.484;  566.297;38411.125
614.277;42510.629;  554.264;38673.938
614.858;40312.516;  578.472;37075.863
615.438;37677.461;  618.488;35092.906
616.019;36917.566;  727.253;33666.301
616.599;37955.012;  472.337;34189.023
617.179;40714.074;  528.420;36952.047
617.760;43480.453;  798.506;39582.574
618.340;43627.691;  638.221;38943.977
618.920;42460.117;  753.305;37594.156
619.500;42412.059;  575.209;37866.938
620.080;41969.613;  539.308;37869.043
620.660;41711.309;  508.086;36868.617
621.241;42112.105;  556.229;36352.309
621.821;40953.070;  604.278;35459.520
622.401;39995.750;  691.302;35207.414
622.980;40268.680;  533.171;35980.422
623.560;42150.348;  559.244;37351.328
624.140;39835.648;  619.307;34388.582
624.720;38003.402;  641.281;32368.764
625.300;37941.215;  525.299;32638.629
625.880;39334.180;  584.166;34599.035
626.459;40857.703;  585.263;36831.738
627.039;42522.461;  505.195;38299.098
627.619;42803.504;  760.084;38289.574
628.198;41482.293;  678.125;37220.695
628.778;42913.980;  647.281;37632.563
629.357;43164.223;  500.272;38003.012
629.937;42417.676;  552.102;38402.039
630.516;40840.273;  723.116;37868.801
631.096;39197.121;  576.272;35760.410
631.675;38736.688;  727.033;35225.219
632.254;37185.234;  558.972;35130.289
632.834;36676.566;  579.013;35794.570
633.413;36949.754;  723.198;35788.922
633.992;36756.160;  669.022;34532.863
634.571;37096.738;  628.934;33590.113
635.151;39898.977;  536.982;34943.863
635.730;40342.664;  579.185;35352.523
636.309;40064.547;  645.119;35366.605
636.888;40282.109;  654.019;36165.637
637.467;41573.965;  489.940;37515.902
638.046;44093.035;  736.126;39288.695
638.625;43382.551;  689.019;38279.699
639.204;42681.637;  609.910;37741.598
639.782;42266.281;  581.809;38364.551
640.361;40688.688;  694.061;36740.621
640.940;38590.762;  573.067;34950.082
641.519;38058.879;  648.074;34137.398
642.097;38971.953;  614.080;35654.258
642.676;38232.711;  608.086;35637.957
643.255;38214.043;  594.092;36567.074
643.833;39870.941;  674.098;37809.434
644.412;40956.055;  553.104;37337.293
644.990;40684.871;  574.111;37018.531
645.569;39860.586;  661.117;36518.469
646.147;39229.781;  702.123;36186.430
646.726;38358.836;  600.129;36267.688
647.304;38580.332;  556.135;36647.625
647.882;41843.047;  480.142;39286.742
648.461;42489.043;  616.148;39157.703
649.039;39034.418;  654.154;35412.883
649.617;37766.633;  649.160;34744.918
650.195;38628.988;  643.167;35403.098
650.773;39035.504;  587.173;35053.797
651.352;38744.297;  469.179;33756.816
651.930;36649.152;  458.185;31868.773
652.508;37599.008;  676.191;33121.551
653.086;37795.043;  633.198;33564.793
653.663;38408.980;  549.204;34054.668
654.241;40840.375;  508.210;35693.309
654.819;42662.648;  542.216;36422.906
655.397;44336.883;  551.222;38213.484
655.975;44649.820;  596.229;39507.625
656.553;43508.434;  730.235;39498.223
657.130;43921.789;  555.241;40395.480
657.708;44177.305;  642.247;39242.020
658.286;44281.961;  585.253;38920.020
658.863;44189.316;  617.260;40202.898
659.441;43158.590;  612.266;39677.938
660.018;44696.125;  607.272;40413.355
660.596;44017.961;  504.278;39931.414
661.173;42489.855;  566.284;39604.531
661.750;42389.211;  524.291;39700.070
662.328;42553.828;  631.297;39292.809
662.905;41354.145;  561.303;38235.648
663.482;40538.797;  583.309;36212.305
664.060;40079.375;  542.315;35944.945
664.637;38875.188;  635.322;35170.785
665.214;37280.004;  617.328;34197.523
665.791;37907.918;  606.334;34549.520
666.368;37669.434;  549.340;35118.578
666.945;37723.770;  666.346;36019.418
667.522;37405.125;  545.353;36048.438
668.099;38170.340;  572.359;36243.914
668.676;39546.836;  606.365;35958.875
669.253;41108.570;  738.371;37384.730
669.830;40187.445;  714.377;36779.629
670.407;38263.621;  588.384;35231.289
670.984;38817.738;  625.390;35544.270
671.560;38002.453;  652.396;35466.867
672.137;36690.727;  576.402;34280.863
672.714;37108.480;  612.408;34632.863
673.290;37787.156;  631.415;35135.422
673.867;37714.133;  548.421;36114.480
674.443;37277.109;  509.427;36152.859
675.020;36933.805;  617.433;35327.238
675.596;38577.578;  609.439;35795.176
676.173;39719.992;  529.446;35430.355
676.749;38313.828;  443.452;33549.516
677.326;36232.844;  492.458;32210.012
677.902;36010.602;  520.464;32068.871
678.478;36465.535;  562.470;32583.891
679.054;35807.871;  888.477;32088.928
679.631;35259.305;  613.483;30978.848
680.207;37755.582;  777.489;33160.887
680.783;39398.438;  503.495;35570.363
681.359;38737.590;  594.501;36125.184
681.935;38134.125;  605.508;35240.922
682.511;37456.500;  644.514;34429.961
683.087;36864.176;  640.520;34463.680
683.663;36727.152;  533.526;34648.898
684.239;37013.707;  528.532;34546.457
684.815;39129.121;  662.539;35586.375
685.390;39382.238;  747.545;35821.895
685.966;38375.074;  601.551;35085.871
686.542;37813.129;  514.557;34198.230
687.118;36494.902;  611.563;32847.707
687.693;36393.039;  628.570;32794.027
688.269;36194.953;  575.576;33072.367
688.844;36554.109;  650.582;33141.664
689.420;37981.086;  604.588;33965.742
689.995;38251.082;  711.594;34655.523
690.571;36697.375;  699.601;33576.742
691.146;35413.910;  567.607;32657.219
691.722;35382.586;  610.613;32526.979
692.297;35967.262;  591.619;33014.617
692.872;37031.277;  533.625;34012.254
693.448;38066.473;  513.632;34237.434
694.023;38301.707;  633.638;34142.672
694.598;38489.441;  610.644;34132.031
695.173;38531.598;  545.650;34205.250
695.748;36086.113;  464.656;32882.488
696.323;34784.668;  594.663;32864.906
696.898;35015.922;  690.669;33170.004
697.473;35218.137;  476.675;32432.984
698.048;34548.516;  560.681;31649.303
698.623;34231.551;  515.687;30778.141
699.198;35173.984;  590.694;31140.119
699.773;35924.441;  522.700;31764.299
700.348;36217.773;  527.706;31780.816
700.922;36707.828;  623.712;32046.375
701.497;37244.887;  571.718;32603.574
702.072;38362.922;  638.725;34799.871
702.646;39268.035;  642.731;35793.172
703.221;39420.531;  635.737;35201.590
703.795;39483.367;  513.743;34764.527
704.370;38268.082;  403.749;34307.367
704.944;37053.336;  566.756;33509.887
705.519;35268.613;  632.762;31388.584
706.093;35739.008;  545.768;31340.104
706.668;36678.723;  664.774;32630.281
707.242;36016.598;  641.780;32728.779
707.816;35697.754;  606.787;32947.238
708.390;35677.270;  583.793;33277.855
708.965;36495.684;  606.799;33834.336
709.539;36560.898;  585.805;33709.273
710.113;36163.953;  622.811;33044.313
710.687;35132.051;  660.818;31953.992
711.261;33223.227;  503.824;30505.949
711.835;33379.281;  532.830;30262.369
712.409;34495.676;  492.836;31254.447
712.983;35904.531;  462.842;32754.986
713.557;36471.105;  495.849;34018.824
714.131;36620.422;  567.855;34579.625
714.704;34900.117;  539.861;33890.262
715.278;34431.531;  615.867;33531.102
715.852;34808.648;  646.873;33601.660
716.425;35142.203;  745.880;33515.117
716.999;34465.918;  483.886;33185.555
717.573;35091.391;  643.892;33905.996
718.146;37635.867;  735.898;35199.293
718.720;38744.223;  592.904;35060.551
719.293;38152.719;  640.911;34973.230
719.867;39245.273;  559.917;36394.449
720.440;39663.391;  701.923;36663.008
721.013;38376.543;  561.929;35102.426
721.587;38582.918;  497.935;33985.266
722.160;38917.934;  641.942;33524.965
722.733;37900.828;  595.948;32987.043
723.306;37403.465;  604.954;33066.301
723.880;38031.219;  600.960;33399.500
724.453;38729.176;  676.966;33468.297
725.026;39663.551;  562.973;33816.637
725.599;37436.348;  595.979;32797.996
726.172;37263.781;  629.985;33187.434
726.745;39165.215;  617.991;35136.613
727.318;39441.211;  671.997;35751.730
727.891;39414.445;  583.004;35890.430
728.463;38535.641;  600.010;34822.090
729.036;36472.738;  533.016;32895.086
729.609;35495.152;  503.022;31823.225
730.182;34732.148;  632.028;31445.283
730.754;35519.184;  441.035;32373.223
731.327;36810.180;  626.041;33676.820
731.900;36924.555;  498.047;33417.000
732.472;35709.348;  591.053;31978.498
733.045;34495.746;  564.059;30368.777
733.617;34683.918;  484.066;30574.215
734.190;35162.773;  613.072;31280.975
734.762;35361.988;  591.078;31674.412
735.334;34460.406;  613.084;31247.291
735.907;33532.461;  612.090;29876.211
736.479;33912.355;  640.097;29808.488
737.051;35096.652;  622.103;30233.547
737.623;37247.746;  641.109;31469.086
738.195;37934.742;  570.115;31784.225
738.768;37425.496;  432.121;32120.523
739.340;37048.953;  538.128;32094.342
739.912;35780.828;  651.134;31312.680
740.484;35582.461;  618.140;31946.238
741.056;37153.938;  561.146;32984.059
741.628;38104.313;  538.152;33897.715
742.199;37118.969;  683.159;33213.016
742.771;34992.965;  495.165;31369.113
743.343;35085.699;  523.171;31865.473
743.915;35402.355;  622.177;32388.631
744.487;34188.371;  661.183;31079.568
745.058;33646.406;  633.190;30570.107
745.630;32593.439;  653.196;29970.127
746.201;32438.516;  525.202;29186.766
746.773;32538.010;  621.208;28805.723
747.344;32261.865;  596.214;29591.223
747.916;33638.141;  614.221;31412.201
748.487;34392.375;  650.227;32194.898
749.059;34186.332;  528.233;32533.719
749.630;34558.688;  572.239;32158.518
750.201;33723.723;  606.245;30855.395
750.773;31606.938;  513.252;28622.555
751.344;32005.072;  601.258;28405.732
751.915;31528.748;  584.264;28461.551
752.486;30617.303;  538.270;27842.850
753.057;31272.979;  613.276;27845.008
753.628;30722.953;  552.283;27728.107
754.199;29197.969;  542.289;27381.086
754.770;27929.023;  614.295;25882.203
755.341;28465.100;  649.301;25886.184
755.912;28681.695;  610.307;26050.861
756.483;29159.131;  630.314;26798.779
757.054;29508.506;  549.320;27048.238
757.625;28939.721;  521.326;26294.838
758.195;28862.416;  512.332;26142.076
758.766;28710.512;  611.338;26392.234
759.337;28879.127;  511.345;26334.594
759.907;30274.102;  494.351;27579.652
760.478;30275.297;  532.357;28352.770
761.048;29294.271;  644.363;27325.088
761.619;29024.367;  619.369;26460.428
762.189;28938.563;  577.376;26029.826
762.760;29330.438;  659.382;26430.145
763.330;28964.053;  638.388;26670.902
763.900;28802.949;  594.394;26603.021
764.471;27284.744;  537.400;25542.740
765.041;26608.559;  692.407;24358.459
765.611;25566.814;  647.413;23991.297
766.181;25567.949;  563.419;24470.236
766.751;26119.764;  583.425;24845.975
767.321;25646.260;  540.431;24533.633
767.891;25833.115;  598.438;24916.492
768.461;26026.131;  579.444;24776.771
769.031;25397.865;  571.450;24757.988
769.601;24887.480;  671.456;24181.088
770.171;24708.695;  508.462;23670.387
770.741;24602.512;  585.469;22960.045
771.311;25056.227;  633.475;22917.523
771.880;25178.701;  553.481;23562.941
772.450;25581.098;  529.487;24216.500
773.020;25913.473;  492.493;24140.398
773.589;26188.027;  552.500;24414.857
774.159;25975.943;  562.506;23858.717
774.729;24903.098;  574.512;22942.135
775.298;23147.113;  544.518;22324.033
775.867;21418.908;  550.524;21140.313
776.437;21033.123;  604.531;20838.092
777.006;21510.920;  497.537;20599.510
777.576;22291.035;  637.543;20508.809
778.145;21939.670;  614.549;20732.947
778.714;21308.686;  617.555;21062.465
779.283;21478.281;  636.562;20949.664
779.853;21964.555;  572.568;20508.623
780.422;22239.670;  598.574;20649.082
780.991;23613.785;  599.580;21527.520
781.560;23798.422;  712.586;22632.658
782.129;23789.256;  614.593;23048.277
782.698;24008.211;  640.599;23438.555
783.267;23876.807;  553.605;23267.734
783.836;23249.863;  641.611;22415.133
784.404;22221.277;  506.617;20443.152
784.973;22062.332;  447.624;19699.150
785.542;21807.229;  566.630;19763.828
786.111;22149.703;  682.636;20341.408
786.679;22108.539;  600.642;20207.967
787.248;21458.434;  501.648;19516.465
787.817;21260.609;  559.655;18900.363
788.385;20289.764;  651.661;17879.121
788.954;19530.619;  469.667;17658.301
789.522;18845.914;  642.673;17788.879
790.090;19234.949;  528.679;18118.277
790.659;20049.846;  557.686;18338.736
791.227;19934.861;  575.692;18508.615
791.795;19549.217;  622.698;17898.254
792.364;19071.691;  521.704;17295.133
792.932;18420.227;  636.710;16822.051
793.500;18160.262;  536.717;17040.148
794.068;18340.258;  479.723;17179.787
794.636;18184.652;  523.729;16664.246
795.204;17857.967;  488.735;16524.545
795.772;18150.123;  522.741;17274.564
796.340;18457.498;  552.748;17891.002
796.908;18515.754;  505.754;17648.561
797.476;17733.768;  505.760;17064.080
798.044;17051.963;  480.766;16672.777
798.612;17374.139;  575.772;17023.996
799.180;17315.994;  596.779;16561.615
799.747;16788.910;  604.785;15962.773
800.315;16230.245;  510.791;15296.992
800.883;16150.960;  460.797;14801.771
801.450;16493.955;  615.803;14534.430
802.018;16533.990;  630.810;14173.248
802.585;16076.786;  548.816;14029.547
803.153;15506.661;  551.822;13836.846
803.720;14834.296;  546.828;13567.324
804.287;14669.451;  553.834;13360.622
804.855;14563.707;  659.841;13681.981
805.422;14203.063;  556.847;13536.560
805.989;14106.938;  529.853;13355.958
806.556;14465.053;  537.859;13747.896
807.124;15066.668;  632.865;13987.376
807.691;15389.543;  555.872;14038.674
808.258;15328.738;  586.878;14120.152
808.825;14951.434;  632.884;13860.111
809.392;14435.769;  706.890;13268.790
809.959;13697.824;  596.896;12680.389
810.526;13031.279;  719.903;12427.308
811.093;12835.074;  685.909;12030.105
811.659;12988.229;  550.915;11653.664
812.226;13122.985;  575.921;11637.183
812.793;12774.141;  606.927;11611.521
813.360;12821.516;  567.934;11885.181
813.926;13469.911;  604.940;12770.539
814.493;13476.526;  487.946;12677.638
815.060;12955.642;  475.952;11974.336
815.626;12604.637;  531.958;11594.715
816.193;12693.552;  595.965;11579.474
816.759;12583.707;  542.971;11666.972
817.325;12453.963;  491.977;11325.530
817.892;12319.918;  653.983;11105.369
818.458;11751.313;  619.989;10843.928
819.024;11507.288;  677.996;10714.406
819.591;11385.703;  596.002;10469.165
820.157;11259.539;  482.008;10235.523
820.723;11714.814;  629.014;10847.563
821.289;11945.129;  896.020;11040.980
821.855;11127.545;  667.027;10357.100
822.421;11042.800;  566.033; 9978.918
822.987;10901.875;  517.039; 9754.177
823.553;10833.530;  553.045;10065.755
824.119;10847.506;  674.051;10036.294
824.685;10948.881;  648.058;10029.192
825.251;11104.596;  645.064;10199.230
825.816;10822.012;  719.070; 9820.189
826.382;10195.767;  633.076; 9297.248
826.948;10048.182;  627.082; 9381.347
827.513; 9814.157;  568.089; 9450.726
828.079; 9898.393;  521.095; 9472.444
828.645;10455.688;  612.101; 9292.643
829.210;10449.283;  499.107; 9065.341
829.776;10248.938;  624.113; 9132.620
830.341; 9881.934;  626.120; 9092.878
830.906; 9687.009;  687.126; 9078.557
831.472; 9137.764;  506.132; 8534.535
832.037; 9409.939;  650.138; 8677.874
832.602; 9296.895;  538.144; 8628.692
833.167; 9471.310;  615.151; 8879.031
833.733; 9726.725;  648.157; 9189.790
834.298; 9787.101;  509.163; 9052.608
834.863; 9839.636;  639.169; 8895.087
835.428; 9601.110;  605.175; 8824.266
835.993; 9491.346;  606.182; 8845.385
836.558; 9275.461;  632.188; 8888.563
837.123; 9370.837;  765.194; 8966.582
837.688; 9317.492;  604.200; 8617.860
838.253; 9383.647;  609.206; 8590.699
838.817; 9258.103;  573.213; 8443.797
839.382; 9284.277;  686.219; 8799.356
839.947; 9252.033;  599.225; 8810.595
840.511; 9201.348;  700.231; 8796.394
841.076; 8630.304;  463.237; 8347.231
841.641; 8636.398;  615.244; 8224.330
842.205; 8522.454;  589.250; 8223.349
842.770; 8752.189;  714.256; 8622.107
843.334; 8805.944;  588.262; 8410.386
843.898; 8885.920;  566.268; 8337.465
844.463; 9111.375;  680.275; 8506.283
845.027; 8833.851;  589.281; 8280.962
845.591; 8653.105;  649.287; 8231.141
846.156; 8184.381;  554.293; 7969.179
846.720; 8189.276;  663.299; 7768.278
847.284; 8004.351;  612.306; 7630.957
847.848; 7950.327;  621.312; 7472.395
848.412; 8020.422;  623.318; 7437.394
848.976; 7922.677;  715.324; 7674.592
849.540; 7930.292;  764.330; 7836.011
850.104; 7991.107;  682.337; 7913.669
850.668; 8039.863;  477.343; 7694.508
851.232; 8319.218;  520.349; 7756.887
851.796; 8465.373;  594.355; 7926.545
852.359; 8214.889;  658.361; 7827.844
852.923; 7985.384;  641.368; 7641.163
853.487; 7845.559;  645.374; 7342.501
854.050; 7447.014;  400.380; 7042.820
854.614; 7500.509;  541.386; 7151.338
855.177; 7479.445;  597.392; 7105.077
855.741; 7389.380;  651.399; 6989.675
856.304; 7125.295;  663.405; 6596.634
856.868; 6893.331;  522.411; 6356.272
857.431; 7067.086;  601.417; 6468.571
857.995; 6986.441;  575.423; 6373.210
858.558; 6823.576;  642.430; 6324.448
859.121; 6865.271;  634.436; 6408.327
859.684; 6919.327;  625.442; 6347.886
860.247; 6880.742;  587.448; 6321.264
860.810; 6684.297;  536.454; 6301.903
861.374; 6992.272;  731.461; 6607.881
861.937; 6840.748;  505.467; 6408.200
862.500; 7119.983;  553.473; 6572.639
863.062; 6961.758;  526.479; 6387.297
863.625; 6775.253;  604.485; 6190.836
864.188; 6388.309;  524.492; 5807.254
864.751; 6064.384;  571.498; 5682.413
865.314; 6013.839;  605.504; 5547.492
865.876; 6133.334;  667.510; 5500.150
866.439; 6053.030;  650.516; 5415.909
867.002; 5977.105;  772.523; 5501.567
867.564; 5672.220;  708.529; 5413.946
868.127; 5442.416;  595.535; 5160.325
868.689; 5414.191;  602.541; 5133.183
869.252; 5682.046;  687.547; 5252.382
869.814; 5576.582;  530.554; 5297.141
870.377; 5742.977;  632.560; 5390.919
870.939; 5909.992;  836.566; 5599.898
871.501; 5661.887;  623.572; 5248.336
872.063; 5326.663;  470.578; 4854.235
872.626; 5197.578;  501.585; 4817.074
873.188; 5180.513;  606.591; 4987.732
873.750; 5179.948;  582.597; 4868.651
874.312; 5094.124;  534.603; 4779.330
874.874; 5345.799;  733.609; 4866.348
875.436; 5270.314;  669.616; 4718.887
875.998; 5061.129;  677.622; 4660.005
876.560; 4775.705;  677.628; 4462.964
877.122; 4458.320;  529.634; 4145.042
877.683; 4413.555;  605.640; 4056.481
878.245; 4364.870;  555.647; 3950.740
878.807; 4568.045;  617.653; 4058.958
879.369; 4412.021;  513.659; 3954.677
879.930; 4316.636;  511.665; 3941.495
880.492; 4395.691;  681.671; 4067.014
881.053; 4144.667;  542.678; 3859.633
881.615; 4050.202;  535.684; 3776.071
882.176; 3984.977;  585.690; 3734.750
882.738; 3907.432;  658.696; 3678.489
883.299; 3635.628;  475.702; 3405.407
883.860; 3610.223;  493.709; 3351.106
884.422; 3723.518;  646.715; 3394.044
884.983; 3406.933;  521.721; 3166.443
885.544; 3351.409;  621.727; 3189.802
886.105; 3319.544;  592.733; 3160.360
886.666; 3295.279;  583.740; 3093.059
887.227; 3131.534;  499.746; 2941.957
887.788; 3124.410;  615.752; 2974.836
888.349; 2830.725;  499.758; 2721.214
888.910; 2834.660;  640.764; 2696.493
889.471; 2743.035;  600.771; 2560.172
890.032; 2693.971;  584.777; 2558.190
890.593; 2680.586;  638.783; 2567.669
891.153; 2587.981;  564.789; 2460.307
891.714; 2482.677;  512.795; 2372.046
892.275; 2417.092;  512.802; 2309.505
892.835; 2483.687;  664.808; 2382.543
893.396; 2392.242;  619.814; 2295.502
893.956; 2254.438;  600.820; 2162.420
894.517; 2231.393;  604.826; 2125.439
895.077; 2183.268;  624.833; 2086.978
895.638; 2193.323;  732.839; 2126.316
896.198; 1924.099;  552.845; 1838.275
896.758; 2000.014;  656.851; 1892.813
897.319; 1875.349;  562.857; 1792.232
897.879; 1816.384;  592.864; 1762.751
898.439; 1688.580;  526.870; 1661.149
898.999; 1803.775;  610.876; 1781.468
899.559; 1756.230;  618.882; 1703.347
900.119; 1588.085;  495.888; 1537.525
900.679; 1710.621;  696.895; 1638.384
901.239; 1624.856;  619.901; 1527.902
901.799; 1530.151;  623.907; 1456.441
902.359; 1413.166;  543.913; 1357.140
902.919; 1374.122;  538.919; 1331.118
903.479; 1367.417;  536.926; 1317.257
904.038; 1309.372;  524.932; 1262.595
904.598; 1210.047;  426.938; 1152.034
905.158; 1290.763;  592.944; 1240.893
905.717; 1285.698;  559.950; 1233.691
906.277; 1266.793;  588.957; 1217.330
906.836; 1275.268;  616.963; 1222.408
907.396; 1239.744;  631.969; 1193.047
907.955; 1218.479;  648.975; 1182.526
908.515; 1151.174;  556.981; 1099.364
909.074; 1132.049;  560.988; 1092.863
909.633; 1102.565;  574.994; 1069.121
910.192; 1227.340;  721.000; 1196.460
910.752; 1063.300;  559.000; 1029.960
911.311; 1040.640;  565.000; 1009.780
911.870; 1005.940;  523.000;  971.460
912.429; 1128.840;  678.000; 1094.080
912.988; 1105.220;  659.000; 1081.060
913.547;  972.000;  514.000;  940.380
914.106; 1025.440;  629.000;  999.420
914.665; 1013.880;  620.000;  984.020
915.224; 1064.480;  646.000; 1035.760
915.782;  946.960;  556.000;  922.560
916.341; 1068.700;  680.000; 1049.840
916.900;  947.060;  569.000;  925.260
917.458;  909.320;  549.000;  884.220
918.017;  965.540;  612.000;  942.600
918.576;  925.640;  595.000;  904.440
919.134;  855.800;  513.000;  837.980
919.693;  918.900;  561.000;  893.060
920.251;  898.100;  533.000;  876.500
920.809;  867.120;  537.000;  839.580
921.368;  906.640;  568.000;  885.360
921.926;  871.860;  507.000;  842.940
922.484;  922.620;  601.000;  903.360
923.042;  903.580;  559.000;  880.340
923.601; 1020.360;  723.000;  998.680
924.159;  959.640;  631.000;  935.560
924.717;  860.820;  528.000;  841.080
925.275;  923.500;  615.000;  903.240
925.833;  799.980;  496.000;  779.320
926.391;  952.680;  618.000;  938.380
926.949;  881.340;  542.000;  857.680
927.506;  923.800;  585.000;  903.500
928.064;  898.200;  580.000;  877.580
928.622;  899.940;  573.000;  880.100
929.180;  837.620;  486.000;  814.180
929.737;  828.360;  496.000;  808.540
930.295;  953.080;  617.000;  928.480
930.853;  866.580;  535.000;  849.100
931.410;  844.320;  525.000;  821.120
931.968;  970.480;  636.000;  940.660
932.525;  941.620;  587.000;  909.380
933.082;  830.200;  485.000;  811.440
933.640;  949.820;  600.000;  925.900
934.197;  907.680;  559.000;  886.360
934.754;  912.580;  569.000;  897.780
935.312;  894.260;  518.000;  863.340
935.869; 1036.420;  665.000; 1012.980
936.426;  894.540;  567.000;  872.800
936.983;  911.520;  566.000;  889.020
937.540;  856.100;  489.000;  838.280
938.097;  964.540;  578.000;  940.120
938.654;  917.620;  551.000;  898.860
939.211;  974.560;  604.000;  952.480
939.768;  938.020;  568.000;  915.420
940.324;  928.680;  551.000;  904.200
940.881;  909.120;  534.000;  878.500
941.438; 1044.180;  650.000; 1021.200
941.995; 1018.520;  633.000;  992.560
942.551;  896.820;  493.000;  875.620
943.108;  958.600;  580.000;  937.920
943.664;  888.080;  520.000;  869.340
944.221; 1092.440;  688.000; 1088.140
944.777;  865.680;  505.000;  869.680
945.334;  883.880;  525.000;  884.840
945.890;  932.780;  585.000;  946.480
946.446;  937.900;  577.000;  947.020
947.003;  953.740;  585.000;  964.940
947.559; 1067.040;  691.000; 1063.040
948.115; 1024.620;  675.000; 1026.540
948.671;  972.000;  595.000;  967.300
949.227;  869.860;  485.000;  859.560
949.783;  855.520;  473.000;  858.900
950.339;  996.160;  604.000;  991.000
950.895; 1041.580;  604.000; 1023.840
951.451;  942.540;  532.000;  925.280
952.007; 1012.160;  615.000;  998.540
952.563;  952.740;  545.000;  937.780
953.118;  927.440;  539.000;  904.940
953.674;  959.840;  543.000;  935.780
954.230;  963.960;  531.000;  949.640
954.785;  946.420;  590.000;  936.640
955.341; 1009.220;  611.000;  998.160
955.897;  849.920;  472.000;  834.660
956.452;  978.860;  568.000;  953.840
957.008; 1107.760;  772.000; 1083.640
957.563; 1037.840;  676.000; 1009.540
958.118;  896.060;  532.000;  877.700
958.674;  967.660;  625.000;  946.780
959.229; 1035.860;  665.000; 1013.980
959.784;  860.820;  475.000;  832.400
960.339; 1028.600;  663.000; 1001.280
960.894;  994.100;  631.000;  963.760
961.449;  878.700;  543.000;  859.960
962.004; 1230.940;  863.000; 1212.840
962.559;  882.880;  550.000;  860.140
963.114;  761.080;  396.000;  742.480
963.669;  930.620;  568.000;  915.500
964.224;  897.280;  522.000;  874.340
964.779;  865.400;  460.000;  828.420
965.334; 1041.860;  714.000; 1017.860
965.888;  890.480;  509.000;  875.360
966.443;  991.820;  611.000;  972.380
966.998;  826.260;  492.000;  819.460
967.552;  919.140;  549.000;  908.380
968.107;  887.560;  518.000;  868.300
968.661;  938.120;  579.000;  922.440
969.216;  876.860;  530.000;  856.280
969.770;  938.880;  589.000;  917.200
970.324;  946.480;  581.000;  923.140
970.879;  978.380;  616.000;  947.180
971.433;  983.300;  624.000;  952.720
971.987;  919.720;  538.000;  895.340
972.541;  938.660;  603.000;  917.100
973.095; 1032.640;  667.000; 1009.460
973.649;  826.520;  493.000;  809.480
974.203;  849.980;  533.000;  829.040
974.757;  872.420;  556.000;  855.220
975.311;  897.420;  602.000;  872.600
975.865;  902.080;  582.000;  881.820
976.419;  877.760;  573.000;  857.400
976.973;  861.040;  533.000;  849.620
977.526;  974.400;  635.000;  949.920
978.080;  816.880;  494.000;  796.780
978.634;  945.020;  638.000;  921.320
979.187;  923.040;  623.000;  905.400
979.741; 1039.700;  745.000; 1018.380
980.294;  808.980;  496.000;  789.160
980.848;  735.420;  454.000;  717.220
981.401;  834.360;  542.000;  816.540
981.955;  872.840;  594.000;  844.300
982.508;  767.080;  463.000;  746.340
983.061;  936.320;  659.000;  915.260
983.615;  815.660;  524.000;  798.800
984.168;  786.960;  506.000;  770.080
984.721;  894.680;  614.000;  880.760
985.274;  876.020;  610.000;  867.500
985.827;  846.800;  574.000;  834.220
986.380;  736.520;  467.000;  721.340
986.933;  878.540;  602.000;  864.800
987.486;  866.100;  602.000;  861.920
988.039;  878.340;  630.000;  863.100
988.591;  910.300;  624.000;  893.260
989.144;  753.900;  514.000;  737.260
989.697;  771.560;  532.000;  758.740
990.250;  869.800;  634.000;  858.100
990.802;  772.140;  538.000;  755.860
991.355;  986.920;  749.000;  974.880
991.907;  876.840;  646.000;  864.320
992.460;  766.760;  543.000;  753.760
993.012;  761.780;  552.000;  749.540
993.565;  728.940;  498.000;  711.360
994.117;  966.620;  731.000;  950.780
994.669;  718.700;  508.000;  701.320
995.221;  810.640;  576.000;  791.920
995.774;  798.220;  595.000;  787.580
996.326;  756.840;  560.000;  740.220
996.878;  842.840;  676.000;  838.420
997.430;  713.000;  515.000;  699.860
997.982;  760.120;  593.000;  750.140
998.534;  752.720;  572.000;  739.060
999.086;  740.320;  561.000;  738.220
999.638;  668.140;  465.000;  661.380
1000.190;  710.380;  524.000;  699.320
1000.741;  750.080;  559.000;  742.700
1001.293;  692.560;  533.000;  686.020
1001.845;  688.660;  523.000;  676.640
1002.396;  754.140;  567.000;  743.400
1002.948;  745.720;  581.000;  737.400
1003.500;  730.920;  568.000;  723.780
1004.051;  921.740;  737.000;  907.580
1004.603;  805.060;  644.000;  791.820
1005.154;  619.660;  464.000;  608.980
1005.705;  725.200;  609.000;  723.960
1006.257;  710.540;  589.000;  707.220
1006.808;  693.880;  557.000;  685.460
1007.359;  771.420;  635.000;  763.240
1007.910;  654.040;  529.000;  646.640
1008.461;  742.340;  617.000;  732.940
1009.013;  600.560;  485.000;  588.340
1009.564;  800.860;  689.000;  793.520
1010.115;  599.800;  500.000;  597.040
1010.665;  614.680;  477.000;  602.160
1011.216;  675.240;  575.000;  667.920
1011.767;  703.140;  601.000;  697.920
1012.318;  736.540;  629.000;  736.980
1012.869;  681.880;  595.000;  679.000
1013.419;  613.660;  493.000;  603.120
1013.970;  675.080;  546.000;  666.640
1014.521;  621.420;  537.000;  620.620
1015.071;  681.840;  617.000;  670.380
1015.622;  636.580;  522.000;  635.460
1016.172;  602.120;  495.000;  596.820
1016.723;  622.700;  524.000;  614.380
1017.273;  605.100;  521.000;  604.160
1017.823;  653.940;  549.000;  650.340
1018.374;  621.960;  508.000;  611.760
1018.924;  724.140;  628.000;  716.880
1019.474;  719.100;  619.000;  718.880
1020.024;  661.500;  561.000;  657.580
1020.574;  722.260;  673.000;  726.160
1021.124;  675.900;  587.000;  673.580
1021.674;  567.060;  461.000;  559.120
1022.224;  717.020;  620.000;  708.940
1022.774;  671.080;  593.000;  668.820
1023.324;  754.260;  687.000;  753.520
1023.874;  885.220;  776.000;  875.760
1024.423;  616.700;  529.000;  613.700
1024.973;  611.720;  549.000;  610.760
1025.523;  620.560;  553.000;  620.960
1026.072;  615.700;  534.000;  606.420
1026.622;  675.300;  559.000;  675.740
1027.172;  716.460;  629.000;  715.660
1027.721;  610.660;  557.000;  601.220
1028.270;  675.580;  591.000;  663.400
1028.820;  643.860;  556.000;  638.080
1029.369;  619.080;  514.000;  612.700
1029.918;  653.340;  571.000;  649.840
1030.468;  569.540;  485.000;  564.780
1031.017;  642.400;  552.000;  634.800
1031.566;  612.320;  559.000;  608.900
1032.115;  700.460;  608.000;  694.500
1032.664;  606.920;  500.000;  596.480
1033.213;  737.240;  641.000;  735.420
1033.762;  641.360;  553.000;  635.620
1034.311;  678.760;  600.000;  677.220
1034.860;  698.300;  603.000;  691.000
1035.408;  728.280;  623.000;  722.720
1035.957;  721.600;  633.000;  719.540
1036.506;  537.340;  469.000;  530.800
1037.055;  851.380;  763.000;  844.320
1037.603;  671.540;  576.000;  664.000
1038.152;  537.200;  458.000;  534.760
1038.700;  587.060;  523.000;  585.740
1039.249;  684.980;  589.000;  681.220
1039.797;  640.960;  562.000;  633.360
1040.345;  708.680;  625.000;  705.420
1040.894;  631.280;  556.000;  625.300
1041.442;  635.260;  554.000;  632.200
1041.990;  570.720;  485.000;  559.160
1042.538;  541.480;  456.000;  536.180
1043.087;  578.960;  503.000;  570.860
1043.635;  683.820;  593.000;  670.500
1044.183;  594.360;  492.000;  586.400
1044.731;  583.240;  533.000;  576.000
1045.279;  673.760;  631.000;  674.920
1045.827;  901.820;  832.000;  892.400
1046.374;  518.760;  453.000;  515.420
1046.922;  595.620;  539.000;  590.580
1047.470;  692.360;  651.000;  691.300
1048.018;  653.040;  596.000;  647.960
1048.565;  723.240;  671.000;  708.600
1049.113;  553.940;  469.000;  557.000
1049.660;  626.820;  568.000;  629.660
1050.208;  682.540;  606.000;  675.640
1050.755;  608.080;  517.000;  606.580
1051.303;  692.600;  624.000;  686.820
1051.850;  640.640;  557.000;  635.120
1052.397;  480.940;  391.000;  473.960
1052.945;  623.420;  524.000;  617.760
1053.492;  746.020;  669.000;  741.840
1054.039;  722.200;  685.000;  720.180
1054.586;  562.920;  489.000;  557.240
1055.133;  697.300;  628.000;  693.140
1055.680;  648.660;  577.000;  646.620
1056.227;  546.040;  485.000;  542.780
1056.774;  797.560;  707.000;  794.980
1057.321;  525.260;  459.000;  523.260
1057.868;  650.420;  581.000;  651.320
1058.415;  653.160;  613.000;  651.980
1058.961;  678.540;  601.000;  678.940
1059.508;  643.500;  586.000;  643.820
1060.055;  583.680;  488.000;  581.780
1060.601;  629.660;  557.000;  624.300
1061.148;  620.180;  551.000;  616.820
1061.694;  600.500;  537.000;  592.580
1062.241;  601.340;  540.000;  596.320
1062.787;  667.260;  589.000;  663.140
1063.334;  810.740;  733.000;  808.560
1063.880;  667.820;  618.000;  668.360
1064.426;  707.700;  623.000;  706.820
1064.972;  598.660;  525.000;  601.340
1065.518;  570.380;  501.000;  566.640
1066.065;  629.780;  531.000;  624.460
1066.611;  604.020;  556.000;  598.800
1067.157;  639.360;  588.000;  641.860
1067.703;  674.580;  573.000;  668.480
1068.249;  611.720;  521.000;  605.220
1068.794;  631.700;  558.000;  626.880
1069.340;  576.680;  519.000;  578.960
1069.886;  599.300;  525.000;  590.700
1070.432;  543.080;  467.000;  541.720
1070.977;  608.560;  543.000;  601.080
1071.523;  570.480;  506.000;  573.060
1072.068;  583.440;  500.000;  582.000
1072.614;  529.360;  425.000;  527.760
1073.160;  693.480;  640.000;  687.040
1073.705;  578.020;  532.000;  572.520
1074.250;  563.880;  528.000;  559.900
1074.796;  657.320;  567.000;  655.160
1075.341;  670.960;  597.000;  664.100
1075.886;  596.200;  527.000;  594.240
1076.431;  659.760;  567.000;  649.880
1076.976;  647.640;  589.000;  639.220
1077.521;  587.520;  498.000;  583.080
1078.067;  579.440;  533.000;  579.400
1078.612;  665.960;  608.000;  661.620
1079.156;  608.300;  520.000;  601.540
1079.701;  694.880;  627.000;  693.260
1080.246;  691.860;  644.000;  696.300
1080.791;  632.260;  587.000;  625.020
1081.336;  661.020;  627.000;  659.320
1081.880;  651.900;  573.000;  649.680
1082.425;  576.620;  532.000;  573.480
1082.970;  716.520;  657.000;  717.040
1083.514;  599.540;  546.000;  597.000
1084.059;  586.360;  554.000;  586.720
1084.603;  569.600;  539.000;  565.840
1085.147;  652.480;  599.000;  645.220
1085.692;  717.380;  641.000;  716.800
1086.236;  507.520;  428.000;  503.140
1086.780;  749.120;  674.000;  751.440
1087.325;  656.620;  584.000;  654.620
1087.869;  618.520;  574.000;  610.700
1088.413;  708.400;  677.000;  705.040
1088.957;  539.360;  461.000;  543.400
1089.501;  769.120;  700.000;  766.640
1090.045;  735.800;  651.000;  726.480
1090.589;  574.640;  520.000;  569.920
1091.133;  680.260;  631.000;  673.340
1091.676;  594.680;  539.000;  591.940
1092.220;  600.700;  549.000;  600.920
1092.764;  713.640;  666.000;  706.960
1093.307;  674.580;  637.000;  673.780
1093.851;  559.840;  516.000;  556.540
1094.395;  684.760;  638.000;  683.140
1094.938;  636.060;  571.000;  632.520
1095.482;  567.080;  534.000;  559.800
1096.025;  708.620;  687.000;  710.880
1096.568;  784.600;  731.000;  779.280
1097.112;  514.060;  456.000;  508.180
1097.655;  596.260;  530.000;  603.000
1098.198;  599.160;  538.000;  600.180
1098.741;  616.480;  572.000;  612.860
1099.285;  656.600;  596.000;  657.300
1099.828;  443.360;  407.000;  439.400
1100.371;  612.240;  566.000;  608.160
1100.914;  685.740;  592.000;  682.660
1101.457;  675.760;  623.000;  679.900
1101.999;  577.240;  567.000;  584.680
1102.542;  640.760;  580.000;  641.440
1103.085;  660.580;  646.000;  658.500
1103.628;  766.200;  737.000;  762.060
1104.170;  586.060;  536.000;  588.280
1104.713;  650.780;  592.000;  646.700
1105.256;  557.980;  507.000;  557.440
1105.798;  504.780;  452.000;  499.980
1106.341;  732.120;  709.000;  728.900
1106.883;  524.480;  479.000;  521.340
1107.425;  667.760;  627.000;  668.180
1107.968;  622.500;  576.000;  612.380
1108.510;  687.660;  661.000;  684.960
1109.052;  619.020;  575.000;  612.620
1109.594;  557.480;  532.000;  554.440
1110.136;  646.880;  600.000;  643.220
1110.679;  629.940;  597.000;  633.080
1111.221;  606.180;  555.000;  604.460
1111.763;  552.720;  476.000;  559.220
1112.304;  550.440;  507.000;  547.140
1112.846;  668.220;  653.000;  666.240
1113.388;  948.920;  885.000;  942.180
1113.930;  693.360;  640.000;  694.200
1114.472;  611.660;  529.000;  606.540
1115.013;  552.740;  488.000;  551.280
1115.555;  588.640;  543.000;  587.100
1116.097;  575.020;  521.000;  579.480
1116.638;  688.040;  659.000;  684.600
1117.180;  664.500;  651.000;  667.740
1117.721;  570.120;  493.000;  568.580
1118.262;  683.820;  608.000;  677.960
1118.804;  636.700;  565.000;  637.340
1119.345;  577.540;  526.000;  578.400
1119.886;  706.700;  652.000;  704.040
1120.427;  593.100;  563.000;  589.020
1120.969;  602.780;  541.000;  597.920
1121.510;  564.580;  541.000;  563.060
1122.051;  727.020;  680.000;  723.580
1122.592;  662.360;  619.000;  655.420
1123.133;  544.900;  510.000;  547.940
1123.673;  706.360;  669.000;  706.480
1124.214;  617.060;  563.000;  612.460
1124.755;  639.960;  599.000;  639.460
1125.296;  622.000;  596.000;  627.320
1125.836;  694.600;  670.000;  691.500
1126.377;  604.880;  549.000;  599.660
1126.918;  617.660;  556.000;  614.980
1127.458;  619.920;  598.000;  622.220
1127.999;  658.360;  617.000;  656.980
1128.539;  695.540;  634.000;  694.240
1129.079;  637.540;  593.000;  632.720
1129.620;  555.220;  521.000;  558.100
1130.160;  541.980;  522.000;  539.480
1130.700;  646.920;  599.000;  640.840
1131.240;  646.140;  602.000;  643.700
1131.781;  621.560;  581.000;  619.680
1132.321;  602.480;  563.000;  599.120
1132.861;  562.400;  522.000;  564.200
1133.401;  599.200;  580.000;  593.940
1133.941;  629.360;  590.000;  626.280
1134.481;  605.180;  567.000;  597.580
1135.020;  611.600;  554.000;  609.160
1135.560;  673.860;  632.000;  674.940
1136.100;  504.140;  469.000;  501.160
1136.640;  509.380;  484.000;  510.480
1137.179;  541.360;  492.000;  537.960
1137.719;  606.460;  576.000;  605.400
1138.258;  590.320;  523.000;  587.360
1138.798;  663.940;  597.000;  663.780
1139.337;  487.040;  421.000;  482.840
1139.877;  649.320;  605.000;  642.360
1140.416;  877.760;  831.000;  878.060
1140.955;  532.820;  526.000;  535.380
1141.494;  672.660;  633.000;  669.280
1142.034;  586.640;  533.000;  583.520
1142.573;  648.860;  595.000;  646.280
1143.112;  555.160;  534.000;  553.480
1143.651;  540.940;  502.000;  536.480
1144.190;  687.960;  649.000;  691.640
1144.729;  609.460;  577.000;  607.420
1145.267;  582.920;  556.000;  584.900
1145.806;  640.720;  592.000;  637.040
1146.345;  642.020;  600.000;  635.020
1146.884;  631.480;  563.000;  622.500
1147.422;  529.340;  503.000;  533.060
1147.961;  711.000;  703.000;  708.460
1148.500;  673.820;  631.000;  669.720
1149.038;  634.500;  573.000;  632.500
1149.577;  698.000;  672.000;  698.640
1150.115;  451.100;  418.000;  452.280
1150.653;  611.300;  572.000;  607.340
1151.192;  556.100;  520.000;  552.920
1151.730;  656.320;  639.000;  652.560
1152.268;  586.860;  559.000;  589.520
1152.806;  578.820;  542.000;  571.180
1153.344;  575.980;  529.000;  577.640
1153.882;  598.520;  571.000;  600.060
1154.421;  473.720;  440.000;  470.620
1154.958;  594.180;  566.000;  595.240
1155.496;  645.020;  606.000;  645.280
1156.034;  716.220;  715.000;  721.880
1156.572;  674.540;  638.000;  667.060
1157.110;  471.180;  423.000;  473.940
1157.647;  681.800;  648.000;  676.960
1158.185;  566.440;  532.000;  564.320
1158.723;  511.320;  474.000;  509.200
1159.260;  691.300;  670.000;  701.700
1159.798;  658.900;  602.000;  658.160
1160.335;  626.340;  613.000;  631.820

