membrane
Integration time [ms]: 412.139
Averaging Nr. [scans]: 50
Smoothing Nr. [pixels]: 0
Data measured with spectrometer [name]: 7414430SP
Wave   ;Sample   ;Dark     ;Reference
[nm]   ;[counts] ;[counts] ;[counts] 

288.544;  809.650;  556.129;  793.890
289.143;  702.611;  473.960;  681.602
289.742;  852.655;  630.955;  828.814
290.341;  811.255;  604.742;  789.841
290.940;  756.390;  520.634;  730.702
291.538;  901.718;  695.774;  881.108
292.137;  808.857;  626.824;  792.581
292.736;  992.495;  804.742;  975.101
293.335;  757.002;  547.569;  735.086
293.934;  801.890;  583.590;  781.677
294.532; 1053.499;  863.618; 1031.958
295.131;  855.128;  636.289;  834.394
295.730;  826.320;  641.311;  809.588
296.328;  806.222;  623.281;  783.442
296.927;  795.511;  603.233;  779.652
297.525;  797.333;  623.290;  781.236
298.124;  662.568;  481.013;  654.009
298.722;  779.104;  604.206;  761.933
299.321;  725.996;  559.141;  708.597
299.919;  765.382;  553.073;  751.918
300.518;  705.300;  530.992;  689.338
301.116;  705.286;  544.144;  691.381
301.715;  747.312;  611.240;  730.222
302.313;  724.923;  557.199;  704.943
302.911;  746.111;  609.932;  733.830
303.509;  943.953;  789.202;  925.627
304.108;  778.168;  611.213;  760.383
304.706;  811.192;  611.227;  801.664
305.304;  812.281;  619.998;  796.707
305.902;  802.156;  618.241;  784.484
306.500;  734.779;  594.129;  728.200
307.098;  763.413;  623.102;  746.560
307.696;  801.201;  633.042;  780.432
308.294;  743.690;  589.101;  731.359
308.892;  771.999;  600.217;  759.769
309.490;  722.304;  586.062;  712.161
310.088;  802.810;  644.982;  788.444
310.686;  834.109;  684.176;  821.749
311.284;  781.020;  668.048;  766.040
311.882;  738.972;  620.983;  731.225
312.480;  706.898;  581.903;  697.167
313.078;  818.246;  681.987;  808.331
313.675;  699.599;  565.129;  691.600
314.273;  812.774;  652.896;  797.837
314.871;  595.531;  479.945;  589.829
315.468;  662.691;  535.932;  652.090
316.066;  708.991;  572.120;  694.427
316.664;  661.683;  535.892;  656.351
317.261;  914.626;  792.012;  910.128
317.859;  787.325;  642.949;  768.735
318.456;  840.677;  727.072;  830.096
319.054;  794.037;  678.972;  787.828
319.651;  766.650;  687.026;  759.928
320.249;  814.790;  705.026;  810.188
320.846;  724.558;  625.079;  714.286
321.443;  840.524;  725.030;  832.135
322.041;  817.135;  720.990;  812.315
322.638;  712.244;  609.018;  701.456
323.235;  667.923;  590.199;  665.683
323.833;  748.427;  654.125;  740.354
324.430;  622.186;  500.075;  615.900
325.027;  888.310;  786.126;  876.855
325.624;  654.803;  552.287;  644.532
326.221;  696.318;  576.223;  689.717
326.818;  826.025;  694.137;  818.332
327.415;  762.369;  657.339;  748.828
328.012;  697.808;  552.364;  690.585
328.609;  738.781;  599.299;  731.389
329.206;  791.809;  659.239;  778.621
329.803;  748.103;  638.212;  737.841
330.400;  717.484;  574.306;  704.260
330.997;  829.919;  681.229;  817.147
331.594;  803.727;  641.038;  788.185
332.191;  742.525;  565.212;  728.722
332.787;  853.930;  722.145;  844.463
333.384;  773.480;  623.948;  763.093
333.981;  818.095;  655.739;  815.687
334.578;  711.858;  555.815;  708.378
335.174;  741.037;  561.809;  731.469
335.771;  843.954;  669.664;  836.456
336.367;  728.973;  540.538;  710.631
336.964;  807.027;  648.630;  793.266
337.561;  746.286;  610.580;  731.112
338.157;  920.619;  777.365;  911.916
338.754;  800.988;  639.292;  796.589
339.350;  729.924;  573.322;  722.493
339.946;  784.019;  597.446;  773.135
340.543;  856.306;  714.147;  846.136
341.139;  725.114;  573.024;  720.836
341.735;  782.300;  621.995;  772.593
342.332;  706.513;  559.049;  691.472
342.928;  802.666;  679.091;  795.394
343.524;  771.557;  653.975;  761.684
344.120;  750.406;  598.947;  738.562
344.716;  725.008;  620.148;  723.717
345.313;  804.456;  676.138;  795.342
345.909;  630.295;  500.106;  627.336
346.505;  754.262;  634.209;  740.247
347.101;  837.270;  710.261;  827.864
347.697;  797.578;  683.339;  785.398
348.293;  632.186;  495.247;  627.244
348.889;  746.236;  619.282;  745.914
349.485;  697.810;  606.330;  688.205
350.081;  777.468;  640.348;  772.592
350.676;  692.904;  558.222;  691.606
351.272;  818.881;  716.415;  809.530
351.868;  781.830;  650.474;  780.497
352.464;  733.941;  630.403;  723.932
353.059;  661.169;  537.311;  646.017
353.655;  789.413;  684.438;  777.063
354.251;  773.157;  661.520;  759.845
354.846;  752.134;  610.344;  740.646
355.442;  755.036;  612.226;  753.071
356.038;  757.285;  635.373;  751.708
356.633;  739.801;  601.390;  728.594
357.229;  734.815;  605.338;  724.757
357.824;  718.547;  610.286;  703.600
358.420;  688.623;  535.303;  679.726
359.015;  698.337;  602.351;  695.357
359.610;  777.955;  643.395;  763.920
360.206;  616.350;  523.217;  603.240
360.801;  654.031;  522.356;  646.503
361.396;  738.779;  656.446;  725.975
361.992;  678.967;  552.286;  668.220
362.587;  674.744;  528.190;  670.160
363.182;  694.369;  598.280;  689.631
363.777;  751.463;  656.328;  738.242
364.372;  746.022;  627.309;  737.314
364.967;  687.613;  571.193;  680.744
365.563;  823.327;  665.386;  815.567
366.158;  692.385;  616.341;  685.161
366.753;  654.562;  539.397;  649.263
367.348;  745.340;  594.283;  746.056
367.942;  697.738;  606.339;  697.298
368.537;  756.053;  641.262;  754.245
369.132;  708.088;  599.305;  703.428
369.727;  649.759;  506.177;  638.079
370.322;  595.491;  504.249;  580.186
370.917;  719.124;  616.222;  710.646
371.511;  874.318;  771.295;  861.834
372.106;  784.773;  686.193;  776.964
372.701;  594.307;  500.141;  585.988
373.296;  864.626;  781.323;  863.135
373.890;  652.764;  529.190;  647.840
374.485;  706.762;  602.108;  691.199
375.079;  745.839;  642.289;  738.685
375.674;  817.493;  691.306;  812.970
376.268;  699.161;  579.190;  691.759
376.863;  585.129;  496.991;  580.327
377.457;  669.220;  578.252;  662.490
378.052;  769.802;  716.152;  764.884
378.646;  746.609;  652.155;  741.167
379.240;  728.602;  622.133;  721.176
379.835;  655.070;  609.230;  636.978
380.429;  572.101;  498.202;  562.557
381.023;  786.674;  699.112;  779.205
381.617;  683.466;  595.072;  680.106
382.212;  691.702;  592.234;  685.303
382.806;  762.740;  677.252;  760.690
383.400;  681.869;  608.123;  672.281
383.994;  666.981;  626.102;  664.870
384.588;  702.883;  648.259;  697.701
385.182;  735.438;  635.370;  726.624
385.776;  717.420;  629.296;  706.875
386.370;  685.794;  611.168;  681.968
386.964;  686.129;  594.255;  684.155
387.558;  609.284;  527.354;  598.360
388.152;  686.486;  610.204;  681.959
388.745;  819.627;  739.223;  814.707
389.339;  755.378;  660.314;  747.642
389.933;  701.630;  614.374;  695.370
390.527;  870.424;  788.278;  859.029
391.120;  597.860;  558.108;  595.318
391.714;  713.758;  636.226;  711.633
392.308;  791.466;  705.335;  780.253
392.901;  650.035;  564.231;  642.460
393.495;  600.843;  531.159;  595.414
394.089;  768.729;  720.198;  760.452
394.682;  703.522;  639.196;  697.188
395.275;  730.320;  651.195;  719.927
395.869;  672.441;  619.146;  667.314
396.462;  618.951;  566.224;  616.609
397.056;  778.747;  727.354;  776.621
397.649;  738.626;  664.160;  731.575
398.242;  717.495;  626.275;  712.645
398.836;  767.592;  710.318;  766.408
399.429;  629.836;  586.313;  631.041
400.022;  672.658;  592.151;  665.902
400.615;  811.547;  755.210;  805.609
401.208;  691.401;  652.334;  691.451
401.802;  697.273;  640.237;  699.329
402.395;  691.498;  634.151;  683.502
402.988;  702.479;  649.114;  696.627
403.581;  647.483;  614.284;  646.878
404.174;  688.449;  635.386;  686.568
404.767;  641.137;  607.220;  638.583
405.360;  629.420;  584.139;  621.445
405.953;  762.408;  727.336;  759.034
406.545;  732.955;  670.382;  725.342
407.138;  620.334;  552.225;  618.350
407.731;  620.228;  566.261;  613.303
408.324;  668.138;  649.458;  660.554
408.917;  682.218;  662.370;  681.864
409.509;  742.636;  708.269;  740.396
410.102;  644.218;  609.182;  643.948
410.695;  670.252;  622.475;  665.758
411.287;  609.128;  565.436;  599.821
411.880;  588.982;  552.409;  585.421
412.472;  612.607;  579.266;  613.092
413.065;  638.139;  611.346;  629.408
413.657;  583.418;  536.502;  576.678
414.250;  649.741;  627.490;  646.681
414.842;  673.817;  645.376;  676.353
415.434;  575.621;  512.478;  570.463
416.027;  653.532;  616.651;  652.196
416.619;  713.863;  655.504;  713.400
417.211;  598.984;  552.498;  599.352
417.804;  631.606;  571.680;  628.499
418.396;  614.006;  599.492;  607.643
418.988;  660.775;  609.570;  659.238
419.580;  567.201;  524.446;  568.276
420.172;  544.291;  493.569;  536.196
420.764;  675.470;  660.681;  672.482
421.356;  645.253;  622.638;  636.898
421.948;  674.118;  647.558;  677.661
422.540;  686.143;  647.767;  680.027
423.132;  600.194;  569.776;  600.641
423.724;  563.945;  533.617;  561.267
424.316;  622.615;  568.670;  621.345
424.908;  601.162;  572.842;  591.517
425.500;  655.784;  620.842;  647.978
426.092;  650.365;  591.849;  648.268
426.683;  696.596;  661.746;  684.836
427.275;  648.829;  613.919;  641.471
427.867;  671.908;  647.944;  668.948
428.458;  737.681;  681.942;  732.344
429.050;  689.987;  598.850;  680.749
429.642;  751.637;  707.928;  743.124
430.233;  567.133;  513.977;  569.356
430.825;  740.155;  714.959;  724.809
431.416;  703.951;  657.844;  698.241
432.008;  657.176;  613.009;  651.723
432.599;  656.824;  627.043;  656.073
433.190;  641.716;  635.877;  637.670
433.782;  595.268;  552.881;  590.395
434.373;  892.720;  824.092;  884.765
434.964;  605.893;  520.102;  602.920
435.556;  635.671;  602.964;  634.537
436.147;  760.130;  727.013;  758.490
436.738;  705.693;  648.033;  701.099
437.329;  727.970;  683.226;  721.723
437.920;  671.520;  612.904;  666.688
438.511;  571.522;  476.929;  564.526
439.103;  631.352;  587.196;  623.998
439.694;  682.214;  625.240;  681.583
440.285;  769.280;  725.192;  764.432
440.876;  852.988;  782.101;  845.738
441.466;  579.388;  526.144;  575.162
442.057;  671.021;  583.343;  665.814
442.648;  757.867;  714.194;  746.255
443.239;  628.412;  550.127;  620.477
443.830;  713.459;  658.305;  704.958
444.421;  663.676;  628.398;  655.474
445.011;  697.588;  645.169;  693.619
445.602;  751.175;  670.147;  743.126
446.193;  492.423;  420.331;  488.117
446.783;  642.778;  594.467;  640.397
447.374;  692.994;  653.196;  692.759
447.964;  716.575;  642.191;  713.770
448.555;  825.874;  744.485;  822.742
449.145;  667.063;  605.356;  662.853
449.736;  806.542;  722.305;  803.179
450.326;  726.038;  646.311;  713.626
450.917;  681.405;  584.513;  675.324
451.507;  612.851;  555.484;  600.661
452.097;  754.126;  658.420;  746.267
452.688;  744.623;  686.456;  742.160
453.278;  574.089;  478.483;  566.840
453.868;  805.474;  743.585;  793.550
454.458;  658.007;  581.470;  651.141
455.048;  721.745;  608.444;  711.783
455.639;  578.528;  486.589;  567.096
456.229;  716.956;  634.642;  710.694
456.819;  755.805;  675.645;  751.158
457.409;  782.507;  692.614;  773.993
457.999;  748.518;  673.718;  737.505
458.589;  691.736;  614.705;  686.606
459.179;  728.531;  646.672;  717.658
459.769;  637.875;  541.591;  627.099
460.358;  803.298;  713.743;  797.262
460.948;  699.116;  616.730;  689.503
461.538;  672.230;  564.753;  660.677
462.128;  669.836;  586.642;  664.934
462.717;  721.090;  598.922;  710.326
463.307;  712.587;  600.990;  705.846
463.897;  664.164;  563.770;  656.942
464.486;  851.038;  723.611;  837.128
465.076;  747.832;  650.848;  733.776
465.666;  661.622;  545.014;  652.900
466.255;  798.192;  715.804;  785.651
466.845;  682.721;  567.775;  666.749
467.434;  739.029;  641.859;  725.873
468.023;  666.091;  540.916;  658.357
468.613;  723.476;  627.705;  713.946
469.202;  655.206;  525.896;  646.507
469.791;  743.743;  626.008;  737.811
470.381;  745.470;  661.022;  742.813
470.970;  714.535;  589.999;  711.099
471.559;  746.281;  623.926;  733.291
472.148;  685.065;  533.052;  675.737
472.738;  774.853;  651.086;  765.466
473.327;  646.771;  510.060;  637.529
473.916;  750.498;  572.950;  737.446
474.505;  767.732;  636.111;  751.703
475.094;  822.343;  694.183;  806.570
475.683;  806.323;  669.108;  797.699
476.272;  741.624;  595.090;  730.632
476.861;  721.137;  580.200;  706.754
477.449;  742.712;  596.399;  728.487
478.038;  701.727;  557.090;  692.513
478.627;  728.858;  606.063;  714.852
479.216;  785.954;  627.300;  769.441
479.805;  793.980;  620.364;  783.375
480.393; 1018.340;  828.208; 1008.945
480.982;  889.314;  686.137;  874.501
481.571;  875.600;  707.377;  858.333
482.159;  722.068;  535.385;  705.386
482.748;  845.493;  664.262;  821.385
483.336;  875.379;  674.333;  858.209
483.925;  792.394;  611.281;  774.373
484.513;  777.472;  609.518;  758.962
485.102;  823.911;  635.248;  810.965
485.690; 1028.436;  838.469; 1011.050
486.278;  999.294;  769.469;  979.329
486.867;  825.531;  615.437;  809.662
487.455;  918.730;  720.374;  898.229
488.043;  767.972;  535.368;  748.361
488.631; 1030.030;  783.530; 1005.079
489.220;  935.730;  664.562;  908.626
489.808;  767.093;  505.418;  741.415
490.396;  941.684;  674.466;  914.645
490.984;  853.917;  549.464;  830.161
491.572;  968.340;  689.527;  940.315
492.160;  951.512;  652.368;  919.081
492.748;  907.049;  574.355;  884.341
493.336; 1048.836;  697.526; 1019.693
493.924;  984.724;  614.610;  958.077
494.512; 1097.706;  664.448; 1066.638
495.100; 1132.149;  668.367; 1103.280
495.687; 1246.453;  685.594; 1206.373
496.275; 1196.389;  574.555; 1150.796
496.863; 1324.401;  607.402; 1281.171
497.451; 1446.445;  554.385; 1386.805
498.038; 1631.714;  602.632; 1556.729
498.626; 1804.623;  622.603; 1741.407
499.214; 2108.854;  631.469; 2016.609
499.801; 2350.528;  611.417; 2220.633
500.389; 2471.111;  493.581; 2312.494
500.976; 2906.897;  689.564; 2744.849
501.564; 3288.692;  635.412; 3148.565
502.151; 3624.711;  431.380; 3515.999
502.738; 4102.018;  553.526; 3971.274
503.326; 4566.750;  598.637; 4403.796
503.913; 5382.544;  610.510; 5161.749
504.500; 6284.188;  659.436; 5986.420
505.088; 6838.313;  541.450; 6381.201
505.675; 7632.030;  600.630; 6925.547
506.262; 8694.773;  615.381; 7619.060
506.849;10079.760;  601.496; 8733.969
507.436;11495.892;  701.600; 9790.121
508.023;11813.126;  598.579; 9985.472
508.610;12374.281;  668.502;10434.618
509.197;13393.021;  657.295;11198.435
509.784;14582.390;  616.486;12391.194
510.371;15739.950;  496.662;13603.713
510.958;16496.895;  591.412;14426.586
511.545;17381.703;  714.459;15243.775
512.132;17777.867;  606.623;15945.876
512.719;18391.744;  562.510;16340.369
513.305;20774.178;  572.439;18011.766
513.892;23085.627;  693.347;19754.971
514.479;24357.029;  603.562;20967.805
515.066;25998.338;  709.539;22299.793
515.652;26815.232;  631.531;22908.660
516.239;28050.787;  654.473;23798.875
516.825;29977.115;  522.513;25567.275
517.412;32379.100;  781.571;28154.959
517.998;32709.309;  588.429;28344.111
518.585;30526.092;  565.380;27134.219
519.171;30212.285;  611.610;27268.576
519.758;32665.840;  499.565;28964.129
520.344;34199.129;  674.486;30664.494
520.930;35757.672;  526.330;32550.605
521.516;39125.379;  658.608;35422.895
522.103;42659.652;  739.518;38280.004
522.689;42259.023;  577.366;37835.117
523.275;40313.148;  707.404;37288.613
523.861;40819.078;  613.501;37281.395
524.447;42536.711;  697.606;37846.949
525.033;42459.742;  689.415;38321.949
525.619;42441.977;  550.357;38579.285
526.205;44074.371;  541.417;40622.875
526.791;45403.348;  624.554;42258.836
527.377;46512.719;  566.370;42966.902
527.963;45720.230;  642.292;42018.949
528.549;46733.820;  629.358;42476.828
529.135;47261.277;  566.445;41854.852
529.721;46539.531;  596.430;41237.711
530.306;45940.820;  869.358;41259.445
530.892;47326.238;  569.426;41506.047
531.478;49548.086;  556.485;43559.613
532.063;51410.055;  525.382;47695.563
532.649;53996.066;  756.260;50808.324
533.235;56481.539;  564.395;51787.500
533.820;56947.313;  682.568;52145.035
534.406;56031.023;  574.265;51133.488
534.991;54868.500;  534.371;49996.805
535.576;53149.191;  620.431;48882.852
536.162;51770.484;  834.453;46942.285
536.747;50702.609;  505.248;45711.746
537.333;53682.926;  547.259;48510.180
537.918;55908.117;  629.307;50439.891
538.503;56014.676;  608.469;50863.711
539.088;55577.328;  639.329;50906.922
539.673;56372.422;  590.302;52621.965
540.259;56200.883;  539.390;52368.094
540.844;55543.523;  520.415;50879.109
541.429;55550.449;  726.229;52077.777
542.014;56091.895;  511.175;52716.695
542.599;57810.969;  629.355;52363.281
543.184;58905.316;  539.243;53187.137
543.769;59526.867;  580.235;54697.605
544.354;57653.133;  583.256;53913.914
544.938;53006.867;  631.303;49680.164
545.523;50225.305;  738.379;47386.277
546.108;52707.875;  595.225;49151.949
546.693;55383.547;  596.134;51384.637
547.278;54237.027;  581.335;51853.254
547.862;52333.066;  617.442;51173.750
548.447;53385.379;  689.201;51691.395
549.031;54032.551;  571.098;52456.703
549.616;54535.672;  628.324;52714.516
550.201;54818.402;  560.283;52414.598
550.785;55472.051;  664.217;52355.059
551.370;57322.809;  518.172;54589.453
551.954;60582.227;  671.209;58267.348
552.538;60971.438;  716.282;59062.176
553.123;61114.016;  548.181;58115.285
553.707;58573.160;  580.044;56556.285
554.291;57002.195;  703.237;56201.668
554.876;55045.965;  687.191;55335.762
555.460;54009.773;  578.111;54155.703
556.044;56108.164;  569.989;53721.484
556.628;57498.586;  604.159;53731.016
557.212;56450.840;  705.320;54312.531
557.796;54899.605;  583.159;53797.773
558.380;56473.090;  629.003;56145.984
558.964;58078.262;  611.252;57277.930
559.548;59461.816;  520.244;56459.641
560.132;58211.430;  588.097;54434.543
560.716;57469.875;  513.012;54800.617
561.300;59666.477;  526.275;57606.945
561.884;60445.102;  661.139;58972.445
562.467;60384.262;  654.020;57327.570
563.051;60086.215;  618.024;54962.434
563.635;57276.258;  580.063;52594.473
564.219;54244.648;  589.142;50610.410
564.802;52736.277;  648.000;49551.180
565.386;52050.750;  619.035;48370.953
565.969;52121.719;  689.226;48178.871
566.553;52483.113;  768.086;49957.305
567.136;52296.707;  695.997;50369.594
567.720;51418.887;  619.934;49492.004
568.303;52351.527;  621.022;50616.352
568.887;53430.125;  646.059;50727.148
569.470;54171.793;  631.891;51698.379
570.053;54146.594;  659.917;52122.078
570.637;56259.266;  558.134;52536.438
571.220;56703.090;  654.148;51186.098
571.803;57073.109;  776.878;51032.762
572.386;54576.199;  555.963;49609.887
572.969;53145.363;  574.046;48285.926
573.552;52226.055;  601.005;47624.285
574.135;49918.742;  536.851;45498.641
574.718;44998.777;  541.968;41970.434
575.301;44994.613;  548.436;41447.137
575.884;44990.449;  554.903;40923.836
576.467;48345.488;  701.934;45267.723
577.050;50405.039;  603.894;48175.543
577.633;51088.828;  781.047;47729.328
578.216;51122.680;  599.913;47579.793
578.799;51955.281;  610.820;47820.996
579.381;52608.504;  766.939;48115.551
579.964;50175.602;  564.044;47333.766
580.547;49217.945;  601.896;46668.969
581.129;48232.664;  725.782;44466.141
581.712;48840.219;  648.744;44164.922
582.294;50508.355;  614.930;46477.855
582.877;51429.551;  769.954;48244.254
583.459;50296.004;  602.752;47437.895
584.042;50707.836;  576.755;46943.219
584.624;50317.969;  565.733;46792.227
585.206;49528.293;  460.910;46557.250
585.789;48247.070;  590.779;45793.773
586.371;45821.660;  626.681;43836.391
586.953;45546.090;  661.790;42972.492
587.536;45621.238;  738.913;42487.211
588.118;44816.113;  617.534;42086.414
588.700;46558.344;  760.707;43389.930
589.282;47767.953;  634.823;43646.039
589.864;46886.742;  610.776;43438.109
590.446;46519.863;  496.651;43151.926
591.028;46413.211;  620.678;42781.867
591.610;47013.676;  483.767;42839.098
592.192;46723.195;  588.824;42820.402
592.774;44403.125;  554.714;40724.277
593.356;42889.910;  581.572;39874.789
593.937;42764.684;  573.801;39980.648
594.519;45525.289;  693.777;42069.633
595.101;47138.406;  541.613;42976.031
595.683;47505.254;  574.578;44084.441
596.264;46238.918;  600.780;43478.797
596.846;46273.609;  584.709;43803.672
597.427;45785.605;  562.532;42986.934
598.009;46345.281;  556.524;42832.219
598.591;45951.594;  644.704;42580.086
599.172;46031.563;  605.676;43061.805
599.753;45228.297;  519.542;41691.469
600.335;44313.109;  678.483;40692.520
600.916;42946.121;  613.581;39982.422
601.498;43285.520;  643.630;40318.617
602.079;44418.246;  598.545;40670.609
602.660;45100.797;  557.510;41450.898
603.241;44909.395;  494.685;41137.738
603.823;43664.004;  564.645;38868.797
604.404;42910.824;  507.500;38182.785
604.985;43227.402;  558.474;38078.047
605.566;43438.051;  668.697;38056.633
606.147;42067.172;  572.428;37020.418
606.728;42352.543;  535.400;37883.359
607.309;42817.352;  545.466;38748.273
607.890;42125.938;  558.599;38850.230
608.471;40488.332;  525.510;37457.918
609.051;40051.496;  627.304;36066.457
609.632;40986.340;  551.330;35991.074
610.213;42814.070;  574.483;37402.641
610.794;43363.793;  594.459;38383.363
611.374;44992.246;  634.432;40562.387
611.955;43937.488;  501.364;38533.727
612.536;43679.309;  617.489;36951.789
613.116;43472.043;  584.462;37197.891
613.697;43725.875;  566.297;38411.125
614.277;43653.172;  554.264;38673.938
614.858;41358.953;  578.472;37075.863
615.438;38646.246;  618.488;35092.906
616.019;37995.375;  727.253;33666.301
616.599;39049.703;  472.337;34189.023
617.179;41889.867;  528.420;36952.047
617.760;44667.320;  798.506;39582.574
618.340;44904.535;  638.221;38943.977
618.920;43735.578;  753.305;37594.156
619.500;43565.313;  575.209;37866.938
620.080;43067.730;  539.308;37869.043
620.660;42846.840;  508.086;36868.617
621.241;43302.957;  556.229;36352.309
621.821;42109.055;  604.278;35459.520
622.401;41113.133;  691.302;35207.414
622.980;41460.754;  533.171;35980.422
623.560;43368.246;  559.244;37351.328
624.140;41018.746;  619.307;34388.582
624.720;39114.324;  641.281;32368.764
625.300;39045.520;  525.299;32638.629
625.880;40514.977;  584.166;34599.035
626.459;41913.465;  585.263;36831.738
627.039;43661.469;  505.195;38299.098
627.619;43906.938;  760.084;38289.574
628.198;42642.949;  678.125;37220.695
628.778;44163.805;  647.281;37632.563
629.357;44392.355;  500.272;38003.012
629.937;43495.871;  552.102;38402.039
630.516;41920.379;  723.116;37868.801
631.096;40279.613;  576.272;35760.410
631.675;39851.691;  727.033;35225.219
632.254;38195.797;  558.972;35130.289
632.834;37606.148;  579.013;35794.570
633.413;37931.859;  723.198;35788.922
633.992;37665.715;  669.022;34532.863
634.571;38050.117;  628.934;33590.113
635.151;40979.770;  536.982;34943.863
635.730;41418.438;  579.185;35352.523
636.309;41186.746;  645.119;35366.605
636.888;41333.328;  654.019;36165.637
637.467;42566.176;  489.940;37515.902
638.046;44964.090;  736.126;39288.695
638.625;44317.008;  689.019;38279.699
639.204;43537.219;  609.910;37741.598
639.782;43075.898;  581.809;38364.551
640.361;41487.543;  694.061;36740.621
640.940;39357.855;  573.067;34950.082
641.519;38771.902;  648.074;34137.398
642.097;39673.113;  614.080;35654.258
642.676;38857.020;  608.086;35637.957
643.255;38768.230;  594.092;36567.074
643.833;40439.559;  674.098;37809.434
644.412;41640.129;  553.104;37337.293
644.990;41382.320;  574.111;37018.531
645.569;40597.906;  661.117;36518.469
646.147;39831.477;  702.123;36186.430
646.726;38947.785;  600.129;36267.688
647.304;39140.156;  556.135;36647.625
647.882;42452.305;  480.142;39286.742
648.461;43131.273;  616.148;39157.703
649.039;39598.504;  654.154;35412.883
649.617;38191.813;  649.160;34744.918
650.195;39037.223;  643.167;35403.098
650.773;39426.590;  587.173;35053.797
651.352;39191.402;  469.179;33756.816
651.930;37172.031;  458.185;31868.773
652.508;38158.480;  676.191;33121.551
653.086;38335.930;  633.198;33564.793
653.663;38964.598;  549.204;34054.668
654.241;41343.508;  508.210;35693.309
654.819;43145.957;  542.216;36422.906
655.397;44801.105;  551.222;38213.484
655.975;45046.055;  596.229;39507.625
656.553;43849.125;  730.235;39498.223
657.130;44295.172;  555.241;40395.480
657.708;44677.461;  642.247;39242.020
658.286;44760.434;  585.253;38920.020
658.863;44650.102;  617.260;40202.898
659.441;43622.250;  612.266;39677.938
660.018;45176.859;  607.272;40413.355
660.596;44597.391;  504.278;39931.414
661.173;42991.477;  566.284;39604.531
661.750;42857.328;  524.291;39700.070
662.328;42903.195;  631.297;39292.809
662.905;41622.746;  561.303;38235.648
663.482;40890.836;  583.309;36212.305
664.060;40451.004;  542.315;35944.945
664.637;39206.652;  635.322;35170.785
665.214;37542.563;  617.328;34197.523
665.791;38172.230;  606.334;34549.520
666.368;37860.742;  549.340;35118.578
666.945;37793.551;  666.346;36019.418
667.522;37549.980;  545.353;36048.438
668.099;38312.168;  572.359;36243.914
668.676;39804.078;  606.365;35958.875
669.253;41244.848;  738.371;37384.730
669.830;40246.738;  714.377;36779.629
670.407;38344.387;  588.384;35231.289
670.984;38915.637;  625.390;35544.270
671.560;37991.887;  652.396;35466.867
672.137;36722.535;  576.402;34280.863
672.714;37206.922;  612.408;34632.863
673.290;37868.973;  631.415;35135.422
673.867;37696.781;  548.421;36114.480
674.443;37261.492;  509.427;36152.859
675.020;37012.141;  617.433;35327.238
675.596;38713.191;  609.439;35795.176
676.173;39831.699;  529.446;35430.355
676.749;38456.230;  443.452;33549.516
677.326;36402.758;  492.458;32210.012
677.902;36089.688;  520.464;32068.871
678.478;36637.055;  562.470;32583.891
679.054;36049.266;  888.477;32088.928
679.631;35476.914;  613.483;30978.848
680.207;38023.863;  777.489;33160.887
680.783;39636.055;  503.495;35570.363
681.359;38798.582;  594.501;36125.184
681.935;38194.953;  605.508;35240.922
682.511;37518.242;  644.514;34429.961
683.087;36806.492;  640.520;34463.680
683.663;36740.680;  533.526;34648.898
684.239;37024.070;  528.532;34546.457
684.815;39038.617;  662.539;35586.375
685.390;39258.188;  747.545;35821.895
685.966;38235.855;  601.551;35085.871
686.542;37699.047;  514.557;34198.230
687.118;36473.594;  611.563;32847.707
687.693;36389.387;  628.570;32794.027
688.269;36120.934;  575.576;33072.367
688.844;36647.402;  650.582;33141.664
689.420;38214.031;  604.588;33965.742
689.995;38411.383;  711.594;34655.523
690.571;36839.672;  699.601;33576.742
691.146;35538.742;  567.607;32657.219
691.722;35436.770;  610.613;32526.979
692.297;35922.000;  591.619;33014.617
692.872;37115.770;  533.625;34012.254
693.448;38123.059;  513.632;34237.434
694.023;38262.809;  633.638;34142.672
694.598;38507.457;  610.644;34132.031
695.173;38588.344;  545.650;34205.250
695.748;36160.094;  464.656;32882.488
696.323;34865.742;  594.663;32864.906
696.898;34964.754;  690.669;33170.004
697.473;35073.082;  476.675;32432.984
698.048;34413.090;  560.681;31649.303
698.623;34071.480;  515.687;30778.141
699.198;35033.590;  590.694;31140.119
699.773;35733.559;  522.700;31764.299
700.348;35953.668;  527.706;31780.816
700.922;36539.059;  623.712;32046.375
701.497;37072.289;  571.718;32603.574
702.072;38172.078;  638.725;34799.871
702.646;38977.906;  642.731;35793.172
703.221;39241.035;  635.737;35201.590
703.795;39347.625;  513.743;34764.527
704.370;37994.215;  403.749;34307.367
704.944;36762.664;  566.756;33509.887
705.519;35009.273;  632.762;31388.584
706.093;35534.082;  545.768;31340.104
706.668;36442.391;  664.774;32630.281
707.242;35801.262;  641.780;32728.779
707.816;35492.410;  606.787;32947.238
708.390;35413.438;  583.793;33277.855
708.965;36214.387;  606.799;33834.336
709.539;36229.176;  585.805;33709.273
710.113;35777.945;  622.811;33044.313
710.687;34967.496;  660.818;31953.992
711.261;33175.746;  503.824;30505.949
711.835;33294.516;  532.830;30262.369
712.409;34459.145;  492.836;31254.447
712.983;35637.453;  462.842;32754.986
713.557;36010.723;  495.849;34018.824
714.131;36012.410;  567.855;34579.625
714.704;34220.762;  539.861;33890.262
715.278;33909.230;  615.867;33531.102
715.852;34385.039;  646.873;33601.660
716.425;34636.508;  745.880;33515.117
716.999;34001.176;  483.886;33185.555
717.573;34654.328;  643.892;33905.996
718.146;37070.535;  735.898;35199.293
718.720;38308.184;  592.904;35060.551
719.293;37604.316;  640.911;34973.230
719.867;38571.805;  559.917;36394.449
720.440;39068.652;  701.923;36663.008
721.013;37878.082;  561.929;35102.426
721.587;38069.191;  497.935;33985.266
722.160;38521.422;  641.942;33524.965
722.733;37394.152;  595.948;32987.043
723.306;36759.699;  604.954;33066.301
723.880;37391.949;  600.960;33399.500
724.453;38075.020;  676.966;33468.297
725.026;39073.926;  562.973;33816.637
725.599;36765.777;  595.979;32797.996
726.172;36649.387;  629.985;33187.434
726.745;38447.074;  617.991;35136.613
727.318;38825.504;  671.997;35751.730
727.891;38628.773;  583.004;35890.430
728.463;37581.324;  600.010;34822.090
729.036;35549.512;  533.016;32895.086
729.609;34748.301;  503.022;31823.225
730.182;33894.711;  632.028;31445.283
730.754;34441.082;  441.035;32373.223
731.327;35690.570;  626.041;33676.820
731.900;35813.738;  498.047;33417.000
732.472;34480.969;  591.053;31978.498
733.045;33721.039;  564.059;30368.777
733.617;34267.887;  484.066;30574.215
734.190;34466.414;  613.072;31280.975
734.762;34712.625;  591.078;31674.412
735.334;34067.996;  613.084;31247.291
735.907;32987.223;  612.090;29876.211
736.479;33180.234;  640.097;29808.488
737.051;34232.523;  622.103;30233.547
737.623;36203.070;  641.109;31469.086
738.195;36849.422;  570.115;31784.225
738.768;36680.469;  432.121;32120.523
739.340;36245.559;  538.128;32094.342
739.912;35135.047;  651.134;31312.680
740.484;34878.938;  618.140;31946.238
741.056;35944.348;  561.146;32984.059
741.628;36882.898;  538.152;33897.715
742.199;35969.926;  683.159;33213.016
742.771;33918.375;  495.165;31369.113
743.343;34511.543;  523.171;31865.473
743.915;34700.875;  622.177;32388.631
744.487;33105.344;  661.183;31079.568
745.058;32432.473;  633.190;30570.107
745.630;31839.801;  653.196;29970.127
746.201;31678.551;  525.202;29186.766
746.773;31770.279;  621.208;28805.723
747.344;31516.809;  596.214;29591.223
747.916;32835.117;  614.221;31412.201
748.487;33382.969;  650.227;32194.898
749.059;33393.316;  528.233;32533.719
749.630;33139.785;  572.239;32158.518
750.201;31856.615;  606.245;30855.395
750.773;30121.266;  513.252;28622.555
751.344;30327.773;  601.258;28405.732
751.915;30123.824;  584.264;28461.551
752.486;29683.793;  538.270;27842.850
753.057;30360.463;  613.276;27845.008
753.628;29968.332;  552.283;27728.107
754.199;28148.781;  542.289;27381.086
754.770;26599.869;  614.295;25882.203
755.341;27455.500;  649.301;25886.184
755.912;27567.549;  610.307;26050.861
756.483;28196.637;  630.314;26798.779
757.054;28635.287;  549.320;27048.238
757.625;28172.436;  521.326;26294.838
758.195;27900.545;  512.332;26142.076
758.766;27634.455;  611.338;26392.234
759.337;27732.523;  511.345;26334.594
759.907;29065.232;  494.351;27579.652
760.478;29269.902;  532.357;28352.770
761.048;28250.291;  644.363;27325.088
761.619;27899.141;  619.369;26460.428
762.189;27962.930;  577.376;26029.826
762.760;28101.859;  659.382;26430.145
763.330;27404.270;  638.388;26670.902
763.900;26777.379;  594.394;26603.021
764.471;26041.787;  537.400;25542.740
765.041;25416.496;  692.407;24358.459
765.611;24664.926;  647.413;23991.297
766.181;25035.455;  563.419;24470.236
766.751;25274.484;  583.425;24845.975
767.321;24563.814;  540.431;24533.633
767.891;24782.443;  598.438;24916.492
768.461;24707.232;  579.444;24776.771
769.031;24518.982;  571.450;24757.988
769.601;24358.471;  671.456;24181.088
770.171;23727.320;  508.462;23670.387
770.741;23637.289;  585.469;22960.045
771.311;24045.738;  633.475;22917.523
771.880;24308.248;  553.481;23562.941
772.450;24489.277;  529.487;24216.500
773.020;24441.826;  492.493;24140.398
773.589;24882.896;  552.500;24414.857
774.159;24831.705;  562.506;23858.717
774.729;23879.295;  574.512;22942.135
775.298;21986.863;  544.518;22324.033
775.867;20499.973;  550.524;21140.313
776.437;20209.402;  604.531;20838.092
777.006;20489.191;  497.537;20599.510
777.576;20825.121;  637.543;20508.809
778.145;20681.150;  614.549;20732.947
778.714;20484.020;  617.555;21062.465
779.283;20419.008;  636.562;20949.664
779.853;20383.617;  572.568;20508.623
780.422;21008.787;  598.574;20649.082
780.991;22378.816;  599.580;21527.520
781.560;23138.465;  712.586;22632.658
782.129;23319.115;  614.593;23048.277
782.698;22881.125;  640.599;23438.555
783.267;22668.373;  553.605;23267.734
783.836;22308.643;  641.611;22415.133
784.404;21032.852;  506.617;20443.152
784.973;20929.582;  447.624;19699.150
785.542;20912.191;  566.630;19763.828
786.111;21173.580;  682.636;20341.408
786.679;21020.309;  600.642;20207.967
787.248;20591.178;  501.648;19516.465
787.817;20190.627;  559.655;18900.363
788.385;19556.678;  651.661;17879.121
788.954;18821.346;  469.667;17658.301
789.522;18174.035;  642.673;17788.879
790.090;18284.645;  528.679;18118.277
790.659;18890.715;  557.686;18338.736
791.227;18985.783;  575.692;18508.615
791.795;18447.553;  622.698;17898.254
792.364;17456.361;  521.704;17295.133
792.932;16777.531;  636.710;16822.051
793.500;16944.680;  536.717;17040.148
794.068;17464.230;  479.723;17179.787
794.636;17499.340;  523.729;16664.246
795.204;17621.988;  488.735;16524.545
795.772;17560.537;  522.741;17274.564
796.340;17696.666;  552.748;17891.002
796.908;17876.496;  505.754;17648.561
797.476;17335.926;  505.760;17064.080
798.044;16787.494;  480.766;16672.777
798.612;16978.904;  575.772;17023.996
799.180;16373.333;  596.779;16561.615
799.747;15984.542;  604.785;15962.773
800.315;15886.432;  510.791;15296.992
800.883;16170.301;  460.797;14801.771
801.450;16041.650;  615.803;14534.430
802.018;15741.399;  630.810;14173.248
802.585;15532.269;  548.816;14029.547
803.153;14949.058;  551.822;13836.846
803.720;14549.107;  546.828;13567.324
804.287;14501.137;  553.834;13360.622
804.855;14361.666;  659.841;13681.981
805.422;13798.795;  556.847;13536.560
805.989;13697.044;  529.853;13355.958
806.556;14466.054;  537.859;13747.896
807.124;14622.703;  632.865;13987.376
807.691;14852.192;  555.872;14038.674
808.258;15204.661;  586.878;14120.152
808.825;14432.110;  632.884;13860.111
809.392;13629.280;  706.890;13268.790
809.959;13048.949;  596.896;12680.389
810.526;12669.818;  719.903;12427.308
811.093;12286.268;  685.909;12030.105
811.659;12036.938;  550.915;11653.664
812.226;12302.206;  575.921;11637.183
812.793;12200.996;  606.927;11611.521
813.360;12294.265;  567.934;11885.181
813.926;12837.634;  604.940;12770.539
814.493;12736.283;  487.946;12677.638
815.060;11987.313;  475.952;11974.336
815.626;11913.063;  531.958;11594.715
816.193;11962.352;  595.965;11579.474
816.759;11764.221;  542.971;11666.972
817.325;11779.030;  491.977;11325.530
817.892;11702.619;  653.983;11105.369
818.458;11151.269;  619.989;10843.928
819.024;10859.578;  677.996;10714.406
819.591;10662.927;  596.002;10469.165
820.157;10829.036;  482.008;10235.523
820.723;11340.086;  629.014;10847.563
821.289;11407.075;  896.020;11040.980
821.855;10705.624;  667.027;10357.100
822.421;10395.733;  566.033; 9978.918
822.987;10275.303;  517.039; 9754.177
823.553;10456.012;  553.045;10065.755
824.119;10507.281;  674.051;10036.294
824.685;10541.870;  648.058;10029.192
825.251;10673.880;  645.064;10199.230
825.816;10653.189;  719.070; 9820.189
826.382; 9874.679;  633.076; 9297.248
826.948; 9615.088;  627.082; 9381.347
827.513; 9307.997;  568.089; 9450.726
828.079; 9298.806;  521.095; 9472.444
828.645; 9577.556;  612.101; 9292.643
829.210; 9903.625;  499.107; 9065.341
829.776; 9969.634;  624.113; 9132.620
830.341; 9567.523;  626.120; 9092.878
830.906; 9132.612;  687.126; 9078.557
831.472; 8863.542;  506.132; 8534.535
832.037; 9136.411;  650.138; 8677.874
832.602; 8888.420;  538.144; 8628.692
833.167; 9058.630;  615.151; 8879.031
833.733; 9097.019;  648.157; 9189.790
834.298; 9080.328;  509.163; 9052.608
834.863; 9033.617;  639.169; 8895.087
835.428; 9009.547;  605.175; 8824.266
835.993; 8875.855;  606.182; 8845.385
836.558; 8779.965;  632.188; 8888.563
837.123; 8828.334;  765.194; 8966.582
837.688; 8686.144;  604.200; 8617.860
838.253; 8674.253;  609.206; 8590.699
838.817; 8571.782;  573.213; 8443.797
839.382; 8776.892;  686.219; 8799.356
839.947; 8798.121;  599.225; 8810.595
840.511; 8797.550;  700.231; 8796.394
841.076; 8335.079;  463.237; 8347.231
841.641; 8219.749;  615.244; 8224.330
842.205; 8089.298;  589.250; 8223.349
842.770; 8441.188;  714.256; 8622.107
843.334; 8481.916;  588.262; 8410.386
843.898; 8642.666;  566.268; 8337.465
844.463; 8669.035;  680.275; 8506.283
845.027; 8453.185;  589.281; 8280.962
845.591; 8500.014;  649.287; 8231.141
846.156; 8222.043;  554.293; 7969.179
846.720; 7994.412;  663.299; 7768.278
847.284; 7768.881;  612.306; 7630.957
847.848; 7609.730;  621.312; 7472.395
848.412; 7656.160;  623.318; 7437.394
848.976; 7688.649;  715.324; 7674.592
849.540; 7613.119;  764.330; 7836.011
850.104; 7543.448;  682.337; 7913.669
850.668; 7346.557;  477.343; 7694.508
851.232; 7650.506;  520.349; 7756.887
851.796; 7860.036;  594.355; 7926.545
852.359; 7751.985;  658.361; 7827.844
852.923; 7564.434;  641.368; 7641.163
853.487; 7226.843;  645.374; 7342.501
854.050; 6939.673;  400.380; 7042.820
854.614; 7073.622;  541.386; 7151.338
855.177; 7191.291;  597.392; 7105.077
855.741; 7262.541;  651.399; 6989.675
856.304; 7198.570;  663.405; 6596.634
856.868; 6769.479;  522.411; 6356.272
857.431; 6607.288;  601.417; 6468.571
857.995; 6680.757;  575.423; 6373.210
858.558; 6624.087;  642.430; 6324.448
859.121; 6567.096;  634.436; 6408.327
859.684; 6395.485;  625.442; 6347.886
860.247; 6234.535;  587.448; 6321.264
860.810; 6258.704;  536.454; 6301.903
861.374; 6631.273;  731.461; 6607.881
861.937; 6410.322;  505.467; 6408.200
862.500; 6659.692;  553.473; 6572.639
863.062; 6606.341;  526.479; 6387.297
863.625; 6359.570;  604.485; 6190.836
864.188; 5961.319;  524.492; 5807.254
864.751; 5671.349;  571.498; 5682.413
865.314; 5570.638;  605.504; 5547.492
865.876; 5728.907;  667.510; 5500.150
866.439; 5730.017;  650.516; 5415.909
867.002; 5680.786;  772.523; 5501.567
867.564; 5449.235;  708.529; 5413.946
868.127; 5204.084;  595.535; 5160.325
868.689; 5154.234;  602.541; 5133.183
869.252; 5322.623;  687.547; 5252.382
869.814; 5233.492;  530.554; 5297.141
870.377; 5335.122;  632.560; 5390.919
870.939; 5527.891;  836.566; 5599.898
871.501; 5207.680;  623.572; 5248.336
872.063; 4936.189;  470.578; 4854.235
872.626; 5010.379;  501.585; 4817.074
873.188; 5091.968;  606.591; 4987.732
873.750; 5051.217;  582.597; 4868.651
874.312; 4948.006;  534.603; 4779.330
874.874; 5102.916;  733.609; 4866.348
875.436; 4973.745;  669.616; 4718.887
875.998; 4764.634;  677.622; 4660.005
876.560; 4570.523;  677.628; 4462.964
877.122; 4266.933;  529.634; 4145.042
877.683; 4242.182;  605.640; 4056.481
878.245; 4180.491;  555.647; 3950.740
878.807; 4215.000;  617.653; 4058.958
879.369; 4090.310;  513.659; 3954.677
879.930; 4043.399;  511.665; 3941.495
880.492; 4199.849;  681.671; 4067.014
881.053; 4005.218;  542.678; 3859.633
881.615; 3859.427;  535.684; 3776.071
882.176; 3735.396;  585.690; 3734.750
882.738; 3736.106;  658.696; 3678.489
883.299; 3484.955;  475.702; 3405.407
883.860; 3378.744;  493.709; 3351.106
884.422; 3381.173;  646.715; 3394.044
884.983; 3146.823;  521.721; 3166.443
885.544; 3178.772;  621.727; 3189.802
886.105; 3189.341;  592.733; 3160.360
886.666; 3151.450;  583.740; 3093.059
887.227; 3006.960;  499.746; 2941.957
887.788; 2951.649;  615.752; 2974.836
888.349; 2711.578;  499.758; 2721.214
888.910; 2718.948;  640.764; 2696.493
889.471; 2639.957;  600.771; 2560.172
890.032; 2592.426;  584.777; 2558.190
890.593; 2603.475;  638.783; 2567.669
891.153; 2506.845;  564.789; 2460.307
891.714; 2392.334;  512.795; 2372.046
892.275; 2362.823;  512.802; 2309.505
892.835; 2400.073;  664.808; 2382.543
893.396; 2305.122;  619.814; 2295.502
893.956; 2163.471;  600.820; 2162.420
894.517; 2135.180;  604.826; 2125.439
895.077; 2069.150;  624.833; 2086.978
895.638; 2107.499;  732.839; 2126.316
896.198; 1824.148;  552.845; 1838.275
896.758; 1876.137;  656.851; 1892.813
897.319; 1760.807;  562.857; 1792.232
897.879; 1745.796;  592.864; 1762.751
898.439; 1652.045;  526.870; 1661.149
898.999; 1780.734;  610.876; 1781.468
899.559; 1708.764;  618.882; 1703.347
900.119; 1537.353;  495.888; 1537.525
900.679; 1669.242;  696.895; 1638.384
901.239; 1540.852;  619.901; 1527.902
901.799; 1457.601;  623.907; 1456.441
902.359; 1351.730;  543.913; 1357.140
902.919; 1323.439;  538.919; 1331.118
903.479; 1303.029;  536.926; 1317.257
904.038; 1271.878;  524.932; 1262.595
904.598; 1170.787;  426.938; 1152.034
905.158; 1251.137;  592.944; 1240.893
905.717; 1246.486;  559.950; 1233.691
906.277; 1230.175;  588.957; 1217.330
906.836; 1238.944;  616.963; 1222.408
907.396; 1209.454;  631.969; 1193.047
907.955; 1194.043;  648.975; 1182.526
908.515; 1105.692;  556.981; 1099.364
909.074; 1093.621;  560.988; 1092.863
909.633; 1084.451;  574.994; 1069.121
910.192; 1211.220;  721.000; 1196.460
910.752; 1048.720;  559.000; 1029.960
911.311; 1018.380;  565.000; 1009.780
911.870;  989.340;  523.000;  971.460
912.429; 1112.480;  678.000; 1094.080
912.988; 1088.000;  659.000; 1081.060
913.547;  949.060;  514.000;  940.380
914.106; 1014.100;  629.000;  999.420
914.665;  990.300;  620.000;  984.020
915.224; 1042.360;  646.000; 1035.760
915.782;  930.960;  556.000;  922.560
916.341; 1061.200;  680.000; 1049.840
916.900;  928.600;  569.000;  925.260
917.458;  895.320;  549.000;  884.220
918.017;  950.700;  612.000;  942.600
918.576;  917.200;  595.000;  904.440
919.134;  844.860;  513.000;  837.980
919.693;  904.940;  561.000;  893.060
920.251;  890.480;  533.000;  876.500
920.809;  848.560;  537.000;  839.580
921.368;  896.540;  568.000;  885.360
921.926;  853.540;  507.000;  842.940
922.484;  914.180;  601.000;  903.360
923.042;  890.420;  559.000;  880.340
923.601; 1006.760;  723.000;  998.680
924.159;  949.300;  631.000;  935.560
924.717;  853.140;  528.000;  841.080
925.275;  909.920;  615.000;  903.240
925.833;  792.300;  496.000;  779.320
926.391;  944.480;  618.000;  938.380
926.949;  868.480;  542.000;  857.680
927.506;  916.160;  585.000;  903.500
928.064;  888.280;  580.000;  877.580
928.622;  894.200;  573.000;  880.100
929.180;  820.780;  486.000;  814.180
929.737;  813.940;  496.000;  808.540
930.295;  936.680;  617.000;  928.480
930.853;  860.700;  535.000;  849.100
931.410;  828.240;  525.000;  821.120
931.968;  960.580;  636.000;  940.660
932.525;  916.420;  587.000;  909.380
933.082;  818.040;  485.000;  811.440
933.640;  934.460;  600.000;  925.900
934.197;  896.240;  559.000;  886.360
934.754;  895.240;  569.000;  897.780
935.312;  872.180;  518.000;  863.340
935.869; 1019.800;  665.000; 1012.980
936.426;  880.100;  567.000;  872.800
936.983;  893.780;  566.000;  889.020
937.540;  839.380;  489.000;  838.280
938.097;  946.900;  578.000;  940.120
938.654;  895.600;  551.000;  898.860
939.211;  957.060;  604.000;  952.480
939.768;  922.200;  568.000;  915.420
940.324;  909.740;  551.000;  904.200
940.881;  891.540;  534.000;  878.500
941.438; 1029.520;  650.000; 1021.200
941.995;  989.520;  633.000;  992.560
942.551;  875.060;  493.000;  875.620
943.108;  941.900;  580.000;  937.920
943.664;  875.320;  520.000;  869.340
944.221; 1091.560;  688.000; 1088.140
944.777;  870.580;  505.000;  869.680
945.334;  896.460;  525.000;  884.840
945.890;  956.100;  585.000;  946.480
946.446;  949.520;  577.000;  947.020
947.003;  977.940;  585.000;  964.940
947.559; 1078.020;  691.000; 1063.040
948.115; 1034.540;  675.000; 1026.540
948.671;  974.480;  595.000;  967.300
949.227;  870.540;  485.000;  859.560
949.783;  860.760;  473.000;  858.900
950.339;  992.580;  604.000;  991.000
950.895; 1024.440;  604.000; 1023.840
951.451;  928.660;  532.000;  925.280
952.007; 1001.680;  615.000;  998.540
952.563;  945.200;  545.000;  937.780
953.118;  916.620;  539.000;  904.940
953.674;  947.580;  543.000;  935.780
954.230;  956.800;  531.000;  949.640
954.785;  944.820;  590.000;  936.640
955.341; 1008.440;  611.000;  998.160
955.897;  847.660;  472.000;  834.660
956.452;  965.040;  568.000;  953.840
957.008; 1102.580;  772.000; 1083.640
957.563; 1025.000;  676.000; 1009.540
958.118;  889.560;  532.000;  877.700
958.674;  948.160;  625.000;  946.780
959.229; 1021.820;  665.000; 1013.980
959.784;  841.900;  475.000;  832.400
960.339; 1019.760;  663.000; 1001.280
960.894;  977.360;  631.000;  963.760
961.449;  878.020;  543.000;  859.960
962.004; 1226.120;  863.000; 1212.840
962.559;  881.920;  550.000;  860.140
963.114;  756.680;  396.000;  742.480
963.669;  926.400;  568.000;  915.500
964.224;  886.120;  522.000;  874.340
964.779;  847.380;  460.000;  828.420
965.334; 1030.380;  714.000; 1017.860
965.888;  883.600;  509.000;  875.360
966.443;  977.580;  611.000;  972.380
966.998;  815.980;  492.000;  819.460
967.552;  905.480;  549.000;  908.380
968.107;  885.280;  518.000;  868.300
968.661;  928.920;  579.000;  922.440
969.216;  863.880;  530.000;  856.280
969.770;  928.160;  589.000;  917.200
970.324;  924.820;  581.000;  923.140
970.879;  954.720;  616.000;  947.180
971.433;  967.120;  624.000;  952.720
971.987;  906.720;  538.000;  895.340
972.541;  932.020;  603.000;  917.100
973.095; 1025.840;  667.000; 1009.460
973.649;  820.060;  493.000;  809.480
974.203;  840.020;  533.000;  829.040
974.757;  860.220;  556.000;  855.220
975.311;  878.640;  602.000;  872.600
975.865;  887.260;  582.000;  881.820
976.419;  863.340;  573.000;  857.400
976.973;  852.320;  533.000;  849.620
977.526;  956.080;  635.000;  949.920
978.080;  801.340;  494.000;  796.780
978.634;  925.260;  638.000;  921.320
979.187;  910.220;  623.000;  905.400
979.741; 1025.420;  745.000; 1018.380
980.294;  795.960;  496.000;  789.160
980.848;  721.400;  454.000;  717.220
981.401;  822.580;  542.000;  816.540
981.955;  861.900;  594.000;  844.300
982.508;  760.320;  463.000;  746.340
983.061;  929.540;  659.000;  915.260
983.615;  809.220;  524.000;  798.800
984.168;  779.800;  506.000;  770.080
984.721;  883.480;  614.000;  880.760
985.274;  868.300;  610.000;  867.500
985.827;  844.520;  574.000;  834.220
986.380;  730.260;  467.000;  721.340
986.933;  873.560;  602.000;  864.800
987.486;  867.640;  602.000;  861.920
988.039;  867.380;  630.000;  863.100
988.591;  898.700;  624.000;  893.260
989.144;  743.340;  514.000;  737.260
989.697;  766.320;  532.000;  758.740
990.250;  868.140;  634.000;  858.100
990.802;  763.320;  538.000;  755.860
991.355;  979.360;  749.000;  974.880
991.907;  868.780;  646.000;  864.320
992.460;  758.200;  543.000;  753.760
993.012;  749.240;  552.000;  749.540
993.565;  714.260;  498.000;  711.360
994.117;  954.080;  731.000;  950.780
994.669;  706.540;  508.000;  701.320
995.221;  801.660;  576.000;  791.920
995.774;  792.820;  595.000;  787.580
996.326;  750.780;  560.000;  740.220
996.878;  839.560;  676.000;  838.420
997.430;  703.420;  515.000;  699.860
997.982;  754.380;  593.000;  750.140
998.534;  746.640;  572.000;  739.060
999.086;  740.600;  561.000;  738.220
999.638;  662.540;  465.000;  661.380
1000.190;  704.420;  524.000;  699.320
1000.741;  745.440;  559.000;  742.700
1001.293;  688.400;  533.000;  686.020
1001.845;  683.920;  523.000;  676.640
1002.396;  750.900;  567.000;  743.400
1002.948;  744.040;  581.000;  737.400
1003.500;  726.780;  568.000;  723.780
1004.051;  915.700;  737.000;  907.580
1004.603;  796.980;  644.000;  791.820
1005.154;  616.060;  464.000;  608.980
1005.705;  725.180;  609.000;  723.960
1006.257;  707.780;  589.000;  707.220
1006.808;  691.080;  557.000;  685.460
1007.359;  771.860;  635.000;  763.240
1007.910;  651.560;  529.000;  646.640
1008.461;  741.380;  617.000;  732.940
1009.013;  594.800;  485.000;  588.340
1009.564;  803.180;  689.000;  793.520
1010.115;  598.580;  500.000;  597.040
1010.665;  607.140;  477.000;  602.160
1011.216;  671.680;  575.000;  667.920
1011.767;  703.540;  601.000;  697.920
1012.318;  737.200;  629.000;  736.980
1012.869;  676.460;  595.000;  679.000
1013.419;  603.760;  493.000;  603.120
1013.970;  671.760;  546.000;  666.640
1014.521;  622.560;  537.000;  620.620
1015.071;  674.380;  617.000;  670.380
1015.622;  640.800;  522.000;  635.460
1016.172;  603.780;  495.000;  596.820
1016.723;  617.760;  524.000;  614.380
1017.273;  613.180;  521.000;  604.160
1017.823;  648.620;  549.000;  650.340
1018.374;  618.140;  508.000;  611.760
1018.924;  720.400;  628.000;  716.880
1019.474;  717.020;  619.000;  718.880
1020.024;  659.480;  561.000;  657.580
1020.574;  728.960;  673.000;  726.160
1021.124;  675.320;  587.000;  673.580
1021.674;  567.240;  461.000;  559.120
1022.224;  714.260;  620.000;  708.940
1022.774;  674.720;  593.000;  668.820
1023.324;  758.600;  687.000;  753.520
1023.874;  885.940;  776.000;  875.760
1024.423;  616.360;  529.000;  613.700
1024.973;  612.920;  549.000;  610.760
1025.523;  623.520;  553.000;  620.960
1026.072;  613.780;  534.000;  606.420
1026.622;  673.200;  559.000;  675.740
1027.172;  723.720;  629.000;  715.660
1027.721;  606.540;  557.000;  601.220
1028.270;  670.920;  591.000;  663.400
1028.820;  648.440;  556.000;  638.080
1029.369;  620.720;  514.000;  612.700
1029.918;  650.740;  571.000;  649.840
1030.468;  569.200;  485.000;  564.780
1031.017;  638.000;  552.000;  634.800
1031.566;  619.740;  559.000;  608.900
1032.115;  700.640;  608.000;  694.500
1032.664;  603.540;  500.000;  596.480
1033.213;  730.480;  641.000;  735.420
1033.762;  640.300;  553.000;  635.620
1034.311;  680.280;  600.000;  677.220
1034.860;  693.820;  603.000;  691.000
1035.408;  720.860;  623.000;  722.720
1035.957;  722.820;  633.000;  719.540
1036.506;  542.500;  469.000;  530.800
1037.055;  848.780;  763.000;  844.320
1037.603;  667.640;  576.000;  664.000
1038.152;  536.160;  458.000;  534.760
1038.700;  585.180;  523.000;  585.740
1039.249;  683.380;  589.000;  681.220
1039.797;  636.340;  562.000;  633.360
1040.345;  705.260;  625.000;  705.420
1040.894;  633.620;  556.000;  625.300
1041.442;  636.560;  554.000;  632.200
1041.990;  563.280;  485.000;  559.160
1042.538;  540.260;  456.000;  536.180
1043.087;  574.100;  503.000;  570.860
1043.635;  677.540;  593.000;  670.500
1044.183;  594.420;  492.000;  586.400
1044.731;  582.240;  533.000;  576.000
1045.279;  679.600;  631.000;  674.920
1045.827;  901.280;  832.000;  892.400
1046.374;  515.520;  453.000;  515.420
1046.922;  596.440;  539.000;  590.580
1047.470;  697.540;  651.000;  691.300
1048.018;  649.000;  596.000;  647.960
1048.565;  712.900;  671.000;  708.600
1049.113;  556.300;  469.000;  557.000
1049.660;  624.200;  568.000;  629.660
1050.208;  678.360;  606.000;  675.640
1050.755;  606.820;  517.000;  606.580
1051.303;  692.040;  624.000;  686.820
1051.850;  640.640;  557.000;  635.120
1052.397;  478.620;  391.000;  473.960
1052.945;  620.500;  524.000;  617.760
1053.492;  743.120;  669.000;  741.840
1054.039;  726.840;  685.000;  720.180
1054.586;  562.180;  489.000;  557.240
1055.133;  694.840;  628.000;  693.140
1055.680;  656.040;  577.000;  646.620
1056.227;  538.940;  485.000;  542.780
1056.774;  793.000;  707.000;  794.980
1057.321;  526.160;  459.000;  523.260
1057.868;  651.160;  581.000;  651.320
1058.415;  654.380;  613.000;  651.980
1058.961;  679.780;  601.000;  678.940
1059.508;  639.960;  586.000;  643.820
1060.055;  588.580;  488.000;  581.780
1060.601;  627.640;  557.000;  624.300
1061.148;  619.860;  551.000;  616.820
1061.694;  597.380;  537.000;  592.580
1062.241;  597.880;  540.000;  596.320
1062.787;  664.220;  589.000;  663.140
1063.334;  812.220;  733.000;  808.560
1063.880;  674.220;  618.000;  668.360
1064.426;  713.220;  623.000;  706.820
1064.972;  603.040;  525.000;  601.340
1065.518;  566.540;  501.000;  566.640
1066.065;  632.200;  531.000;  624.460
1066.611;  603.460;  556.000;  598.800
1067.157;  637.260;  588.000;  641.860
1067.703;  669.780;  573.000;  668.480
1068.249;  610.980;  521.000;  605.220
1068.794;  632.300;  558.000;  626.880
1069.340;  577.940;  519.000;  578.960
1069.886;  595.400;  525.000;  590.700
1070.432;  541.920;  467.000;  541.720
1070.977;  611.000;  543.000;  601.080
1071.523;  571.820;  506.000;  573.060
1072.068;  583.860;  500.000;  582.000
1072.614;  524.720;  425.000;  527.760
1073.160;  694.680;  640.000;  687.040
1073.705;  581.340;  532.000;  572.520
1074.250;  562.620;  528.000;  559.900
1074.796;  656.820;  567.000;  655.160
1075.341;  671.300;  597.000;  664.100
1075.886;  593.960;  527.000;  594.240
1076.431;  654.660;  567.000;  649.880
1076.976;  644.560;  589.000;  639.220
1077.521;  587.180;  498.000;  583.080
1078.067;  589.080;  533.000;  579.400
1078.612;  665.320;  608.000;  661.620
1079.156;  603.380;  520.000;  601.540
1079.701;  697.120;  627.000;  693.260
1080.246;  698.020;  644.000;  696.300
1080.791;  631.180;  587.000;  625.020
1081.336;  661.660;  627.000;  659.320
1081.880;  653.800;  573.000;  649.680
1082.425;  575.400;  532.000;  573.480
1082.970;  719.800;  657.000;  717.040
1083.514;  599.080;  546.000;  597.000
1084.059;  590.120;  554.000;  586.720
1084.603;  571.460;  539.000;  565.840
1085.147;  649.800;  599.000;  645.220
1085.692;  716.300;  641.000;  716.800
1086.236;  511.760;  428.000;  503.140
1086.780;  755.600;  674.000;  751.440
1087.325;  657.780;  584.000;  654.620
1087.869;  617.240;  574.000;  610.700
1088.413;  710.380;  677.000;  705.040
1088.957;  538.840;  461.000;  543.400
1089.501;  767.160;  700.000;  766.640
1090.045;  729.400;  651.000;  726.480
1090.589;  575.860;  520.000;  569.920
1091.133;  680.180;  631.000;  673.340
1091.676;  599.300;  539.000;  591.940
1092.220;  606.880;  549.000;  600.920
1092.764;  714.140;  666.000;  706.960
1093.307;  671.160;  637.000;  673.780
1093.851;  554.160;  516.000;  556.540
1094.395;  683.760;  638.000;  683.140
1094.938;  633.840;  571.000;  632.520
1095.482;  565.020;  534.000;  559.800
1096.025;  710.700;  687.000;  710.880
1096.568;  782.760;  731.000;  779.280
1097.112;  510.540;  456.000;  508.180
1097.655;  599.680;  530.000;  603.000
1098.198;  600.360;  538.000;  600.180
1098.741;  617.900;  572.000;  612.860
1099.285;  662.140;  596.000;  657.300
1099.828;  443.700;  407.000;  439.400
1100.371;  616.120;  566.000;  608.160
1100.914;  683.120;  592.000;  682.660
1101.457;  684.260;  623.000;  679.900
1101.999;  582.080;  567.000;  584.680
1102.542;  637.120;  580.000;  641.440
1103.085;  658.920;  646.000;  658.500
1103.628;  766.600;  737.000;  762.060
1104.170;  587.400;  536.000;  588.280
1104.713;  651.100;  592.000;  646.700
1105.256;  558.120;  507.000;  557.440
1105.798;  502.060;  452.000;  499.980
1106.341;  728.680;  709.000;  728.900
1106.883;  521.580;  479.000;  521.340
1107.425;  670.160;  627.000;  668.180
1107.968;  620.040;  576.000;  612.380
1108.510;  689.940;  661.000;  684.960
1109.052;  616.980;  575.000;  612.620
1109.594;  557.600;  532.000;  554.440
1110.136;  645.060;  600.000;  643.220
1110.679;  630.820;  597.000;  633.080
1111.221;  607.640;  555.000;  604.460
1111.763;  553.520;  476.000;  559.220
1112.304;  547.880;  507.000;  547.140
1112.846;  670.960;  653.000;  666.240
1113.388;  948.260;  885.000;  942.180
1113.930;  695.500;  640.000;  694.200
1114.472;  611.420;  529.000;  606.540
1115.013;  555.120;  488.000;  551.280
1115.555;  588.220;  543.000;  587.100
1116.097;  573.460;  521.000;  579.480
1116.638;  684.040;  659.000;  684.600
1117.180;  670.020;  651.000;  667.740
1117.721;  573.560;  493.000;  568.580
1118.262;  679.880;  608.000;  677.960
1118.804;  635.600;  565.000;  637.340
1119.345;  583.760;  526.000;  578.400
1119.886;  703.660;  652.000;  704.040
1120.427;  588.380;  563.000;  589.020
1120.969;  604.960;  541.000;  597.920
1121.510;  566.700;  541.000;  563.060
1122.051;  721.700;  680.000;  723.580
1122.592;  655.180;  619.000;  655.420
1123.133;  547.460;  510.000;  547.940
1123.673;  712.080;  669.000;  706.480
1124.214;  614.400;  563.000;  612.460
1124.755;  644.380;  599.000;  639.460
1125.296;  622.480;  596.000;  627.320
1125.836;  695.080;  670.000;  691.500
1126.377;  601.000;  549.000;  599.660
1126.918;  615.440;  556.000;  614.980
1127.458;  621.380;  598.000;  622.220
1127.999;  658.060;  617.000;  656.980
1128.539;  693.620;  634.000;  694.240
1129.079;  637.820;  593.000;  632.720
1129.620;  558.840;  521.000;  558.100
1130.160;  542.380;  522.000;  539.480
1130.700;  643.080;  599.000;  640.840
1131.240;  644.020;  602.000;  643.700
1131.781;  627.360;  581.000;  619.680
1132.321;  603.840;  563.000;  599.120
1132.861;  564.980;  522.000;  564.200
1133.401;  601.580;  580.000;  593.940
1133.941;  627.140;  590.000;  626.280
1134.481;  607.000;  567.000;  597.580
1135.020;  608.660;  554.000;  609.160
1135.560;  678.960;  632.000;  674.940
1136.100;  502.240;  469.000;  501.160
1136.640;  508.820;  484.000;  510.480
1137.179;  538.820;  492.000;  537.960
1137.719;  608.900;  576.000;  605.400
1138.258;  591.680;  523.000;  587.360
1138.798;  665.060;  597.000;  663.780
1139.337;  482.960;  421.000;  482.840
1139.877;  644.920;  605.000;  642.360
1140.416;  875.040;  831.000;  878.060
1140.955;  534.300;  526.000;  535.380
1141.494;  674.880;  633.000;  669.280
1142.034;  580.260;  533.000;  583.520
1142.573;  653.320;  595.000;  646.280
1143.112;  560.400;  534.000;  553.480
1143.651;  541.080;  502.000;  536.480
1144.190;  692.860;  649.000;  691.640
1144.729;  605.300;  577.000;  607.420
1145.267;  578.000;  556.000;  584.900
1145.806;  638.320;  592.000;  637.040
1146.345;  640.840;  600.000;  635.020
1146.884;  628.060;  563.000;  622.500
1147.422;  532.280;  503.000;  533.060
1147.961;  711.300;  703.000;  708.460
1148.500;  668.620;  631.000;  669.720
1149.038;  640.160;  573.000;  632.500
1149.577;  701.040;  672.000;  698.640
1150.115;  452.320;  418.000;  452.280
1150.653;  603.580;  572.000;  607.340
1151.192;  558.720;  520.000;  552.920
1151.730;  657.260;  639.000;  652.560
1152.268;  589.240;  559.000;  589.520
1152.806;  579.080;  542.000;  571.180
1153.344;  575.300;  529.000;  577.640
1153.882;  600.880;  571.000;  600.060
1154.421;  472.840;  440.000;  470.620
1154.958;  592.460;  566.000;  595.240
1155.496;  647.720;  606.000;  645.280
1156.034;  723.960;  715.000;  721.880
1156.572;  673.160;  638.000;  667.060
1157.110;  468.300;  423.000;  473.940
1157.647;  685.040;  648.000;  676.960
1158.185;  568.920;  532.000;  564.320
1158.723;  511.120;  474.000;  509.200
1159.260;  698.420;  670.000;  701.700
1159.798;  658.480;  602.000;  658.160
1160.335;  629.740;  613.000;  631.820

