
Integration time [ms]:   3.882
Averaging Nr. [scans]: 1000
Smoothing Nr. [pixels]: 0
Data measured with spectrometer [name]: 7414430SP
Wave   ;Sample   ;Dark     ;Reference
[nm]   ;[counts] ;[counts] ;[counts] 

288.544;  139.303;    7.153;  793.890
289.143;  142.699;    8.402;  681.602
289.742;  145.270;    7.062;  828.814
290.341;  131.543;    0.191;  789.841
290.940;  123.037;    0.321;  730.702
291.538;  123.960;    3.811;  881.108
292.137;  121.539;   -3.438;  792.581
292.736;  124.334;   -2.809;  975.101
293.335;  121.376;   -5.239;  735.086
293.934;  122.507;   -4.939;  781.677
294.532;  123.846;   -2.199; 1031.958
295.131;  109.737;   -6.831;  834.394
295.730;  108.124;   -6.620;  809.588
296.328;  106.209;   -6.471;  783.442
296.927;  105.243;   -6.571;  779.652
297.525;  107.354;   -7.391;  781.236
298.124;   98.766;   -9.402;  654.009
298.722;  103.762;   -5.781;  761.933
299.321;  101.747;   -6.351;  708.597
299.919;   98.351;   -8.661;  751.918
300.518;   94.463;  -11.922;  689.338
301.116;   95.993;   -6.941;  691.381
301.715;   97.812;   -5.471;  730.222
302.313;   96.185;   -8.361;  704.943
302.911;   91.429;   -9.082;  733.830
303.509;   96.773;   -4.571;  925.627
304.108;   94.290;   -7.111;  760.383
304.706;   94.065;   -7.681;  801.664
305.304;   89.252;   -9.162;  796.707
305.902;   94.163;   -6.761;  784.484
306.500;   90.225;   -6.921;  728.200
307.098;   88.532;   -6.491;  746.560
307.696;   86.777;   -6.941;  780.432
308.294;   86.457;   -6.301;  731.359
308.892;   89.328;   -4.771;  759.769
309.490;   85.755;   -5.141;  712.161
310.088;   83.439;   -2.912;  788.444
310.686;   88.143;   -0.421;  821.749
311.284;   83.844;   -3.461;  766.040
311.882;   81.662;   -6.282;  731.225
312.480;   78.099;   -3.632;  697.167
313.078;   80.602;   -2.112;  808.331
313.675;   80.890;   -1.931;  691.600
314.273;   76.530;   -1.442;  797.837
314.871;   75.761;   -3.002;  589.829
315.468;   73.163;   -2.252;  652.090
316.066;   76.706;   -1.091;  694.427
316.664;   69.596;   -4.512;  656.351
317.261;   74.772;   -0.062;  910.128
317.859;   69.529;   -0.952;  768.735
318.456;   70.662;    0.719;  830.096
319.054;   66.054;   -4.002;  787.828
319.651;   65.758;   -4.972;  759.928
320.249;   64.935;   -1.162;  810.188
320.846;   62.665;   -2.651;  714.286
321.443;   61.050;   -3.832;  832.135
322.041;   57.290;   -4.312;  812.315
322.638;   55.947;   -3.872;  701.456
323.235;   57.596;   -4.361;  665.683
323.833;   55.063;   -4.821;  740.354
324.430;   50.924;   -6.971;  615.900
325.027;   51.727;   -4.361;  876.855
325.624;   51.474;   -5.581;  644.532
326.221;   49.398;   -6.601;  689.717
326.818;   48.136;   -7.301;  818.332
327.415;   50.795;   -6.180;  748.828
328.012;   50.053;   -5.920;  690.585
328.609;   48.045;   -8.390;  731.389
329.206;   46.776;   -6.121;  778.621
329.803;   47.462;   -5.241;  737.841
330.400;   48.061;   -7.420;  704.260
330.997;   48.573;   -5.931;  817.147
331.594;   46.570;   -5.641;  788.185
332.191;   52.347;   -6.451;  728.722
332.787;   56.288;   -4.651;  844.463
333.384;   53.840;   -5.472;  763.093
333.981;   50.737;   -6.303;  815.687
334.578;   53.757;   -5.892;  708.378
335.174;   56.638;   -4.102;  731.469
335.771;   55.991;   -8.053;  836.456
336.367;   52.792;   -7.363;  710.631
336.964;   56.626;   -6.243;  793.266
337.561;   55.512;   -5.653;  731.112
338.157;   52.086;   -7.074;  911.916
338.754;   48.722;   -5.474;  796.589
339.350;   47.816;   -5.624;  722.493
339.946;   50.614;   -5.054;  773.135
340.543;   42.033;   -6.695;  846.136
341.139;   36.880;   -6.215;  720.836
341.735;   35.342;   -5.746;  772.593
342.332;   34.381;   -7.335;  691.472
342.928;   34.651;   -4.835;  795.394
343.524;   28.921;   -4.586;  761.684
344.120;   26.270;   -3.946;  738.562
344.716;   29.082;   -4.835;  723.717
345.313;   26.792;   -5.325;  795.342
345.909;   22.047;   -6.535;  627.336
346.505;   23.849;   -4.725;  740.247
347.101;   24.072;   -4.164;  827.864
347.697;   24.498;   -5.274;  785.398
348.293;   18.630;   -7.145;  627.244
348.889;   19.663;   -4.364;  745.914
349.485;   19.863;   -6.404;  688.205
350.081;   19.781;   -7.534;  772.592
350.676;   15.408;   -6.995;  691.606
351.272;   20.546;   -3.544;  809.530
351.868;   19.585;   -5.324;  780.497
352.464;   16.870;   -7.204;  723.932
353.059;   13.526;   -6.894;  646.017
353.655;   16.453;   -3.754;  777.063
354.251;   17.698;   -6.143;  759.845
354.846;   12.289;   -9.464;  740.646
355.442;   10.308;   -7.555;  753.071
356.038;   11.746;   -5.474;  751.708
356.633;   11.681;   -5.914;  728.594
357.229;    9.945;   -8.944;  724.757
357.824;    9.138;   -6.794;  703.600
358.420;    8.064;   -5.754;  679.726
359.015;    8.509;   -5.664;  695.357
359.610;    9.900;   -8.004;  763.920
360.206;    2.756;   -8.815;  603.240
360.801;    6.451;   -8.834;  646.503
361.396;    8.946;   -6.274;  725.975
361.992;    3.338;   -8.574;  668.220
362.587;    1.933;   -9.265;  670.160
363.182;    3.634;   -5.484;  689.631
363.777;    4.298;   -5.164;  738.242
364.372;    3.913;   -6.954;  737.314
364.967;   -0.204;   -7.065;  680.744
365.563;    5.011;   -5.684;  815.567
366.158;    1.695;   -6.484;  685.161
366.753;    2.713;   -8.004;  649.263
367.348;    0.396;  -10.114;  746.056
367.942;    1.166;   -7.764;  697.298
368.537;    0.182;   -4.554;  754.245
369.132;    0.280;   -7.664;  703.428
369.727;   -3.899;   -8.905;  638.079
370.322;   -2.955;   -4.945;  580.186
370.917;   -2.591;   -7.095;  710.646
371.511;    0.716;   -6.574;  861.834
372.106;   -3.613;   -6.515;  776.964
372.701;   -6.629;   -8.225;  585.988
373.296;   -1.413;   -4.494;  863.135
373.890;   -5.194;   -7.965;  647.840
374.485;   -7.849;   -9.745;  691.199
375.079;   -4.091;   -5.554;  738.685
375.674;   -1.837;   -4.724;  812.970
376.268;   -6.573;   -8.365;  691.759
376.863;  -11.659;   -8.126;  580.327
377.457;   -6.112;   -6.045;  662.490
378.052;   -7.271;   -6.835;  764.884
378.646;   -8.295;   -9.375;  741.167
379.240;   -8.413;   -6.185;  721.176
379.835;   -8.075;   -6.135;  636.978
380.429;   -9.256;   -8.365;  562.557
381.023;   -9.862;   -7.935;  779.205
381.617;  -12.409;   -8.325;  680.106
382.212;   -9.130;   -7.405;  685.303
382.806;   -7.193;   -4.155;  760.690
383.400;  -11.490;   -8.945;  672.281
383.994;  -12.302;   -8.365;  664.870
384.588;   -8.874;   -7.824;  697.701
385.182;   -7.289;   -7.984;  726.624
385.776;   -9.326;  -10.404;  706.875
386.370;  -11.865;   -7.335;  681.968
386.964;  -10.408;   -7.485;  684.155
387.558;   -9.616;   -8.174;  598.360
388.152;  -12.489;  -10.415;  681.959
388.745;  -11.119;   -9.595;  814.707
389.339;   -9.544;   -6.454;  747.642
389.933;   -8.467;   -5.804;  695.370
390.527;   -9.121;   -6.854;  859.029
391.120;  -16.020;   -7.665;  595.318
391.714;  -12.714;   -7.245;  711.633
392.308;   -8.718;   -4.514;  780.253
392.901;  -12.697;   -7.935;  642.460
393.495;  -14.348;   -8.585;  595.414
394.089;  -12.944;   -5.245;  760.452
394.682;  -12.331;   -6.305;  697.188
395.275;  -14.464;   -9.335;  719.927
395.869;  -14.669;   -7.375;  667.314
396.462;  -14.342;   -7.055;  616.609
397.056;  -10.016;   -5.434;  776.621
397.649;  -13.191;   -9.525;  731.575
398.242;  -10.926;   -7.574;  712.645
398.836;  -10.617;   -5.134;  766.408
399.429;  -11.325;   -6.544;  631.041
400.022;  -14.820;   -9.215;  665.902
400.615;  -12.488;   -8.105;  805.609
401.208;  -10.793;   -7.614;  691.451
401.802;  -12.718;   -8.085;  699.329
402.395;  -14.085;   -9.575;  683.502
402.988;  -15.659;   -9.285;  696.627
403.581;  -11.295;   -7.514;  646.878
404.174;   -9.196;   -6.404;  686.568
404.767;  -11.854;   -8.775;  638.583
405.360;  -14.754;   -7.415;  621.445
405.953;   -8.851;   -5.624;  759.034
406.545;   -8.746;   -6.474;  725.342
407.138;  -13.278;   -8.445;  618.350
407.731;  -12.297;  -10.044;  613.303
408.324;   -8.655;   -8.484;  660.554
408.917;   -8.590;   -7.624;  681.864
409.509;  -10.833;   -8.304;  740.396
410.102;  -12.553;   -8.495;  643.948
410.695;   -6.716;   -7.824;  665.758
411.287;   -7.340;   -7.754;  599.821
411.880;   -8.729;   -9.294;  585.421
412.472;  -11.416;   -8.814;  613.092
413.065;   -8.475;   -6.674;  629.408
413.657;   -6.245;   -9.664;  576.678
414.250;   -6.574;  -10.264;  646.681
414.842;   -8.111;   -8.664;  676.353
415.434;   -5.987;   -8.584;  570.463
416.027;   -1.800;   -9.423;  652.196
416.619;   -3.665;  -10.764;  713.400
417.211;   -4.575;   -7.404;  599.352
417.804;   -0.730;   -7.383;  628.499
418.396;   -4.340;   -8.334;  607.643
418.988;   -2.291;   -9.633;  659.238
419.580;   -5.630;  -10.554;  568.276
420.172;   -3.769;   -8.683;  536.196
420.764;    0.286;   -9.713;  672.482
421.356;   -0.575;  -11.303;  636.898
421.948;   -1.488;   -8.453;  677.661
422.540;    3.491;   -5.793;  680.027
423.132;    3.200;   -7.162;  600.641
423.724;   -0.481;   -7.933;  561.267
424.316;    1.351;   -9.083;  621.345
424.908;    4.909;   -8.392;  591.517
425.500;    6.119;   -8.062;  647.978
426.092;    7.052;   -9.692;  648.268
426.683;    4.948;   -8.223;  684.836
427.275;    8.518;   -8.602;  641.471
427.867;    9.786;   -8.382;  668.948
428.458;   10.015;  -10.472;  732.344
429.050;    8.807;   -9.112;  680.749
429.642;   11.103;   -7.752;  743.124
430.233;   11.594;   -8.832;  569.356
430.825;   13.131;   -8.292;  724.809
431.416;   10.330;   -7.522;  698.241
432.008;   13.589;   -9.262;  651.723
432.599;   14.905;   -6.441;  656.073
433.190;   11.753;   -9.222;  637.670
433.782;   10.247;  -11.832;  590.395
434.373;   18.870;   -7.121;  884.765
434.964;   16.709;   -9.141;  602.920
435.556;   14.632;   -9.332;  634.537
436.147;   17.725;   -8.892;  758.490
436.738;   17.307;   -8.151;  701.099
437.329;   23.239;   -8.281;  721.723
437.920;   15.730;   -9.062;  666.688
438.511;   15.022;  -11.182;  564.526
439.103;   22.253;   -7.461;  623.998
439.694;   24.532;   -8.541;  681.583
440.285;   25.573;   -7.351;  764.432
440.876;   23.772;   -8.201;  845.738
441.466;   23.190;  -10.381;  575.162
442.057;   27.955;   -7.620;  665.814
442.648;   26.678;   -8.461;  746.255
443.239;   25.313;   -8.991;  620.477
443.830;   30.133;   -7.910;  704.958
444.421;   31.990;   -7.340;  655.474
445.011;   28.615;   -8.981;  693.619
445.602;   28.728;   -9.341;  743.126
446.193;   30.115;  -11.390;  488.117
446.783;   34.946;  -11.240;  640.397
447.374;   29.798;   -8.471;  692.759
447.964;   30.640;   -8.471;  713.770
448.555;   39.065;   -6.590;  822.742
449.145;   35.792;   -8.200;  662.853
449.736;   36.211;  -11.040;  803.179
450.326;   36.010;   -9.640;  713.626
450.917;   41.858;   -9.480;  675.324
451.507;   41.173;   -8.020;  600.661
452.097;   41.274;  -10.210;  746.267
452.688;   42.625;   -7.810;  742.160
453.278;   42.301;   -9.360;  566.840
453.868;   46.346;   -8.669;  793.550
454.458;   44.468;  -10.950;  651.141
455.048;   45.665;  -10.200;  711.783
455.639;   46.563;   -9.369;  567.096
456.229;   50.651;   -7.739;  710.694
456.819;   51.523;   -8.939;  751.158
457.409;   52.793;   -7.169;  773.993
457.999;   55.342;   -7.779;  737.505
458.589;   54.317;   -7.039;  686.606
459.179;   54.142;   -9.019;  717.658
459.769;   52.317;   -8.909;  627.099
460.358;   57.609;   -8.659;  797.262
460.948;   57.272;   -8.209;  689.503
461.538;   60.035;   -9.879;  660.677
462.128;   57.379;   -9.379;  664.934
462.717;   64.512;   -9.158;  710.326
463.307;   67.413;   -8.638;  705.846
463.897;   62.999;   -8.869;  656.942
464.486;   62.637;   -7.409;  837.128
465.076;   67.409;   -9.618;  733.776
465.666;   69.815;   -7.578;  652.900
466.255;   68.128;   -9.369;  785.651
466.845;   67.563;  -10.049;  666.749
467.434;   70.543;   -8.168;  725.873
468.023;   71.474;   -9.188;  658.357
468.613;   69.502;   -9.849;  713.946
469.202;   73.460;  -12.958;  646.507
469.791;   77.488;   -9.488;  737.811
470.381;   79.531;   -6.468;  742.813
470.970;   79.185;  -10.248;  711.099
471.559;   79.386;  -11.428;  733.291
472.148;   82.247;   -9.738;  675.737
472.738;   84.877;   -7.877;  765.466
473.327;   84.159;  -11.868;  637.529
473.916;   84.121;   -8.578;  737.446
474.505;   87.392;  -11.137;  751.703
475.094;   91.621;   -9.407;  806.570
475.683;   90.832;   -9.977;  797.699
476.272;   91.610;  -10.807;  730.632
476.861;   94.472;  -11.017;  706.754
477.449;  102.058;  -10.316;  728.487
478.038;   95.322;  -10.187;  692.513
478.627;   96.987;  -12.458;  714.852
479.216;  103.662;  -10.127;  769.441
479.805;  107.054;   -6.256;  783.375
480.393;  106.262;   -8.737; 1008.945
480.982;  105.135;   -9.087;  874.501
481.571;  111.223;   -7.806;  858.333
482.159;  111.591;  -10.596;  705.386
482.748;  111.879;  -11.507;  821.385
483.336;  116.120;   -8.366;  858.209
483.925;  117.064;   -7.497;  774.373
484.513;  123.719;   -8.326;  758.962
485.102;  121.122;  -10.277;  810.965
485.690;  129.914;   -8.256; 1011.050
486.278;  131.833;   -7.146;  979.329
486.867;  131.525;   -7.986;  809.662
487.455;  133.753;   -9.926;  898.229
488.043;  135.291;  -10.026;  748.361
488.631;  144.034;   -7.226; 1005.079
489.220;  148.187;   -8.696;  908.626
489.808;  148.322;  -12.276;  741.415
490.396;  156.715;   -9.386;  914.645
490.984;  162.919;   -8.506;  830.161
491.572;  172.703;   -8.226;  940.315
492.160;  179.028;   -9.836;  919.081
492.748;  189.764;  -10.316;  884.341
493.336;  210.742;   -7.146; 1019.693
493.924;  234.663;   -7.965;  958.077
494.512;  266.478;  -10.316; 1066.638
495.100;  302.349;  -10.186; 1103.280
495.687;  362.077;   -7.805; 1206.373
496.275;  426.326;   -9.686; 1150.796
496.863;  515.675;  -11.566; 1281.171
497.451;  604.887;  -11.406; 1386.805
498.038;  715.316;   -8.235; 1556.729
498.626;  843.631;   -7.485; 1741.407
499.214; 1012.992;   -8.646; 2016.609
499.801; 1279.631;   -9.936; 2220.633
500.389; 1512.165;   -8.056; 2312.494
500.976; 1673.889;   -6.166; 2744.849
501.564; 1877.157;   -9.126; 3148.565
502.151; 2178.842;  -12.456; 3515.999
502.738; 2584.049;  -10.056; 3971.274
503.326; 3020.760;  -10.605; 4403.796
503.913; 3437.867;  -10.576; 5161.749
504.500; 3942.669;   -9.056; 5986.420
505.088; 4499.491;  -10.136; 6381.201
505.675; 5198.696;   -9.075; 6925.547
506.262; 5680.783;  -11.346; 7619.060
506.849; 6607.791;   -9.376; 8733.969
507.436; 7409.968;   -7.365; 9790.121
508.023; 7386.232;   -8.686; 9985.472
508.610; 7615.084;   -8.846;10434.618
509.197; 8432.779;   -9.077;11198.435
509.784; 9926.425;  -10.246;12391.194
510.371;11260.021;   -9.825;13603.713
510.958;12428.376;  -10.896;14426.586
511.545;13180.191;   -9.006;15243.775
512.132;12948.612;   -8.765;15945.876
512.719;13405.894;   -8.286;16340.369
513.305;15508.294;   -9.256;18011.766
513.892;17778.135;  -11.106;19754.971
514.479;20984.752;   -8.576;20967.805
515.066;24065.398;   -9.046;22299.793
515.652;24974.240;  -10.676;22908.660
516.239;25598.258;  -10.166;23798.875
516.825;24996.338;  -11.266;25567.275
517.412;24309.818;   -7.446;28154.959
517.998;23816.473;  -10.916;28344.111
518.585;23372.521;   -9.166;27134.219
519.171;22640.371;  -10.135;27268.576
519.758;23819.680;   -8.806;28964.129
520.344;26913.041;   -6.716;30664.494
520.930;29758.920;  -10.166;32550.605
521.516;29986.941;   -9.615;35422.895
522.103;32562.643;   -8.656;38280.004
522.689;33576.219;   -9.646;37835.117
523.275;32673.156;  -10.786;37288.613
523.861;35159.797;   -9.266;37281.395
524.447;36289.617;   -8.285;37846.949
525.033;35771.660;   -9.426;38321.949
525.619;36030.258;   -9.836;38579.285
526.205;38569.543;   -8.136;40622.875
526.791;39465.754;   -9.986;42258.836
527.377;39328.277;   -8.236;42966.902
527.963;38721.531;  -12.117;42018.949
528.549;37190.465;   -8.376;42476.828
529.135;38358.434;   -8.696;41854.852
529.721;40758.453;   -9.686;41237.711
530.306;43145.172;   -8.616;41259.445
530.892;45773.816;   -9.396;41506.047
531.478;46888.375;   -9.926;43559.613
532.063;47605.047;  -10.236;47695.563
532.649;48699.027;   -8.257;50808.324
533.235;49517.176;  -11.476;51787.500
533.820;49518.922;   -8.156;52145.035
534.406;50633.813;  -12.257;51133.488
534.991;47435.602;   -8.686;49996.805
535.576;44502.719;   -9.426;48882.852
536.162;44358.602;   -8.436;46942.285
536.747;45008.832;  -10.957;45711.746
537.333;44501.148;  -13.147;48510.180
537.918;46179.699;   -9.027;50439.891
538.503;48608.793;   -8.256;50863.711
539.088;49981.102;  -10.576;50906.922
539.673;51400.000;  -10.907;52621.965
540.259;53157.133;   -9.126;52368.094
540.844;52739.449;   -9.026;50879.109
541.429;52821.707;   -9.597;52077.777
542.014;55350.117;  -11.447;52716.695
542.599;56524.898;   -9.236;52363.281
543.184;56429.172;  -12.267;53187.137
543.769;57134.352;  -10.367;54697.605
544.354;56737.316;  -10.887;53913.914
544.938;50414.930;  -11.687;49680.164
545.523;45931.313;   -8.286;47386.277
546.108;46920.266;   -9.317;49151.949
546.693;47836.199;  -10.187;51384.637
547.278;45383.504;   -9.926;51853.254
547.862;44481.496;   -9.196;51173.750
548.447;43954.066;   -9.657;51691.395
549.031;45588.398;   -9.127;52456.703
549.616;48545.590;  -10.836;52714.516
550.201;49600.926;   -8.507;52414.598
550.785;50225.871;  -10.537;52355.059
551.370;53741.410;  -11.727;54589.453
551.954;52782.172;   -9.457;58267.348
552.538;50949.305;   -8.147;59062.176
553.123;50536.336;   -9.397;58115.285
553.707;51892.039;   -9.558;56556.285
554.291;51507.730;   -9.417;56201.668
554.876;53593.305;   -7.627;55335.762
555.460;51784.160;  -10.457;54155.703
556.044;46965.152;  -10.078;53721.484
556.628;46243.008;   -9.407;53731.016
557.212;45281.438;   -7.957;54312.531
557.796;44429.895;  -11.327;53797.773
558.380;48657.602;  -10.868;56145.984
558.964;48924.402;   -9.637;57277.930
559.548;46993.738;   -8.807;56459.641
560.132;49336.457;  -10.187;54434.543
560.716;50222.434;   -9.868;54800.617
561.300;51761.262;  -10.217;57606.945
561.884;51849.039;   -4.947;58972.445
562.467;48769.773;   -9.588;57327.570
563.051;44235.945;  -11.138;54962.434
563.635;44800.016;   -9.358;52594.473
564.219;45724.598;   -9.797;50610.410
564.802;44198.938;   -9.918;49551.180
565.386;43125.570;  -10.838;48370.953
565.969;42478.797;   -8.037;48178.871
566.553;41229.219;   -5.667;49957.305
567.136;41116.355;   -8.258;50369.594
567.720;41669.914;  -11.278;49492.004
568.303;39714.547;   -9.028;50616.352
568.887;38025.469;   -7.508;50727.148
569.470;36979.152;  -11.068;51698.379
570.053;39158.000;  -10.028;52122.078
570.637;39255.164;  -11.077;52536.438
571.220;40719.023;   -8.747;51186.098
571.803;43180.500;   -8.868;51032.762
572.386;44655.840;  -10.608;49609.887
572.969;44025.547;  -10.548;48285.926
573.552;41475.438;   -7.898;47624.285
574.135;40670.996;   -9.918;45498.641
574.718;36037.301;  -10.328;41970.434
575.301;33411.035;   -9.548;41447.137
575.884;30784.770;   -8.768;40923.836
576.467;36184.078;   -9.858;45267.723
577.050;36820.629;  -11.018;48175.543
577.633;38351.441;  -10.048;47729.328
578.216;37426.500;  -10.268;47579.793
578.799;35288.613;  -11.808;47820.996
579.381;34359.402;   -7.338;48115.551
579.964;36123.738;   -9.728;47333.766
580.547;36433.863;   -8.928;46668.969
581.129;36205.887;   -9.149;44466.141
581.712;37832.625;  -11.359;44164.922
582.294;37791.391;  -10.738;46477.855
582.877;35725.898;   -8.788;48244.254
583.459;34575.313;   -9.859;47437.895
584.042;35686.219;   -9.649;46943.219
584.624;36360.453;  -10.529;46792.227
585.206;34789.508;  -10.298;46557.250
585.789;32816.547;  -11.029;45793.773
586.371;32804.926;   -9.359;43836.391
586.953;33513.664;   -8.799;42972.492
587.536;33682.879;   -8.928;42487.211
588.118;32985.137;   -9.180;42086.414
588.700;31333.592;  -10.519;43389.930
589.282;30470.922;   -8.098;43646.039
589.864;30584.787;   -8.139;43438.109
590.446;32120.939;  -10.509;43151.926
591.028;34974.961;  -11.119;42781.867
591.610;35985.824;  -10.019;42839.098
592.192;34237.961;   -8.838;42820.402
592.774;31724.197;  -11.549;40724.277
593.356;29229.877;  -11.609;39874.789
593.937;29781.277;  -10.019;39980.648
594.519;32702.283;   -7.839;42069.633
595.101;33917.930;  -10.779;42976.031
595.683;35014.984;  -10.049;44084.441
596.264;35119.691;   -9.969;43478.797
596.846;33615.410;   -9.699;43803.672
597.427;32755.334;  -10.970;42986.934
598.009;33877.055;  -13.090;42832.219
598.591;34303.035;   -9.509;42580.086
599.172;32527.975;   -9.019;43061.805
599.753;30020.586;  -13.310;41691.469
600.335;30307.939;  -11.010;40692.520
600.916;31104.777;  -10.309;39982.422
601.498;31202.906;   -8.209;40318.617
602.079;31214.342;  -11.440;40670.609
602.660;32662.461;   -8.690;41450.898
603.241;34135.785;  -12.759;41137.738
603.823;32390.426;  -10.409;38868.797
604.404;32294.580;  -11.790;38182.785
604.985;30716.564;  -10.280;38078.047
605.566;31430.221;   -8.059;38056.633
606.147;31940.199;   -8.960;37020.418
606.728;31675.563;  -10.710;37883.359
607.309;30892.820;  -12.760;38748.273
607.890;28704.135;   -9.959;38850.230
608.471;26982.938;   -9.780;37457.918
609.051;28791.873;   -8.940;36066.457
609.632;31697.002;  -12.070;35991.074
610.213;33745.066;   -9.610;37402.641
610.794;33986.453;   -8.750;38383.363
611.374;32758.570;  -11.100;40562.387
611.955;33124.168;  -12.200;38533.727
612.536;32971.992;  -10.410;36951.789
613.116;33162.215;  -10.010;37197.891
613.697;32351.871;  -10.480;38411.125
614.277;30760.410;  -12.751;38673.938
614.858;30710.340;  -11.600;37075.863
615.438;30155.242;   -8.190;35092.906
616.019;28635.234;   -8.941;33666.301
616.599;29779.916;  -13.540;34189.023
617.179;30346.873;  -10.890;36952.047
617.760;30914.461;   -7.610;39582.574
618.340;30267.350;  -14.441;38943.977
618.920;29613.385;   -9.180;37594.156
619.500;29515.893;  -11.881;37866.938
620.080;31496.531;   -9.870;37869.043
620.660;31582.371;  -13.211;36868.617
621.241;30327.162;  -11.921;36352.309
621.821;29125.725;  -10.271;35459.520
622.401;28920.027;   -8.200;35207.414
622.980;29999.502;  -11.141;35980.422
623.560;31454.535;  -14.321;37351.328
624.140;31157.518;   -9.360;34388.582
624.720;27673.686;   -7.481;32368.764
625.300;24354.979;  -12.730;32638.629
625.880;29229.547;  -11.441;34599.035
626.459;33081.875;  -10.971;36831.738
627.039;34591.016;   -9.011;38299.098
627.619;34428.246;   -8.521;38289.574
628.198;35612.105;   -9.861;37220.695
628.778;35293.602;   -8.841;37632.563
629.357;33706.516;   -9.891;38003.012
629.937;31351.803;  -11.871;38402.039
630.516;30203.336;  -10.641;37868.801
631.096;32416.371;  -11.391;35760.410
631.675;34034.141;   -6.622;35225.219
632.254;31735.973;  -13.002;35130.289
632.834;30013.785;  -11.622;35794.570
633.413;31925.977;   -8.321;35788.922
633.992;30237.785;   -7.732;34532.863
634.571;29795.602;  -10.992;33590.113
635.151;31347.152;  -10.422;34943.863
635.730;31782.771;  -11.511;35352.523
636.309;30993.564;   -7.901;35366.605
636.888;30068.492;  -11.452;36165.637
637.467;29612.063;  -10.672;37515.902
638.046;29635.313;   -9.301;39288.695
638.625;30708.566;  -11.452;38279.699
639.204;32263.320;  -12.262;37741.598
639.782;31693.695;  -11.892;38364.551
640.361;30298.965;  -11.411;36740.621
640.940;27189.391;  -11.501;34950.082
641.519;27360.756;  -10.921;34137.398
642.097;30673.225;  -10.101;35654.258
642.676;31285.504;  -10.821;35637.957
643.255;33763.906;   -8.631;36567.074
643.833;35875.430;  -11.411;37809.434
644.412;36781.320;  -12.021;37337.293
644.990;36553.898;  -12.271;37018.531
645.569;35671.465;   -9.741;36518.469
646.147;34355.875;   -9.051;36186.430
646.726;32445.135;  -13.861;36267.688
647.304;32591.467;   -9.461;36647.625
647.882;31669.713;  -13.171;39286.742
648.461;31738.027;  -11.911;39157.703
649.039;32027.504;   -9.541;35412.883
649.617;33716.762;   -8.901;34744.918
650.195;31745.643;   -8.591;35403.098
650.773;30277.063;  -13.031;35053.797
651.352;28815.996;  -12.211;33756.816
651.930;25770.205;  -11.361;31868.773
652.508;23105.424;   -8.601;33121.551
653.086;26734.924;   -9.991;33564.793
653.663;31103.225;  -11.931;34054.668
654.241;32794.355;  -10.821;35693.309
654.819;33332.711;   -9.341;36422.906
655.397;31232.254;  -10.851;38213.484
655.975;29546.807;  -11.461;39507.625
656.553;30083.648;   -8.841;39498.223
657.130;29619.117;  -10.371;40395.480
657.708;28715.740;  -11.071;39242.020
658.286;28680.895;  -11.141;38920.020
658.863;31212.920;  -10.861;40202.898
659.441;36841.820;  -11.181;39677.938
660.018;38294.906;  -10.851;40413.355
660.596;37085.746;  -12.571;39931.414
661.173;37556.609;  -12.141;39604.531
661.750;34211.770;  -11.571;39700.070
662.328;31011.836;  -10.780;39292.809
662.905;29946.324;  -10.750;38235.648
663.482;27112.906;  -11.320;36212.305
664.060;26103.953;  -10.160;35944.945
664.637;31748.541;  -13.120;35170.785
665.214;34344.145;  -11.500;34197.523
665.791;32261.305;  -12.430;34549.520
666.368;29768.074;   -9.840;35118.578
666.945;28681.951;  -11.290;36019.418
667.522;29076.404;  -13.540;36048.438
668.099;29877.650;  -10.250;36243.914
668.676;28808.195;  -11.270;35958.875
669.253;28161.068;   -8.210;37384.730
669.830;26891.855;   -9.710;36779.629
670.407;26317.100;   -9.700;35231.289
670.984;25994.680;   -9.190;35544.270
671.560;24698.453;   -9.560;35466.867
672.137;24565.846;  -11.820;34280.863
672.714;27594.480;  -12.460;34632.863
673.290;31818.613;  -10.940;35135.422
673.867;33118.336;  -10.510;36114.480
674.443;31268.928;  -12.110;36152.859
675.020;31085.174;  -11.760;35327.238
675.596;31590.248;   -9.380;35795.176
676.173;30911.215;  -11.120;35430.355
676.749;30148.096;  -13.390;33549.516
677.326;29149.535;  -12.600;32210.012
677.902;28158.326;  -10.830;32068.871
678.478;27543.516;  -12.400;32583.891
679.054;28981.811;   -8.610;32088.928
679.631;30442.109;  -11.640;30978.848
680.207;31209.855;   -8.140;33160.887
680.783;30866.711;  -12.300;35570.363
681.359;29380.832;  -10.910;36125.184
681.935;28604.992;  -11.040;35240.922
682.511;29039.955;  -11.130;34429.961
683.087;29209.588;  -11.080;34463.680
683.663;30963.465;  -10.530;34648.898
684.239;31393.691;  -12.120;34546.457
684.815;30285.514;   -8.870;35586.375
685.390;28900.031;   -8.940;35821.895
685.966;27831.111;  -12.109;35085.871
686.542;26492.340;  -13.539;34198.230
687.118;25746.990;  -10.379;32847.707
687.693;26682.279;  -10.189;32794.027
688.269;26089.121;  -12.939;33072.367
688.844;25032.941;   -8.679;33141.664
689.420;25865.906;  -10.919;33965.742
689.995;26408.211;   -7.489;34655.523
690.571;25830.686;  -12.199;33576.742
691.146;26012.943;   -8.979;32657.219
691.722;27481.215;   -9.119;32526.979
692.297;27589.879;  -10.519;33014.617
692.872;27684.139;  -10.629;34012.254
693.448;27948.340;  -12.119;34237.434
694.023;27234.580;   -8.219;34142.672
694.598;25448.244;  -13.209;34132.031
695.173;24100.320;  -11.879;34205.250
695.748;24584.662;  -12.039;32882.488
696.323;25581.359;  -11.779;32864.906
696.898;26128.934;  -10.219;33170.004
697.473;27650.461;  -13.639;32432.984
698.048;28432.324;  -11.239;31649.303
698.623;30425.041;  -10.859;30778.141
699.198;32360.102;  -13.379;31140.119
699.773;32605.564;  -13.409;31764.299
700.348;31508.473;  -12.329;31780.816
700.922;31379.057;   -8.749;32046.375
701.497;31400.580;  -12.449;32603.574
702.072;29891.004;   -8.879;34799.871
702.646;27928.611;  -10.719;35793.172
703.221;27319.125;   -8.469;35201.590
703.795;28140.215;  -11.389;34764.527
704.370;27142.918;  -12.499;34307.367
704.944;25730.959;  -11.449;33509.887
705.519;25558.803;  -10.659;31388.584
706.093;24811.346;  -12.909;31340.104
706.668;25230.775;  -13.509;32630.281
707.242;26269.609;  -10.049;32728.779
707.816;26203.113;  -10.629;32947.238
708.390;25401.844;  -11.829;33277.855
708.965;24091.512;  -11.159;33834.336
709.539;24383.469;  -11.069;33709.273
710.113;24087.848;  -10.908;33044.313
710.687;22320.695;   -9.488;31953.992
711.261;22568.811;  -13.068;30505.949
711.835;25137.213;  -12.748;30262.369
712.409;27384.912;  -10.678;31254.447
712.983;26943.898;  -11.658;32754.986
713.557;26422.201;  -13.718;34018.824
714.131;27196.854;  -13.388;34579.625
714.704;29746.699;   -9.818;33890.262
715.278;31617.361;  -11.818;33531.102
715.852;31699.455;  -11.328;33601.660
716.425;32119.365;   -9.118;33515.117
716.999;32253.270;  -10.188;33185.555
717.573;31252.883;   -9.808;33905.996
718.146;30160.773;  -11.478;35199.293
718.720;28888.285;  -10.998;35060.551
719.293;27921.363;   -9.508;34973.230
719.867;28941.486;  -12.138;36394.449
720.440;28717.416;  -11.288;36663.008
721.013;30967.248;  -11.428;35102.426
721.587;32504.215;  -11.698;33985.266
722.160;33799.082;  -11.608;33524.965
722.733;33920.199;  -11.428;32987.043
723.306;30712.143;  -12.518;33066.301
723.880;29295.178;   -7.408;33399.500
724.453;29187.150;  -11.048;33468.297
725.026;28083.473;  -11.678;33816.637
725.599;26596.271;  -10.978;32797.996
726.172;24807.840;   -8.838;33187.434
726.745;24499.543;  -11.438;35136.613
727.318;25909.471;   -9.828;35751.730
727.891;26673.604;  -10.868;35890.430
728.463;26636.893;  -11.348;34822.090
729.036;25536.316;  -11.608;32895.086
729.609;25218.771;  -14.738;31823.225
730.182;25548.314;   -8.448;31445.283
730.754;26401.432;  -11.228;32373.223
731.327;26706.471;  -12.018;33676.820
731.900;28542.182;  -13.748;33417.000
732.472;29594.336;  -10.928;31978.498
733.045;29037.924;   -9.478;30368.777
733.617;27154.770;  -12.967;30574.215
734.190;26506.773;  -11.707;31280.975
734.762;25945.695;  -11.067;31674.412
735.334;24912.764;  -10.587;31247.291
735.907;23820.146;  -11.947;29876.211
736.479;24281.609;  -11.667;29808.488
737.051;25992.457;  -10.187;30233.547
737.623;26761.363;   -6.887;31469.086
738.195;28158.059;  -12.117;31784.225
738.768;30228.721;  -14.077;32120.523
739.340;29605.279;  -12.207;32094.342
739.912;27110.080;   -8.977;31312.680
740.484;25489.826;  -11.017;31946.238
741.056;27364.508;  -13.517;32984.059
741.628;30021.152;  -11.507;33897.715
742.199;30655.742;   -7.597;33213.016
742.771;30130.393;  -12.227;31369.113
743.343;28607.377;  -12.427;31865.473
743.915;26728.523;   -9.827;32388.631
744.487;25563.547;  -10.007;31079.568
745.058;24663.160;  -11.887;30570.107
745.630;23606.313;  -10.787;29970.127
746.201;23097.000;  -10.887;29186.766
746.773;24623.271;   -9.707;28805.723
747.344;25735.260;  -11.137;29591.223
747.916;25158.492;  -11.887;31412.201
748.487;24475.232;   -9.707;32194.898
749.059;23967.215;  -10.027;32533.719
749.630;23219.631;  -11.787;32158.518
750.201;21887.492;  -12.767;30855.395
750.773;20022.984;  -11.497;28622.555
751.344;20911.229;   -9.937;28405.732
751.915;20905.041;  -11.567;28461.551
752.486;18934.893;  -13.267;27842.850
753.057;17959.721;  -10.627;27845.008
753.628;18017.199;  -11.657;27728.107
754.199;20298.311;  -12.097;27381.086
754.770;21782.443;  -11.447;25882.203
755.341;22106.564;  -11.997;25886.184
755.912;20528.225;  -10.207;26050.861
756.483;18823.758;  -10.937;26798.779
757.054;19277.342;  -11.527;27048.238
757.625;19516.160;  -12.886;26294.838
758.195;19007.865;  -11.226;26142.076
758.766;19317.023;  -12.366;26392.234
759.337;18156.908;  -11.946;26334.594
759.907;17712.514;  -13.856;27579.652
760.478;18969.156;   -9.606;28352.770
761.048;20412.039;  -11.606;27325.088
761.619;20942.598;  -11.036;26460.428
762.189;19365.289;  -12.206;26029.826
762.760;18584.777;   -9.666;26430.145
763.330;19563.352;   -9.796;26670.902
763.900;19434.643;  -10.896;26603.021
764.471;18907.160;  -11.726;25542.740
765.041;19563.996;   -9.656;24358.459
765.611;19993.043;  -11.276;23991.297
766.181;19505.883;  -12.116;24470.236
766.751;19310.729;  -12.376;24845.975
767.321;19659.701;  -11.626;24533.633
767.891;19456.521;  -10.426;24916.492
768.461;17820.008;  -13.456;24776.771
769.031;15419.313;  -11.616;24757.988
769.601;14423.469;  -11.356;24181.088
770.171;14441.459;  -11.586;23670.387
770.741;15122.412;  -12.696;22960.045
771.311;16773.947;  -10.226;22917.523
771.880;17352.549;  -11.146;23562.941
772.450;17728.924;  -11.716;24216.500
773.020;17747.115;  -13.226;24140.398
773.589;16821.580;  -12.586;24414.857
774.159;16379.560;  -10.246;23858.717
774.729;15747.027;  -11.586;22942.135
775.298;15574.544;  -15.926;22324.033
775.867;15499.563;  -10.426;21140.313
776.437;15056.308;  -11.416;20838.092
777.006;13334.212;  -12.766;20599.510
777.576;13321.734;  -13.666;20508.809
778.145;14613.640;  -10.066;20732.947
778.714;14849.055;  -10.276;21062.465
779.283;14319.044;  -12.086;20949.664
779.853;14043.223;  -14.016;20508.623
780.422;13827.920;  -12.376;20649.082
780.991;13196.847;   -9.246;21527.520
781.560;12931.740;   -9.775;22632.658
782.129;13242.882;  -12.495;23048.277
782.698;13361.894;  -11.775;23438.555
783.267;13295.338;  -10.065;23267.734
783.836;14177.400;  -12.455;22415.133
784.404;14656.360;  -13.385;20443.152
784.973;14486.855;  -11.045;19699.150
785.542;14024.115;   -9.505;19763.828
786.111;13363.353;   -9.385;20341.408
786.679;13150.309;  -13.475;20207.967
787.248;13081.088;  -11.245;19516.465
787.817;11661.060;  -12.485;18900.363
788.385;10232.155;  -11.165;17879.121
788.954;10792.688;  -11.755;17658.301
789.522;11811.399;   -9.625;17788.879
790.090;12192.655;   -9.665;18118.277
790.659;11561.046;   -9.295;18338.736
791.227;11510.715;  -12.175;18508.615
791.795;12263.079;  -12.145;17898.254
792.364;12233.869;  -11.575;17295.133
792.932;11641.596;  -11.085;16822.051
793.500;11246.026;  -11.345;17040.148
794.068;10900.725;  -12.565;17179.787
794.636;11472.080;  -12.105;16664.246
795.204;12479.481;  -11.995;16524.545
795.772;12415.280;  -12.615;17274.564
796.340;11873.605;  -12.425;17891.002
796.908;11428.216;  -11.455;17648.561
797.476;10579.240;  -12.165;17064.080
798.044; 9517.929;  -15.795;16672.777
798.612; 9075.918;  -10.985;17023.996
799.180; 9661.155;  -12.055;16561.615
799.747;10206.823;  -12.525;15962.773
800.315; 9465.620;  -14.765;15296.992
800.883; 8338.738;  -12.435;14801.771
801.450; 8215.090;  -11.295;14534.430
802.018; 8613.456;  -11.185;14173.248
802.585; 8770.200;  -11.625;14029.547
803.153; 8127.855;  -10.665;13836.846
803.720; 7648.798;  -10.275;13567.324
804.287; 7789.996;  -12.865;13360.622
804.855; 8042.328;  -12.324;13681.981
805.422; 8018.159;  -11.574;13536.560
805.989; 7682.854;  -11.004;13355.958
806.556; 7898.514;  -12.214;13747.896
807.124; 8274.052;  -13.304;13987.376
807.691; 8186.521;  -12.034;14038.674
808.258; 8013.346;  -11.014;14120.152
808.825; 7907.574;  -11.804;13860.111
809.392; 7666.472;  -11.544;13268.790
809.959; 7478.989;  -14.954;12680.389
810.526; 7752.772;  -10.214;12427.308
811.093; 7758.731;  -10.754;12030.105
811.659; 7333.445;  -12.194;11653.664
812.226; 6647.502;   -9.194;11637.183
812.793; 6529.651;   -9.644;11611.521
813.360; 7188.990;  -11.544;11885.181
813.926; 8137.760;  -12.814;12770.539
814.493; 8187.642;  -11.524;12677.638
815.060; 7981.954;  -12.254;11974.336
815.626; 7801.409;  -12.114;11594.715
816.193; 7260.245;  -11.994;11579.474
816.759; 6704.348;  -11.464;11666.972
817.325; 6265.103;  -10.444;11325.530
817.892; 5994.885;  -11.124;11105.369
818.458; 6009.638;  -11.864;10843.928
819.024; 6507.522;  -10.634;10714.406
819.591; 6712.958;  -10.554;10469.165
820.157; 6765.984;  -13.334;10235.523
820.723; 6780.735;  -13.044;10847.563
821.289; 6657.747;   -9.664;11040.980
821.855; 6741.827;  -10.994;10357.100
822.421; 7013.385;  -11.784; 9978.918
822.987; 7190.935;  -12.554; 9754.177
823.553; 7204.025;  -12.554;10065.755
824.119; 6837.113;   -8.544;10036.294
824.685; 6053.246;  -12.144;10029.192
825.251; 5690.857;  -12.754;10199.230
825.816; 5386.901;  -11.354; 9820.189
826.382; 5026.941;  -11.004; 9297.248
826.948; 5014.834;  -11.004; 9381.347
827.513; 5210.717;  -12.474; 9450.726
828.079; 5290.107;  -13.084; 9472.444
828.645; 5425.127;  -10.813; 9292.643
829.210; 5282.723;  -11.593; 9065.341
829.776; 5292.162;  -12.633; 9132.620
830.341; 5548.261;  -10.473; 9092.878
830.906; 5442.242;   -8.763; 9078.557
831.472; 4783.480;  -13.453; 8534.535
832.037; 3885.204;  -12.173; 8677.874
832.602; 3603.705;  -14.093; 8628.692
833.167; 3942.926;  -13.593; 8879.031
833.733; 4497.771;  -10.793; 9189.790
834.298; 4854.208;  -14.783; 9052.608
834.863; 4537.978;  -11.023; 8895.087
835.428; 4227.054;  -11.113; 8824.266
835.993; 4525.172;   -9.983; 8845.385
836.558; 4755.693;  -13.003; 8888.563
837.123; 4654.392;  -10.733; 8966.582
837.688; 4314.394;   -9.683; 8617.860
838.253; 4091.908;  -12.253; 8590.699
838.817; 4254.475;  -11.643; 8443.797
839.382; 4450.381;  -11.953; 8799.356
839.947; 4422.073;  -11.443; 8810.595
840.511; 4295.377;  -10.843; 8796.394
841.076; 4295.991;  -13.533; 8347.231
841.641; 4404.377;  -11.743; 8224.330
842.205; 4253.347;  -10.013; 8223.349
842.770; 4112.736;  -11.023; 8622.107
843.334; 4106.092;  -14.273; 8410.386
843.898; 4266.935;  -11.323; 8337.465
844.463; 4625.625;  -10.263; 8506.283
845.027; 4796.397;  -10.353; 8280.962
845.591; 4716.668;  -12.163; 8231.141
846.156; 4517.326;  -12.263; 7969.179
846.720; 4493.249;  -11.553; 7768.278
847.284; 4395.369;  -12.393; 7630.957
847.848; 3813.767;  -12.623; 7472.395
848.412; 3289.722;  -11.863; 7437.394
848.976; 3198.525;  -10.203; 7674.592
849.540; 3274.031;  -10.603; 7836.011
850.104; 3380.734;  -12.423; 7913.669
850.668; 3436.306;  -14.613; 7694.508
851.232; 3390.033;  -12.873; 7756.887
851.796; 3413.612;  -14.192; 7926.545
852.359; 3541.797;  -13.652; 7827.844
852.923; 3507.451;  -11.402; 7641.163
853.487; 3387.994;  -12.022; 7342.501
854.050; 3268.055;  -15.202; 7042.820
854.614; 3276.648;  -14.592; 7151.338
855.177; 3251.570;  -12.572; 7105.077
855.741; 3264.027;   -9.932; 6989.675
856.304; 3402.829;  -12.192; 6596.634
856.868; 3431.649;  -13.462; 6356.272
857.431; 3385.796;  -11.542; 6468.571
857.995; 3410.337;  -12.062; 6373.210
858.558; 3193.363;  -11.142; 6324.448
859.121; 2905.288;  -11.742; 6408.327
859.684; 2734.912;  -10.332; 6347.886
860.247; 2713.568;  -11.962; 6321.264
860.810; 2838.468;  -12.332; 6301.903
861.374; 2884.938;  -10.292; 6607.881
861.937; 2824.284;  -12.062; 6408.200
862.500; 2900.644;  -11.702; 6572.639
863.062; 3064.642;  -13.852; 6387.297
863.625; 3156.833;  -12.972; 6190.836
864.188; 3067.981;  -10.292; 5807.254
864.751; 2942.117;  -12.382; 5682.413
865.314; 2772.846;  -13.232; 5547.492
865.876; 2568.790;  -12.772; 5500.150
866.439; 2408.315;  -11.952; 5415.909
867.002; 2388.704;   -9.332; 5501.567
867.564; 2591.581;  -11.712; 5413.946
868.127; 2766.204;  -12.012; 5160.325
868.689; 2572.945;  -11.882; 5133.183
869.252; 2275.357;  -11.572; 5252.382
869.814; 2156.514;  -10.692; 5297.141
870.377; 2243.465;  -12.392; 5390.919
870.939; 2360.005;  -10.582; 5599.898
871.501; 2372.194;  -12.782; 5248.336
872.063; 2319.467;  -15.612; 4854.235
872.626; 2310.549;  -13.922; 4817.074
873.188; 2218.593;  -13.832; 4987.732
873.750; 2086.651;  -10.962; 4868.651
874.312; 2117.757;  -11.022; 4779.330
874.874; 2151.734;  -13.152; 4866.348
875.436; 2121.954;  -13.401; 4718.887
875.998; 2081.807;   -8.891; 4660.005
876.560; 2025.608;  -12.591; 4462.964
877.122; 1956.206;  -14.531; 4145.042
877.683; 1868.858;  -10.781; 4056.481
878.245; 1794.117;  -14.281; 3950.740
878.807; 1789.402;  -10.311; 4058.958
879.369; 1729.356;  -13.201; 3954.677
879.930; 1688.272;  -12.061; 3941.495
880.492; 1704.406;   -9.181; 4067.014
881.053; 1737.784;  -12.051; 3859.633
881.615; 1715.748;  -11.501; 3776.071
882.176; 1627.950;  -12.221; 3734.750
882.738; 1508.745;   -8.931; 3678.489
883.299; 1397.261;  -13.571; 3405.407
883.860; 1397.933;  -12.331; 3351.106
884.422; 1349.400;  -10.201; 3394.044
884.983; 1207.190;  -12.521; 3166.443
885.544; 1096.913;  -12.291; 3189.802
886.105; 1069.401;  -12.991; 3160.360
886.666; 1074.935;  -12.901; 3093.059
887.227; 1050.340;  -12.061; 2941.957
887.788; 1002.551;  -11.641; 2974.836
888.349;  955.754;  -14.691; 2721.214
888.910;  906.306;   -9.681; 2696.493
889.471;  879.737;   -9.971; 2560.172
890.032;  856.728;  -13.151; 2558.190
890.593;  832.610;  -12.051; 2567.669
891.153;  802.448;  -12.841; 2460.307
891.714;  780.316;  -13.561; 2372.046
892.275;  762.475;  -12.401; 2309.505
892.835;  730.775;  -13.191; 2382.543
893.396;  685.321;  -12.551; 2295.502
893.956;  669.935;  -11.981; 2162.420
894.517;  672.764;  -12.221; 2125.439
895.077;  645.998;  -12.021; 2086.978
895.638;  576.789;  -10.891; 2126.316
896.198;  516.672;  -13.171; 1838.275
896.758;  476.902;  -11.891; 1892.813
897.319;  436.482;  -12.491; 1792.232
897.879;  414.148;  -12.401; 1762.751
898.439;  387.961;  -13.431; 1661.149
898.999;  369.297;  -11.340; 1781.468
899.559;  360.548;  -13.930; 1703.347
900.119;  347.593;  -13.730; 1537.525
900.679;  331.548;   -9.210; 1638.384
901.239;  316.422;  -10.860; 1527.902
901.799;  298.166;  -11.450; 1456.441
902.359;  276.860;  -13.800; 1357.140
902.919;  266.925;  -12.130; 1331.118
903.479;  263.632;  -12.650; 1317.257
904.038;  253.377;  -16.110; 1262.595
904.598;  237.359;  -13.690; 1152.034
905.158;  222.943;  -10.290; 1240.893
905.717;  215.513;  -10.670; 1233.691
906.277;  213.491;  -14.040; 1217.330
906.836;  212.706;  -13.510; 1222.408
907.396;  207.792;  -11.530; 1193.047
907.955;  197.888;  -13.190; 1182.526
908.515;  186.982;  -12.950; 1099.364
909.074;  177.968;  -12.390; 1092.863
909.633;  173.904;  -10.340; 1069.121
910.192;  171.845;  -11.170; 1196.460
910.752;  168.188;  -14.200; 1029.960
911.311;  164.864;  -13.810; 1009.780
911.870;  163.091;  -12.750;  971.460
912.429;  161.735;  -12.380; 1094.080
912.988;  159.840;  -11.930; 1081.060
913.547;  154.929;  -10.990;  940.380
914.106;  151.606;  -11.200;  999.420
914.665;  149.349;  -13.150;  984.020
915.224;  146.640;  -13.310; 1035.760
915.782;  144.449;  -13.340;  922.560
916.341;  145.396;  -10.710; 1049.840
916.900;  142.703;  -12.980;  925.260
917.458;  140.976;  -13.060;  884.220
918.017;  139.771;  -10.900;  942.600
918.576;  139.691;  -11.630;  904.440
919.134;  137.950;  -12.860;  837.980
919.693;  138.612;  -15.160;  893.060
920.251;  137.758;  -13.470;  876.500
920.809;  136.377;  -13.700;  839.580
921.368;  136.531;  -13.420;  885.360
921.926;  138.087;  -14.710;  842.940
922.484;  138.126;  -12.560;  903.360
923.042;  139.631;  -11.930;  880.340
923.601;  139.284;  -10.270;  998.680
924.159;  137.402;  -12.960;  935.560
924.717;  134.551;  -13.040;  841.080
925.275;  135.800;  -12.560;  903.240
925.833;  136.268;  -13.040;  779.320
926.391;  139.817;  -13.360;  938.380
926.949;  138.997;  -13.940;  857.680
927.506;  140.457;   -9.400;  903.500
928.064;  139.209;  -10.940;  877.580
928.622;  138.469;  -13.180;  880.100
929.180;  139.013;  -12.730;  814.180
929.737;  139.323;  -12.840;  808.540
930.295;  142.901;  -11.810;  928.480
930.853;  148.072;  -13.650;  849.100
931.410;  151.504;  -13.580;  821.120
931.968;  152.455;  -12.020;  940.660
932.525;  153.931;  -13.320;  909.380
933.082;  153.371;  -13.800;  811.440
933.640;  156.675;  -11.380;  925.900
934.197;  159.239;  -11.480;  886.360
934.754;  161.011;  -13.220;  897.780
935.312;  159.980;  -14.950;  863.340
935.869;  158.431;  -10.940; 1012.980
936.426;  152.518;  -12.100;  872.800
936.983;  151.954;  -12.930;  889.020
937.540;  154.290;  -14.250;  838.280
938.097;  160.096;  -12.600;  940.120
938.654;  164.990;  -11.260;  898.860
939.211;  168.353;  -13.020;  952.480
939.768;  169.639;  -15.760;  915.420
940.324;  174.472;  -13.920;  904.200
940.881;  172.308;  -11.620;  878.500
941.438;  169.692;   -9.870; 1021.200
941.995;  165.090;  -13.920;  992.560
942.551;  162.570;  -12.830;  875.620
943.108;  163.613;  -11.980;  937.920
943.664;  166.637;  -13.740;  869.340
944.221;  175.648;  -12.670; 1088.140
944.777;  174.749;  -13.250;  869.680
945.334;  170.759;  -13.000;  884.840
945.890;  169.224;  -13.020;  946.480
946.446;  167.308;  -13.880;  947.020
947.003;  168.704;  -12.660;  964.940
947.559;  169.191;   -8.730; 1063.040
948.115;  167.590;  -11.960; 1026.540
948.671;  163.315;  -12.360;  967.300
949.227;  158.858;  -12.700;  859.560
949.783;  155.507;  -13.450;  858.900
950.339;  154.968;  -10.620;  991.000
950.895;  152.272;  -14.770; 1023.840
951.451;  150.441;  -13.650;  925.280
952.007;  150.905;  -11.180;  998.540
952.563;  150.016;  -11.680;  937.780
953.118;  149.631;  -13.280;  904.940
953.674;  150.505;  -12.510;  935.780
954.230;  151.526;  -12.220;  949.640
954.785;  147.950;  -12.190;  936.640
955.341;  144.185;  -12.270;  998.160
955.897;  140.999;  -14.900;  834.660
956.452;  142.378;  -12.520;  953.840
957.008;  141.452;   -9.410; 1083.640
957.563;  140.264;  -11.280; 1009.540
958.118;  136.620;  -13.470;  877.700
958.674;  137.361;  -12.190;  946.780
959.229;  137.007;  -12.760; 1013.980
959.784;  141.659;  -15.710;  832.400
960.339;  146.120;  -12.540; 1001.280
960.894;  145.323;  -11.680;  963.760
961.449;  141.401;  -11.410;  859.960
962.004;  140.209;  -10.430; 1212.840
962.559;  133.365;  -14.040;  860.140
963.114;  128.584;  -14.270;  742.480
963.669;  128.602;  -11.320;  915.500
964.224;  128.533;  -14.620;  874.340
964.779;  127.982;  -14.150;  828.420
965.334;  127.770;  -10.850; 1017.860
965.888;  127.858;  -14.530;  875.360
966.443;  129.100;  -13.520;  972.380
966.998;  125.731;  -13.370;  819.460
967.552;  124.868;   -9.960;  908.380
968.107;  120.411;  -12.360;  868.300
968.661;  120.924;  -12.270;  922.440
969.216;  119.767;  -12.140;  856.280
969.770;  119.459;  -11.860;  917.200
970.324;  119.228;  -12.170;  923.140
970.879;  118.831;  -14.160;  947.180
971.433;  116.887;  -12.940;  952.720
971.987;  113.777;  -10.180;  895.340
972.541;  111.705;  -12.130;  917.100
973.095;  111.876;  -14.980; 1009.460
973.649;  111.118;  -14.480;  809.480
974.203;  113.255;  -13.530;  829.040
974.757;  113.942;  -12.060;  855.220
975.311;  112.577;  -13.240;  872.600
975.865;  111.369;  -12.550;  881.820
976.419;  110.178;  -13.180;  857.400
976.973;  110.070;  -14.100;  849.620
977.526;  107.996;  -13.330;  949.920
978.080;  104.375;  -15.390;  796.780
978.634;  103.394;  -11.670;  921.320
979.187;   99.037;  -10.640;  905.400
979.741;  100.634;  -13.330; 1018.380
980.294;   97.501;  -14.480;  789.160
980.848;   97.439;  -13.420;  717.220
981.401;   96.615;  -12.360;  816.540
981.955;   92.886;  -12.480;  844.300
982.508;   88.952;  -14.000;  746.340
983.061;   87.926;  -10.440;  915.260
983.615;   85.242;  -14.340;  798.800
984.168;   82.667;  -14.950;  770.080
984.721;   83.234;  -13.270;  880.760
985.274;   81.357;  -12.240;  867.500
985.827;   78.325;  -12.720;  834.220
986.380;   75.074;  -14.920;  721.340
986.933;   75.978;  -12.860;  864.800
987.486;   74.795;  -10.440;  861.920
988.039;   73.490;  -11.820;  863.100
988.591;   72.078;  -13.760;  893.260
989.144;   69.715;  -14.080;  737.260
989.697;   69.769;  -13.440;  758.740
990.250;   70.333;  -12.050;  858.100
990.802;   69.136;  -14.550;  755.860
991.355;   70.343;  -10.770;  974.880
991.907;   68.269;  -11.710;  864.320
992.460;   66.195;  -12.650;  753.760
993.012;   64.914;  -13.860;  749.540
993.565;   63.385;  -14.310;  711.360
994.117;   63.621;   -9.920;  950.780
994.669;   58.683;  -13.420;  701.320
995.221;   57.599;  -14.200;  791.920
995.774;   58.240;  -13.400;  787.580
996.326;   57.445;  -11.850;  740.220
996.878;   57.290;  -12.230;  838.420
997.430;   55.245;  -14.260;  699.860
997.982;   54.588;  -11.430;  750.140
998.534;   54.640;  -11.590;  739.060
999.086;   53.215;  -11.960;  738.220
999.638;   52.492;  -13.640;  661.380
1000.190;   51.922;  -13.660;  699.320
1000.741;   51.678;   -9.980;  742.700
1001.293;   50.568;  -11.860;  686.020
1001.845;   49.937;  -14.280;  676.640
1002.396;   50.691;  -12.270;  743.400
1002.948;   49.075;  -13.670;  737.400
1003.500;   48.074;  -12.010;  723.780
1004.051;   49.444;  -11.890;  907.580
1004.603;   47.833;  -11.220;  791.820
1005.154;   44.105;  -13.210;  608.980
1005.705;   43.512;  -11.850;  723.960
1006.257;   42.918;  -13.670;  707.220
1006.808;   42.265;  -12.060;  685.460
1007.359;   42.630;  -10.250;  763.240
1007.910;   39.945;  -13.440;  646.640
1008.461;   40.332;  -13.170;  732.940
1009.013;   38.875;  -14.590;  588.340
1009.564;   40.145;  -12.100;  793.520
1010.115;   37.703;  -14.000;  597.040
1010.665;   38.086;  -15.020;  602.160
1011.216;   38.634;  -12.560;  667.920
1011.767;   37.616;  -11.330;  697.920
1012.318;   37.980;  -11.450;  736.980
1012.869;   37.103;  -11.000;  679.000
1013.419;   36.308;  -11.760;  603.120
1013.970;   37.089;  -11.800;  666.640
1014.521;   35.773;  -14.750;  620.620
1015.071;   36.377;  -14.430;  670.380
1015.622;   35.603;  -14.170;  635.460
1016.172;   34.765;  -11.700;  596.820
1016.723;   34.180;  -13.230;  614.380
1017.273;   34.341;  -16.120;  604.160
1017.823;   35.200;  -13.360;  650.340
1018.374;   33.939;  -13.710;  611.760
1018.924;   33.864;  -11.050;  716.880
1019.474;   33.978;  -14.120;  718.880
1020.024;   33.329;  -12.990;  657.580
1020.574;   33.807;  -12.010;  726.160
1021.124;   33.837;  -12.080;  673.580
1021.674;   31.850;  -15.860;  559.120
1022.224;   33.755;  -11.710;  708.940
1022.774;   32.645;  -13.030;  668.820
1023.324;   33.567;  -11.000;  753.520
1023.874;   34.101;  -13.270;  875.760
1024.423;   31.472;  -14.570;  613.700
1024.973;   31.685;  -12.620;  610.760
1025.523;   30.182;  -12.630;  620.960
1026.072;   30.387;  -14.110;  606.420
1026.622;   30.148;  -15.390;  675.740
1027.172;   32.233;   -9.090;  715.660
1027.721;   29.570;  -12.250;  601.220
1028.270;   30.280;  -15.590;  663.400
1028.820;   29.887;  -13.840;  638.080
1029.369;   29.568;  -13.170;  612.700
1029.918;   28.969;  -14.080;  649.840
1030.468;   29.049;  -13.860;  564.780
1031.017;   29.865;  -12.970;  634.800
1031.566;   28.874;  -12.320;  608.900
1032.115;   29.768;  -13.140;  694.500
1032.664;   27.935;  -14.560;  596.480
1033.213;   29.759;  -11.620;  735.420
1033.762;   28.089;  -13.190;  635.620
1034.311;   27.382;  -13.460;  677.220
1034.860;   27.940;  -15.770;  691.000
1035.408;   27.971;  -13.100;  722.720
1035.957;   28.488;  -12.880;  719.540
1036.506;   25.425;  -13.640;  530.800
1037.055;   28.722;  -12.420;  844.320
1037.603;   28.001;  -13.740;  664.000
1038.152;   25.357;  -13.840;  534.760
1038.700;   25.745;  -10.770;  585.740
1039.249;   26.361;  -13.520;  681.220
1039.797;   26.451;  -13.060;  633.360
1040.345;   26.390;  -11.760;  705.420
1040.894;   24.656;  -10.790;  625.300
1041.442;   25.998;  -15.420;  632.200
1041.990;   24.075;  -14.550;  559.160
1042.538;   23.866;  -15.620;  536.180
1043.087;   23.487;  -14.940;  570.860
1043.635;   25.021;  -12.100;  670.500
1044.183;   24.615;  -13.200;  586.400
1044.731;   24.364;  -11.630;  576.000
1045.279;   24.059;  -14.200;  674.920
1045.827;   26.491;  -12.510;  892.400
1046.374;   23.189;  -14.960;  515.420
1046.922;   22.695;  -11.850;  590.580
1047.470;   23.754;  -13.770;  691.300
1048.018;   23.452;  -15.380;  647.960
1048.565;   24.717;  -14.010;  708.600
1049.113;   21.987;  -14.620;  557.000
1049.660;   23.265;  -14.940;  629.660
1050.208;   23.050;  -14.540;  675.640
1050.755;   22.325;  -13.710;  606.580
1051.303;   22.774;  -11.880;  686.820
1051.850;   22.460;  -12.160;  635.120
1052.397;   20.119;  -15.110;  473.960
1052.945;   21.245;  -14.770;  617.760
1053.492;   22.599;  -12.320;  741.840
1054.039;   21.827;  -13.290;  720.180
1054.586;   20.654;  -15.210;  557.240
1055.133;   22.751;  -12.920;  693.140
1055.680;   22.034;  -12.610;  646.620
1056.227;   20.045;  -12.620;  542.780
1056.774;   21.967;  -13.010;  794.980
1057.321;   20.288;  -16.180;  523.260
1057.868;   20.808;  -11.230;  651.320
1058.415;   20.307;  -10.890;  651.980
1058.961;   20.772;  -12.530;  678.940
1059.508;   20.759;  -14.120;  643.820
1060.055;   20.145;  -13.340;  581.780
1060.601;   19.990;  -12.920;  624.300
1061.148;   20.097;  -14.430;  616.820
1061.694;   18.883;  -14.140;  592.580
1062.241;   19.493;  -12.550;  596.320
1062.787;   19.204;  -13.370;  663.140
1063.334;   21.289;  -12.260;  808.560
1063.880;   19.652;  -10.800;  668.360
1064.426;   19.538;   -9.920;  706.820
1064.972;   17.995;  -12.970;  601.340
1065.518;   17.597;  -14.440;  566.640
1066.065;   18.860;  -12.680;  624.460
1066.611;   17.799;  -13.520;  598.800
1067.157;   18.312;  -11.100;  641.860
1067.703;   18.117;  -14.100;  668.480
1068.249;   18.623;  -13.750;  605.220
1068.794;   18.726;  -11.070;  626.880
1069.340;   17.208;  -13.210;  578.960
1069.886;   17.519;  -14.850;  590.700
1070.432;   17.142;  -14.580;  541.720
1070.977;   16.704;  -12.930;  601.080
1071.523;   16.459;  -11.970;  573.060
1072.068;   16.494;  -13.730;  582.000
1072.614;   16.882;  -14.550;  527.760
1073.160;   17.692;  -13.690;  687.040
1073.705;   15.952;  -14.780;  572.520
1074.250;   16.451;  -15.430;  559.900
1074.796;   16.901;  -11.620;  655.160
1075.341;   17.058;  -11.580;  664.100
1075.886;   15.693;  -13.190;  594.240
1076.431;   16.172;  -13.630;  649.880
1076.976;   16.326;  -11.670;  639.220
1077.521;   15.685;  -11.600;  583.080
1078.067;   14.226;  -13.920;  579.400
1078.612;   15.164;  -12.910;  661.620
1079.156;   15.127;  -15.340;  601.540
1079.701;   15.535;  -12.560;  693.260
1080.246;   15.714;  -12.490;  696.300
1080.791;   14.558;  -14.550;  625.020
1081.336;   16.265;  -15.210;  659.320
1081.880;   15.272;  -11.280;  649.680
1082.425;   13.844;  -12.830;  573.480
1082.970;   16.038;  -11.680;  717.040
1083.514;   14.932;  -15.500;  597.000
1084.059;   13.616;  -11.770;  586.720
1084.603;   13.142;  -13.480;  565.840
1085.147;   13.943;  -13.940;  645.220
1085.692;   14.900;  -13.170;  716.800
1086.236;   12.429;  -15.740;  503.140
1086.780;   15.577;  -10.750;  751.440
1087.325;   13.220;  -14.900;  654.620
1087.869;   13.736;  -15.160;  610.700
1088.413;   14.169;  -11.030;  705.040
1088.957;   12.524;  -15.210;  543.400
1089.501;   14.730;  -12.310;  766.640
1090.045;   13.658;  -12.790;  726.480
1090.589;   11.882;  -14.040;  569.920
1091.133;   13.424;  -12.800;  673.340
1091.676;   12.511;  -13.600;  591.940
1092.220;   12.442;  -12.960;  600.920
1092.764;   13.581;  -10.830;  706.960
1093.307;   12.292;  -12.390;  673.780
1093.851;   10.936;  -15.850;  556.540
1094.395;   12.706;  -12.980;  683.140
1094.938;   11.981;  -13.670;  632.520
1095.482;   11.432;  -12.740;  559.800
1096.025;   12.080;  -13.340;  710.880
1096.568;   14.008;  -10.500;  779.280
1097.112;    8.991;  -13.500;  508.180
1097.655;   11.322;  -13.060;  603.000
1098.198;    9.597;  -13.240;  600.180
1098.741;   10.434;  -15.490;  612.860
1099.285;   12.440;  -13.410;  657.300
1099.828;    8.911;  -15.640;  439.400
1100.371;   10.328;  -13.980;  608.160
1100.914;   11.418;  -13.990;  682.660
1101.457;   10.720;  -15.030;  679.900
1101.999;    9.103;  -12.480;  584.680
1102.542;   10.406;  -12.410;  641.440
1103.085;    9.790;  -14.730;  658.500
1103.628;   11.403;  -12.190;  762.060
1104.170;    9.522;  -12.360;  588.280
1104.713;    9.825;  -13.350;  646.700
1105.256;    9.591;  -14.930;  557.440
1105.798;    8.158;  -15.150;  499.980
1106.341;   10.517;  -13.230;  728.900
1106.883;    8.371;  -14.680;  521.340
1107.425;    9.394;  -14.810;  668.180
1107.968;    9.332;  -12.940;  612.380
1108.510;   10.209;  -10.550;  684.960
1109.052;    7.609;  -15.640;  612.620
1109.594;    8.422;  -14.440;  554.440
1110.136;    9.205;  -11.380;  643.220
1110.679;    8.273;  -13.090;  633.080
1111.221;    8.638;  -14.230;  604.460
1111.763;    7.648;  -14.260;  559.220
1112.304;    7.836;  -14.510;  547.140
1112.846;    8.362;  -14.700;  666.240
1113.388;   11.689;  -12.270;  942.180
1113.930;    9.001;  -13.340;  694.200
1114.472;    8.082;  -12.560;  606.540
1115.013;    6.188;  -14.280;  551.280
1115.555;    6.992;  -14.010;  587.100
1116.097;    6.632;  -14.730;  579.480
1116.638;    7.219;  -12.160;  684.600
1117.180;    7.886;  -14.320;  667.740
1117.721;    6.600;  -15.730;  568.580
1118.262;    8.456;  -13.480;  677.960
1118.804;    7.816;  -11.530;  637.340
1119.345;    6.088;  -13.540;  578.400
1119.886;    7.805;  -14.470;  704.040
1120.427;    6.840;  -13.030;  589.020
1120.969;    6.357;  -13.150;  597.920
1121.510;    5.178;  -13.940;  563.060
1122.051;    6.708;  -12.310;  723.580
1122.592;    6.016;  -13.870;  655.420
1123.133;    4.904;  -12.890;  547.940
1123.673;    6.639;  -13.300;  706.480
1124.214;    6.103;  -14.000;  612.460
1124.755;    7.352;  -13.210;  639.460
1125.296;    6.217;  -13.450;  627.320
1125.836;    6.797;  -12.610;  691.500
1126.377;    4.908;  -15.840;  599.660
1126.918;    6.653;  -11.830;  614.980
1127.458;    5.569;  -11.830;  622.220
1127.999;    6.516;  -11.490;  656.980
1128.539;    5.741;  -12.900;  694.240
1129.079;    5.218;  -14.910;  632.720
1129.620;    4.550;  -12.920;  558.100
1130.160;    4.175;  -14.640;  539.480
1130.700;    4.842;  -13.270;  640.840
1131.240;    5.984;  -14.110;  643.700
1131.781;    4.585;  -13.130;  619.680
1132.321;    4.310;  -15.220;  599.120
1132.861;    3.305;  -15.670;  564.200
1133.401;    4.041;  -13.970;  593.940
1133.941;    5.032;  -13.740;  626.280
1134.481;    3.305;  -13.200;  597.580
1135.020;    3.232;  -14.830;  609.160
1135.560;    4.875;  -14.590;  674.940
1136.100;    2.981;  -13.730;  501.160
1136.640;    2.630;  -15.240;  510.480
1137.179;    2.850;  -14.710;  537.960
1137.719;    3.688;  -14.090;  605.400
1138.258;    4.274;  -12.470;  587.360
1138.798;    4.268;  -12.580;  663.780
1139.337;    1.968;  -16.480;  482.840
1139.877;    3.906;  -13.970;  642.360
1140.416;    5.706;   -9.870;  878.060
1140.955;    2.091;  -14.860;  535.380
1141.494;    3.770;  -14.530;  669.280
1142.034;    2.962;  -13.940;  583.520
1142.573;    3.792;  -11.160;  646.280
1143.112;    1.796;  -15.050;  553.480
1143.651;    2.680;  -15.390;  536.480
1144.190;    3.926;  -12.990;  691.640
1144.729;    3.317;  -12.220;  607.420
1145.267;    2.732;  -14.020;  584.900
1145.806;    3.190;  -12.740;  637.040
1146.345;    2.764;  -14.810;  635.020
1146.884;    2.853;  -12.920;  622.500
1147.422;    1.521;  -13.930;  533.060
1147.961;    3.562;  -11.830;  708.460
1148.500;    3.626;  -12.710;  669.720
1149.038;    3.297;  -14.420;  632.500
1149.577;    2.201;  -13.920;  698.640
1150.115;    0.764;  -17.050;  452.280
1150.653;    2.088;  -14.890;  607.340
1151.192;    2.190;  -15.270;  552.920
1151.730;    1.584;  -13.160;  652.560
1152.268;    1.062;  -15.430;  589.520
1152.806;    1.549;  -15.880;  571.180
1153.344;    0.340;  -13.240;  577.640
1153.882;    1.432;  -13.010;  600.060
1154.421;   -0.887;  -16.180;  470.620
1154.958;    0.886;  -13.880;  595.240
1155.496;    1.800;  -13.590;  645.280
1156.034;    1.680;  -11.910;  721.880
1156.572;    2.435;  -12.010;  667.060
1157.110;   -0.030;  -16.250;  473.940
1157.647;    1.506;  -15.230;  676.960
1158.185;    0.465;  -13.770;  564.320
1158.723;   -0.227;  -15.300;  509.200
1159.260;    1.419;  -13.130;  701.700
1159.798;    1.474;  -11.300;  658.160
1160.335;    0.305;  -13.210;  631.820

