
Integration time [ms]:   3.276
Averaging Nr. [scans]: 1000
Smoothing Nr. [pixels]: 0
Data measured with spectrometer [name]: 7414430SP
Wave   ;Sample   ;Dark     ;Reference
[nm]   ;[counts] ;[counts] ;[counts] 

288.544;  150.011;    7.793;  793.890
289.143;  154.604;    7.462;  681.602
289.742;  154.027;    8.602;  828.814
290.341;  139.372;    1.321;  789.841
290.940;  129.596;   -0.709;  730.702
291.538;  129.850;    0.881;  881.108
292.137;  130.124;    0.122;  792.581
292.736;  134.800;   -1.929;  975.101
293.335;  130.118;   -8.229;  735.086
293.934;  131.704;   -5.279;  781.677
294.532;  129.813;   -1.369; 1031.958
295.131;  116.064;   -7.641;  834.394
295.730;  115.680;   -8.420;  809.588
296.328;  114.929;   -5.611;  783.442
296.927;  115.761;   -5.781;  779.652
297.525;  117.026;   -6.361;  781.236
298.124;  106.140;  -11.382;  654.009
298.722;  111.266;   -7.641;  761.933
299.321;  108.413;   -6.811;  708.597
299.919;  106.296;   -6.991;  751.918
300.518;  102.500;  -10.362;  689.338
301.116;  105.499;   -9.581;  691.381
301.715;  105.607;   -4.891;  730.222
302.313;  103.919;   -8.801;  704.943
302.911;   98.523;   -8.522;  733.830
303.509;  105.254;   -6.171;  925.627
304.108;  102.921;   -7.311;  760.383
304.706;  101.844;   -8.321;  801.664
305.304;   96.276;  -10.222;  796.707
305.902;  101.155;   -6.021;  784.484
306.500;   97.182;   -4.971;  728.200
307.098;   95.813;   -7.061;  746.560
307.696;   94.138;   -8.801;  780.432
308.294;   94.483;   -6.411;  731.359
308.892;   96.152;   -2.901;  759.769
309.490;   92.163;   -5.041;  712.161
310.088;   90.966;   -5.002;  788.444
310.686;   94.532;   -2.041;  821.749
311.284;   91.082;   -2.351;  766.040
311.882;   88.418;   -4.422;  731.225
312.480;   85.504;   -4.192;  697.167
313.078;   86.447;   -1.172;  808.331
313.675;   87.798;   -2.601;  691.600
314.273;   82.213;   -1.312;  797.837
314.871;   81.992;   -3.942;  589.829
315.468;   79.781;   -2.802;  652.090
316.066;   83.230;   -0.701;  694.427
316.664;   75.237;   -4.362;  656.351
317.261;   79.653;   -2.872;  910.128
317.859;   75.232;   -2.022;  768.735
318.456;   75.422;   -0.531;  830.096
319.054;   71.585;   -3.912;  787.828
319.651;   70.259;   -4.752;  759.928
320.249;   70.167;   -2.602;  810.188
320.846;   67.330;   -0.821;  714.286
321.443;   64.968;   -4.642;  832.135
322.041;   61.500;   -5.002;  812.315
322.638;   58.873;   -3.982;  701.456
323.235;   60.872;   -3.411;  665.683
323.833;   57.921;   -7.361;  740.354
324.430;   53.259;   -8.611;  615.900
325.027;   54.440;   -4.061;  876.855
325.624;   54.539;   -4.031;  644.532
326.221;   50.940;   -7.481;  689.717
326.818;   49.918;   -5.281;  818.332
327.415;   53.905;   -7.460;  748.828
328.012;   53.251;   -5.510;  690.585
328.609;   52.189;   -7.880;  731.389
329.206;   49.912;   -8.331;  778.621
329.803;   50.307;   -5.121;  737.841
330.400;   53.137;   -4.510;  704.260
330.997;   54.834;   -6.441;  817.147
331.594;   52.798;   -8.831;  788.185
332.191;   58.416;   -7.621;  728.722
332.787;   60.622;   -4.591;  844.463
333.384;   58.650;   -7.412;  763.093
333.981;   57.402;   -8.293;  815.687
334.578;   60.552;   -7.052;  708.378
335.174;   64.109;   -3.102;  731.469
335.771;   63.525;   -5.943;  836.456
336.367;   59.735;   -7.393;  710.631
336.964;   64.243;   -4.063;  793.266
337.561;   61.907;   -3.813;  731.112
338.157;   57.969;   -4.654;  911.916
338.754;   54.932;   -7.934;  796.589
339.350;   53.162;   -4.414;  722.493
339.946;   54.686;   -4.664;  773.135
340.543;   47.406;   -6.375;  846.136
341.139;   41.685;   -9.815;  720.836
341.735;   40.094;   -4.526;  772.593
342.332;   38.504;   -4.895;  691.472
342.928;   38.325;   -4.295;  795.394
343.524;   32.690;   -5.476;  761.684
344.120;   29.591;   -5.856;  738.562
344.716;   33.038;   -2.155;  723.717
345.313;   30.218;   -6.275;  795.342
345.909;   23.854;   -8.815;  627.336
346.505;   26.735;   -5.305;  740.247
347.101;   27.320;   -2.674;  827.864
347.697;   27.071;   -4.344;  785.398
348.293;   22.051;   -9.975;  627.244
348.889;   23.328;   -5.774;  745.914
349.485;   22.241;   -5.004;  688.205
350.081;   23.217;   -4.704;  772.592
350.676;   18.443;   -6.635;  691.606
351.272;   22.047;   -4.504;  809.530
351.868;   21.970;   -3.914;  780.497
352.464;   19.157;   -9.044;  723.932
353.059;   15.579;   -8.314;  646.017
353.655;   18.992;   -7.024;  777.063
354.251;   20.657;   -5.343;  759.845
354.846;   14.825;   -8.604;  740.646
355.442;   12.118;   -6.945;  753.071
356.038;   14.589;   -7.564;  751.708
356.633;   14.557;   -5.814;  728.594
357.229;   11.093;   -7.364;  724.757
357.824;   10.208;   -8.024;  703.600
358.420;    9.320;   -9.384;  679.726
359.015;   10.338;   -5.104;  695.357
359.610;   11.579;   -6.854;  763.920
360.206;    4.492;  -10.185;  603.240
360.801;    8.062;   -7.054;  646.503
361.396;   10.343;   -5.034;  725.975
361.992;    5.675;   -8.284;  668.220
362.587;    2.541;   -8.625;  670.160
363.182;    4.969;   -7.674;  689.631
363.777;    6.079;   -5.164;  738.242
364.372;    5.249;   -8.604;  737.314
364.967;    1.247;   -9.055;  680.744
365.563;    5.186;   -6.114;  815.567
366.158;    3.546;   -5.814;  685.161
366.753;    2.966;   -7.854;  649.263
367.348;    1.859;   -7.804;  746.056
367.942;    1.589;   -7.954;  697.298
368.537;    0.955;   -4.984;  754.245
369.132;    0.698;   -8.564;  703.428
369.727;   -2.957;   -8.855;  638.079
370.322;   -1.533;   -6.245;  580.186
370.917;   -1.981;   -6.425;  710.646
371.511;    0.317;   -6.294;  861.834
372.106;   -3.060;   -7.685;  776.964
372.701;   -5.617;   -7.335;  585.988
373.296;    0.187;   -4.564;  863.135
373.890;   -4.733;  -10.235;  647.840
374.485;   -7.007;   -7.885;  691.199
375.079;   -4.106;   -7.324;  738.685
375.674;   -2.577;   -3.494;  812.970
376.268;   -7.176;   -8.525;  691.759
376.863;  -11.999;  -10.086;  580.327
377.457;   -6.004;   -7.025;  662.490
378.052;   -7.616;   -3.585;  764.884
378.646;   -8.618;   -7.595;  741.167
379.240;   -8.644;   -8.335;  721.176
379.835;   -7.779;   -5.785;  636.978
380.429;  -10.370;   -4.335;  562.557
381.023;  -10.348;   -6.805;  779.205
381.617;  -12.625;   -9.195;  680.106
382.212;   -9.056;   -6.905;  685.303
382.806;   -8.259;   -3.745;  760.690
383.400;  -12.813;   -7.745;  672.281
383.994;  -13.286;   -9.765;  664.870
384.588;   -8.710;   -6.564;  697.701
385.182;   -7.846;   -5.344;  726.624
385.776;   -9.606;   -8.514;  706.875
386.370;  -13.450;   -9.555;  681.968
386.964;  -11.436;   -8.715;  684.155
387.558;   -9.691;   -6.174;  598.360
388.152;  -13.742;   -8.725;  681.959
388.745;  -11.867;   -7.965;  814.707
389.339;  -10.398;   -5.924;  747.642
389.933;   -9.064;   -5.524;  695.370
390.527;  -10.432;   -7.114;  859.029
391.120;  -16.510;  -10.725;  595.318
391.714;  -13.276;   -8.035;  711.633
392.308;  -10.164;   -3.574;  780.253
392.901;  -14.103;   -7.245;  642.460
393.495;  -15.526;   -9.285;  595.414
394.089;  -13.274;   -5.895;  760.452
394.682;  -13.589;   -4.295;  697.188
395.275;  -14.823;   -9.875;  719.927
395.869;  -16.293;   -8.485;  667.314
396.462;  -14.886;   -7.455;  616.609
397.056;  -10.202;   -5.424;  776.621
397.649;  -15.588;   -6.605;  731.575
398.242;  -13.372;   -8.224;  712.645
398.836;  -11.956;   -7.474;  766.408
399.429;  -13.236;   -7.094;  631.041
400.022;  -16.658;   -9.475;  665.902
400.615;  -14.806;   -7.145;  805.609
401.208;  -12.455;   -7.174;  691.451
401.802;  -14.625;   -5.515;  699.329
402.395;  -15.772;   -9.875;  683.502
402.988;  -16.009;   -8.845;  696.627
403.581;  -13.274;   -8.874;  646.878
404.174;  -10.742;   -5.324;  686.568
404.767;  -14.438;   -9.575;  638.583
405.360;  -16.739;  -10.965;  621.445
405.953;  -11.277;   -8.764;  759.034
406.545;  -10.188;   -7.514;  725.342
407.138;  -15.392;  -10.025;  618.350
407.731;  -13.840;  -10.034;  613.303
408.324;   -9.596;   -9.374;  660.554
408.917;  -10.657;   -6.534;  681.864
409.509;  -11.703;   -8.004;  740.396
410.102;  -14.559;   -9.875;  643.948
410.695;   -8.675;   -8.604;  665.758
411.287;   -9.148;   -6.794;  599.821
411.880;  -11.367;   -9.334;  585.421
412.472;  -13.619;  -10.254;  613.092
413.065;  -10.635;   -6.714;  629.408
413.657;   -8.917;   -7.234;  576.678
414.250;   -8.706;  -10.544;  646.681
414.842;   -9.908;   -9.744;  676.353
415.434;   -8.038;   -6.994;  570.463
416.027;   -3.988;   -5.893;  652.196
416.619;   -6.255;   -7.264;  713.400
417.211;   -6.202;  -10.374;  599.352
417.804;   -2.942;   -7.993;  628.499
418.396;   -6.684;   -7.234;  607.643
418.988;   -4.168;   -9.443;  659.238
419.580;   -8.741;  -10.724;  568.276
420.172;   -6.214;  -10.323;  536.196
420.764;   -1.270;   -8.793;  672.482
421.356;   -3.303;  -11.143;  636.898
421.948;   -3.842;   -8.293;  677.661
422.540;    1.593;   -7.893;  680.027
423.132;    0.576;   -7.082;  600.641
423.724;   -3.504;   -8.653;  561.267
424.316;   -0.749;  -10.213;  621.345
424.908;    2.409;   -9.762;  591.517
425.500;    3.070;   -5.572;  647.978
426.092;    3.632;   -8.422;  648.268
426.683;    2.526;   -9.283;  684.836
427.275;    5.640;   -7.852;  641.471
427.867;    7.803;   -5.272;  668.948
428.458;    7.359;   -7.682;  732.344
429.050;    6.411;  -10.612;  680.749
429.642;    8.043;   -9.882;  743.124
430.233;    8.339;   -6.962;  569.356
430.825;    9.750;   -6.842;  724.809
431.416;    7.097;   -9.672;  698.241
432.008;   10.989;   -6.552;  651.723
432.599;   11.613;   -6.891;  656.073
433.190;    8.312;  -10.912;  637.670
433.782;    7.926;  -11.172;  590.395
434.373;   15.135;   -6.061;  884.765
434.964;   14.666;   -8.251;  602.920
435.556;   11.723;   -9.722;  634.537
436.147;   14.309;   -9.082;  758.490
436.738;   15.170;   -8.041;  701.099
437.329;   19.606;   -7.341;  721.723
437.920;   12.775;   -8.162;  666.688
438.511;   12.572;  -11.802;  564.526
439.103;   19.959;  -10.191;  623.998
439.694;   20.477;   -7.601;  681.583
440.285;   21.413;   -8.541;  764.432
440.876;   19.567;   -9.751;  845.738
441.466;   19.354;   -9.401;  575.162
442.057;   25.065;   -7.760;  665.814
442.648;   23.623;   -9.971;  746.255
443.239;   21.471;  -11.001;  620.477
443.830;   26.789;   -7.990;  704.958
444.421;   28.957;   -7.910;  655.474
445.011;   24.261;   -8.131;  693.619
445.602;   24.239;   -7.111;  743.126
446.193;   26.759;  -10.920;  488.117
446.783;   31.233;   -6.500;  640.397
447.374;   26.752;   -8.671;  692.759
447.964;   26.703;  -10.781;  713.770
448.555;   35.166;   -9.650;  822.742
449.145;   31.873;   -8.660;  662.853
449.736;   32.717;   -8.990;  803.179
450.326;   32.440;   -9.500;  713.626
450.917;   37.864;   -8.680;  675.324
451.507;   36.645;   -7.520;  600.661
452.097;   36.655;   -8.590;  746.267
452.688;   38.459;  -11.340;  742.160
453.278;   38.044;  -10.100;  566.840
453.868;   42.524;   -6.019;  793.550
454.458;   39.948;   -9.440;  651.141
455.048;   41.128;  -10.560;  711.783
455.639;   41.551;  -11.799;  567.096
456.229;   45.613;   -6.899;  710.694
456.819;   47.330;   -7.389;  751.158
457.409;   47.573;  -11.119;  773.993
457.999;   50.685;   -9.289;  737.505
458.589;   50.758;   -6.139;  686.606
459.179;   49.629;   -8.729;  717.658
459.769;   48.989;   -9.789;  627.099
460.358;   53.262;  -10.259;  797.262
460.948;   52.678;   -7.299;  689.503
461.538;   54.218;  -10.289;  660.677
462.128;   52.382;  -11.269;  664.934
462.717;   59.235;   -9.368;  710.326
463.307;   63.205;   -7.908;  705.846
463.897;   57.341;   -9.599;  656.942
464.486;   57.210;   -9.769;  837.128
465.076;   62.341;   -8.048;  733.776
465.666;   66.268;   -9.358;  652.900
466.255;   62.802;   -7.919;  785.651
466.845;   62.092;  -11.689;  666.749
467.434;   64.450;   -7.818;  725.873
468.023;   66.773;   -7.678;  658.357
468.613;   64.145;  -10.939;  713.946
469.202;   68.519;  -10.118;  646.507
469.791;   72.520;   -9.108;  737.811
470.381;   74.283;   -6.058;  742.813
470.970;   74.376;  -10.428;  711.099
471.559;   73.505;  -10.268;  733.291
472.148;   77.030;   -8.448;  675.737
472.738;   79.298;   -6.917;  765.466
473.327;   79.025;  -11.978;  637.529
473.916;   78.646;  -11.888;  737.446
474.505;   82.133;   -9.437;  751.703
475.094;   86.358;   -6.747;  806.570
475.683;   85.075;   -9.367;  797.699
476.272;   85.271;  -12.637;  730.632
476.861;   88.367;  -10.027;  706.754
477.449;   94.953;   -8.716;  728.487
478.038;   89.428;   -9.577;  692.513
478.627;   90.568;   -9.718;  714.852
479.216;   96.823;   -8.947;  769.441
479.805;  100.573;   -6.256;  783.375
480.393;   99.992;   -7.937; 1008.945
480.982;   98.178;   -7.717;  874.501
481.571;  104.746;   -9.266;  858.333
482.159;  105.267;   -7.636;  705.386
482.748;  105.201;   -9.667;  821.385
483.336;  110.318;  -10.376;  858.209
483.925;  110.341;   -7.147;  774.373
484.513;  117.415;   -7.996;  758.962
485.102;  113.361;  -10.027;  810.965
485.690;  122.484;  -10.446; 1011.050
486.278;  124.521;   -8.446;  979.329
486.867;  124.667;   -6.356;  809.662
487.455;  127.354;   -9.136;  898.229
488.043;  128.314;  -10.646;  748.361
488.631;  137.189;   -7.456; 1005.079
489.220;  140.630;   -6.636;  908.626
489.808;  140.494;  -11.036;  741.415
490.396;  147.620;  -10.246;  914.645
490.984;  154.531;   -8.556;  830.161
491.572;  164.007;   -5.886;  940.315
492.160;  169.006;   -9.486;  919.081
492.748;  180.816;  -10.976;  884.341
493.336;  202.723;   -8.776; 1019.693
493.924;  227.783;   -5.465;  958.077
494.512;  255.196;   -9.986; 1066.638
495.100;  289.137;  -10.636; 1103.280
495.687;  344.256;  -10.885; 1206.373
496.275;  406.314;   -8.126; 1150.796
496.863;  472.790;  -10.586; 1281.171
497.451;  568.858;  -11.926; 1386.805
498.038;  698.609;  -10.885; 1556.729
498.626;  804.077;   -6.315; 1741.407
499.214;  948.613;   -7.326; 2016.609
499.801; 1141.944;  -11.906; 2220.633
500.389; 1376.869;  -10.466; 2312.494
500.976; 1665.221;   -5.236; 2744.849
501.564; 2091.085;   -8.936; 3148.565
502.151; 2444.265;  -13.176; 3515.999
502.738; 2842.365;  -10.646; 3971.274
503.326; 3232.114;   -9.525; 4403.796
503.913; 3619.239;  -10.856; 5161.749
504.500; 3986.488;  -11.586; 5986.420
505.088; 4341.902;  -10.336; 6381.201
505.675; 4879.588;   -6.355; 6925.547
506.262; 5547.139;   -9.046; 7619.060
506.849; 6268.696;  -10.416; 8733.969
507.436; 6807.529;  -10.305; 9790.121
508.023; 7372.791;   -5.496; 9985.472
508.610; 7594.528;   -7.856;10434.618
509.197; 8191.185;  -10.097;11198.435
509.784; 9528.563;  -10.886;12391.194
510.371;10682.920;   -9.315;13603.713
510.958;11411.529;   -9.936;14426.586
511.545;12082.044;   -9.326;15243.775
512.132;12926.104;  -10.075;15945.876
512.719;13415.883;   -7.796;16340.369
513.305;14475.436;  -10.606;18011.766
513.892;15182.966;  -11.486;19754.971
514.479;16290.248;   -9.126;20967.805
515.066;17766.857;   -6.026;22299.793
515.652;19388.859;   -8.466;22908.660
516.239;20655.070;  -10.886;23798.875
516.825;21541.484;  -11.496;25567.275
517.412;22438.088;   -5.796;28154.959
517.998;23152.457;  -10.506;28344.111
518.585;23155.762;  -10.076;27134.219
519.171;23728.566;   -8.315;27268.576
519.758;25505.889;   -8.596;28964.129
520.344;27575.943;   -8.466;30664.494
520.930;27398.213;  -11.006;32550.605
521.516;28322.848;  -10.495;35422.895
522.103;30170.719;   -5.526;38280.004
522.689;30624.172;   -8.746;37835.117
523.275;30314.637;  -11.376;37288.613
523.861;31964.244;  -11.156;37281.395
524.447;33642.797;   -8.135;37846.949
525.033;33376.570;   -7.896;38321.949
525.619;33675.105;  -12.476;38579.285
526.205;35144.402;   -9.516;40622.875
526.791;37924.473;   -6.926;42258.836
527.377;37879.168;   -8.346;42966.902
527.963;38818.359;   -8.717;42018.949
528.549;38149.219;  -11.016;42476.828
529.135;36886.453;   -8.536;41854.852
529.721;35765.984;   -9.666;41237.711
530.306;35120.836;  -10.066;41259.445
530.892;34964.074;  -11.356;41506.047
531.478;36299.422;   -6.596;43559.613
532.063;39634.980;   -8.836;47695.563
532.649;40761.047;  -10.047;50808.324
533.235;41135.430;   -9.746;51787.500
533.820;41024.445;   -6.566;52145.035
534.406;42453.000;  -10.817;51133.488
534.991;42589.316;   -9.416;49996.805
535.576;40813.797;   -9.036;48882.852
536.162;41547.602;   -6.156;46942.285
536.747;42800.703;  -11.607;45711.746
537.333;45426.043;  -11.787;48510.180
537.918;48490.430;  -12.437;50439.891
538.503;48063.797;   -7.196;50863.711
539.088;44684.324;  -10.556;50906.922
539.673;44526.059;   -8.767;52621.965
540.259;45192.270;  -10.026;52368.094
540.844;42687.879;   -7.416;50879.109
541.429;44276.441;   -9.467;52077.777
542.014;46351.098;   -9.527;52716.695
542.599;45630.543;   -9.946;52363.281
543.184;42816.145;   -7.927;53187.137
543.769;43707.418;   -9.297;54697.605
544.354;43805.961;  -10.127;53913.914
544.938;42437.238;   -9.267;49680.164
545.523;43977.059;   -6.506;47386.277
546.108;46652.242;   -9.787;49151.949
546.693;48606.844;  -11.587;51384.637
547.278;48949.375;  -10.986;51853.254
547.862;46169.328;   -8.206;51173.750
548.447;41985.941;  -10.067;51691.395
549.031;41048.383;   -9.637;52456.703
549.616;45265.762;   -9.926;52714.516
550.201;45151.066;   -6.347;52414.598
550.785;46269.609;   -7.917;52355.059
551.370;45536.582;  -10.867;54589.453
551.954;44953.230;   -9.047;58267.348
552.538;46005.355;   -7.827;59062.176
553.123;44796.980;  -10.287;58115.285
553.707;42501.684;  -12.178;56556.285
554.291;43783.180;   -8.717;56201.668
554.876;46989.781;   -7.457;55335.762
555.460;47210.031;  -10.387;54155.703
556.044;47248.113;   -9.618;53721.484
556.628;44931.438;  -11.567;53731.016
557.212;43732.160;   -8.097;54312.531
557.796;42942.773;  -11.077;53797.773
558.380;43183.527;  -11.108;56145.984
558.964;43085.332;   -9.057;57277.930
559.548;44138.711;   -6.977;56459.641
560.132;42304.672;  -11.457;54434.543
560.716;40657.723;  -11.378;54800.617
561.300;41656.414;   -9.577;57606.945
561.884;42695.410;   -7.127;58972.445
562.467;40676.652;   -7.118;57327.570
563.051;40142.980;  -13.358;54962.434
563.635;42003.785;  -10.178;52594.473
564.219;42435.117;   -7.837;50610.410
564.802;42835.465;  -11.398;49551.180
565.386;42366.973;  -12.788;48370.953
565.969;41741.227;   -9.077;48178.871
566.553;40528.172;   -6.207;49957.305
567.136;41327.371;   -8.568;50369.594
567.720;38452.496;  -11.868;49492.004
568.303;36538.039;   -8.268;50616.352
568.887;36583.555;   -8.698;50727.148
569.470;37211.715;   -6.808;51698.379
570.053;36482.332;  -13.188;52122.078
570.637;34175.445;  -12.037;52536.438
571.220;33813.254;   -8.577;51186.098
571.803;34994.934;   -8.498;51032.762
572.386;37115.855;  -10.498;49609.887
572.969;39364.539;   -9.388;48285.926
573.552;37817.285;   -8.338;47624.285
574.135;36250.398;   -8.518;45498.641
574.718;33802.703;  -13.628;41970.434
575.301;33171.313;  -10.893;41447.137
575.884;32539.926;   -8.158;40923.836
576.467;33752.488;  -10.328;45267.723
577.050;34991.680;  -13.058;48175.543
577.633;35913.195;   -9.458;47729.328
578.216;35142.441;   -8.928;47579.793
578.799;34353.184;   -9.358;47820.996
579.381;33433.688;  -11.388;48115.551
579.964;31249.889;  -11.718;47333.766
580.547;33240.777;   -8.588;46668.969
581.129;33956.242;   -8.859;44466.141
581.712;34642.004;  -10.729;44164.922
582.294;35041.953;  -11.118;46477.855
582.877;35127.789;   -5.218;48244.254
583.459;33294.938;   -8.679;47437.895
584.042;31111.736;  -10.709;46943.219
584.624;30679.434;  -11.669;46792.227
585.206;29927.355;   -8.218;46557.250
585.789;29143.373;  -10.569;45793.773
586.371;29382.475;  -11.859;43836.391
586.953;27752.463;  -10.719;42972.492
587.536;27729.986;   -7.198;42487.211
588.118;30866.535;   -8.720;42086.414
588.700;30827.898;  -10.439;43389.930
589.282;31486.377;   -9.198;43646.039
589.864;32997.703;   -9.199;43438.109
590.446;34492.402;  -11.319;43151.926
591.028;34641.715;  -11.159;42781.867
591.610;33300.953;  -11.779;42839.098
592.192;30429.105;   -7.668;42820.402
592.774;29139.072;  -11.949;40724.277
593.356;28092.842;  -12.129;39874.789
593.937;27100.090;  -10.669;39980.648
594.519;29285.467;   -6.509;42069.633
595.101;31405.180;  -10.849;42976.031
595.683;31389.123;  -11.679;44084.441
596.264;32190.277;   -9.049;43478.797
596.846;32161.002;   -8.849;43803.672
597.427;32092.055;   -9.570;42986.934
598.009;33365.016;  -12.620;42832.219
598.591;33487.941;  -10.039;42580.086
599.172;32995.922;  -10.369;43061.805
599.753;33223.398;   -9.140;41691.469
600.335;34515.000;  -11.430;40692.520
600.916;32751.410;   -9.939;39982.422
601.498;30737.547;   -8.479;40318.617
602.079;29274.072;  -10.920;40670.609
602.660;28837.533;  -11.480;41450.898
603.241;30649.680;  -11.699;41137.738
603.823;29514.387;   -9.579;38868.797
604.404;28405.221;  -10.620;38182.785
604.985;30063.205;  -10.450;38078.047
605.566;30401.324;   -9.129;38056.633
606.147;30389.877;   -7.510;37020.418
606.728;31836.121;  -10.660;37883.359
607.309;30475.053;  -11.740;38748.273
607.890;30337.941;   -9.759;38850.230
608.471;29921.961;   -8.250;37457.918
609.051;29167.064;   -9.240;36066.457
609.632;27848.457;  -12.120;35991.074
610.213;27930.369;   -9.110;37402.641
610.794;28657.867;   -8.030;38383.363
611.374;28628.777;   -8.110;40562.387
611.955;29562.809;  -13.560;38533.727
612.536;30879.424;  -11.400;36951.789
613.116;30490.088;   -8.070;37197.891
613.697;30938.789;  -10.830;38411.125
614.277;29084.195;  -11.641;38673.938
614.858;29775.213;  -13.310;37075.863
615.438;29519.084;   -7.460;35092.906
616.019;27535.680;   -7.601;33666.301
616.599;27704.826;  -12.020;34189.023
617.179;29216.369;  -11.780;36952.047
617.760;30237.297;   -8.570;39582.574
618.340;30964.580;  -11.471;38943.977
618.920;32009.309;  -11.170;37594.156
619.500;32038.182;  -11.071;37866.938
620.080;31048.285;   -7.750;37869.043
620.660;32015.166;  -12.711;36868.617
621.241;33700.520;  -10.211;36352.309
621.821;34370.082;  -10.961;35459.520
622.401;33210.336;   -7.720;35207.414
622.980;32027.898;   -8.981;35980.422
623.560;30604.922;   -9.331;37351.328
624.140;29210.814;   -9.850;34388.582
624.720;24596.063;   -7.451;32368.764
625.300;21323.461;   -9.070;32638.629
625.880;24659.023;  -12.601;34599.035
626.459;28731.260;  -11.751;36831.738
627.039;31575.973;   -9.281;38299.098
627.619;31441.957;   -8.801;38289.574
628.198;30034.119;  -12.071;37220.695
628.778;28987.254;   -9.461;37632.563
629.357;29442.443;   -8.491;38003.012
629.937;29784.223;   -9.721;38402.039
630.516;29381.785;   -9.951;37868.801
631.096;29137.473;  -11.731;35760.410
631.675;31105.885;   -8.572;35225.219
632.254;36295.988;  -11.282;35130.289
632.834;36135.965;  -13.322;35794.570
633.413;34469.383;  -10.301;35788.922
633.992;31994.947;   -8.582;34532.863
634.571;32255.223;   -8.352;33590.113
635.151;34896.457;  -11.912;34943.863
635.730;33751.152;  -10.511;35352.523
636.309;30566.533;   -7.731;35366.605
636.888;27914.900;   -9.952;36165.637
637.467;28182.621;  -11.672;37515.902
638.046;29521.133;   -8.901;39288.695
638.625;32260.641;   -7.912;38279.699
639.204;32178.549;  -10.022;37741.598
639.782;31190.590;  -12.252;38364.551
640.361;27634.537;  -10.041;36740.621
640.940;25000.445;  -11.161;34950.082
641.519;25766.074;   -9.701;34137.398
642.097;28565.420;  -11.271;35654.258
642.676;31192.217;   -8.651;35637.957
643.255;32496.051;   -8.711;36567.074
643.833;31860.691;   -9.581;37809.434
644.412;31954.271;  -13.711;37337.293
644.990;31022.713;  -11.811;37018.531
645.569;30699.338;   -9.411;36518.469
646.147;30120.723;  -10.291;36186.430
646.726;30331.197;  -12.401;36267.688
647.304;31247.508;  -10.411;36647.625
647.882;32438.287;   -9.651;39286.742
648.461;34105.422;   -9.631;39157.703
649.039;32747.666;  -11.881;35412.883
649.617;31813.904;   -9.661;34744.918
650.195;30782.365;   -9.301;35403.098
650.773;29428.367;  -10.511;35053.797
651.352;27276.400;  -11.521;33756.816
651.930;24974.389;  -12.211;31868.773
652.508;23514.264;   -9.171;33121.551
653.086;27316.563;   -9.371;33564.793
653.663;30430.760;  -13.161;34054.668
654.241;28879.393;  -13.031;35693.309
654.819;29992.807;   -9.371;36422.906
655.397;29967.795;  -10.511;38213.484
655.975;29635.322;  -10.371;39507.625
656.553;29357.678;  -10.051;39498.223
657.130;27952.951;  -10.061;40395.480
657.708;27161.809;   -9.561;39242.020
658.286;27341.740;  -11.511;38920.020
658.863;28586.828;  -10.261;40202.898
659.441;31857.443;   -7.531;39677.938
660.018;31907.055;   -9.501;40413.355
660.596;30503.309;  -13.301;39931.414
661.173;31959.693;  -11.211;39604.531
661.750;32416.107;   -9.951;39700.070
662.328;31174.287;   -9.390;39292.809
662.905;30223.848;  -11.330;38235.648
663.482;26268.428;   -9.050;36212.305
664.060;24389.998;   -8.240;35944.945
664.637;27255.902;  -10.050;35170.785
665.214;28527.660;  -11.760;34197.523
665.791;30046.475;  -10.530;34549.520
666.368;29389.129;   -9.690;35118.578
666.945;29869.402;   -9.320;36019.418
667.522;31316.494;  -11.860;36048.438
668.099;31041.355;  -10.770;36243.914
668.676;29741.816;   -6.260;35958.875
669.253;28534.596;   -7.000;37384.730
669.830;28747.078;  -10.190;36779.629
670.407;28708.967;   -9.550;35231.289
670.984;28575.480;   -9.260;35544.270
671.560;29547.838;   -9.280;35466.867
672.137;28996.891;  -11.810;34280.863
672.714;29864.463;  -11.490;34632.863
673.290;31090.676;   -7.740;35135.422
673.867;31080.318;  -10.660;36114.480
674.443;30901.436;  -12.230;36152.859
675.020;29003.576;  -10.450;35327.238
675.596;29722.305;   -9.260;35795.176
676.173;30289.025;  -10.780;35430.355
676.749;29964.656;  -13.690;33549.516
677.326;29769.475;  -11.980;32210.012
677.902;29613.400;   -8.630;32068.871
678.478;29088.531;  -10.730;32583.891
679.054;28152.377;  -10.520;32088.928
679.631;28415.563;  -11.920;30978.848
680.207;29895.824;   -7.490;33160.887
680.783;31451.354;   -9.860;35570.363
681.359;30638.041;  -13.380;36125.184
681.935;30399.787;  -12.480;35240.922
682.511;30430.229;   -7.900;34429.961
683.087;30824.066;   -7.710;34463.680
683.663;29894.514;  -11.480;34648.898
684.239;28433.555;  -14.090;34546.457
684.815;27852.500;   -7.560;35586.375
685.390;27887.611;   -9.910;35821.895
685.966;28362.543;  -11.159;35085.871
686.542;30801.449;  -11.169;34198.230
687.118;33291.480;   -5.959;32847.707
687.693;33975.418;  -10.329;32794.027
688.269;33655.180;  -12.059;33072.367
688.844;31916.965;  -10.909;33141.664
689.420;29972.787;   -8.019;33965.742
689.995;28123.199;   -8.399;34655.523
690.571;26527.568;  -10.949;33576.742
691.146;26471.824;   -9.619;32657.219
691.722;26428.570;   -8.999;32526.979
692.297;25932.018;  -11.589;33014.617
692.872;27225.906;  -11.739;34012.254
693.448;27176.785;  -11.059;34237.434
694.023;26211.527;  -10.139;34142.672
694.598;27998.338;   -9.029;34132.031
695.173;28805.102;  -13.319;34205.250
695.748;27849.691;  -10.169;32882.488
696.323;27814.924;   -8.339;32864.906
696.898;28130.785;   -8.169;33170.004
697.473;28393.383;  -12.309;32432.984
698.048;27706.906;  -10.989;31649.303
698.623;27305.646;   -9.329;30778.141
699.198;28629.730;   -9.849;31140.119
699.773;30044.727;  -12.329;31764.299
700.348;28814.115;  -10.389;31780.816
700.922;28722.049;   -9.269;32046.375
701.497;29873.531;   -9.329;32603.574
702.072;30332.992;  -10.789;34799.871
702.646;28827.234;  -10.839;35793.172
703.221;26450.348;   -9.099;35201.590
703.795;28305.449;  -10.939;34764.527
704.370;28858.770;  -12.859;34307.367
704.944;28975.346;  -11.559;33509.887
705.519;29527.652;   -7.939;31388.584
706.093;30822.590;  -10.499;31340.104
706.668;31392.982;  -11.289;32630.281
707.242;30333.127;  -11.509;32728.779
707.816;29061.805;   -9.639;32947.238
708.390;27443.293;  -11.429;33277.855
708.965;27761.711;  -11.869;33834.336
709.539;27748.059;  -11.689;33709.273
710.113;27912.113;  -10.478;33044.313
710.687;27551.201;  -10.228;31953.992
711.261;26036.762;  -13.698;30505.949
711.835;25746.498;  -13.378;30262.369
712.409;26005.625;   -9.698;31254.447
712.983;28053.422;  -11.898;32754.986
713.557;29437.941;  -15.138;34018.824
714.131;29282.322;  -14.098;34579.625
714.704;28221.201;   -9.958;33890.262
715.278;25696.193;  -10.028;33531.102
715.852;24483.531;  -11.148;33601.660
716.425;25649.672;   -9.068;33515.117
716.999;26824.563;  -10.038;33185.555
717.573;27633.828;   -9.798;33905.996
718.146;28704.943;  -12.378;35199.293
718.720;28825.324;  -11.918;35060.551
719.293;28626.428;   -8.088;34973.230
719.867;31645.395;  -10.888;36394.449
720.440;31627.268;  -11.938;36663.008
721.013;29901.924;  -12.818;35102.426
721.587;28237.264;  -10.298;33985.266
722.160;26987.348;  -10.048;33524.965
722.733;25870.410;  -12.108;32987.043
723.306;26041.852;  -10.818;33066.301
723.880;28309.404;   -8.908;33399.500
724.453;30829.990;   -9.878;33468.297
725.026;30209.100;  -11.188;33816.637
725.599;27203.352;  -11.678;32797.996
726.172;26947.092;   -9.618;33187.434
726.745;27919.279;   -8.258;35136.613
727.318;29080.723;  -12.978;35751.730
727.891;29895.857;  -12.148;35890.430
728.463;29548.973;   -8.968;34822.090
729.036;28231.320;  -10.188;32895.086
729.609;28623.164;  -11.788;31823.225
730.182;25899.195;  -11.788;31445.283
730.754;23566.375;  -10.268;32373.223
731.327;23928.209;   -9.998;33676.820
731.900;24325.566;  -12.228;33417.000
732.472;24985.744;  -13.848;31978.498
733.045;26447.557;   -8.698;30368.777
733.617;26560.594;  -10.607;30574.215
734.190;26944.996;  -11.507;31280.975
734.762;24852.586;  -13.647;31674.412
735.334;22965.074;   -9.767;31247.291
735.907;23206.854;   -9.897;29876.211
736.479;23552.484;  -11.637;29808.488
737.051;23137.963;   -9.567;30233.547
737.623;23600.311;   -8.187;31469.086
738.195;23884.723;  -11.187;31784.225
738.768;25949.605;  -12.337;32120.523
739.340;26940.719;  -12.227;32094.342
739.912;26072.773;  -11.057;31312.680
740.484;24622.260;  -10.207;31946.238
741.056;22953.773;  -10.047;32984.059
741.628;23983.717;  -13.627;33897.715
742.199;26103.430;   -7.177;33213.016
742.771;24956.373;  -10.797;31369.113
743.343;22928.605;  -11.997;31865.473
743.915;21963.072;  -12.867;32388.631
744.487;21928.639;   -7.617;31079.568
745.058;22052.223;   -9.557;30570.107
745.630;22745.859;   -9.877;29970.127
746.201;24119.100;  -14.177;29186.766
746.773;24894.861;   -9.237;28805.723
747.344;24590.092;   -9.847;29591.223
747.916;22589.789;  -11.657;31412.201
748.487;22535.895;  -10.587;32194.898
749.059;23905.920;   -8.707;32533.719
749.630;24646.568;  -10.537;32158.518
750.201;23716.697;  -11.687;30855.395
750.773;22013.625;  -11.647;28622.555
751.344;21691.439;   -7.147;28405.732
751.915;22576.357;   -9.757;28461.551
752.486;22843.813;  -12.427;27842.850
753.057;20895.668;  -12.227;27845.008
753.628;19599.877;  -10.417;27728.107
754.199;20457.836;  -11.767;27381.086
754.770;21571.135;  -11.187;25882.203
755.341;21860.078;  -10.507;25886.184
755.912;22023.283;   -9.387;26050.861
756.483;21460.699;  -10.647;26798.779
757.054;19713.406;  -11.837;27048.238
757.625;18279.953;  -12.716;26294.838
758.195;18069.813;   -9.666;26142.076
758.766;17736.588;   -8.656;26392.234
759.337;18257.531;  -12.856;26334.594
759.907;19689.926;  -13.366;27579.652
760.478;20622.865;   -8.576;28352.770
761.048;20183.445;  -10.526;27325.088
761.619;19220.604;  -11.116;26460.428
762.189;19251.607;  -12.136;26029.826
762.760;20278.506;   -9.456;26430.145
763.330;21529.219;   -7.136;26670.902
763.900;21212.986;  -11.786;26603.021
764.471;18832.811;  -11.546;25542.740
765.041;17487.094;   -8.096;24358.459
765.611;17272.002;   -8.876;23991.297
766.181;17389.090;  -12.196;24470.236
766.751;18468.176;  -11.636;24845.975
767.321;18451.791;  -10.156;24533.633
767.891;16512.574;  -11.766;24916.492
768.461;15840.865;  -14.936;24776.771
769.031;16260.696;  -12.356;24757.988
769.601;17950.924;   -7.526;24181.088
770.171;18041.023;  -10.766;23670.387
770.741;16986.805;  -13.176;22960.045
771.311;16941.428;  -10.616;22917.523
771.880;17645.494;   -9.576;23562.941
772.450;17682.400;  -10.336;24216.500
773.020;17673.777;  -13.516;24140.398
773.589;16769.354;  -13.466;24414.857
774.159;15942.736;   -8.686;23858.717
774.729;15472.709;   -9.476;22942.135
775.298;15128.385;  -13.666;22324.033
775.867;14724.649;  -11.716;21140.313
776.437;14980.947;   -9.906;20838.092
777.006;14805.080;  -12.166;20599.510
777.576;14394.549;  -12.356;20508.809
778.145;14325.394;  -11.646;20732.947
778.714;14447.122;   -8.226;21062.465
779.283;13976.598;   -9.556;20949.664
779.853;13391.884;  -14.116;20508.623
780.422;13745.940;  -11.506;20649.082
780.991;13346.635;   -9.556;21527.520
781.560;12065.951;   -9.095;22632.658
782.129;11830.556;  -12.135;23048.277
782.698;11848.155;  -10.865;23438.555
783.267;11485.822;   -9.335;23267.734
783.836;11415.952;  -11.045;22415.133
784.404;12411.811;  -13.865;20443.152
784.973;13133.673;  -13.095;19699.150
785.542;13218.834;  -11.575;19763.828
786.111;12955.276;   -9.705;20341.408
786.679;12450.067;  -12.105;20207.967
787.248;12186.920;  -12.455;19516.465
787.817;12049.892;  -11.535;18900.363
788.385;11759.473;   -9.765;17879.121
788.954;11239.302;  -14.005;17658.301
789.522;10538.161;  -11.955;17788.879
790.090;10866.726;  -10.135;18118.277
790.659;11505.831;  -10.975;18338.736
791.227;11225.291;  -13.375;18508.615
791.795;11638.271;  -12.375;17898.254
792.364;12006.405;  -10.725;17295.133
792.932;12363.527;   -9.715;16822.051
793.500;12615.476;  -12.675;17040.148
794.068;12774.409;  -13.495;17179.787
794.636;12918.407;  -10.885;16664.246
795.204;12201.024;  -11.045;16524.545
795.772;12152.208;  -13.175;17274.564
796.340;11698.051;  -12.445;17891.002
796.908;11454.082;   -9.735;17648.561
797.476;11307.204;   -9.815;17064.080
798.044;10875.832;  -13.985;16672.777
798.612;10133.947;  -13.115;17023.996
799.180; 9768.102;  -10.185;16561.615
799.747; 9640.951;   -9.055;15962.773
800.315; 9345.135;  -12.385;15296.992
800.883; 9167.771;  -15.035;14801.771
801.450; 9373.887;  -10.365;14534.430
802.018; 9489.509;   -9.855;14173.248
802.585; 9513.909;  -11.905;14029.547
803.153; 9487.960;  -11.585;13836.846
803.720; 9283.398;   -9.095;13567.324
804.287; 8791.216;   -9.135;13360.622
804.855; 8278.361;  -11.604;13681.981
805.422; 8116.875;  -11.794;13536.560
805.989; 8195.338;  -10.734;13355.958
806.556; 8391.076;  -10.444;13747.896
807.124; 8641.271;  -12.764;13987.376
807.691; 8612.464;  -12.964;14038.674
808.258; 8467.459;  -11.134;14120.152
808.825; 8145.332;   -9.854;13860.111
809.392; 8226.589;  -10.504;13268.790
809.959; 7719.030;  -13.054;12680.389
810.526; 7222.336;   -8.294;12427.308
811.093; 7206.625;   -8.394;12030.105
811.659; 7867.810;  -12.304;11653.664
812.226; 8502.895;  -13.944;11637.183
812.793; 8269.576;  -10.484;11611.521
813.360; 7590.950;  -10.144;11885.181
813.926; 7257.500;  -11.684;12770.539
814.493; 7070.129;  -13.644;12677.638
815.060; 6699.458;   -9.724;11974.336
815.626; 6612.438;   -9.854;11594.715
816.193; 6941.453;  -13.254;11579.474
816.759; 7001.233;  -13.204;11666.972
817.325; 7037.722;   -9.434;11325.530
817.892; 7344.672;  -10.134;11105.369
818.458; 7767.867;  -13.474;10843.928
819.024; 7453.181;  -11.854;10714.406
819.591; 7109.360;  -10.244;10469.165
820.157; 6910.992;  -10.704;10235.523
820.723; 6422.688;  -12.324;10847.563
821.289; 6074.769;   -9.444;11040.980
821.855; 5995.108;   -8.374;10357.100
822.421; 5983.714;  -10.234; 9978.918
822.987; 5972.273;  -13.294; 9754.177
823.553; 5583.710;  -10.884;10065.755
824.119; 5348.417;   -8.884;10036.294
824.685; 5471.707;   -6.784;10029.192
825.251; 5605.574;  -12.004;10199.230
825.816; 5545.331;  -11.474; 9820.189
826.382; 5251.924;   -9.174; 9297.248
826.948; 5391.187;   -9.214; 9381.347
827.513; 5820.264;  -10.774; 9450.726
828.079; 5734.972;  -11.924; 9472.444
828.645; 5126.937;  -10.543; 9292.643
829.210; 4896.676;  -10.533; 9065.341
829.776; 4862.047;  -10.753; 9132.620
830.341; 4753.811;  -10.173; 9092.878
830.906; 4899.644;  -10.743; 9078.557
831.472; 5241.680;  -11.113; 8534.535
832.037; 5054.684;  -10.603; 8677.874
832.602; 4540.722;  -13.323; 8628.692
833.167; 4287.563;  -10.823; 8879.031
833.733; 4230.417;  -10.113; 9189.790
834.298; 4364.918;  -13.583; 9052.608
834.863; 4515.492;  -12.703; 8895.087
835.428; 4547.450;  -10.523; 8824.266
835.993; 4399.626;   -6.963; 8845.385
836.558; 4222.673;  -10.763; 8888.563
837.123; 4293.703;   -9.903; 8966.582
837.688; 4542.026;   -9.913; 8617.860
838.253; 4813.548;  -10.283; 8590.699
838.817; 5008.298;  -12.963; 8443.797
839.382; 4933.771;  -14.243; 8799.356
839.947; 4623.568;  -10.733; 8810.595
840.511; 4319.300;   -9.383; 8796.394
841.076; 3938.468;  -12.563; 8347.231
841.641; 3980.549;  -12.953; 8224.330
842.205; 4110.231;   -7.043; 8223.349
842.770; 4140.368;   -8.163; 8622.107
843.334; 4242.663;  -12.503; 8410.386
843.898; 4204.307;  -11.693; 8337.465
844.463; 4209.956;  -10.203; 8506.283
845.027; 4011.111;   -9.533; 8280.962
845.591; 3832.618;  -13.443; 8231.141
846.156; 3838.356;  -13.143; 7969.179
846.720; 3747.318;   -9.433; 7768.278
847.284; 3638.469;  -11.033; 7630.957
847.848; 3511.516;  -10.403; 7472.395
848.412; 3418.037;  -11.553; 7437.394
848.976; 3451.408;   -8.393; 7674.592
849.540; 3362.629;   -8.713; 7836.011
850.104; 3404.341;  -12.463; 7913.669
850.668; 3769.573;  -12.973; 7694.508
851.232; 3951.688;  -10.793; 7756.887
851.796; 3823.116;  -10.662; 7926.545
852.359; 3498.620;  -13.082; 7827.844
852.923; 3301.191;  -12.192; 7641.163
853.487; 3147.102;  -11.912; 7342.501
854.050; 3116.299;  -10.892; 7042.820
854.614; 3256.824;  -13.992; 7151.338
855.177; 3376.915;  -11.732; 7105.077
855.741; 3421.949;   -8.962; 6989.675
856.304; 3320.667;   -9.442; 6596.634
856.868; 3288.296;  -14.192; 6356.272
857.431; 3414.408;  -12.702; 6468.571
857.995; 3554.970;   -9.942; 6373.210
858.558; 3593.020;   -9.112; 6324.448
859.121; 3327.560;  -12.932; 6408.327
859.684; 3137.571;  -13.442; 6347.886
860.247; 3233.688;  -10.632; 6321.264
860.810; 3272.758;  -11.272; 6301.903
861.374; 3030.281;   -9.832; 6607.881
861.937; 2760.926;  -11.762; 6408.200
862.500; 2755.433;   -9.722; 6572.639
863.062; 2905.730;  -10.512; 6387.297
863.625; 3045.542;  -11.232; 6190.836
864.188; 3197.353;  -14.112; 5807.254
864.751; 3290.455;  -11.302; 5682.413
865.314; 3220.133;  -10.112; 5547.492
865.876; 2987.840;  -12.182; 5500.150
866.439; 2943.720;  -10.722; 5415.909
867.002; 2909.187;   -9.252; 5501.567
867.564; 2730.179;   -9.572; 5413.946
868.127; 2518.302;  -13.142; 5160.325
868.689; 2387.623;  -12.902; 5133.183
869.252; 2280.626;   -9.732; 5252.382
869.814; 2172.731;   -9.432; 5297.141
870.377; 2171.377;  -11.552; 5390.919
870.939; 2232.893;   -9.052; 5599.898
871.501; 2310.706;  -10.982; 5248.336
872.063; 2335.014;  -12.292; 4854.235
872.626; 2278.468;  -14.912; 4817.074
873.188; 2265.926;  -13.112; 4987.732
873.750; 2236.723;  -13.442; 4868.651
874.312; 2151.428;   -9.402; 4779.330
874.874; 2069.597;  -11.062; 4866.348
875.436; 1988.185;  -13.931; 4718.887
875.998; 1976.338;   -9.561; 4660.005
876.560; 2001.205;  -11.321; 4462.964
877.122; 1940.493;  -12.221; 4145.042
877.683; 1833.283;  -12.191; 4056.481
878.245; 1750.814;  -12.101; 3950.740
878.807; 1790.915;   -8.971; 4058.958
879.369; 1823.194;  -12.071; 3954.677
879.930; 1731.233;  -14.621; 3941.495
880.492; 1657.970;  -10.311; 4067.014
881.053; 1633.237;  -10.901; 3859.633
881.615; 1537.731;  -14.411; 3776.071
882.176; 1432.865;  -13.761; 3734.750
882.738; 1374.132;   -9.181; 3678.489
883.299; 1348.685;  -11.791; 3405.407
883.860; 1335.114;  -13.121; 3351.106
884.422; 1320.393;  -11.211; 3394.044
884.983; 1280.585;  -10.091; 3166.443
885.544; 1209.803;   -8.461; 3189.802
886.105; 1133.215;  -12.361; 3160.360
886.666; 1063.730;  -14.141; 3093.059
887.227; 1003.966;  -11.361; 2941.957
887.788;  941.086;  -11.401; 2974.836
888.349;  870.911;  -13.791; 2721.214
888.910;  862.300;  -13.191; 2696.493
889.471;  869.056;   -9.881; 2560.172
890.032;  854.252;   -9.881; 2558.190
890.593;  824.033;  -10.371; 2567.669
891.153;  795.925;  -13.301; 2460.307
891.714;  748.046;  -11.431; 2372.046
892.275;  713.533;  -11.291; 2309.505
892.835;  680.546;  -11.471; 2382.543
893.396;  629.703;  -11.541; 2295.502
893.956;  571.500;  -11.181; 2162.420
894.517;  528.411;  -11.741; 2125.439
895.077;  519.577;  -11.671; 2086.978
895.638;  521.837;  -11.311; 2126.316
896.198;  496.551;   -9.831; 1838.275
896.758;  451.257;   -8.421; 1892.813
897.319;  420.349;  -12.351; 1792.232
897.879;  404.427;  -13.511; 1762.751
898.439;  380.505;  -12.001; 1661.149
898.999;  354.516;  -10.180; 1781.468
899.559;  343.020;  -12.030; 1703.347
900.119;  338.072;  -15.710; 1537.525
900.679;  334.247;   -8.900; 1638.384
901.239;  321.115;   -8.340; 1527.902
901.799;  311.138;  -13.910; 1456.441
902.359;  304.017;  -13.460; 1357.140
902.919;  297.708;  -11.490; 1331.118
903.479;  284.845;  -12.110; 1317.257
904.038;  264.208;  -11.720; 1262.595
904.598;  248.347;  -13.610; 1152.034
905.158;  244.875;  -11.040; 1240.893
905.717;  238.398;  -10.900; 1233.691
906.277;  228.610;  -15.080; 1217.330
906.836;  218.379;  -13.380; 1222.408
907.396;  209.559;  -10.780; 1193.047
907.955;  202.083;   -8.500; 1182.526
908.515;  196.080;  -12.760; 1099.364
909.074;  189.566;  -11.900; 1092.863
909.633;  183.440;   -8.950; 1069.121
910.192;  178.913;   -8.770; 1196.460
910.752;  173.545;  -12.390; 1029.960
911.311;  169.251;  -13.680; 1009.780
911.870;  166.396;  -12.370;  971.460
912.429;  167.968;  -10.900; 1094.080
912.988;  166.998;  -11.690; 1081.060
913.547;  162.699;  -13.240;  940.380
914.106;  157.991;  -11.990;  999.420
914.665;  153.935;   -9.990;  984.020
915.224;  152.870;  -12.880; 1035.760
915.782;  152.913;  -12.350;  922.560
916.341;  152.845;   -9.110; 1049.840
916.900;  148.170;   -9.270;  925.260
917.458;  146.327;  -13.240;  884.220
918.017;  145.585;  -13.550;  942.600
918.576;  146.029;  -12.320;  904.440
919.134;  143.511;  -11.490;  837.980
919.693;  142.194;  -13.670;  893.060
920.251;  140.220;  -15.470;  876.500
920.809;  139.203;  -11.290;  839.580
921.368;  139.288;  -10.210;  885.360
921.926;  138.866;  -12.140;  842.940
922.484;  137.288;  -13.080;  903.360
923.042;  137.192;  -11.720;  880.340
923.601;  139.807;   -7.480;  998.680
924.159;  138.108;  -11.570;  935.560
924.717;  134.626;  -13.840;  841.080
925.275;  134.482;  -10.640;  903.240
925.833;  134.074;  -11.540;  779.320
926.391;  134.592;  -12.960;  938.380
926.949;  133.504;  -14.130;  857.680
927.506;  133.854;  -11.750;  903.500
928.064;  134.419;  -10.250;  877.580
928.622;  133.135;  -13.030;  880.100
929.180;  132.861;  -13.400;  814.180
929.737;  134.059;  -10.700;  808.540
930.295;  138.127;  -10.070;  928.480
930.853;  138.982;  -11.960;  849.100
931.410;  139.627;  -13.120;  821.120
931.968;  139.578;  -10.770;  940.660
932.525;  139.772;  -10.680;  909.380
933.082;  140.305;  -13.130;  811.440
933.640;  141.385;  -13.210;  925.900
934.197;  139.471;  -11.060;  886.360
934.754;  140.294;   -9.580;  897.780
935.312;  143.577;  -14.000;  863.340
935.869;  147.832;  -10.710; 1012.980
936.426;  147.769;   -9.860;  872.800
936.983;  149.233;   -9.710;  889.020
937.540;  149.166;  -13.990;  838.280
938.097;  147.523;  -14.040;  940.120
938.654;  149.103;  -10.310;  898.860
939.211;  151.465;  -10.560;  952.480
939.768;  154.365;  -13.900;  915.420
940.324;  158.404;  -14.760;  904.200
940.881;  160.098;  -10.370;  878.500
941.438;  161.192;   -8.260; 1021.200
941.995;  156.863;  -12.540;  992.560
942.551;  153.519;  -14.670;  875.620
943.108;  153.840;  -10.450;  937.920
943.664;  155.387;  -10.750;  869.340
944.221;  159.072;  -11.550; 1088.140
944.777;  156.781;  -14.770;  869.680
945.334;  157.365;  -12.820;  884.840
945.890;  158.766;  -10.130;  946.480
946.446;  158.968;  -13.470;  947.020
947.003;  161.384;  -12.120;  964.940
947.559;  164.013;   -9.980; 1063.040
948.115;  163.734;   -9.080; 1026.540
948.671;  162.022;  -10.830;  967.300
949.227;  159.157;  -12.440;  859.560
949.783;  156.843;  -12.910;  858.900
950.339;  158.687;  -10.270;  991.000
950.895;  159.213;  -13.630; 1023.840
951.451;  157.256;  -15.100;  925.280
952.007;  157.169;  -11.330;  998.540
952.563;  156.914;  -10.580;  937.780
953.118;  155.246;  -13.440;  904.940
953.674;  155.264;  -12.710;  935.780
954.230;  154.714;  -10.350;  949.640
954.785;  153.064;   -9.190;  936.640
955.341;  151.131;  -11.200;  998.160
955.897;  149.861;  -16.560;  834.660
956.452;  152.088;  -12.570;  953.840
957.008;  151.316;   -7.970; 1083.640
957.563;  148.577;  -11.940; 1009.540
958.118;  142.825;  -13.450;  877.700
958.674;  144.106;  -12.030;  946.780
959.229;  144.776;   -9.410; 1013.980
959.784;  143.576;  -12.000;  832.400
960.339;  142.817;  -14.780; 1001.280
960.894;  139.859;   -9.860;  963.760
961.449;  135.997;   -9.970;  859.960
962.004;  134.868;  -10.900; 1212.840
962.559;  130.114;  -13.150;  860.140
963.114;  126.669;  -13.740;  742.480
963.669;  127.026;   -9.820;  915.500
964.224;  124.229;  -13.890;  874.340
964.779;  123.810;  -12.600;  828.420
965.334;  124.519;  -10.950; 1017.860
965.888;  124.070;  -11.170;  875.360
966.443;  127.897;  -12.540;  972.380
966.998;  127.923;  -15.780;  819.460
967.552;  127.386;   -9.760;  908.380
968.107;  123.402;   -9.060;  868.300
968.661;  124.855;  -11.950;  922.440
969.216;  125.246;  -12.800;  856.280
969.770;  125.007;  -11.210;  917.200
970.324;  124.334;  -11.610;  923.140
970.879;  120.673;  -11.370;  947.180
971.433;  117.184;  -12.540;  952.720
971.987;  112.856;  -11.320;  895.340
972.541;  109.616;  -10.720;  917.100
973.095;  109.286;   -9.680; 1009.460
973.649;  107.328;  -11.440;  809.480
974.203;  106.826;  -11.210;  829.040
974.757;  106.206;  -10.240;  855.220
975.311;  105.771;  -13.720;  872.600
975.865;  104.885;  -13.770;  881.820
976.419;  102.512;  -11.690;  857.400
976.973;  101.904;   -9.510;  849.620
977.526;   99.998;  -12.620;  949.920
978.080;   93.356;  -12.010;  796.780
978.634;   86.748;  -10.170;  921.320
979.187;   79.707;   -9.020;  905.400
979.741;   76.175;   -9.820; 1018.380
980.294;   73.850;  -14.870;  789.160
980.848;   74.135;  -12.380;  717.220
981.401;   76.361;  -10.350;  816.540
981.955;   80.104;  -13.720;  844.300
982.508;   80.068;  -11.490;  746.340
983.061;   81.558;  -10.000;  915.260
983.615;   78.814;  -11.480;  798.800
984.168;   77.145;  -13.220;  770.080
984.721;   77.722;  -13.960;  880.760
985.274;   77.905;  -10.870;  867.500
985.827;   77.093;   -9.790;  834.220
986.380;   74.757;  -13.120;  721.340
986.933;   75.165;  -12.450;  864.800
987.486;   74.334;  -10.210;  861.920
988.039;   73.612;   -8.430;  863.100
988.591;   72.175;  -10.520;  893.260
989.144;   69.784;  -14.860;  737.260
989.697;   69.106;  -13.080;  758.740
990.250;   70.045;  -10.150;  858.100
990.802;   69.237;  -13.430;  755.860
991.355;   70.160;  -12.750;  974.880
991.907;   67.989;  -12.040;  864.320
992.460;   65.817;  -11.330;  753.760
993.012;   65.583;  -13.610;  749.540
993.565;   64.207;  -13.460;  711.360
994.117;   65.419;   -9.360;  950.780
994.669;   60.832;  -11.300;  701.320
995.221;   59.672;  -13.540;  791.920
995.774;   58.795;  -13.430;  787.580
996.326;   58.118;  -12.520;  740.220
996.878;   56.885;  -10.950;  838.420
997.430;   55.386;  -14.300;  699.860
997.982;   54.539;  -13.760;  750.140
998.534;   54.932;  -11.530;  739.060
999.086;   53.491;  -10.310;  738.220
999.638;   52.266;  -12.530;  661.380
1000.190;   52.056;  -11.840;  699.320
1000.741;   51.337;  -10.260;  742.700
1001.293;   51.315;   -8.860;  686.020
1001.845;   48.929;  -13.700;  676.640
1002.396;   49.199;  -12.100;  743.400
1002.948;   49.172;  -12.760;  737.400
1003.500;   48.099;  -10.380;  723.780
1004.051;   48.856;  -11.900;  907.580
1004.603;   47.029;  -12.250;  791.820
1005.154;   43.382;  -13.210;  608.980
1005.705;   42.412;  -10.950;  723.960
1006.257;   41.353;  -13.880;  707.220
1006.808;   40.826;  -12.840;  685.460
1007.359;   41.534;  -10.570;  763.240
1007.910;   39.649;   -9.620;  646.640
1008.461;   40.449;  -13.630;  732.940
1009.013;   38.420;  -17.200;  588.340
1009.564;   39.982;  -10.200;  793.520
1010.115;   37.662;  -12.570;  597.040
1010.665;   36.750;  -15.150;  602.160
1011.216;   37.114;  -14.480;  667.920
1011.767;   37.206;  -11.340;  697.920
1012.318;   36.897;   -9.780;  736.980
1012.869;   35.667;  -12.380;  679.000
1013.419;   35.334;  -15.560;  603.120
1013.970;   35.902;  -11.010;  666.640
1014.521;   34.703;  -11.610;  620.620
1015.071;   35.244;  -13.450;  670.380
1015.622;   34.327;  -13.870;  635.460
1016.172;   33.836;  -11.610;  596.820
1016.723;   33.984;  -12.120;  614.380
1017.273;   33.190;  -13.620;  604.160
1017.823;   33.539;  -14.140;  650.340
1018.374;   33.913;  -12.800;  611.760
1018.924;   33.183;  -12.340;  716.880
1019.474;   32.751;  -11.410;  718.880
1020.024;   31.909;  -14.770;  657.580
1020.574;   32.560;   -9.780;  726.160
1021.124;   33.015;   -8.560;  673.580
1021.674;   31.500;  -15.190;  559.120
1022.224;   32.426;  -13.530;  708.940
1022.774;   32.331;  -13.280;  668.820
1023.324;   31.955;  -10.690;  753.520
1023.874;   33.535;  -10.240;  875.760
1024.423;   31.308;  -12.540;  613.700
1024.973;   30.224;  -10.010;  610.760
1025.523;   30.543;  -10.550;  620.960
1026.072;   30.080;  -13.560;  606.420
1026.622;   28.639;  -15.120;  675.740
1027.172;   31.231;  -11.260;  715.660
1027.721;   28.926;  -11.410;  601.220
1028.270;   29.832;  -13.530;  663.400
1028.820;   29.677;  -13.680;  638.080
1029.369;   29.624;  -13.520;  612.700
1029.918;   29.464;  -10.980;  649.840
1030.468;   28.410;  -13.530;  564.780
1031.017;   29.498;  -13.170;  634.800
1031.566;   28.145;  -12.200;  608.900
1032.115;   28.643;   -9.960;  694.500
1032.664;   27.272;  -13.210;  596.480
1033.213;   27.915;  -12.500;  735.420
1033.762;   27.472;  -11.910;  635.620
1034.311;   27.415;   -9.640;  677.220
1034.860;   27.911;  -13.310;  691.000
1035.408;   27.670;  -11.830;  722.720
1035.957;   27.890;  -12.000;  719.540
1036.506;   25.946;  -11.690;  530.800
1037.055;   27.822;  -10.990;  844.320
1037.603;   26.573;  -15.120;  664.000
1038.152;   24.661;  -12.450;  534.760
1038.700;   25.352;  -10.560;  585.740
1039.249;   24.783;  -11.080;  681.220
1039.797;   26.177;  -12.540;  633.360
1040.345;   24.982;  -11.920;  705.420
1040.894;   25.035;  -11.410;  625.300
1041.442;   24.877;  -14.320;  632.200
1041.990;   23.637;  -16.240;  559.160
1042.538;   23.640;  -11.680;  536.180
1043.087;   24.009;  -10.760;  570.860
1043.635;   25.216;  -11.850;  670.500
1044.183;   23.762;  -15.480;  586.400
1044.731;   24.211;  -11.770;  576.000
1045.279;   22.739;  -13.090;  674.920
1045.827;   25.692;  -12.440;  892.400
1046.374;   22.832;  -13.840;  515.420
1046.922;   21.951;  -13.220;  590.580
1047.470;   24.591;  -10.230;  691.300
1048.018;   23.490;  -14.590;  647.960
1048.565;   23.994;  -12.050;  708.600
1049.113;   21.905;  -11.650;  557.000
1049.660;   22.486;  -10.510;  629.660
1050.208;   22.246;  -13.310;  675.640
1050.755;   21.449;  -15.900;  606.580
1051.303;   22.873;  -11.430;  686.820
1051.850;   21.739;   -8.480;  635.120
1052.397;   19.493;  -15.010;  473.960
1052.945;   20.787;  -13.960;  617.760
1053.492;   23.169;  -13.150;  741.840
1054.039;   22.670;   -9.630;  720.180
1054.586;   20.890;  -13.680;  557.240
1055.133;   21.765;  -14.570;  693.140
1055.680;   21.320;  -13.820;  646.620
1056.227;   20.235;  -11.730;  542.780
1056.774;   21.765;  -12.480;  794.980
1057.321;   19.758;  -13.930;  523.260
1057.868;   20.335;  -11.690;  651.320
1058.415;   19.754;   -9.520;  651.980
1058.961;   20.519;  -13.160;  678.940
1059.508;   19.896;  -12.920;  643.820
1060.055;   19.425;  -11.920;  581.780
1060.601;   20.290;  -11.500;  624.300
1061.148;   19.371;  -14.330;  616.820
1061.694;   18.767;  -16.870;  592.580
1062.241;   18.651;  -10.330;  596.320
1062.787;   19.215;  -10.620;  663.140
1063.334;   20.248;  -10.110;  808.560
1063.880;   18.922;  -13.400;  668.360
1064.426;   19.387;  -10.680;  706.820
1064.972;   18.141;   -9.920;  601.340
1065.518;   16.711;  -10.980;  566.640
1066.065;   18.474;  -14.890;  624.460
1066.611;   18.018;  -12.870;  598.800
1067.157;   18.221;  -12.950;  641.860
1067.703;   18.335;  -13.540;  668.480
1068.249;   17.916;  -13.540;  605.220
1068.794;   18.241;  -12.600;  626.880
1069.340;   16.861;  -10.620;  578.960
1069.886;   17.451;  -12.830;  590.700
1070.432;   15.770;  -14.870;  541.720
1070.977;   16.080;  -11.980;  601.080
1071.523;   16.580;   -8.200;  573.060
1072.068;   16.526;  -12.330;  582.000
1072.614;   16.326;  -16.370;  527.760
1073.160;   17.082;  -11.100;  687.040
1073.705;   15.607;  -10.480;  572.520
1074.250;   15.852;  -14.520;  559.900
1074.796;   16.349;  -11.460;  655.160
1075.341;   16.972;  -11.950;  664.100
1075.886;   15.824;  -11.460;  594.240
1076.431;   15.617;  -13.770;  649.880
1076.976;   15.344;  -12.680;  639.220
1077.521;   14.142;  -13.170;  583.080
1078.067;   14.764;  -10.860;  579.400
1078.612;   15.244;  -13.920;  661.620
1079.156;   14.145;  -13.880;  601.540
1079.701;   15.552;  -13.120;  693.260
1080.246;   15.789;   -9.940;  696.300
1080.791;   15.021;  -14.740;  625.020
1081.336;   14.525;  -13.750;  659.320
1081.880;   14.902;  -13.400;  649.680
1082.425;   13.530;  -12.220;  573.480
1082.970;   15.340;  -11.610;  717.040
1083.514;   13.700;  -13.580;  597.000
1084.059;   14.151;  -12.810;  586.720
1084.603;   12.811;  -12.320;  565.840
1085.147;   13.659;  -13.190;  645.220
1085.692;   14.634;  -12.480;  716.800
1086.236;   12.869;  -13.020;  503.140
1086.780;   14.944;   -9.190;  751.440
1087.325;   13.832;  -12.480;  654.620
1087.869;   13.527;  -12.450;  610.700
1088.413;   14.735;  -12.240;  705.040
1088.957;   11.795;   -9.020;  543.400
1089.501;   14.645;  -10.320;  766.640
1090.045;   13.200;  -12.720;  726.480
1090.589;   11.257;  -13.690;  569.920
1091.133;   12.366;  -10.020;  673.340
1091.676;   12.679;  -12.330;  591.940
1092.220;   12.196;  -14.970;  600.920
1092.764;   13.387;  -12.430;  706.960
1093.307;   12.596;   -9.800;  673.780
1093.851;   10.956;  -14.970;  556.540
1094.395;   11.884;  -15.310;  683.140
1094.938;   11.818;  -10.370;  632.520
1095.482;   11.281;  -11.050;  559.800
1096.025;   11.918;  -11.840;  710.880
1096.568;   11.570;  -12.840;  779.280
1097.112;   10.086;  -14.700;  508.180
1097.655;   12.122;   -8.720;  603.000
1098.198;    9.669;  -13.610;  600.180
1098.741;   10.220;  -13.350;  612.860
1099.285;   10.949;  -11.230;  657.300
1099.828;    8.989;  -11.840;  439.400
1100.371;   10.524;  -10.840;  608.160
1100.914;   10.320;  -14.190;  682.660
1101.457;   10.985;  -11.240;  679.900
1101.999;    9.470;  -11.270;  584.680
1102.542;    9.615;  -11.480;  641.440
1103.085;    9.854;  -11.750;  658.500
1103.628;   10.950;  -11.400;  762.060
1104.170;    9.896;  -10.490;  588.280
1104.713;    9.678;  -10.600;  646.700
1105.256;    9.318;  -14.360;  557.440
1105.798;    8.837;  -13.210;  499.980
1106.341;   10.494;  -10.270;  728.900
1106.883;    8.655;  -12.200;  521.340
1107.425;    8.984;  -13.110;  668.180
1107.968;    8.795;  -12.840;  612.380
1108.510;    9.419;   -6.480;  684.960
1109.052;    7.352;  -13.940;  612.620
1109.594;    7.987;  -13.690;  554.440
1110.136;    9.390;  -11.880;  643.220
1110.679;    8.259;   -9.500;  633.080
1111.221;    9.286;  -14.160;  604.460
1111.763;    8.245;  -13.980;  559.220
1112.304;    7.567;  -13.880;  547.140
1112.846;    9.202;  -12.210;  666.240
1113.388;   10.755;  -11.390;  942.180
1113.930;    8.339;  -14.540;  694.200
1114.472;    6.898;  -12.640;  606.540
1115.013;    6.758;  -11.620;  551.280
1115.555;    6.833;  -13.640;  587.100
1116.097;    6.222;  -15.380;  579.480
1116.638;    7.413;  -12.640;  684.600
1117.180;    7.387;   -9.850;  667.740
1117.721;    6.920;  -13.690;  568.580
1118.262;    7.687;  -12.680;  677.960
1118.804;    7.426;  -12.530;  637.340
1119.345;    6.516;  -11.690;  578.400
1119.886;    6.992;  -13.380;  704.040
1120.427;    6.061;  -14.070;  589.020
1120.969;    6.083;  -13.500;  597.920
1121.510;    5.983;  -11.480;  563.060
1122.051;    5.862;  -12.830;  723.580
1122.592;    4.906;  -14.290;  655.420
1123.133;    4.984;  -12.400;  547.940
1123.673;    6.546;  -10.130;  706.480
1124.214;    5.511;  -12.930;  612.460
1124.755;    6.287;  -14.380;  639.460
1125.296;    6.275;  -14.000;  627.320
1125.836;    7.253;  -10.070;  691.500
1126.377;    5.207;  -12.640;  599.660
1126.918;    5.728;  -12.960;  614.980
1127.458;    5.541;  -13.350;  622.220
1127.999;    5.075;  -10.750;  656.980
1128.539;    5.570;  -12.350;  694.240
1129.079;    4.807;  -14.860;  632.720
1129.620;    4.817;  -13.840;  558.100
1130.160;    4.057;  -12.330;  539.480
1130.700;    5.514;  -14.530;  640.840
1131.240;    6.109;  -12.530;  643.700
1131.781;    4.908;  -14.450;  619.680
1132.321;    4.644;   -9.790;  599.120
1132.861;    3.230;  -14.860;  564.200
1133.401;    3.392;  -14.290;  593.940
1133.941;    3.942;  -11.750;  626.280
1134.481;    3.790;   -9.920;  597.580
1135.020;    4.042;  -12.290;  609.160
1135.560;    4.057;  -11.650;  674.940
1136.100;    3.238;  -16.270;  501.160
1136.640;    3.346;  -10.890;  510.480
1137.179;    3.210;  -14.180;  537.960
1137.719;    3.351;  -16.250;  605.400
1138.258;    3.331;  -14.230;  587.360
1138.798;    4.358;   -9.090;  663.780
1139.337;    2.255;  -15.130;  482.840
1139.877;    3.861;  -13.680;  642.360
1140.416;    5.893;  -11.320;  878.060
1140.955;    2.443;  -10.860;  535.380
1141.494;    3.155;  -12.920;  669.280
1142.034;    3.070;  -13.930;  583.520
1142.573;    3.936;  -11.440;  646.280
1143.112;    3.071;  -12.000;  553.480
1143.651;    2.416;  -13.670;  536.480
1144.190;    3.721;  -12.730;  691.640
1144.729;    2.830;  -14.560;  607.420
1145.267;    2.643;  -11.830;  584.900
1145.806;    2.975;  -12.230;  637.040
1146.345;    1.929;  -14.130;  635.020
1146.884;    2.277;  -11.590;  622.500
1147.422;    1.342;  -12.550;  533.060
1147.961;    2.769;  -11.180;  708.460
1148.500;    3.083;  -11.510;  669.720
1149.038;    3.112;  -11.640;  632.500
1149.577;    2.276;  -10.130;  698.640
1150.115;    0.150;  -13.970;  452.280
1150.653;    1.837;  -14.520;  607.340
1151.192;    2.451;  -12.810;  552.920
1151.730;    1.887;   -9.100;  652.560
1152.268;    1.720;  -12.220;  589.520
1152.806;    1.111;  -14.140;  571.180
1153.344;    0.401;  -12.350;  577.640
1153.882;    1.568;   -8.980;  600.060
1154.421;   -0.154;  -15.190;  470.620
1154.958;    0.029;  -15.210;  595.240
1155.496;    2.257;  -12.850;  645.280
1156.034;    1.800;   -9.940;  721.880
1156.572;    2.362;  -13.570;  667.060
1157.110;   -0.248;  -14.590;  473.940
1157.647;    1.375;  -13.030;  676.960
1158.185;    0.046;  -12.140;  564.320
1158.723;   -1.175;  -14.390;  509.200
1159.260;    0.846;  -14.090;  701.700
1159.798;    1.613;  -11.920;  658.160
1160.335;    0.521;  -11.110;  631.820

