
Integration time [ms]:   3.276
Averaging Nr. [scans]: 1000
Smoothing Nr. [pixels]: 0
Data measured with spectrometer [name]: 7414430SP
Wave   ;Sample   ;Dark     ;Reference
[nm]   ;[counts] ;[counts] ;[counts] 

288.544;  157.014;    7.793;  793.890
289.143;  160.034;    7.462;  681.602
289.742;  160.974;    8.602;  828.814
290.341;  147.913;    1.321;  789.841
290.940;  138.414;   -0.709;  730.702
291.538;  139.758;    0.881;  881.108
292.137;  139.188;    0.122;  792.581
292.736;  142.128;   -1.929;  975.101
293.335;  137.992;   -8.229;  735.086
293.934;  140.751;   -5.279;  781.677
294.532;  140.271;   -1.369; 1031.958
295.131;  126.504;   -7.641;  834.394
295.730;  125.590;   -8.420;  809.588
296.328;  123.146;   -5.611;  783.442
296.927;  122.938;   -5.781;  779.652
297.525;  124.582;   -6.361;  781.236
298.124;  115.439;  -11.382;  654.009
298.722;  120.166;   -7.641;  761.933
299.321;  117.531;   -6.811;  708.597
299.919;  112.938;   -6.991;  751.918
300.518;  109.872;  -10.362;  689.338
301.116;  112.277;   -9.581;  691.381
301.715;  113.455;   -4.891;  730.222
302.313;  111.744;   -8.801;  704.943
302.911;  105.775;   -8.522;  733.830
303.509;  111.775;   -6.171;  925.627
304.108;  108.964;   -7.311;  760.383
304.706;  108.817;   -8.321;  801.664
305.304;  103.693;  -10.222;  796.707
305.902;  107.800;   -6.021;  784.484
306.500;  103.864;   -4.971;  728.200
307.098;  102.409;   -7.061;  746.560
307.696;  100.291;   -8.801;  780.432
308.294;  101.032;   -6.411;  731.359
308.892;  102.912;   -2.901;  759.769
309.490;   98.904;   -5.041;  712.161
310.088;   96.267;   -5.002;  788.444
310.686;  101.171;   -2.041;  821.749
311.284;   96.858;   -2.351;  766.040
311.882;   94.939;   -4.422;  731.225
312.480;   90.653;   -4.192;  697.167
313.078;   93.524;   -1.172;  808.331
313.675;   93.873;   -2.601;  691.600
314.273;   88.543;   -1.312;  797.837
314.871;   86.892;   -3.942;  589.829
315.468;   86.155;   -2.802;  652.090
316.066;   89.345;   -0.701;  694.427
316.664;   81.353;   -4.362;  656.351
317.261;   85.606;   -2.872;  910.128
317.859;   80.670;   -2.022;  768.735
318.456;   81.202;   -0.531;  830.096
319.054;   77.364;   -3.912;  787.828
319.651;   77.129;   -4.752;  759.928
320.249;   75.173;   -2.602;  810.188
320.846;   73.232;   -0.821;  714.286
321.443;   69.574;   -4.642;  832.135
322.041;   67.375;   -5.002;  812.315
322.638;   64.879;   -3.982;  701.456
323.235;   66.700;   -3.411;  665.683
323.833;   62.597;   -7.361;  740.354
324.430;   57.540;   -8.611;  615.900
325.027;   59.273;   -4.061;  876.855
325.624;   58.667;   -4.031;  644.532
326.221;   56.334;   -7.481;  689.717
326.818;   54.158;   -5.281;  818.332
327.415;   58.064;   -7.460;  748.828
328.012;   57.172;   -5.510;  690.585
328.609;   55.698;   -7.880;  731.389
329.206;   54.075;   -8.331;  778.621
329.803;   54.279;   -5.121;  737.841
330.400;   57.500;   -4.510;  704.260
330.997;   58.049;   -6.441;  817.147
331.594;   55.507;   -8.831;  788.185
332.191;   61.613;   -7.621;  728.722
332.787;   65.060;   -4.591;  844.463
333.384;   64.922;   -7.412;  763.093
333.981;   63.866;   -8.293;  815.687
334.578;   66.633;   -7.052;  708.378
335.174;   68.607;   -3.102;  731.469
335.771;   67.731;   -5.943;  836.456
336.367;   64.788;   -7.393;  710.631
336.964;   71.176;   -4.063;  793.266
337.561;   68.514;   -3.813;  731.112
338.157;   63.634;   -4.654;  911.916
338.754;   61.979;   -7.934;  796.589
339.350;   60.240;   -4.414;  722.493
339.946;   61.561;   -4.664;  773.135
340.543;   54.757;   -6.375;  846.136
341.139;   47.116;   -9.815;  720.836
341.735;   44.655;   -4.526;  772.593
342.332;   44.153;   -4.895;  691.472
342.928;   44.956;   -4.295;  795.394
343.524;   36.609;   -5.476;  761.684
344.120;   33.784;   -5.856;  738.562
344.716;   37.403;   -2.155;  723.717
345.313;   35.004;   -6.275;  795.342
345.909;   28.538;   -8.815;  627.336
346.505;   30.649;   -5.305;  740.247
347.101;   30.518;   -2.674;  827.864
347.697;   30.821;   -4.344;  785.398
348.293;   25.903;   -9.975;  627.244
348.889;   27.034;   -5.774;  745.914
349.485;   26.866;   -5.004;  688.205
350.081;   26.744;   -4.704;  772.592
350.676;   21.809;   -6.635;  691.606
351.272;   26.738;   -4.504;  809.530
351.868;   25.997;   -3.914;  780.497
352.464;   23.261;   -9.044;  723.932
353.059;   18.766;   -8.314;  646.017
353.655;   22.705;   -7.024;  777.063
354.251;   23.688;   -5.343;  759.845
354.846;   18.207;   -8.604;  740.646
355.442;   15.905;   -6.945;  753.071
356.038;   18.012;   -7.564;  751.708
356.633;   18.405;   -5.814;  728.594
357.229;   15.710;   -7.364;  724.757
357.824;   13.544;   -8.024;  703.600
358.420;   12.513;   -9.384;  679.726
359.015;   13.690;   -5.104;  695.357
359.610;   13.780;   -6.854;  763.920
360.206;    8.129;  -10.185;  603.240
360.801;   11.287;   -7.054;  646.503
361.396;   13.874;   -5.034;  725.975
361.992;    8.346;   -8.284;  668.220
362.587;    5.912;   -8.625;  670.160
363.182;    7.788;   -7.674;  689.631
363.777;    8.745;   -5.164;  738.242
364.372;    8.862;   -8.604;  737.314
364.967;    4.085;   -9.055;  680.744
365.563;    8.857;   -6.114;  815.567
366.158;    6.196;   -5.814;  685.161
366.753;    6.240;   -7.854;  649.263
367.348;    3.589;   -7.804;  746.056
367.942;    4.528;   -7.954;  697.298
368.537;    3.603;   -4.984;  754.245
369.132;    3.631;   -8.564;  703.428
369.727;   -0.292;   -8.855;  638.079
370.322;    1.224;   -6.245;  580.186
370.917;    0.998;   -6.425;  710.646
371.511;    3.139;   -6.294;  861.834
372.106;   -0.217;   -7.685;  776.964
372.701;   -3.410;   -7.335;  585.988
373.296;    1.869;   -4.564;  863.135
373.890;   -2.867;  -10.235;  647.840
374.485;   -5.134;   -7.885;  691.199
375.079;   -0.591;   -7.324;  738.685
375.674;   -0.043;   -3.494;  812.970
376.268;   -3.707;   -8.525;  691.759
376.863;  -10.189;  -10.086;  580.327
377.457;   -3.644;   -7.025;  662.490
378.052;   -5.448;   -3.585;  764.884
378.646;   -7.053;   -7.595;  741.167
379.240;   -6.854;   -8.335;  721.176
379.835;   -6.283;   -5.785;  636.978
380.429;   -8.285;   -4.335;  562.557
381.023;   -8.700;   -6.805;  779.205
381.617;  -10.602;   -9.195;  680.106
382.212;   -7.150;   -6.905;  685.303
382.806;   -5.860;   -3.745;  760.690
383.400;  -10.349;   -7.745;  672.281
383.994;  -11.692;   -9.765;  664.870
384.588;   -8.140;   -6.564;  697.701
385.182;   -6.770;   -5.344;  726.624
385.776;   -8.079;   -8.514;  706.875
386.370;  -12.116;   -9.555;  681.968
386.964;  -10.372;   -8.715;  684.155
387.558;   -8.726;   -6.174;  598.360
388.152;  -13.097;   -8.725;  681.959
388.745;  -10.758;   -7.965;  814.707
389.339;   -8.530;   -5.924;  747.642
389.933;   -7.355;   -5.524;  695.370
390.527;   -9.301;   -7.114;  859.029
391.120;  -15.269;  -10.725;  595.318
391.714;  -12.206;   -8.035;  711.633
392.308;   -9.493;   -3.574;  780.253
392.901;  -12.938;   -7.245;  642.460
393.495;  -15.060;   -9.285;  595.414
394.089;  -12.995;   -5.895;  760.452
394.682;  -13.111;   -4.295;  697.188
395.275;  -13.422;   -9.875;  719.927
395.869;  -15.620;   -8.485;  667.314
396.462;  -12.953;   -7.455;  616.609
397.056;   -9.094;   -5.424;  776.621
397.649;  -13.924;   -6.605;  731.575
398.242;  -11.631;   -8.224;  712.645
398.836;  -10.944;   -7.474;  766.408
399.429;  -12.072;   -7.094;  631.041
400.022;  -15.814;   -9.475;  665.902
400.615;  -13.197;   -7.145;  805.609
401.208;  -10.958;   -7.174;  691.451
401.802;  -12.927;   -5.515;  699.329
402.395;  -15.148;   -9.875;  683.502
402.988;  -16.006;   -8.845;  696.627
403.581;  -11.612;   -8.874;  646.878
404.174;  -10.093;   -5.324;  686.568
404.767;  -13.664;   -9.575;  638.583
405.360;  -15.880;  -10.965;  621.445
405.953;  -10.489;   -8.764;  759.034
406.545;   -9.795;   -7.514;  725.342
407.138;  -13.840;  -10.025;  618.350
407.731;  -13.105;  -10.034;  613.303
408.324;   -8.989;   -9.374;  660.554
408.917;  -10.092;   -6.534;  681.864
409.509;  -11.642;   -8.004;  740.396
410.102;  -13.445;   -9.875;  643.948
410.695;   -7.358;   -8.604;  665.758
411.287;   -8.750;   -6.794;  599.821
411.880;  -10.017;   -9.334;  585.421
412.472;  -12.745;  -10.254;  613.092
413.065;   -9.555;   -6.714;  629.408
413.657;   -8.206;   -7.234;  576.678
414.250;   -7.755;  -10.544;  646.681
414.842;   -9.640;   -9.744;  676.353
415.434;   -6.632;   -6.994;  570.463
416.027;   -3.184;   -5.893;  652.196
416.619;   -5.488;   -7.264;  713.400
417.211;   -6.200;  -10.374;  599.352
417.804;   -2.110;   -7.993;  628.499
418.396;   -5.453;   -7.234;  607.643
418.988;   -4.174;   -9.443;  659.238
419.580;   -7.524;  -10.724;  568.276
420.172;   -5.156;  -10.323;  536.196
420.764;   -0.897;   -8.793;  672.482
421.356;   -1.565;  -11.143;  636.898
421.948;   -2.966;   -8.293;  677.661
422.540;    1.729;   -7.893;  680.027
423.132;    1.842;   -7.082;  600.641
423.724;   -1.543;   -8.653;  561.267
424.316;    0.095;  -10.213;  621.345
424.908;    4.139;   -9.762;  591.517
425.500;    4.375;   -5.572;  647.978
426.092;    4.723;   -8.422;  648.268
426.683;    3.385;   -9.283;  684.836
427.275;    6.501;   -7.852;  641.471
427.867;    7.515;   -5.272;  668.948
428.458;    8.536;   -7.682;  732.344
429.050;    6.914;  -10.612;  680.749
429.642;    9.098;   -9.882;  743.124
430.233;    9.637;   -6.962;  569.356
430.825;   11.241;   -6.842;  724.809
431.416;    7.650;   -9.672;  698.241
432.008;   11.885;   -6.552;  651.723
432.599;   13.040;   -6.891;  656.073
433.190;    9.414;  -10.912;  637.670
433.782;    8.318;  -11.172;  590.395
434.373;   16.538;   -6.061;  884.765
434.964;   15.088;   -8.251;  602.920
435.556;   12.408;   -9.722;  634.537
436.147;   14.472;   -9.082;  758.490
436.738;   14.735;   -8.041;  701.099
437.329;   20.327;   -7.341;  721.723
437.920;   14.495;   -8.162;  666.688
438.511;   12.992;  -11.802;  564.526
439.103;   20.030;  -10.191;  623.998
439.694;   21.795;   -7.601;  681.583
440.285;   21.856;   -8.541;  764.432
440.876;   20.694;   -9.751;  845.738
441.466;   19.985;   -9.401;  575.162
442.057;   25.221;   -7.760;  665.814
442.648;   24.269;   -9.971;  746.255
443.239;   21.962;  -11.001;  620.477
443.830;   27.906;   -7.990;  704.958
444.421;   29.783;   -7.910;  655.474
445.011;   26.031;   -8.131;  693.619
445.602;   25.176;   -7.111;  743.126
446.193;   26.941;  -10.920;  488.117
446.783;   32.720;   -6.500;  640.397
447.374;   27.038;   -8.671;  692.759
447.964;   27.856;  -10.781;  713.770
448.555;   35.984;   -9.650;  822.742
449.145;   32.650;   -8.660;  662.853
449.736;   33.285;   -8.990;  803.179
450.326;   33.352;   -9.500;  713.626
450.917;   38.267;   -8.680;  675.324
451.507;   37.800;   -7.520;  600.661
452.097;   39.029;   -8.590;  746.267
452.688;   39.609;  -11.340;  742.160
453.278;   39.167;  -10.100;  566.840
453.868;   44.390;   -6.019;  793.550
454.458;   42.024;   -9.440;  651.141
455.048;   40.603;  -10.560;  711.783
455.639;   42.980;  -11.799;  567.096
456.229;   46.837;   -6.899;  710.694
456.819;   48.627;   -7.389;  751.158
457.409;   49.091;  -11.119;  773.993
457.999;   52.117;   -9.289;  737.505
458.589;   51.988;   -6.139;  686.606
459.179;   52.061;   -8.729;  717.658
459.769;   49.608;   -9.789;  627.099
460.358;   54.968;  -10.259;  797.262
460.948;   55.065;   -7.299;  689.503
461.538;   56.525;  -10.289;  660.677
462.128;   54.138;  -11.269;  664.934
462.717;   60.560;   -9.368;  710.326
463.307;   63.563;   -7.908;  705.846
463.897;   60.212;   -9.599;  656.942
464.486;   58.459;   -9.769;  837.128
465.076;   63.488;   -8.048;  733.776
465.666;   67.459;   -9.358;  652.900
466.255;   64.127;   -7.919;  785.651
466.845;   63.590;  -11.689;  666.749
467.434;   66.800;   -7.818;  725.873
468.023;   67.429;   -7.678;  658.357
468.613;   66.195;  -10.939;  713.946
469.202;   69.502;  -10.118;  646.507
469.791;   74.518;   -9.108;  737.811
470.381;   76.355;   -6.058;  742.813
470.970;   75.485;  -10.428;  711.099
471.559;   75.014;  -10.268;  733.291
472.148;   78.282;   -8.448;  675.737
472.738;   81.669;   -6.917;  765.466
473.327;   81.132;  -11.978;  637.529
473.916;   79.367;  -11.888;  737.446
474.505;   84.361;   -9.437;  751.703
475.094;   88.305;   -6.747;  806.570
475.683;   86.905;   -9.367;  797.699
476.272;   87.203;  -12.637;  730.632
476.861;   90.482;  -10.027;  706.754
477.449;   96.534;   -8.716;  728.487
478.038;   92.117;   -9.577;  692.513
478.627;   92.098;   -9.718;  714.852
479.216;   98.546;   -8.947;  769.441
479.805;  102.399;   -6.256;  783.375
480.393;  102.316;   -7.937; 1008.945
480.982;  100.480;   -7.717;  874.501
481.571;  107.332;   -9.266;  858.333
482.159;  108.335;   -7.636;  705.386
482.748;  108.064;   -9.667;  821.385
483.336;  112.461;  -10.376;  858.209
483.925;  112.796;   -7.147;  774.373
484.513;  120.087;   -7.996;  758.962
485.102;  117.126;  -10.027;  810.965
485.690;  125.596;  -10.446; 1011.050
486.278;  126.949;   -8.446;  979.329
486.867;  127.921;   -6.356;  809.662
487.455;  129.901;   -9.136;  898.229
488.043;  131.570;  -10.646;  748.361
488.631;  141.317;   -7.456; 1005.079
489.220;  144.899;   -6.636;  908.626
489.808;  144.031;  -11.036;  741.415
490.396;  152.512;  -10.246;  914.645
490.984;  160.193;   -8.556;  830.161
491.572;  171.201;   -5.886;  940.315
492.160;  179.027;   -9.486;  919.081
492.748;  191.085;  -10.976;  884.341
493.336;  214.694;   -8.776; 1019.693
493.924;  243.531;   -5.465;  958.077
494.512;  277.234;   -9.986; 1066.638
495.100;  325.018;  -10.636; 1103.280
495.687;  386.210;  -10.885; 1206.373
496.275;  440.550;   -8.126; 1150.796
496.863;  509.671;  -10.586; 1281.171
497.451;  623.719;  -11.926; 1386.805
498.038;  733.630;  -10.885; 1556.729
498.626;  829.225;   -6.315; 1741.407
499.214;  980.053;   -7.326; 2016.609
499.801; 1197.652;  -11.906; 2220.633
500.389; 1448.471;  -10.466; 2312.494
500.976; 1693.258;   -5.236; 2744.849
501.564; 2109.980;   -8.936; 3148.565
502.151; 2575.469;  -13.176; 3515.999
502.738; 3100.285;  -10.646; 3971.274
503.326; 3484.074;   -9.525; 4403.796
503.913; 3776.525;  -10.856; 5161.749
504.500; 4276.001;  -11.586; 5986.420
505.088; 4577.378;  -10.336; 6381.201
505.675; 5026.949;   -6.355; 6925.547
506.262; 5480.882;   -9.046; 7619.060
506.849; 5970.795;  -10.416; 8733.969
507.436; 6482.631;  -10.305; 9790.121
508.023; 6944.500;   -5.496; 9985.472
508.610; 7773.299;   -7.856;10434.618
509.197; 9056.924;  -10.097;11198.435
509.784;10545.278;  -10.886;12391.194
510.371;11906.263;   -9.315;13603.713
510.958;12730.480;   -9.936;14426.586
511.545;13318.137;   -9.326;15243.775
512.132;13884.304;  -10.075;15945.876
512.719;14053.786;   -7.796;16340.369
513.305;14983.173;  -10.606;18011.766
513.892;16329.970;  -11.486;19754.971
514.479;18042.871;   -9.126;20967.805
515.066;19568.289;   -6.026;22299.793
515.652;19702.625;   -8.466;22908.660
516.239;20736.068;  -10.886;23798.875
516.825;23031.041;  -11.496;25567.275
517.412;25102.496;   -5.796;28154.959
517.998;26938.492;  -10.506;28344.111
518.585;26612.830;  -10.076;27134.219
519.171;25385.518;   -8.315;27268.576
519.758;26369.563;   -8.596;28964.129
520.344;27574.992;   -8.466;30664.494
520.930;30034.535;  -11.006;32550.605
521.516;30432.736;  -10.495;35422.895
522.103;28911.941;   -5.526;38280.004
522.689;29556.563;   -8.746;37835.117
523.275;31198.713;  -11.376;37288.613
523.861;33215.773;  -11.156;37281.395
524.447;36568.215;   -8.135;37846.949
525.033;37452.910;   -7.896;38321.949
525.619;36909.809;  -12.476;38579.285
526.205;37033.078;   -9.516;40622.875
526.791;36843.512;   -6.926;42258.836
527.377;37896.727;   -8.346;42966.902
527.963;39373.344;   -8.717;42018.949
528.549;38318.652;  -11.016;42476.828
529.135;38568.000;   -8.536;41854.852
529.721;38321.762;   -9.666;41237.711
530.306;36878.266;  -10.066;41259.445
530.892;36829.188;  -11.356;41506.047
531.478;36311.223;   -6.596;43559.613
532.063;36829.184;   -8.836;47695.563
532.649;40373.656;  -10.047;50808.324
533.235;41576.863;   -9.746;51787.500
533.820;40685.191;   -6.566;52145.035
534.406;39928.980;  -10.817;51133.488
534.991;42870.266;   -9.416;49996.805
535.576;44037.117;   -9.036;48882.852
536.162;44212.617;   -6.156;46942.285
536.747;45409.641;  -11.607;45711.746
537.333;45713.273;  -11.787;48510.180
537.918;45790.844;  -12.437;50439.891
538.503;46898.152;   -7.196;50863.711
539.088;44610.973;  -10.556;50906.922
539.673;43079.125;   -8.767;52621.965
540.259;44200.699;  -10.026;52368.094
540.844;46046.730;   -7.416;50879.109
541.429;45268.598;   -9.467;52077.777
542.014;44971.770;   -9.527;52716.695
542.599;47200.352;   -9.946;52363.281
543.184;49900.500;   -7.927;53187.137
543.769;48332.629;   -9.297;54697.605
544.354;44947.547;  -10.127;53913.914
544.938;43429.270;   -9.267;49680.164
545.523;45641.008;   -6.506;47386.277
546.108;49086.770;   -9.787;49151.949
546.693;48671.133;  -11.587;51384.637
547.278;48464.625;  -10.986;51853.254
547.862;45395.336;   -8.206;51173.750
548.447;42822.719;  -10.067;51691.395
549.031;43440.230;   -9.637;52456.703
549.616;44423.949;   -9.926;52714.516
550.201;43403.379;   -6.347;52414.598
550.785;42784.918;   -7.917;52355.059
551.370;43843.605;  -10.867;54589.453
551.954;44664.184;   -9.047;58267.348
552.538;45881.109;   -7.827;59062.176
553.123;45800.051;  -10.287;58115.285
553.707;41960.078;  -12.178;56556.285
554.291;42697.988;   -8.717;56201.668
554.876;45787.883;   -7.457;55335.762
555.460;46621.621;  -10.387;54155.703
556.044;47599.328;   -9.618;53721.484
556.628;46673.340;  -11.567;53731.016
557.212;44557.188;   -8.097;54312.531
557.796;45801.289;  -11.077;53797.773
558.380;43963.285;  -11.108;56145.984
558.964;42782.828;   -9.057;57277.930
559.548;42771.484;   -6.977;56459.641
560.132;41854.137;  -11.457;54434.543
560.716;40924.863;  -11.378;54800.617
561.300;41800.480;   -9.577;57606.945
561.884;43678.711;   -7.127;58972.445
562.467;44371.859;   -7.118;57327.570
563.051;43918.063;  -13.358;54962.434
563.635;41595.008;  -10.178;52594.473
564.219;40808.613;   -7.837;50610.410
564.802;40524.691;  -11.398;49551.180
565.386;41725.523;  -12.788;48370.953
565.969;42478.730;   -9.077;48178.871
566.553;42700.664;   -6.207;49957.305
567.136;39939.855;   -8.568;50369.594
567.720;39126.836;  -11.868;49492.004
568.303;39195.961;   -8.268;50616.352
568.887;38025.613;   -8.698;50727.148
569.470;37996.965;   -6.808;51698.379
570.053;36668.098;  -13.188;52122.078
570.637;35311.988;  -12.037;52536.438
571.220;34607.371;   -8.577;51186.098
571.803;34962.059;   -8.498;51032.762
572.386;37108.434;  -10.498;49609.887
572.969;37774.820;   -9.388;48285.926
573.552;33372.047;   -8.338;47624.285
574.135;30970.223;   -8.518;45498.641
574.718;28628.752;  -13.628;41970.434
575.301;29277.797;  -10.893;41447.137
575.884;29926.842;   -8.158;40923.836
576.467;34926.871;  -10.328;45267.723
577.050;33545.961;  -13.058;48175.543
577.633;32614.658;   -9.458;47729.328
578.216;34285.367;   -8.928;47579.793
578.799;35192.754;   -9.358;47820.996
579.381;34448.984;  -11.388;48115.551
579.964;31666.922;  -11.718;47333.766
580.547;31590.305;   -8.588;46668.969
581.129;33063.973;   -8.859;44466.141
581.712;33395.656;  -10.729;44164.922
582.294;34821.277;  -11.118;46477.855
582.877;32741.320;   -5.218;48244.254
583.459;32726.887;   -8.679;47437.895
584.042;34594.531;  -10.709;46943.219
584.624;36510.871;  -11.669;46792.227
585.206;35239.164;   -8.218;46557.250
585.789;34033.797;  -10.569;45793.773
586.371;34378.809;  -11.859;43836.391
586.953;33070.051;  -10.719;42972.492
587.536;34819.938;   -7.198;42487.211
588.118;36001.320;   -8.720;42086.414
588.700;35244.777;  -10.439;43389.930
589.282;35306.707;   -9.198;43646.039
589.864;34176.281;   -9.199;43438.109
590.446;31855.209;  -11.319;43151.926
591.028;31321.777;  -11.159;42781.867
591.610;30977.918;  -11.779;42839.098
592.192;27778.221;   -7.668;42820.402
592.774;27683.525;  -11.949;40724.277
593.356;27434.531;  -12.129;39874.789
593.937;24384.701;  -10.669;39980.648
594.519;25512.406;   -6.509;42069.633
595.101;28851.605;  -10.849;42976.031
595.683;29695.305;  -11.679;44084.441
596.264;30431.410;   -9.049;43478.797
596.846;32666.465;   -8.849;43803.672
597.427;32930.145;   -9.570;42986.934
598.009;34288.836;  -12.620;42832.219
598.591;33515.934;  -10.039;42580.086
599.172;32421.273;  -10.369;43061.805
599.753;30571.908;   -9.140;41691.469
600.335;30457.484;  -11.430;40692.520
600.916;30847.320;   -9.939;39982.422
601.498;29592.352;   -8.479;40318.617
602.079;28453.074;  -10.920;40670.609
602.660;30290.863;  -11.480;41450.898
603.241;31853.707;  -11.699;41137.738
603.823;32366.852;   -9.579;38868.797
604.404;32129.100;  -10.620;38182.785
604.985;30910.645;  -10.450;38078.047
605.566;30430.773;   -9.129;38056.633
606.147;30402.154;   -7.510;37020.418
606.728;31560.598;  -10.660;37883.359
607.309;32287.490;  -11.740;38748.273
607.890;31881.000;   -9.759;38850.230
608.471;30413.828;   -8.250;37457.918
609.051;30699.930;   -9.240;36066.457
609.632;28888.691;  -12.120;35991.074
610.213;27753.967;   -9.110;37402.641
610.794;29632.885;   -8.030;38383.363
611.374;31932.477;   -8.110;40562.387
611.955;31598.977;  -13.560;38533.727
612.536;28864.027;  -11.400;36951.789
613.116;27617.004;   -8.070;37197.891
613.697;29762.846;  -10.830;38411.125
614.277;31286.912;  -11.641;38673.938
614.858;30585.887;  -13.310;37075.863
615.438;28921.707;   -7.460;35092.906
616.019;27350.334;   -7.601;33666.301
616.599;28201.406;  -12.020;34189.023
617.179;29974.822;  -11.780;36952.047
617.760;32842.594;   -8.570;39582.574
618.340;32925.555;  -11.471;38943.977
618.920;31461.338;  -11.170;37594.156
619.500;33180.766;  -11.071;37866.938
620.080;33300.734;   -7.750;37869.043
620.660;31560.188;  -12.711;36868.617
621.241;30113.357;  -10.211;36352.309
621.821;29188.602;  -10.961;35459.520
622.401;28317.711;   -7.720;35207.414
622.980;29281.309;   -8.981;35980.422
623.560;29732.193;   -9.331;37351.328
624.140;28577.506;   -9.850;34388.582
624.720;26047.484;   -7.451;32368.764
625.300;24350.434;   -9.070;32638.629
625.880;27712.146;  -12.601;34599.035
626.459;29660.008;  -11.751;36831.738
627.039;30416.748;   -9.281;38299.098
627.619;32339.811;   -8.801;38289.574
628.198;31709.604;  -12.071;37220.695
628.778;30545.988;   -9.461;37632.563
629.357;31519.510;   -8.491;38003.012
629.937;31777.596;   -9.721;38402.039
630.516;31971.842;   -9.951;37868.801
631.096;32273.887;  -11.731;35760.410
631.675;33453.648;   -8.572;35225.219
632.254;33044.879;  -11.282;35130.289
632.834;32395.363;  -13.322;35794.570
633.413;32216.924;  -10.301;35788.922
633.992;31473.908;   -8.582;34532.863
634.571;33059.012;   -8.352;33590.113
635.151;33229.379;  -11.912;34943.863
635.730;32530.992;  -10.511;35352.523
636.309;34795.664;   -7.731;35366.605
636.888;32668.316;   -9.952;36165.637
637.467;30586.967;  -11.672;37515.902
638.046;30611.834;   -8.901;39288.695
638.625;31603.381;   -7.912;38279.699
639.204;31992.471;  -10.022;37741.598
639.782;29983.592;  -12.252;38364.551
640.361;28217.133;  -10.041;36740.621
640.940;27386.615;  -11.161;34950.082
641.519;28370.160;   -9.701;34137.398
642.097;29979.652;  -11.271;35654.258
642.676;31720.152;   -8.651;35637.957
643.255;33105.340;   -8.711;36567.074
643.833;30672.434;   -9.581;37809.434
644.412;28452.275;  -13.711;37337.293
644.990;30425.891;  -11.811;37018.531
645.569;32852.059;   -9.411;36518.469
646.147;32069.150;  -10.291;36186.430
646.726;30968.861;  -12.401;36267.688
647.304;30910.479;  -10.411;36647.625
647.882;30127.051;   -9.651;39286.742
648.461;31601.779;   -9.631;39157.703
649.039;35036.367;  -11.881;35412.883
649.617;35290.504;   -9.661;34744.918
650.195;33001.016;   -9.301;35403.098
650.773;31775.791;  -10.511;35053.797
651.352;30864.010;  -11.521;33756.816
651.930;28594.797;  -12.211;31868.773
652.508;25642.287;   -9.171;33121.551
653.086;26405.209;   -9.371;33564.793
653.663;31967.689;  -13.161;34054.668
654.241;35946.426;  -13.031;35693.309
654.819;37015.797;   -9.371;36422.906
655.397;37072.742;  -10.511;38213.484
655.975;33453.781;  -10.371;39507.625
656.553;30162.129;  -10.051;39498.223
657.130;28614.756;  -10.061;40395.480
657.708;26664.363;   -9.561;39242.020
658.286;24135.576;  -11.511;38920.020
658.863;26272.426;  -10.261;40202.898
659.441;29913.189;   -7.531;39677.938
660.018;31901.705;   -9.501;40413.355
660.596;31234.816;  -13.301;39931.414
661.173;31010.402;  -11.211;39604.531
661.750;32794.094;   -9.951;39700.070
662.328;31917.709;   -9.390;39292.809
662.905;30682.805;  -11.330;38235.648
663.482;28089.586;   -9.050;36212.305
664.060;25337.396;   -8.240;35944.945
664.637;26044.791;  -10.050;35170.785
665.214;29306.830;  -11.760;34197.523
665.791;29686.441;  -10.530;34549.520
666.368;28612.377;   -9.690;35118.578
666.945;30047.672;   -9.320;36019.418
667.522;30624.414;  -11.860;36048.438
668.099;32001.000;  -10.770;36243.914
668.676;32063.498;   -6.260;35958.875
669.253;34430.301;   -7.000;37384.730
669.830;35616.410;  -10.190;36779.629
670.407;32590.469;   -9.550;35231.289
670.984;32945.980;   -9.260;35544.270
671.560;30270.506;   -9.280;35466.867
672.137;26352.416;  -11.810;34280.863
672.714;28225.340;  -11.490;34632.863
673.290;31927.010;   -7.740;35135.422
673.867;31522.531;  -10.660;36114.480
674.443;31617.279;  -12.230;36152.859
675.020;31228.854;  -10.450;35327.238
675.596;29601.725;   -9.260;35795.176
676.173;28533.459;  -10.780;35430.355
676.749;28231.824;  -13.690;33549.516
677.326;28070.289;  -11.980;32210.012
677.902;27423.240;   -8.630;32068.871
678.478;29237.678;  -10.730;32583.891
679.054;29986.516;  -10.520;32088.928
679.631;29278.295;  -11.920;30978.848
680.207;29414.039;   -7.490;33160.887
680.783;31246.855;   -9.860;35570.363
681.359;32841.949;  -13.380;36125.184
681.935;33508.246;  -12.480;35240.922
682.511;32671.803;   -7.900;34429.961
683.087;31512.285;   -7.710;34463.680
683.663;31093.686;  -11.480;34648.898
684.239;29937.521;  -14.090;34546.457
684.815;28822.512;   -7.560;35586.375
685.390;29274.914;   -9.910;35821.895
685.966;30618.221;  -11.159;35085.871
686.542;32154.674;  -11.169;34198.230
687.118;33464.023;   -5.959;32847.707
687.693;32424.326;  -10.329;32794.027
688.269;33413.570;  -12.059;33072.367
688.844;33338.109;  -10.909;33141.664
689.420;30460.373;   -8.019;33965.742
689.995;29257.316;   -8.399;34655.523
690.571;30698.424;  -10.949;33576.742
691.146;30194.293;   -9.619;32657.219
691.722;28767.395;   -8.999;32526.979
692.297;28199.637;  -11.589;33014.617
692.872;28113.162;  -11.739;34012.254
693.448;30945.695;  -11.059;34237.434
694.023;31501.264;  -10.139;34142.672
694.598;29653.547;   -9.029;34132.031
695.173;30855.592;  -13.319;34205.250
695.748;31196.258;  -10.169;32882.488
696.323;28789.467;   -8.339;32864.906
696.898;27172.000;   -8.169;33170.004
697.473;27797.480;  -12.309;32432.984
698.048;27859.088;  -10.989;31649.303
698.623;26601.404;   -9.329;30778.141
699.198;27535.900;   -9.849;31140.119
699.773;28634.215;  -12.329;31764.299
700.348;29974.818;  -10.389;31780.816
700.922;30283.625;   -9.269;32046.375
701.497;31035.963;   -9.329;32603.574
702.072;31986.643;  -10.789;34799.871
702.646;31042.543;  -10.839;35793.172
703.221;30403.885;   -9.099;35201.590
703.795;32395.078;  -10.939;34764.527
704.370;30008.686;  -12.859;34307.367
704.944;28449.260;  -11.559;33509.887
705.519;29561.477;   -7.939;31388.584
706.093;31670.111;  -10.499;31340.104
706.668;33743.828;  -11.289;32630.281
707.242;33188.672;  -11.509;32728.779
707.816;31321.771;   -9.639;32947.238
708.390;30022.783;  -11.429;33277.855
708.965;29286.309;  -11.869;33834.336
709.539;30818.367;  -11.689;33709.273
710.113;31259.432;  -10.478;33044.313
710.687;30646.580;  -10.228;31953.992
711.261;29892.115;  -13.698;30505.949
711.835;30182.145;  -13.378;30262.369
712.409;29097.273;   -9.698;31254.447
712.983;28685.250;  -11.898;32754.986
713.557;30991.205;  -15.138;34018.824
714.131;29040.164;  -14.098;34579.625
714.704;28541.537;   -9.958;33890.262
715.278;30652.832;  -10.028;33531.102
715.852;29281.768;  -11.148;33601.660
716.425;28146.441;   -9.068;33515.117
716.999;26934.289;  -10.038;33185.555
717.573;26610.924;   -9.798;33905.996
718.146;26057.629;  -12.378;35199.293
718.720;26382.184;  -11.918;35060.551
719.293;26567.779;   -8.088;34973.230
719.867;28770.191;  -10.888;36394.449
720.440;30638.988;  -11.938;36663.008
721.013;31456.504;  -12.818;35102.426
721.587;29131.316;  -10.298;33985.266
722.160;27184.682;  -10.048;33524.965
722.733;26505.656;  -12.108;32987.043
723.306;26819.908;  -10.818;33066.301
723.880;28627.051;   -8.908;33399.500
724.453;28311.971;   -9.878;33468.297
725.026;28415.967;  -11.188;33816.637
725.599;31024.141;  -11.678;32797.996
726.172;30356.654;   -9.618;33187.434
726.745;27835.525;   -8.258;35136.613
727.318;27582.648;  -12.978;35751.730
727.891;27081.234;  -12.148;35890.430
728.463;26160.215;   -8.968;34822.090
729.036;26032.197;  -10.188;32895.086
729.609;25984.154;  -11.788;31823.225
730.182;23923.139;  -11.788;31445.283
730.754;22574.225;  -10.268;32373.223
731.327;22880.318;   -9.998;33676.820
731.900;24183.848;  -12.228;33417.000
732.472;23986.736;  -13.848;31978.498
733.045;23008.961;   -8.698;30368.777
733.617;22761.463;  -10.607;30574.215
734.190;24771.857;  -11.507;31280.975
734.762;25713.936;  -13.647;31674.412
735.334;27088.182;   -9.767;31247.291
735.907;27561.248;   -9.897;29876.211
736.479;27257.281;  -11.637;29808.488
737.051;28121.412;   -9.567;30233.547
737.623;27455.510;   -8.187;31469.086
738.195;26146.363;  -11.187;31784.225
738.768;24899.369;  -12.337;32120.523
739.340;23299.375;  -12.227;32094.342
739.912;22574.926;  -11.057;31312.680
740.484;22610.691;  -10.207;31946.238
741.056;22332.361;  -10.047;32984.059
741.628;23342.828;  -13.627;33897.715
742.199;24198.525;   -7.177;33213.016
742.771;26497.705;  -10.797;31369.113
743.343;27293.676;  -11.997;31865.473
743.915;26943.043;  -12.867;32388.631
744.487;24412.441;   -7.617;31079.568
745.058;21584.820;   -9.557;30570.107
745.630;22574.088;   -9.877;29970.127
746.201;24170.711;  -14.177;29186.766
746.773;24695.203;   -9.237;28805.723
747.344;22771.336;   -9.847;29591.223
747.916;21065.729;  -11.657;31412.201
748.487;22109.494;  -10.587;32194.898
749.059;23870.014;   -8.707;32533.719
749.630;24108.510;  -10.537;32158.518
750.201;23388.316;  -11.687;30855.395
750.773;22162.184;  -11.647;28622.555
751.344;22070.590;   -7.147;28405.732
751.915;24242.918;   -9.757;28461.551
752.486;25386.260;  -12.427;27842.850
753.057;24258.393;  -12.227;27845.008
753.628;24302.006;  -10.417;27728.107
754.199;23894.057;  -11.767;27381.086
754.770;23397.588;  -11.187;25882.203
755.341;22207.504;  -10.507;25886.184
755.912;20618.021;   -9.387;26050.861
756.483;19232.830;  -10.647;26798.779
757.054;19765.838;  -11.837;27048.238
757.625;19803.121;  -12.716;26294.838
758.195;19448.164;   -9.666;26142.076
758.766;19623.594;   -8.656;26392.234
759.337;19150.986;  -12.856;26334.594
759.907;18983.078;  -13.366;27579.652
760.478;18741.076;   -8.576;28352.770
761.048;19826.430;  -10.526;27325.088
761.619;19957.424;  -11.116;26460.428
762.189;18595.598;  -12.136;26029.826
762.760;18269.318;   -9.456;26430.145
763.330;18686.605;   -7.136;26670.902
763.900;18740.846;  -11.786;26603.021
764.471;18251.605;  -11.546;25542.740
765.041;17404.102;   -8.096;24358.459
765.611;16705.094;   -8.876;23991.297
766.181;16712.779;  -12.196;24470.236
766.751;16487.516;  -11.636;24845.975
767.321;17469.650;  -10.156;24533.633
767.891;16832.156;  -11.766;24916.492
768.461;17086.867;  -14.936;24776.771
769.031;18219.707;  -12.356;24757.988
769.601;18795.395;   -7.526;24181.088
770.171;18485.650;  -10.766;23670.387
770.741;17717.230;  -13.176;22960.045
771.311;17326.393;  -10.616;22917.523
771.880;17688.104;   -9.576;23562.941
772.450;17350.135;  -10.336;24216.500
773.020;16957.578;  -13.516;24140.398
773.589;17497.252;  -13.466;24414.857
774.159;17315.039;   -8.686;23858.717
774.729;15964.632;   -9.476;22942.135
775.298;14229.444;  -13.666;22324.033
775.867;13965.238;  -11.716;21140.313
776.437;14078.628;   -9.906;20838.092
777.006;13350.793;  -12.166;20599.510
777.576;12837.886;  -12.356;20508.809
778.145;12731.247;  -11.646;20732.947
778.714;13206.721;   -8.226;21062.465
779.283;14263.696;   -9.556;20949.664
779.853;14846.877;  -14.116;20508.623
780.422;14287.738;  -11.506;20649.082
780.991;13907.740;   -9.556;21527.520
781.560;13607.648;   -9.095;22632.658
782.129;13433.680;  -12.135;23048.277
782.698;13234.844;  -10.865;23438.555
783.267;12901.351;   -9.335;23267.734
783.836;13084.901;  -11.045;22415.133
784.404;13790.496;  -13.865;20443.152
784.973;13057.420;  -13.095;19699.150
785.542;11711.119;  -11.575;19763.828
786.111;11062.300;   -9.705;20341.408
786.679;11760.093;  -12.105;20207.967
787.248;12019.861;  -12.455;19516.465
787.817;11710.694;  -11.535;18900.363
788.385;11814.911;   -9.765;17879.121
788.954;11805.611;  -14.005;17658.301
789.522;11287.735;  -11.955;17788.879
790.090;11555.956;  -10.135;18118.277
790.659;12429.613;  -10.975;18338.736
791.227;12279.358;  -13.375;18508.615
791.795;11708.408;  -12.375;17898.254
792.364;11221.501;  -10.725;17295.133
792.932;11364.778;   -9.715;16822.051
793.500;11480.444;  -12.675;17040.148
794.068;11263.479;  -13.495;17179.787
794.636;10093.381;  -10.885;16664.246
795.204; 9054.480;  -11.045;16524.545
795.772; 9720.320;  -13.175;17274.564
796.340;10843.523;  -12.445;17891.002
796.908;10653.291;   -9.735;17648.561
797.476;11056.481;   -9.815;17064.080
798.044;11896.036;  -13.985;16672.777
798.612;11679.813;  -13.115;17023.996
799.180;10351.445;  -10.185;16561.615
799.747; 9374.601;   -9.055;15962.773
800.315; 8874.719;  -12.385;15296.992
800.883; 9205.583;  -15.035;14801.771
801.450; 9441.415;  -10.365;14534.430
802.018; 9497.817;   -9.855;14173.248
802.585; 9639.871;  -11.905;14029.547
803.153; 9229.071;  -11.585;13836.846
803.720; 8622.001;   -9.095;13567.324
804.287; 8672.598;   -9.135;13360.622
804.855; 8967.956;  -11.604;13681.981
805.422; 9075.077;  -11.794;13536.560
805.989; 8928.382;  -10.734;13355.958
806.556; 8513.377;  -10.444;13747.896
807.124; 8417.767;  -12.764;13987.376
807.691; 8994.137;  -12.964;14038.674
808.258; 9398.268;  -11.134;14120.152
808.825; 9631.895;   -9.854;13860.111
809.392; 9305.602;  -10.504;13268.790
809.959; 8796.610;  -13.054;12680.389
810.526; 8614.626;   -8.294;12427.308
811.093; 8269.197;   -8.394;12030.105
811.659; 7502.366;  -12.304;11653.664
812.226; 7291.872;  -13.944;11637.183
812.793; 7791.333;  -10.484;11611.521
813.360; 7894.265;  -10.144;11885.181
813.926; 7187.717;  -11.684;12770.539
814.493; 6589.268;  -13.644;12677.638
815.060; 6471.095;   -9.724;11974.336
815.626; 6814.288;   -9.854;11594.715
816.193; 6838.421;  -13.254;11579.474
816.759; 6803.742;  -13.204;11666.972
817.325; 6570.824;   -9.434;11325.530
817.892; 6256.372;  -10.134;11105.369
818.458; 6198.398;  -13.474;10843.928
819.024; 6211.754;  -11.854;10714.406
819.591; 6534.299;  -10.244;10469.165
820.157; 6646.067;  -10.704;10235.523
820.723; 6913.362;  -12.324;10847.563
821.289; 7313.815;   -9.444;11040.980
821.855; 7332.824;   -8.374;10357.100
822.421; 6934.749;  -10.234; 9978.918
822.987; 6690.978;  -13.294; 9754.177
823.553; 6539.495;  -10.884;10065.755
824.119; 6119.466;   -8.884;10036.294
824.685; 5947.397;   -6.784;10029.192
825.251; 5900.229;  -12.004;10199.230
825.816; 5998.010;  -11.474; 9820.189
826.382; 5758.896;   -9.174; 9297.248
826.948; 5489.391;   -9.214; 9381.347
827.513; 5277.688;  -10.774; 9450.726
828.079; 5214.340;  -11.924; 9472.444
828.645; 5289.111;  -10.543; 9292.643
829.210; 5494.074;  -10.533; 9065.341
829.776; 5507.055;  -10.753; 9132.620
830.341; 5426.582;  -10.173; 9092.878
830.906; 5537.578;  -10.743; 9078.557
831.472; 5412.828;  -11.113; 8534.535
832.037; 4907.574;  -10.603; 8677.874
832.602; 4821.471;  -13.323; 8628.692
833.167; 5198.339;  -10.823; 8879.031
833.733; 5167.276;  -10.113; 9189.790
834.298; 4878.244;  -13.583; 9052.608
834.863; 4725.108;  -12.703; 8895.087
835.428; 4598.864;  -10.523; 8824.266
835.993; 4535.510;   -6.963; 8845.385
836.558; 4629.437;  -10.763; 8888.563
837.123; 4767.624;   -9.903; 8966.582
837.688; 4634.094;   -9.913; 8617.860
838.253; 4497.664;  -10.283; 8590.699
838.817; 4643.481;  -12.963; 8443.797
839.382; 4816.743;  -14.243; 8799.356
839.947; 4704.152;  -10.733; 8810.595
840.511; 4767.849;   -9.383; 8796.394
841.076; 4771.003;  -12.563; 8347.231
841.641; 4570.912;  -12.953; 8224.330
842.205; 4309.408;   -7.043; 8223.349
842.770; 4265.514;   -8.163; 8622.107
843.334; 4288.267;  -12.503; 8410.386
843.898; 4248.945;  -11.693; 8337.465
844.463; 4146.536;  -10.203; 8506.283
845.027; 4045.218;   -9.533; 8280.962
845.591; 4070.381;  -13.443; 8231.141
846.156; 3978.087;  -13.143; 7969.179
846.720; 3792.916;   -9.433; 7768.278
847.284; 3511.652;  -11.033; 7630.957
847.848; 3358.842;  -10.403; 7472.395
848.412; 3376.682;  -11.553; 7437.394
848.976; 3574.423;   -8.393; 7674.592
849.540; 3638.906;   -8.713; 7836.011
850.104; 3633.291;  -12.463; 7913.669
850.668; 3763.328;  -12.973; 7694.508
851.232; 3797.106;  -10.793; 7756.887
851.796; 3710.212;  -10.662; 7926.545
852.359; 3722.898;  -13.082; 7827.844
852.923; 3454.836;  -12.192; 7641.163
853.487; 3352.592;  -11.912; 7342.501
854.050; 3505.587;  -10.892; 7042.820
854.614; 3479.787;  -13.992; 7151.338
855.177; 3360.266;  -11.732; 7105.077
855.741; 3289.830;   -8.962; 6989.675
856.304; 3200.292;   -9.442; 6596.634
856.868; 2970.392;  -14.192; 6356.272
857.431; 2745.435;  -12.702; 6468.571
857.995; 2771.565;   -9.942; 6373.210
858.558; 2806.081;   -9.112; 6324.448
859.121; 2643.281;  -12.932; 6408.327
859.684; 2598.709;  -13.442; 6347.886
860.247; 3020.211;  -10.632; 6321.264
860.810; 3345.256;  -11.272; 6301.903
861.374; 3356.110;   -9.832; 6607.881
861.937; 3330.511;  -11.762; 6408.200
862.500; 3178.025;   -9.722; 6572.639
863.062; 2866.740;  -10.512; 6387.297
863.625; 2757.144;  -11.232; 6190.836
864.188; 2754.258;  -14.112; 5807.254
864.751; 2756.177;  -11.302; 5682.413
865.314; 2866.817;  -10.112; 5547.492
865.876; 2883.814;  -12.182; 5500.150
866.439; 2786.217;  -10.722; 5415.909
867.002; 2628.278;   -9.252; 5501.567
867.564; 2519.302;   -9.572; 5413.946
868.127; 2394.150;  -13.142; 5160.325
868.689; 2113.014;  -12.902; 5133.183
869.252; 1981.171;   -9.732; 5252.382
869.814; 1996.719;   -9.432; 5297.141
870.377; 2098.977;  -11.552; 5390.919
870.939; 2085.806;   -9.052; 5599.898
871.501; 2015.836;  -10.982; 5248.336
872.063; 2044.851;  -12.292; 4854.235
872.626; 2055.924;  -14.912; 4817.074
873.188; 2064.265;  -13.112; 4987.732
873.750; 2016.889;  -13.442; 4868.651
874.312; 2087.177;   -9.402; 4779.330
874.874; 2232.892;  -11.062; 4866.348
875.436; 2110.704;  -13.931; 4718.887
875.998; 1813.060;   -9.561; 4660.005
876.560; 1650.227;  -11.321; 4462.964
877.122; 1642.498;  -12.221; 4145.042
877.683; 1625.980;  -12.191; 4056.481
878.245; 1714.899;  -12.101; 3950.740
878.807; 1859.818;   -8.971; 4058.958
879.369; 1894.973;  -12.071; 3954.677
879.930; 1817.165;  -14.621; 3941.495
880.492; 1640.711;  -10.311; 4067.014
881.053; 1486.863;  -10.901; 3859.633
881.615; 1474.188;  -14.411; 3776.071
882.176; 1501.683;  -13.761; 3734.750
882.738; 1514.767;   -9.181; 3678.489
883.299; 1476.459;  -11.791; 3405.407
883.860; 1400.218;  -13.121; 3351.106
884.422; 1289.520;  -11.211; 3394.044
884.983; 1209.327;  -10.091; 3166.443
885.544; 1188.361;   -8.461; 3189.802
886.105; 1130.546;  -12.361; 3160.360
886.666; 1051.505;  -14.141; 3093.059
887.227; 1021.022;  -11.361; 2941.957
887.788; 1036.764;  -11.401; 2974.836
888.349;  988.657;  -13.791; 2721.214
888.910;  889.896;  -13.191; 2696.493
889.471;  786.074;   -9.881; 2560.172
890.032;  711.795;   -9.881; 2558.190
890.593;  711.475;  -10.371; 2567.669
891.153;  711.425;  -13.301; 2460.307
891.714;  649.953;  -11.431; 2372.046
892.275;  600.296;  -11.291; 2309.505
892.835;  586.328;  -11.471; 2382.543
893.396;  573.704;  -11.541; 2295.502
893.956;  567.598;  -11.181; 2162.420
894.517;  554.254;  -11.741; 2125.439
895.077;  509.478;  -11.671; 2086.978
895.638;  458.177;  -11.311; 2126.316
896.198;  437.078;   -9.831; 1838.275
896.758;  437.722;   -8.421; 1892.813
897.319;  429.968;  -12.351; 1792.232
897.879;  410.816;  -13.511; 1762.751
898.439;  383.020;  -12.001; 1661.149
898.999;  362.808;  -10.180; 1781.468
899.559;  348.821;  -12.030; 1703.347
900.119;  338.719;  -15.710; 1537.525
900.679;  316.621;   -8.900; 1638.384
901.239;  290.824;   -8.340; 1527.902
901.799;  276.083;  -13.910; 1456.441
902.359;  266.404;  -13.460; 1357.140
902.919;  261.432;  -11.490; 1331.118
903.479;  258.832;  -12.110; 1317.257
904.038;  250.527;  -11.720; 1262.595
904.598;  234.321;  -13.610; 1152.034
905.158;  222.821;  -11.040; 1240.893
905.717;  217.612;  -10.900; 1233.691
906.277;  212.204;  -15.080; 1217.330
906.836;  208.853;  -13.380; 1222.408
907.396;  206.490;  -10.780; 1193.047
907.955;  200.389;   -8.500; 1182.526
908.515;  192.554;  -12.760; 1099.364
909.074;  188.339;  -11.900; 1092.863
909.633;  186.572;   -8.950; 1069.121
910.192;  183.414;   -8.770; 1196.460
910.752;  178.046;  -12.390; 1029.960
911.311;  174.296;  -13.680; 1009.780
911.870;  169.996;  -12.370;  971.460
912.429;  166.330;  -10.900; 1094.080
912.988;  163.794;  -11.690; 1081.060
913.547;  159.075;  -13.240;  940.380
914.106;  158.892;  -11.990;  999.420
914.665;  159.113;   -9.990;  984.020
915.224;  157.440;  -12.880; 1035.760
915.782;  156.021;  -12.350;  922.560
916.341;  156.308;   -9.110; 1049.840
916.900;  154.364;   -9.270;  925.260
917.458;  151.482;  -13.240;  884.220
918.017;  150.259;  -13.550;  942.600
918.576;  149.329;  -12.320;  904.440
919.134;  149.196;  -11.490;  837.980
919.693;  146.260;  -13.670;  893.060
920.251;  144.993;  -15.470;  876.500
920.809;  145.070;  -11.290;  839.580
921.368;  144.846;  -10.210;  885.360
921.926;  144.564;  -12.140;  842.940
922.484;  143.728;  -13.080;  903.360
923.042;  142.942;  -11.720;  880.340
923.601;  144.534;   -7.480;  998.680
924.159;  143.263;  -11.570;  935.560
924.717;  141.909;  -13.840;  841.080
925.275;  144.829;  -10.640;  903.240
925.833;  142.778;  -11.540;  779.320
926.391;  143.339;  -12.960;  938.380
926.949;  142.810;  -14.130;  857.680
927.506;  144.406;  -11.750;  903.500
928.064;  142.716;  -10.250;  877.580
928.622;  141.528;  -13.030;  880.100
929.180;  142.679;  -13.400;  814.180
929.737;  144.962;  -10.700;  808.540
930.295;  146.706;  -10.070;  928.480
930.853;  145.912;  -11.960;  849.100
931.410;  144.919;  -13.120;  821.120
931.968;  145.938;  -10.770;  940.660
932.525;  147.887;  -10.680;  909.380
933.082;  150.053;  -13.130;  811.440
933.640;  156.469;  -13.210;  925.900
934.197;  157.498;  -11.060;  886.360
934.754;  157.433;   -9.580;  897.780
935.312;  157.949;  -14.000;  863.340
935.869;  161.271;  -10.710; 1012.980
936.426;  160.274;   -9.860;  872.800
936.983;  158.630;   -9.710;  889.020
937.540;  156.908;  -13.990;  838.280
938.097;  156.456;  -14.040;  940.120
938.654;  159.427;  -10.310;  898.860
939.211;  160.978;  -10.560;  952.480
939.768;  159.237;  -13.900;  915.420
940.324;  159.644;  -14.760;  904.200
940.881;  164.839;  -10.370;  878.500
941.438;  172.358;   -8.260; 1021.200
941.995;  173.407;  -12.540;  992.560
942.551;  170.987;  -14.670;  875.620
943.108;  171.640;  -10.450;  937.920
943.664;  173.222;  -10.750;  869.340
944.221;  177.415;  -11.550; 1088.140
944.777;  180.068;  -14.770;  869.680
945.334;  179.485;  -12.820;  884.840
945.890;  177.682;  -10.130;  946.480
946.446;  175.324;  -13.470;  947.020
947.003;  175.679;  -12.120;  964.940
947.559;  175.707;   -9.980; 1063.040
948.115;  172.664;   -9.080; 1026.540
948.671;  168.972;  -10.830;  967.300
949.227;  166.350;  -12.440;  859.560
949.783;  166.344;  -12.910;  858.900
950.339;  168.647;  -10.270;  991.000
950.895;  169.518;  -13.630; 1023.840
951.451;  169.125;  -15.100;  925.280
952.007;  169.064;  -11.330;  998.540
952.563;  166.456;  -10.580;  937.780
953.118;  162.142;  -13.440;  904.940
953.674;  158.666;  -12.710;  935.780
954.230;  161.598;  -10.350;  949.640
954.785;  166.375;   -9.190;  936.640
955.341;  168.275;  -11.200;  998.160
955.897;  164.878;  -16.560;  834.660
956.452;  162.497;  -12.570;  953.840
957.008;  159.961;   -7.970; 1083.640
957.563;  158.322;  -11.940; 1009.540
958.118;  155.888;  -13.450;  877.700
958.674;  156.245;  -12.030;  946.780
959.229;  157.031;   -9.410; 1013.980
959.784;  155.416;  -12.000;  832.400
960.339;  153.337;  -14.780; 1001.280
960.894;  149.642;   -9.860;  963.760
961.449;  145.590;   -9.970;  859.960
962.004;  144.433;  -10.900; 1212.840
962.559;  137.466;  -13.150;  860.140
963.114;  132.065;  -13.740;  742.480
963.669;  127.396;   -9.820;  915.500
964.224;  118.442;  -13.890;  874.340
964.779;  109.901;  -12.600;  828.420
965.334;  102.980;  -10.950; 1017.860
965.888;   98.463;  -11.170;  875.360
966.443;   98.129;  -12.540;  972.380
966.998;  100.592;  -15.780;  819.460
967.552;  105.094;   -9.760;  908.380
968.107;  104.749;   -9.060;  868.300
968.661;  106.049;  -11.950;  922.440
969.216;  107.009;  -12.800;  856.280
969.770;  107.459;  -11.210;  917.200
970.324;  106.952;  -11.610;  923.140
970.879;  105.601;  -11.370;  947.180
971.433;  105.700;  -12.540;  952.720
971.987;  104.501;  -11.320;  895.340
972.541;  104.835;  -10.720;  917.100
973.095;  105.666;   -9.680; 1009.460
973.649;  104.243;  -11.440;  809.480
974.203;  104.471;  -11.210;  829.040
974.757;  105.911;  -10.240;  855.220
975.311;  106.378;  -13.720;  872.600
975.865;  106.510;  -13.770;  881.820
976.419;  106.121;  -11.690;  857.400
976.973;  105.829;   -9.510;  849.620
977.526;  106.277;  -12.620;  949.920
978.080;  102.398;  -12.010;  796.780
978.634;  101.505;  -10.170;  921.320
979.187;   98.961;   -9.020;  905.400
979.741;   98.066;   -9.820; 1018.380
980.294;   93.631;  -14.870;  789.160
980.848;   90.416;  -12.380;  717.220
981.401;   90.016;  -10.350;  816.540
981.955;   89.749;  -13.720;  844.300
982.508;   86.148;  -11.490;  746.340
983.061;   86.931;  -10.000;  915.260
983.615;   85.892;  -11.480;  798.800
984.168;   85.118;  -13.220;  770.080
984.721;   85.257;  -13.960;  880.760
985.274;   84.479;  -10.870;  867.500
985.827;   82.439;   -9.790;  834.220
986.380;   81.195;  -13.120;  721.340
986.933;   81.130;  -12.450;  864.800
987.486;   81.056;  -10.210;  861.920
988.039;   79.914;   -8.430;  863.100
988.591;   78.203;  -10.520;  893.260
989.144;   73.896;  -14.860;  737.260
989.697;   72.346;  -13.080;  758.740
990.250;   71.642;  -10.150;  858.100
990.802;   69.901;  -13.430;  755.860
991.355;   68.737;  -12.750;  974.880
991.907;   66.881;  -12.040;  864.320
992.460;   65.025;  -11.330;  753.760
993.012;   63.262;  -13.610;  749.540
993.565;   62.211;  -13.460;  711.360
994.117;   63.803;   -9.360;  950.780
994.669;   61.487;  -11.300;  701.320
995.221;   60.596;  -13.540;  791.920
995.774;   59.028;  -13.430;  787.580
996.326;   58.805;  -12.520;  740.220
996.878;   59.203;  -10.950;  838.420
997.430;   56.808;  -14.300;  699.860
997.982;   55.132;  -13.760;  750.140
998.534;   54.959;  -11.530;  739.060
999.086;   54.256;  -10.310;  738.220
999.638;   52.778;  -12.530;  661.380
1000.190;   51.558;  -11.840;  699.320
1000.741;   51.454;  -10.260;  742.700
1001.293;   51.285;   -8.860;  686.020
1001.845;   49.787;  -13.700;  676.640
1002.396;   50.822;  -12.100;  743.400
1002.948;   49.498;  -12.760;  737.400
1003.500;   49.714;  -10.380;  723.780
1004.051;   48.956;  -11.900;  907.580
1004.603;   47.719;  -12.250;  791.820
1005.154;   44.830;  -13.210;  608.980
1005.705;   43.923;  -10.950;  723.960
1006.257;   43.397;  -13.880;  707.220
1006.808;   42.080;  -12.840;  685.460
1007.359;   41.836;  -10.570;  763.240
1007.910;   40.132;   -9.620;  646.640
1008.461;   40.493;  -13.630;  732.940
1009.013;   39.000;  -17.200;  588.340
1009.564;   40.775;  -10.200;  793.520
1010.115;   38.294;  -12.570;  597.040
1010.665;   38.065;  -15.150;  602.160
1011.216;   37.075;  -14.480;  667.920
1011.767;   38.041;  -11.340;  697.920
1012.318;   38.302;   -9.780;  736.980
1012.869;   36.933;  -12.380;  679.000
1013.419;   36.544;  -15.560;  603.120
1013.970;   36.510;  -11.010;  666.640
1014.521;   35.673;  -11.610;  620.620
1015.071;   35.984;  -13.450;  670.380
1015.622;   35.312;  -13.870;  635.460
1016.172;   35.227;  -11.610;  596.820
1016.723;   34.994;  -12.120;  614.380
1017.273;   35.061;  -13.620;  604.160
1017.823;   33.878;  -14.140;  650.340
1018.374;   34.033;  -12.800;  611.760
1018.924;   33.621;  -12.340;  716.880
1019.474;   33.748;  -11.410;  718.880
1020.024;   32.746;  -14.770;  657.580
1020.574;   33.824;   -9.780;  726.160
1021.124;   33.431;   -8.560;  673.580
1021.674;   32.304;  -15.190;  559.120
1022.224;   33.432;  -13.530;  708.940
1022.774;   33.228;  -13.280;  668.820
1023.324;   34.209;  -10.690;  753.520
1023.874;   34.530;  -10.240;  875.760
1024.423;   32.070;  -12.540;  613.700
1024.973;   31.569;  -10.010;  610.760
1025.523;   31.176;  -10.550;  620.960
1026.072;   30.755;  -13.560;  606.420
1026.622;   29.377;  -15.120;  675.740
1027.172;   31.393;  -11.260;  715.660
1027.721;   30.351;  -11.410;  601.220
1028.270;   30.753;  -13.530;  663.400
1028.820;   30.197;  -13.680;  638.080
1029.369;   29.872;  -13.520;  612.700
1029.918;   30.422;  -10.980;  649.840
1030.468;   29.848;  -13.530;  564.780
1031.017;   29.901;  -13.170;  634.800
1031.566;   28.899;  -12.200;  608.900
1032.115;   29.718;   -9.960;  694.500
1032.664;   27.966;  -13.210;  596.480
1033.213;   28.614;  -12.500;  735.420
1033.762;   28.143;  -11.910;  635.620
1034.311;   28.535;   -9.640;  677.220
1034.860;   27.996;  -13.310;  691.000
1035.408;   26.970;  -11.830;  722.720
1035.957;   28.645;  -12.000;  719.540
1036.506;   26.393;  -11.690;  530.800
1037.055;   28.859;  -10.990;  844.320
1037.603;   26.751;  -15.120;  664.000
1038.152;   25.490;  -12.450;  534.760
1038.700;   26.305;  -10.560;  585.740
1039.249;   26.250;  -11.080;  681.220
1039.797;   26.127;  -12.540;  633.360
1040.345;   26.181;  -11.920;  705.420
1040.894;   26.249;  -11.410;  625.300
1041.442;   26.270;  -14.320;  632.200
1041.990;   24.076;  -16.240;  559.160
1042.538;   24.220;  -11.680;  536.180
1043.087;   24.774;  -10.760;  570.860
1043.635;   26.062;  -11.850;  670.500
1044.183;   24.487;  -15.480;  586.400
1044.731;   24.046;  -11.770;  576.000
1045.279;   24.060;  -13.090;  674.920
1045.827;   25.400;  -12.440;  892.400
1046.374;   22.752;  -13.840;  515.420
1046.922;   22.885;  -13.220;  590.580
1047.470;   24.900;  -10.230;  691.300
1048.018;   24.033;  -14.590;  647.960
1048.565;   24.798;  -12.050;  708.600
1049.113;   23.566;  -11.650;  557.000
1049.660;   23.019;  -10.510;  629.660
1050.208;   23.570;  -13.310;  675.640
1050.755;   22.151;  -15.900;  606.580
1051.303;   23.172;  -11.430;  686.820
1051.850;   22.456;   -8.480;  635.120
1052.397;   20.859;  -15.010;  473.960
1052.945;   21.520;  -13.960;  617.760
1053.492;   23.026;  -13.150;  741.840
1054.039;   23.202;   -9.630;  720.180
1054.586;   21.490;  -13.680;  557.240
1055.133;   22.497;  -14.570;  693.140
1055.680;   22.197;  -13.820;  646.620
1056.227;   21.036;  -11.730;  542.780
1056.774;   23.013;  -12.480;  794.980
1057.321;   20.171;  -13.930;  523.260
1057.868;   21.374;  -11.690;  651.320
1058.415;   20.465;   -9.520;  651.980
1058.961;   20.614;  -13.160;  678.940
1059.508;   20.709;  -12.920;  643.820
1060.055;   19.978;  -11.920;  581.780
1060.601;   21.172;  -11.500;  624.300
1061.148;   20.759;  -14.330;  616.820
1061.694;   19.429;  -16.870;  592.580
1062.241;   20.109;  -10.330;  596.320
1062.787;   20.160;  -10.620;  663.140
1063.334;   21.620;  -10.110;  808.560
1063.880;   19.649;  -13.400;  668.360
1064.426;   20.099;  -10.680;  706.820
1064.972;   18.743;   -9.920;  601.340
1065.518;   18.051;  -10.980;  566.640
1066.065;   19.176;  -14.890;  624.460
1066.611;   17.861;  -12.870;  598.800
1067.157;   19.652;  -12.950;  641.860
1067.703;   19.002;  -13.540;  668.480
1068.249;   18.289;  -13.540;  605.220
1068.794;   18.189;  -12.600;  626.880
1069.340;   17.477;  -10.620;  578.960
1069.886;   18.097;  -12.830;  590.700
1070.432;   16.699;  -14.870;  541.720
1070.977;   16.666;  -11.980;  601.080
1071.523;   16.996;   -8.200;  573.060
1072.068;   17.704;  -12.330;  582.000
1072.614;   16.391;  -16.370;  527.760
1073.160;   17.777;  -11.100;  687.040
1073.705;   16.890;  -10.480;  572.520
1074.250;   17.562;  -14.520;  559.900
1074.796;   17.344;  -11.460;  655.160
1075.341;   17.558;  -11.950;  664.100
1075.886;   16.965;  -11.460;  594.240
1076.431;   17.298;  -13.770;  649.880
1076.976;   15.530;  -12.680;  639.220
1077.521;   15.759;  -13.170;  583.080
1078.067;   15.054;  -10.860;  579.400
1078.612;   15.717;  -13.920;  661.620
1079.156;   15.988;  -13.880;  601.540
1079.701;   16.425;  -13.120;  693.260
1080.246;   16.009;   -9.940;  696.300
1080.791;   15.614;  -14.740;  625.020
1081.336;   15.044;  -13.750;  659.320
1081.880;   15.451;  -13.400;  649.680
1082.425;   14.403;  -12.220;  573.480
1082.970;   16.472;  -11.610;  717.040
1083.514;   14.206;  -13.580;  597.000
1084.059;   13.838;  -12.810;  586.720
1084.603;   14.044;  -12.320;  565.840
1085.147;   14.320;  -13.190;  645.220
1085.692;   15.303;  -12.480;  716.800
1086.236;   12.578;  -13.020;  503.140
1086.780;   15.090;   -9.190;  751.440
1087.325;   14.467;  -12.480;  654.620
1087.869;   14.096;  -12.450;  610.700
1088.413;   14.915;  -12.240;  705.040
1088.957;   13.063;   -9.020;  543.400
1089.501;   14.379;  -10.320;  766.640
1090.045;   13.907;  -12.720;  726.480
1090.589;   12.172;  -13.690;  569.920
1091.133;   14.124;  -10.020;  673.340
1091.676;   13.232;  -12.330;  591.940
1092.220;   12.531;  -14.970;  600.920
1092.764;   13.999;  -12.430;  706.960
1093.307;   13.634;   -9.800;  673.780
1093.851;   12.107;  -14.970;  556.540
1094.395;   13.034;  -15.310;  683.140
1094.938;   11.993;  -10.370;  632.520
1095.482;   12.780;  -11.050;  559.800
1096.025;   13.028;  -11.840;  710.880
1096.568;   13.229;  -12.840;  779.280
1097.112;   10.583;  -14.700;  508.180
1097.655;   12.100;   -8.720;  603.000
1098.198;   10.787;  -13.610;  600.180
1098.741;   10.545;  -13.350;  612.860
1099.285;   12.189;  -11.230;  657.300
1099.828;    9.883;  -11.840;  439.400
1100.371;   11.296;  -10.840;  608.160
1100.914;   11.345;  -14.190;  682.660
1101.457;   11.852;  -11.240;  679.900
1101.999;   10.233;  -11.270;  584.680
1102.542;   11.904;  -11.480;  641.440
1103.085;   10.358;  -11.750;  658.500
1103.628;   11.158;  -11.400;  762.060
1104.170;   10.534;  -10.490;  588.280
1104.713;   10.818;  -10.600;  646.700
1105.256;    9.569;  -14.360;  557.440
1105.798;    9.415;  -13.210;  499.980
1106.341;   11.700;  -10.270;  728.900
1106.883;    9.376;  -12.200;  521.340
1107.425;   10.048;  -13.110;  668.180
1107.968;    9.415;  -12.840;  612.380
1108.510;   10.437;   -6.480;  684.960
1109.052;    8.802;  -13.940;  612.620
1109.594;    8.475;  -13.690;  554.440
1110.136;    9.529;  -11.880;  643.220
1110.679;    8.887;   -9.500;  633.080
1111.221;    9.340;  -14.160;  604.460
1111.763;    8.193;  -13.980;  559.220
1112.304;    7.586;  -13.880;  547.140
1112.846;    9.267;  -12.210;  666.240
1113.388;   11.748;  -11.390;  942.180
1113.930;    8.434;  -14.540;  694.200
1114.472;    7.638;  -12.640;  606.540
1115.013;    7.063;  -11.620;  551.280
1115.555;    7.330;  -13.640;  587.100
1116.097;    6.901;  -15.380;  579.480
1116.638;    7.795;  -12.640;  684.600
1117.180;    8.076;   -9.850;  667.740
1117.721;    7.572;  -13.690;  568.580
1118.262;    7.933;  -12.680;  677.960
1118.804;    7.648;  -12.530;  637.340
1119.345;    7.306;  -11.690;  578.400
1119.886;    8.348;  -13.380;  704.040
1120.427;    6.810;  -14.070;  589.020
1120.969;    6.785;  -13.500;  597.920
1121.510;    5.899;  -11.480;  563.060
1122.051;    7.249;  -12.830;  723.580
1122.592;    5.874;  -14.290;  655.420
1123.133;    5.236;  -12.400;  547.940
1123.673;    8.355;  -10.130;  706.480
1124.214;    7.092;  -12.930;  612.460
1124.755;    7.180;  -14.380;  639.460
1125.296;    6.150;  -14.000;  627.320
1125.836;    7.283;  -10.070;  691.500
1126.377;    5.612;  -12.640;  599.660
1126.918;    6.964;  -12.960;  614.980
1127.458;    4.965;  -13.350;  622.220
1127.999;    6.376;  -10.750;  656.980
1128.539;    6.319;  -12.350;  694.240
1129.079;    5.329;  -14.860;  632.720
1129.620;    4.832;  -13.840;  558.100
1130.160;    4.377;  -12.330;  539.480
1130.700;    5.789;  -14.530;  640.840
1131.240;    5.317;  -12.530;  643.700
1131.781;    4.440;  -14.450;  619.680
1132.321;    5.525;   -9.790;  599.120
1132.861;    4.168;  -14.860;  564.200
1133.401;    4.620;  -14.290;  593.940
1133.941;    5.408;  -11.750;  626.280
1134.481;    5.424;   -9.920;  597.580
1135.020;    4.436;  -12.290;  609.160
1135.560;    4.071;  -11.650;  674.940
1136.100;    2.915;  -16.270;  501.160
1136.640;    4.001;  -10.890;  510.480
1137.179;    3.898;  -14.180;  537.960
1137.719;    4.136;  -16.250;  605.400
1138.258;    4.585;  -14.230;  587.360
1138.798;    4.477;   -9.090;  663.780
1139.337;    2.815;  -15.130;  482.840
1139.877;    3.441;  -13.680;  642.360
1140.416;    5.762;  -11.320;  878.060
1140.955;    3.317;  -10.860;  535.380
1141.494;    3.965;  -12.920;  669.280
1142.034;    2.809;  -13.930;  583.520
1142.573;    3.811;  -11.440;  646.280
1143.112;    3.196;  -12.000;  553.480
1143.651;    3.620;  -13.670;  536.480
1144.190;    3.943;  -12.730;  691.640
1144.729;    3.416;  -14.560;  607.420
1145.267;    3.073;  -11.830;  584.900
1145.806;    4.174;  -12.230;  637.040
1146.345;    2.743;  -14.130;  635.020
1146.884;    2.357;  -11.590;  622.500
1147.422;    1.832;  -12.550;  533.060
1147.961;    4.602;  -11.180;  708.460
1148.500;    2.666;  -11.510;  669.720
1149.038;    2.458;  -11.640;  632.500
1149.577;    3.380;  -10.130;  698.640
1150.115;    1.133;  -13.970;  452.280
1150.653;    1.992;  -14.520;  607.340
1151.192;    2.222;  -12.810;  552.920
1151.730;    3.003;   -9.100;  652.560
1152.268;    1.644;  -12.220;  589.520
1152.806;    1.385;  -14.140;  571.180
1153.344;    1.721;  -12.350;  577.640
1153.882;    2.250;   -8.980;  600.060
1154.421;    0.771;  -15.190;  470.620
1154.958;    0.464;  -15.210;  595.240
1155.496;    2.312;  -12.850;  645.280
1156.034;    2.033;   -9.940;  721.880
1156.572;    3.247;  -13.570;  667.060
1157.110;    0.336;  -14.590;  473.940
1157.647;    1.270;  -13.030;  676.960
1158.185;    1.142;  -12.140;  564.320
1158.723;    0.313;  -14.390;  509.200
1159.260;    1.195;  -14.090;  701.700
1159.798;    1.412;  -11.920;  658.160
1160.335;    0.994;  -11.110;  631.820

