
Integration time [ms]:   3.276
Averaging Nr. [scans]: 1000
Smoothing Nr. [pixels]: 0
Data measured with spectrometer [name]: 7414430SP
Wave   ;Sample   ;Dark     ;Reference
[nm]   ;[counts] ;[counts] ;[counts] 

288.544;  158.371;    7.793;  793.890
289.143;  160.604;    7.462;  681.602
289.742;  161.865;    8.602;  828.814
290.341;  149.376;    1.321;  789.841
290.940;  139.869;   -0.709;  730.702
291.538;  141.740;    0.881;  881.108
292.137;  140.052;    0.122;  792.581
292.736;  143.044;   -1.929;  975.101
293.335;  138.844;   -8.229;  735.086
293.934;  140.872;   -5.279;  781.677
294.532;  140.921;   -1.369; 1031.958
295.131;  126.986;   -7.641;  834.394
295.730;  126.239;   -8.420;  809.588
296.328;  124.070;   -5.611;  783.442
296.927;  122.866;   -5.781;  779.652
297.525;  125.190;   -6.361;  781.236
298.124;  116.765;  -11.382;  654.009
298.722;  121.100;   -7.641;  761.933
299.321;  117.468;   -6.811;  708.597
299.919;  114.248;   -6.991;  751.918
300.518;  110.633;  -10.362;  689.338
301.116;  113.150;   -9.581;  691.381
301.715;  113.600;   -4.891;  730.222
302.313;  112.157;   -8.801;  704.943
302.911;  107.412;   -8.522;  733.830
303.509;  112.562;   -6.171;  925.627
304.108;  110.012;   -7.311;  760.383
304.706;  109.754;   -8.321;  801.664
305.304;  104.546;  -10.222;  796.707
305.902;  109.029;   -6.021;  784.484
306.500;  104.943;   -4.971;  728.200
307.098;  102.839;   -7.061;  746.560
307.696;  101.453;   -8.801;  780.432
308.294;  102.226;   -6.411;  731.359
308.892;  103.296;   -2.901;  759.769
309.490;   99.656;   -5.041;  712.161
310.088;   98.591;   -5.002;  788.444
310.686;  102.370;   -2.041;  821.749
311.284;   97.677;   -2.351;  766.040
311.882;   95.142;   -4.422;  731.225
312.480;   92.250;   -4.192;  697.167
313.078;   94.130;   -1.172;  808.331
313.675;   93.656;   -2.601;  691.600
314.273;   89.616;   -1.312;  797.837
314.871;   89.054;   -3.942;  589.829
315.468;   87.040;   -2.802;  652.090
316.066;   90.286;   -0.701;  694.427
316.664;   82.711;   -4.362;  656.351
317.261;   86.254;   -2.872;  910.128
317.859;   82.061;   -2.022;  768.735
318.456;   83.518;   -0.531;  830.096
319.054;   78.325;   -3.912;  787.828
319.651;   77.672;   -4.752;  759.928
320.249;   75.892;   -2.602;  810.188
320.846;   73.691;   -0.821;  714.286
321.443;   70.846;   -4.642;  832.135
322.041;   68.511;   -5.002;  812.315
322.638;   65.744;   -3.982;  701.456
323.235;   66.973;   -3.411;  665.683
323.833;   63.740;   -7.361;  740.354
324.430;   59.711;   -8.611;  615.900
325.027;   60.489;   -4.061;  876.855
325.624;   60.770;   -4.031;  644.532
326.221;   57.201;   -7.481;  689.717
326.818;   56.931;   -5.281;  818.332
327.415;   59.514;   -7.460;  748.828
328.012;   58.896;   -5.510;  690.585
328.609;   57.631;   -7.880;  731.389
329.206;   55.984;   -8.331;  778.621
329.803;   56.322;   -5.121;  737.841
330.400;   58.304;   -4.510;  704.260
330.997;   59.739;   -6.441;  817.147
331.594;   57.563;   -8.831;  788.185
332.191;   62.906;   -7.621;  728.722
332.787;   66.767;   -4.591;  844.463
333.384;   66.901;   -7.412;  763.093
333.981;   65.589;   -8.293;  815.687
334.578;   67.571;   -7.052;  708.378
335.174;   69.998;   -3.102;  731.469
335.771;   68.711;   -5.943;  836.456
336.367;   67.344;   -7.393;  710.631
336.964;   72.365;   -4.063;  793.266
337.561;   68.490;   -3.813;  731.112
338.157;   64.641;   -4.654;  911.916
338.754;   63.495;   -7.934;  796.589
339.350;   62.153;   -4.414;  722.493
339.946;   63.153;   -4.664;  773.135
340.543;   55.733;   -6.375;  846.136
341.139;   49.086;   -9.815;  720.836
341.735;   46.508;   -4.526;  772.593
342.332;   46.294;   -4.895;  691.472
342.928;   44.948;   -4.295;  795.394
343.524;   38.630;   -5.476;  761.684
344.120;   35.392;   -5.856;  738.562
344.716;   38.124;   -2.155;  723.717
345.313;   36.074;   -6.275;  795.342
345.909;   31.367;   -8.815;  627.336
346.505;   32.506;   -5.305;  740.247
347.101;   33.073;   -2.674;  827.864
347.697;   33.320;   -4.344;  785.398
348.293;   28.022;   -9.975;  627.244
348.889;   28.979;   -5.774;  745.914
349.485;   28.517;   -5.004;  688.205
350.081;   28.528;   -4.704;  772.592
350.676;   24.355;   -6.635;  691.606
351.272;   28.258;   -4.504;  809.530
351.868;   28.268;   -3.914;  780.497
352.464;   24.287;   -9.044;  723.932
353.059;   22.311;   -8.314;  646.017
353.655;   24.618;   -7.024;  777.063
354.251;   25.551;   -5.343;  759.845
354.846;   19.645;   -8.604;  740.646
355.442;   18.039;   -6.945;  753.071
356.038;   20.006;   -7.564;  751.708
356.633;   19.711;   -5.814;  728.594
357.229;   17.106;   -7.364;  724.757
357.824;   16.470;   -8.024;  703.600
358.420;   15.225;   -9.384;  679.726
359.015;   15.513;   -5.104;  695.357
359.610;   16.572;   -6.854;  763.920
360.206;   10.552;  -10.185;  603.240
360.801;   12.991;   -7.054;  646.503
361.396;   15.592;   -5.034;  725.975
361.992;   10.270;   -8.284;  668.220
362.587;    7.888;   -8.625;  670.160
363.182;    9.530;   -7.674;  689.631
363.777;   11.184;   -5.164;  738.242
364.372;   10.339;   -8.604;  737.314
364.967;    6.314;   -9.055;  680.744
365.563;   10.855;   -6.114;  815.567
366.158;    8.053;   -5.814;  685.161
366.753;    8.426;   -7.854;  649.263
367.348;    7.263;   -7.804;  746.056
367.942;    6.960;   -7.954;  697.298
368.537;    5.370;   -4.984;  754.245
369.132;    5.438;   -8.564;  703.428
369.727;    2.573;   -8.855;  638.079
370.322;    3.081;   -6.245;  580.186
370.917;    2.789;   -6.425;  710.646
371.511;    6.041;   -6.294;  861.834
372.106;    2.579;   -7.685;  776.964
372.701;   -0.506;   -7.335;  585.988
373.296;    4.239;   -4.564;  863.135
373.890;   -1.171;  -10.235;  647.840
374.485;   -1.579;   -7.885;  691.199
375.079;    1.425;   -7.324;  738.685
375.674;    2.501;   -3.494;  812.970
376.268;   -1.912;   -8.525;  691.759
376.863;   -6.958;  -10.086;  580.327
377.457;   -0.646;   -7.025;  662.490
378.052;   -3.139;   -3.585;  764.884
378.646;   -4.057;   -7.595;  741.167
379.240;   -4.228;   -8.335;  721.176
379.835;   -3.580;   -5.785;  636.978
380.429;   -5.477;   -4.335;  562.557
381.023;   -5.579;   -6.805;  779.205
381.617;   -8.246;   -9.195;  680.106
382.212;   -4.582;   -6.905;  685.303
382.806;   -3.607;   -3.745;  760.690
383.400;   -8.057;   -7.745;  672.281
383.994;   -8.571;   -9.765;  664.870
384.588;   -5.181;   -6.564;  697.701
385.182;   -3.557;   -5.344;  726.624
385.776;   -5.005;   -8.514;  706.875
386.370;   -8.303;   -9.555;  681.968
386.964;   -7.335;   -8.715;  684.155
387.558;   -5.970;   -6.174;  598.360
388.152;   -9.296;   -8.725;  681.959
388.745;   -7.457;   -7.965;  814.707
389.339;   -5.657;   -5.924;  747.642
389.933;   -4.726;   -5.524;  695.370
390.527;   -5.995;   -7.114;  859.029
391.120;  -11.663;  -10.725;  595.318
391.714;   -8.786;   -8.035;  711.633
392.308;   -5.499;   -3.574;  780.253
392.901;   -9.781;   -7.245;  642.460
393.495;  -11.188;   -9.285;  595.414
394.089;   -9.269;   -5.895;  760.452
394.682;  -10.293;   -4.295;  697.188
395.275;  -10.743;   -9.875;  719.927
395.869;  -12.020;   -8.485;  667.314
396.462;  -10.006;   -7.455;  616.609
397.056;   -6.338;   -5.424;  776.621
397.649;  -11.678;   -6.605;  731.575
398.242;   -8.147;   -8.224;  712.645
398.836;   -7.588;   -7.474;  766.408
399.429;   -8.178;   -7.094;  631.041
400.022;  -12.156;   -9.475;  665.902
400.615;   -9.156;   -7.145;  805.609
401.208;   -7.591;   -7.174;  691.451
401.802;  -10.258;   -5.515;  699.329
402.395;  -10.767;   -9.875;  683.502
402.988;  -12.130;   -8.845;  696.627
403.581;   -8.835;   -8.874;  646.878
404.174;   -6.047;   -5.324;  686.568
404.767;  -10.610;   -9.575;  638.583
405.360;  -12.287;  -10.965;  621.445
405.953;   -6.750;   -8.764;  759.034
406.545;   -5.958;   -7.514;  725.342
407.138;  -10.700;  -10.025;  618.350
407.731;   -9.914;  -10.034;  613.303
408.324;   -4.361;   -9.374;  660.554
408.917;   -6.048;   -6.534;  681.864
409.509;   -8.311;   -8.004;  740.396
410.102;   -9.495;   -9.875;  643.948
410.695;   -4.070;   -8.604;  665.758
411.287;   -4.544;   -6.794;  599.821
411.880;   -5.958;   -9.334;  585.421
412.472;   -8.776;  -10.254;  613.092
413.065;   -5.942;   -6.714;  629.408
413.657;   -4.245;   -7.234;  576.678
414.250;   -3.812;  -10.544;  646.681
414.842;   -5.575;   -9.744;  676.353
415.434;   -2.607;   -6.994;  570.463
416.027;    0.773;   -5.893;  652.196
416.619;   -1.571;   -7.264;  713.400
417.211;   -1.454;  -10.374;  599.352
417.804;    2.637;   -7.993;  628.499
418.396;   -2.410;   -7.234;  607.643
418.988;   -0.030;   -9.443;  659.238
419.580;   -2.031;  -10.724;  568.276
420.172;   -1.239;  -10.323;  536.196
420.764;    3.498;   -8.793;  672.482
421.356;    2.171;  -11.143;  636.898
421.948;    1.631;   -8.293;  677.661
422.540;    6.538;   -7.893;  680.027
423.132;    5.633;   -7.082;  600.641
423.724;    2.624;   -8.653;  561.267
424.316;    4.250;  -10.213;  621.345
424.908;    7.928;   -9.762;  591.517
425.500;    8.410;   -5.572;  647.978
426.092;    8.947;   -8.422;  648.268
426.683;    8.589;   -9.283;  684.836
427.275;   10.783;   -7.852;  641.471
427.867;   12.369;   -5.272;  668.948
428.458;   13.240;   -7.682;  732.344
429.050;   11.622;  -10.612;  680.749
429.642;   13.915;   -9.882;  743.124
430.233;   13.805;   -6.962;  569.356
430.825;   15.636;   -6.842;  724.809
431.416;   13.204;   -9.672;  698.241
432.008;   17.043;   -6.552;  651.723
432.599;   16.672;   -6.891;  656.073
433.190;   14.656;  -10.912;  637.670
433.782;   13.758;  -11.172;  590.395
434.373;   21.156;   -6.061;  884.765
434.964;   20.475;   -8.251;  602.920
435.556;   16.988;   -9.722;  634.537
436.147;   20.135;   -9.082;  758.490
436.738;   20.189;   -8.041;  701.099
437.329;   25.237;   -7.341;  721.723
437.920;   18.065;   -8.162;  666.688
438.511;   18.368;  -11.802;  564.526
439.103;   26.123;  -10.191;  623.998
439.694;   26.597;   -7.601;  681.583
440.285;   27.319;   -8.541;  764.432
440.876;   25.864;   -9.751;  845.738
441.466;   25.935;   -9.401;  575.162
442.057;   31.472;   -7.760;  665.814
442.648;   28.688;   -9.971;  746.255
443.239;   27.777;  -11.001;  620.477
443.830;   33.191;   -7.990;  704.958
444.421;   34.808;   -7.910;  655.474
445.011;   30.862;   -8.131;  693.619
445.602;   31.245;   -7.111;  743.126
446.193;   33.307;  -10.920;  488.117
446.783;   37.180;   -6.500;  640.397
447.374;   32.825;   -8.671;  692.759
447.964;   33.462;  -10.781;  713.770
448.555;   42.010;   -9.650;  822.742
449.145;   38.502;   -8.660;  662.853
449.736;   38.919;   -8.990;  803.179
450.326;   39.779;   -9.500;  713.626
450.917;   44.157;   -8.680;  675.324
451.507;   43.530;   -7.520;  600.661
452.097;   44.272;   -8.590;  746.267
452.688;   45.801;  -11.340;  742.160
453.278;   46.405;  -10.100;  566.840
453.868;   49.138;   -6.019;  793.550
454.458;   48.043;   -9.440;  651.141
455.048;   48.261;  -10.560;  711.783
455.639;   50.043;  -11.799;  567.096
456.229;   52.920;   -6.899;  710.694
456.819;   54.932;   -7.389;  751.158
457.409;   56.140;  -11.119;  773.993
457.999;   59.433;   -9.289;  737.505
458.589;   58.669;   -6.139;  686.606
459.179;   58.770;   -8.729;  717.658
459.769;   56.022;   -9.789;  627.099
460.358;   61.283;  -10.259;  797.262
460.948;   61.311;   -7.299;  689.503
461.538;   63.803;  -10.289;  660.677
462.128;   61.262;  -11.269;  664.934
462.717;   68.228;   -9.368;  710.326
463.307;   70.572;   -7.908;  705.846
463.897;   66.471;   -9.599;  656.942
464.486;   66.340;   -9.769;  837.128
465.076;   70.221;   -8.048;  733.776
465.666;   74.508;   -9.358;  652.900
466.255;   72.143;   -7.919;  785.651
466.845;   70.489;  -11.689;  666.749
467.434;   74.295;   -7.818;  725.873
468.023;   75.469;   -7.678;  658.357
468.613;   73.396;  -10.939;  713.946
469.202;   77.378;  -10.118;  646.507
469.791;   81.956;   -9.108;  737.811
470.381;   84.242;   -6.058;  742.813
470.970;   82.957;  -10.428;  711.099
471.559;   83.245;  -10.268;  733.291
472.148;   86.023;   -8.448;  675.737
472.738;   89.640;   -6.917;  765.466
473.327;   87.934;  -11.978;  637.529
473.916;   88.568;  -11.888;  737.446
474.505;   92.848;   -9.437;  751.703
475.094;   96.841;   -6.747;  806.570
475.683;   94.916;   -9.367;  797.699
476.272;   96.782;  -12.637;  730.632
476.861;   99.580;  -10.027;  706.754
477.449;  105.759;   -8.716;  728.487
478.038;  100.019;   -9.577;  692.513
478.627;  102.029;   -9.718;  714.852
479.216;  107.806;   -8.947;  769.441
479.805;  111.652;   -6.256;  783.375
480.393;  110.605;   -7.937; 1008.945
480.982;  110.307;   -7.717;  874.501
481.571;  116.635;   -9.266;  858.333
482.159;  117.504;   -7.636;  705.386
482.748;  116.965;   -9.667;  821.385
483.336;  122.039;  -10.376;  858.209
483.925;  123.548;   -7.147;  774.373
484.513;  130.735;   -7.996;  758.962
485.102;  127.557;  -10.027;  810.965
485.690;  136.594;  -10.446; 1011.050
486.278;  138.593;   -8.446;  979.329
486.867;  138.646;   -6.356;  809.662
487.455;  140.433;   -9.136;  898.229
488.043;  143.402;  -10.646;  748.361
488.631;  152.569;   -7.456; 1005.079
489.220;  157.023;   -6.636;  908.626
489.808;  157.195;  -11.036;  741.415
490.396;  165.788;  -10.246;  914.645
490.984;  173.617;   -8.556;  830.161
491.572;  185.833;   -5.886;  940.315
492.160;  194.613;   -9.486;  919.081
492.748;  208.927;  -10.976;  884.341
493.336;  233.498;   -8.776; 1019.693
493.924;  265.807;   -5.465;  958.077
494.512;  301.747;   -9.986; 1066.638
495.100;  356.290;  -10.636; 1103.280
495.687;  424.756;  -10.885; 1206.373
496.275;  485.448;   -8.126; 1150.796
496.863;  560.506;  -10.586; 1281.171
497.451;  688.041;  -11.926; 1386.805
498.038;  810.447;  -10.885; 1556.729
498.626;  915.709;   -6.315; 1741.407
499.214; 1083.812;   -7.326; 2016.609
499.801; 1326.980;  -11.906; 2220.633
500.389; 1598.383;  -10.466; 2312.494
500.976; 1870.870;   -5.236; 2744.849
501.564; 2334.490;   -8.936; 3148.565
502.151; 2847.078;  -13.176; 3515.999
502.738; 3430.681;  -10.646; 3971.274
503.326; 3852.875;   -9.525; 4403.796
503.913; 4178.364;  -10.856; 5161.749
504.500; 4723.942;  -11.586; 5986.420
505.088; 5065.658;  -10.336; 6381.201
505.675; 5560.125;   -6.355; 6925.547
506.262; 6065.031;   -9.046; 7619.060
506.849; 6601.320;  -10.416; 8733.969
507.436; 7136.604;  -10.305; 9790.121
508.023; 7647.978;   -5.496; 9985.472
508.610; 8576.687;   -7.856;10434.618
509.197;10015.895;  -10.097;11198.435
509.784;11662.760;  -10.886;12391.194
510.371;13200.618;   -9.315;13603.713
510.958;14085.098;   -9.936;14426.586
511.545;14657.677;   -9.326;15243.775
512.132;15280.844;  -10.075;15945.876
512.719;15482.489;   -7.796;16340.369
513.305;16468.908;  -10.606;18011.766
513.892;17957.559;  -11.486;19754.971
514.479;19826.563;   -9.126;20967.805
515.066;21529.793;   -6.026;22299.793
515.652;21766.305;   -8.466;22908.660
516.239;22890.307;  -10.886;23798.875
516.825;25222.508;  -11.496;25567.275
517.412;27386.873;   -5.796;28154.959
517.998;29449.779;  -10.506;28344.111
518.585;29179.463;  -10.076;27134.219
519.171;27801.033;   -8.315;27268.576
519.758;28820.469;   -8.596;28964.129
520.344;30072.787;   -8.466;30664.494
520.930;32758.133;  -11.006;32550.605
521.516;33255.348;  -10.495;35422.895
522.103;31658.176;   -5.526;38280.004
522.689;32367.018;   -8.746;37835.117
523.275;34050.313;  -11.376;37288.613
523.861;36076.125;  -11.156;37281.395
524.447;39685.633;   -8.135;37846.949
525.033;40727.195;   -7.896;38321.949
525.619;40281.516;  -12.476;38579.285
526.205;40324.934;   -9.516;40622.875
526.791;39956.930;   -6.926;42258.836
527.377;41240.297;   -8.346;42966.902
527.963;42911.418;   -8.717;42018.949
528.549;41648.625;  -11.016;42476.828
529.135;41892.754;   -8.536;41854.852
529.721;41617.082;   -9.666;41237.711
530.306;40062.219;  -10.066;41259.445
530.892;39970.742;  -11.356;41506.047
531.478;39373.852;   -6.596;43559.613
532.063;39900.414;   -8.836;47695.563
532.649;43804.262;  -10.047;50808.324
533.235;45311.766;   -9.746;51787.500
533.820;44329.148;   -6.566;52145.035
534.406;43146.797;  -10.817;51133.488
534.991;46275.430;   -9.416;49996.805
535.576;47645.895;   -9.036;48882.852
536.162;47878.602;   -6.156;46942.285
536.747;49112.520;  -11.607;45711.746
537.333;49461.582;  -11.787;48510.180
537.918;49392.430;  -12.437;50439.891
538.503;50661.402;   -7.196;50863.711
539.088;48267.992;  -10.556;50906.922
539.673;46615.645;   -8.767;52621.965
540.259;47734.641;  -10.026;52368.094
540.844;49707.754;   -7.416;50879.109
541.429;48781.121;   -9.467;52077.777
542.014;48467.109;   -9.527;52716.695
542.599;50770.746;   -9.946;52363.281
543.184;53710.152;   -7.927;53187.137
543.769;52072.266;   -9.297;54697.605
544.354;48352.078;  -10.127;53913.914
544.938;46667.980;   -9.267;49680.164
545.523;49135.715;   -6.506;47386.277
546.108;53140.680;   -9.787;49151.949
546.693;52549.395;  -11.587;51384.637
547.278;52024.473;  -10.986;51853.254
547.862;48620.547;   -8.206;51173.750
548.447;45931.688;  -10.067;51691.395
549.031;46752.574;   -9.637;52456.703
549.616;47739.859;   -9.926;52714.516
550.201;46578.008;   -6.347;52414.598
550.785;46001.809;   -7.917;52355.059
551.370;46951.379;  -10.867;54589.453
551.954;47743.168;   -9.047;58267.348
552.538;49056.605;   -7.827;59062.176
553.123;48914.922;  -10.287;58115.285
553.707;44635.859;  -12.178;56556.285
554.291;45426.961;   -8.717;56201.668
554.876;48838.688;   -7.457;55335.762
555.460;50016.496;  -10.387;54155.703
556.044;50998.473;   -9.618;53721.484
556.628;50119.156;  -11.567;53731.016
557.212;47957.887;   -8.097;54312.531
557.796;49104.559;  -11.077;53797.773
558.380;46992.570;  -11.108;56145.984
558.964;45634.906;   -9.057;57277.930
559.548;45623.004;   -6.977;56459.641
560.132;44785.070;  -11.457;54434.543
560.716;43774.086;  -11.378;54800.617
561.300;44715.469;   -9.577;57606.945
561.884;46618.965;   -7.127;58972.445
562.467;47356.316;   -7.118;57327.570
563.051;46740.125;  -13.358;54962.434
563.635;44336.262;  -10.178;52594.473
564.219;43636.027;   -7.837;50610.410
564.802;43320.535;  -11.398;49551.180
565.386;44701.840;  -12.788;48370.953
565.969;45405.531;   -9.077;48178.871
566.553;45667.953;   -6.207;49957.305
567.136;42808.145;   -8.568;50369.594
567.720;41921.043;  -11.868;49492.004
568.303;41909.078;   -8.268;50616.352
568.887;40546.184;   -8.698;50727.148
569.470;40617.824;   -6.808;51698.379
570.053;39295.887;  -13.188;52122.078
570.637;37894.367;  -12.037;52536.438
571.220;37236.555;   -8.577;51186.098
571.803;37765.926;   -8.498;51032.762
572.386;40478.898;  -10.498;49609.887
572.969;42070.363;   -9.388;48285.926
573.552;38246.164;   -8.338;47624.285
574.135;36132.207;   -8.518;45498.641
574.718;32836.820;  -13.628;41970.434
575.301;32349.129;  -10.893;41447.137
575.884;31861.439;   -8.158;40923.836
576.467;36769.867;  -10.328;45267.723
577.050;35316.082;  -13.058;48175.543
577.633;34210.773;   -9.458;47729.328
578.216;35799.082;   -8.928;47579.793
578.799;36872.941;   -9.358;47820.996
579.381;36370.281;  -11.388;48115.551
579.964;33429.082;  -11.718;47333.766
580.547;33353.676;   -8.588;46668.969
581.129;34957.395;   -8.859;44466.141
581.712;35295.336;  -10.729;44164.922
582.294;36666.563;  -11.118;46477.855
582.877;34541.613;   -5.218;48244.254
583.459;34451.633;   -8.679;47437.895
584.042;36361.680;  -10.709;46943.219
584.624;38492.930;  -11.669;46792.227
585.206;37372.789;   -8.218;46557.250
585.789;35931.004;  -10.569;45793.773
586.371;36130.285;  -11.859;43836.391
586.953;34757.758;  -10.719;42972.492
587.536;36458.262;   -7.198;42487.211
588.118;37789.656;   -8.720;42086.414
588.700;37200.699;  -10.439;43389.930
589.282;37419.988;   -9.198;43646.039
589.864;36299.660;   -9.199;43438.109
590.446;33833.379;  -11.319;43151.926
591.028;33342.332;  -11.159;42781.867
591.610;33186.707;  -11.779;42839.098
592.192;30210.270;   -7.668;42820.402
592.774;31047.951;  -11.949;40724.277
593.356;32210.604;  -12.129;39874.789
593.937;30273.127;  -10.669;39980.648
594.519;31539.762;   -6.509;42069.633
595.101;33468.969;  -10.849;42976.031
595.683;32277.363;  -11.679;44084.441
596.264;31883.154;   -9.049;43478.797
596.846;33699.285;   -8.849;43803.672
597.427;33882.664;   -9.570;42986.934
598.009;35155.195;  -12.620;42832.219
598.591;34375.938;  -10.039;42580.086
599.172;33286.516;  -10.369;43061.805
599.753;31458.211;   -9.140;41691.469
600.335;31318.650;  -11.430;40692.520
600.916;31809.514;   -9.939;39982.422
601.498;30705.949;   -8.479;40318.617
602.079;29429.770;  -10.920;40670.609
602.660;31253.648;  -11.480;41450.898
603.241;32812.953;  -11.699;41137.738
603.823;33304.191;   -9.579;38868.797
604.404;33069.855;  -10.620;38182.785
604.985;31785.289;  -10.450;38078.047
605.566;31246.578;   -9.129;38056.633
606.147;31156.861;   -7.510;37020.418
606.728;32285.012;  -10.660;37883.359
607.309;33167.395;  -11.740;38748.273
607.890;32858.953;   -9.759;38850.230
608.471;31336.242;   -8.250;37457.918
609.051;31588.053;   -9.240;36066.457
609.632;29743.791;  -12.120;35991.074
610.213;28547.148;   -9.110;37402.641
610.794;30368.496;   -8.030;38383.363
611.374;32729.271;   -8.110;40562.387
611.955;32494.260;  -13.560;38533.727
612.536;29757.293;  -11.400;36951.789
613.116;28522.906;   -8.070;37197.891
613.697;30704.963;  -10.830;38411.125
614.277;32265.236;  -11.641;38673.938
614.858;31633.551;  -13.310;37075.863
615.438;29841.666;   -7.460;35092.906
616.019;28181.463;   -7.601;33666.301
616.599;28971.805;  -12.020;34189.023
617.179;30768.701;  -11.780;36952.047
617.760;33532.383;   -8.570;39582.574
618.340;33573.855;  -11.471;38943.977
618.920;32101.275;  -11.170;37594.156
619.500;33942.563;  -11.071;37866.938
620.080;34205.926;   -7.750;37869.043
620.660;32531.473;  -12.711;36868.617
621.241;30994.180;  -10.211;36352.309
621.821;29937.846;  -10.961;35459.520
622.401;28965.186;   -7.720;35207.414
622.980;29937.246;   -8.981;35980.422
623.560;30426.355;   -9.331;37351.328
624.140;29323.184;   -9.850;34388.582
624.720;26818.992;   -7.451;32368.764
625.300;25130.047;   -9.070;32638.629
625.880;28529.883;  -12.601;34599.035
626.459;30474.805;  -11.751;36831.738
627.039;31053.014;   -9.281;38299.098
627.619;32953.633;   -8.801;38289.574
628.198;32511.053;  -12.071;37220.695
628.778;31311.021;   -9.461;37632.563
629.357;32218.352;   -8.491;38003.012
629.937;32504.281;   -9.721;38402.039
630.516;32671.713;   -9.951;37868.801
631.096;32979.176;  -11.731;35760.410
631.675;34207.270;   -8.572;35225.219
632.254;33774.891;  -11.282;35130.289
632.834;33204.164;  -13.322;35794.570
633.413;32929.609;  -10.301;35788.922
633.992;32157.900;   -8.582;34532.863
634.571;33753.914;   -8.352;33590.113
635.151;33844.793;  -11.912;34943.863
635.730;32987.012;  -10.511;35352.523
636.309;35247.316;   -7.731;35366.605
636.888;33217.254;   -9.952;36165.637
637.467;31122.766;  -11.672;37515.902
638.046;31039.793;   -8.901;39288.695
638.625;32010.902;   -7.912;38279.699
639.204;32547.660;  -10.022;37741.598
639.782;30574.750;  -12.252;38364.551
640.361;28750.184;  -10.041;36740.621
640.940;27925.939;  -11.161;34950.082
641.519;28980.494;   -9.701;34137.398
642.097;30669.787;  -11.271;35654.258
642.676;32258.180;   -8.651;35637.957
643.255;33532.379;   -8.711;36567.074
643.833;31134.609;   -9.581;37809.434
644.412;28833.131;  -13.711;37337.293
644.990;30724.320;  -11.811;37018.531
645.569;33270.094;   -9.411;36518.469
646.147;32550.939;  -10.291;36186.430
646.726;31444.191;  -12.401;36267.688
647.304;31436.848;  -10.411;36647.625
647.882;30646.947;   -9.651;39286.742
648.461;32075.051;   -9.631;39157.703
649.039;35488.547;  -11.881;35412.883
649.617;35802.352;   -9.661;34744.918
650.195;33486.539;   -9.301;35403.098
650.773;32248.859;  -10.511;35053.797
651.352;31455.066;  -11.521;33756.816
651.930;29075.217;  -12.211;31868.773
652.508;25874.127;   -9.171;33121.551
653.086;26659.771;   -9.371;33564.793
653.663;32152.924;  -13.161;34054.668
654.241;36097.395;  -13.031;35693.309
654.819;37305.223;   -9.371;36422.906
655.397;37324.086;  -10.511;38213.484
655.975;33700.207;  -10.371;39507.625
656.553;30521.740;  -10.051;39498.223
657.130;29021.588;  -10.061;40395.480
657.708;27069.301;   -9.561;39242.020
658.286;24468.088;  -11.511;38920.020
658.863;26486.066;  -10.261;40202.898
659.441;30255.982;   -7.531;39677.938
660.018;32223.461;   -9.501;40413.355
660.596;31456.084;  -13.301;39931.414
661.173;31006.568;  -11.211;39604.531
661.750;32783.352;   -9.951;39700.070
662.328;31967.992;   -9.390;39292.809
662.905;30774.840;  -11.330;38235.648
663.482;28224.850;   -9.050;36212.305
664.060;25528.750;   -8.240;35944.945
664.637;26202.791;  -10.050;35170.785
665.214;29528.658;  -11.760;34197.523
665.791;30064.338;  -10.530;34549.520
666.368;28978.111;   -9.690;35118.578
666.945;30239.582;   -9.320;36019.418
667.522;30705.621;  -11.860;36048.438
668.099;32082.287;  -10.770;36243.914
668.676;32192.807;   -6.260;35958.875
669.253;34719.008;   -7.000;37384.730
669.830;35952.656;  -10.190;36779.629
670.407;32803.594;   -9.550;35231.289
670.984;33119.086;   -9.260;35544.270
671.560;30444.527;   -9.280;35466.867
672.137;26363.094;  -11.810;34280.863
672.714;28076.822;  -11.490;34632.863
673.290;31890.607;   -7.740;35135.422
673.867;31599.629;  -10.660;36114.480
674.443;31737.369;  -12.230;36152.859
675.020;31418.068;  -10.450;35327.238
675.596;29872.766;   -9.260;35795.176
676.173;28778.273;  -10.780;35430.355
676.749;28374.619;  -13.690;33549.516
677.326;28204.418;  -11.980;32210.012
677.902;27587.816;   -8.630;32068.871
678.478;29426.721;  -10.730;32583.891
679.054;30224.928;  -10.520;32088.928
679.631;29531.457;  -11.920;30978.848
680.207;29637.559;   -7.490;33160.887
680.783;31459.313;   -9.860;35570.363
681.359;32934.262;  -13.380;36125.184
681.935;33489.867;  -12.480;35240.922
682.511;32724.541;   -7.900;34429.961
683.087;31598.557;   -7.710;34463.680
683.663;31134.898;  -11.480;34648.898
684.239;30007.826;  -14.090;34546.457
684.815;28950.225;   -7.560;35586.375
685.390;29286.941;   -9.910;35821.895
685.966;30505.980;  -11.159;35085.871
686.542;31943.482;  -11.169;34198.230
687.118;33340.648;   -5.959;32847.707
687.693;32375.746;  -10.329;32794.027
688.269;33239.164;  -12.059;33072.367
688.844;33284.418;  -10.909;33141.664
689.420;30483.080;   -8.019;33965.742
689.995;29165.951;   -8.399;34655.523
690.571;30686.041;  -10.949;33576.742
691.146;30319.186;   -9.619;32657.219
691.722;28821.924;   -8.999;32526.979
692.297;28138.268;  -11.589;33014.617
692.872;28138.385;  -11.739;34012.254
693.448;30936.105;  -11.059;34237.434
694.023;31524.152;  -10.139;34142.672
694.598;29526.729;   -9.029;34132.031
695.173;30620.914;  -13.319;34205.250
695.748;31104.002;  -10.169;32882.488
696.323;28771.113;   -8.339;32864.906
696.898;27119.639;   -8.169;33170.004
697.473;27618.033;  -12.309;32432.984
698.048;27680.340;  -10.989;31649.303
698.623;26442.256;   -9.329;30778.141
699.198;27328.504;   -9.849;31140.119
699.773;28442.105;  -12.329;31764.299
700.348;29807.057;  -10.389;31780.816
700.922;30205.684;   -9.269;32046.375
701.497;31020.010;   -9.329;32603.574
702.072;31907.730;  -10.789;34799.871
702.646;30957.877;  -10.839;35793.172
703.221;30259.541;   -9.099;35201.590
703.795;32104.096;  -10.939;34764.527
704.370;29767.244;  -12.859;34307.367
704.944;28213.402;  -11.559;33509.887
705.519;29208.330;   -7.939;31388.584
706.093;31368.953;  -10.499;31340.104
706.668;33620.199;  -11.289;32630.281
707.242;33123.609;  -11.509;32728.779
707.816;31176.623;   -9.639;32947.238
708.390;29831.699;  -11.429;33277.855
708.965;29085.361;  -11.869;33834.336
709.539;30607.053;  -11.689;33709.273
710.113;31040.367;  -10.478;33044.313
710.687;30467.121;  -10.228;31953.992
711.261;29639.984;  -13.698;30505.949
711.835;29918.527;  -13.378;30262.369
712.409;28890.363;   -9.698;31254.447
712.983;28402.832;  -11.898;32754.986
713.557;30734.496;  -15.138;34018.824
714.131;28836.137;  -14.098;34579.625
714.704;28310.543;   -9.958;33890.262
715.278;30298.008;  -10.028;33531.102
715.852;28864.020;  -11.148;33601.660
716.425;27756.504;   -9.068;33515.117
716.999;26554.244;  -10.038;33185.555
717.573;26284.965;   -9.798;33905.996
718.146;25742.125;  -12.378;35199.293
718.720;26143.633;  -11.918;35060.551
719.293;26447.676;   -8.088;34973.230
719.867;28547.094;  -10.888;36394.449
720.440;30309.924;  -11.938;36663.008
721.013;31029.301;  -12.818;35102.426
721.587;28769.748;  -10.298;33985.266
722.160;26919.441;  -10.048;33524.965
722.733;26339.754;  -12.108;32987.043
723.306;26647.541;  -10.818;33066.301
723.880;28303.854;   -8.908;33399.500
724.453;27963.799;   -9.878;33468.297
725.026;28105.174;  -11.188;33816.637
725.599;30816.021;  -11.678;32797.996
726.172;30244.064;   -9.618;33187.434
726.745;27685.734;   -8.258;35136.613
727.318;27370.037;  -12.978;35751.730
727.891;26855.414;  -12.148;35890.430
728.463;25884.047;   -8.968;34822.090
729.036;25668.043;  -10.188;32895.086
729.609;25618.533;  -11.788;31823.225
730.182;23664.596;  -11.788;31445.283
730.754;22297.895;  -10.268;32373.223
731.327;22448.154;   -9.998;33676.820
731.900;23751.199;  -12.228;33417.000
732.472;23725.166;  -13.848;31978.498
733.045;22827.137;   -8.698;30368.777
733.617;22414.949;  -10.607;30574.215
734.190;24277.850;  -11.507;31280.975
734.762;25240.676;  -13.647;31674.412
735.334;26624.447;   -9.767;31247.291
735.907;27120.172;   -9.897;29876.211
736.479;26839.516;  -11.637;29808.488
737.051;27789.412;   -9.567;30233.547
737.623;27224.465;   -8.187;31469.086
738.195;25947.852;  -11.187;31784.225
738.768;24687.891;  -12.337;32120.523
739.340;23048.723;  -12.227;32094.342
739.912;22222.961;  -11.057;31312.680
740.484;22195.105;  -10.207;31946.238
741.056;21940.525;  -10.047;32984.059
741.628;22965.910;  -13.627;33897.715
742.199;23871.803;   -7.177;33213.016
742.771;26112.701;  -10.797;31369.113
743.343;26937.758;  -11.997;31865.473
743.915;26612.832;  -12.867;32388.631
744.487;24069.881;   -7.617;31079.568
745.058;21183.711;   -9.557;30570.107
745.630;22158.701;   -9.877;29970.127
746.201;23807.680;  -14.177;29186.766
746.773;24349.754;   -9.237;28805.723
747.344;22497.320;   -9.847;29591.223
747.916;20771.307;  -11.657;31412.201
748.487;21791.346;  -10.587;32194.898
749.059;23548.186;   -8.707;32533.719
749.630;23721.787;  -10.537;32158.518
750.201;23079.713;  -11.687;30855.395
750.773;21924.215;  -11.647;28622.555
751.344;21751.090;   -7.147;28405.732
751.915;23725.148;   -9.757;28461.551
752.486;24792.104;  -12.427;27842.850
753.057;23695.924;  -12.227;27845.008
753.628;23796.084;  -10.417;27728.107
754.199;23429.285;  -11.767;27381.086
754.770;22974.305;  -11.187;25882.203
755.341;21883.084;  -10.507;25886.184
755.912;20315.342;   -9.387;26050.861
756.483;18907.061;  -10.647;26798.779
757.054;19401.582;  -11.837;27048.238
757.625;19417.867;  -12.716;26294.838
758.195;19104.658;   -9.666;26142.076
758.766;19338.100;   -8.656;26392.234
759.337;18879.463;  -12.856;26334.594
759.907;18736.086;  -13.366;27579.652
760.478;18418.984;   -8.576;28352.770
761.048;19379.900;  -10.526;27325.088
761.619;19518.449;  -11.116;26460.428
762.189;18183.086;  -12.136;26029.826
762.760;17853.291;   -9.456;26430.145
763.330;18293.195;   -7.136;26670.902
763.900;18430.143;  -11.786;26603.021
764.471;17954.588;  -11.546;25542.740
765.041;17050.885;   -8.096;24358.459
765.611;16330.843;   -8.876;23991.297
766.181;16295.609;  -12.196;24470.236
766.751;16069.569;  -11.636;24845.975
767.321;17034.354;  -10.156;24533.633
767.891;16489.656;  -11.766;24916.492
768.461;16751.463;  -14.936;24776.771
769.031;17795.172;  -12.356;24757.988
769.601;18400.115;   -7.526;24181.088
770.171;18154.344;  -10.766;23670.387
770.741;17367.461;  -13.176;22960.045
771.311;16902.383;  -10.616;22917.523
771.880;17170.096;   -9.576;23562.941
772.450;16810.770;  -10.336;24216.500
773.020;16425.301;  -13.516;24140.398
773.589;16984.410;  -13.466;24414.857
774.159;16837.219;   -8.686;23858.717
774.729;15524.309;   -9.476;22942.135
775.298;13840.074;  -13.666;22324.033
775.867;13600.198;  -11.716;21140.313
776.437;13733.566;   -9.906;20838.092
777.006;13014.786;  -12.166;20599.510
777.576;12520.871;  -12.356;20508.809
778.145;12418.121;  -11.646;20732.947
778.714;12869.238;   -8.226;21062.465
779.283;13892.091;   -9.556;20949.664
779.853;14505.070;  -14.116;20508.623
780.422;13958.780;  -11.506;20649.082
780.991;13556.617;   -9.556;21527.520
781.560;13247.207;   -9.095;22632.658
782.129;13069.742;  -12.135;23048.277
782.698;12913.863;  -10.865;23438.555
783.267;12597.882;   -9.335;23267.734
783.836;12675.629;  -11.045;22415.133
784.404;13314.951;  -13.865;20443.152
784.973;12637.479;  -13.095;19699.150
785.542;11364.138;  -11.575;19763.828
786.111;10758.889;   -9.705;20341.408
786.679;11399.693;  -12.105;20207.967
787.248;11629.813;  -12.455;19516.465
787.817;11339.852;  -11.535;18900.363
788.385;11452.767;   -9.765;17879.121
788.954;11450.155;  -14.005;17658.301
789.522;10958.382;  -11.955;17788.879
790.090;11232.003;  -10.135;18118.277
790.659;12137.576;  -10.975;18338.736
791.227;12021.268;  -13.375;18508.615
791.795;11430.317;  -12.375;17898.254
792.364;10922.826;  -10.725;17295.133
792.932;11042.258;   -9.715;16822.051
793.500;11142.767;  -12.675;17040.148
794.068;10918.434;  -13.495;17179.787
794.636; 9803.313;  -10.885;16664.246
795.204; 8812.108;  -11.045;16524.545
795.772; 9451.244;  -13.175;17274.564
796.340;10539.008;  -12.445;17891.002
796.908;10348.127;   -9.735;17648.561
797.476;10715.865;   -9.815;17064.080
798.044;11546.968;  -13.985;16672.777
798.612;11382.404;  -13.115;17023.996
799.180;10118.104;  -10.185;16561.615
799.747; 9140.764;   -9.055;15962.773
800.315; 8579.133;  -12.385;15296.992
800.883; 8868.659;  -15.035;14801.771
801.450; 9118.105;  -10.365;14534.430
802.018; 9200.813;   -9.855;14173.248
802.585; 9373.688;  -11.905;14029.547
803.153; 8980.262;  -11.585;13836.846
803.720; 8397.105;   -9.095;13567.324
804.287; 8454.113;   -9.135;13360.622
804.855; 8774.336;  -11.604;13681.981
805.422; 8880.563;  -11.794;13536.560
805.989; 8727.542;  -10.734;13355.958
806.556; 8279.354;  -10.444;13747.896
807.124; 8151.989;  -12.764;13987.376
807.691; 8706.859;  -12.964;14038.674
808.258; 9104.325;  -11.134;14120.152
808.825; 9289.271;   -9.854;13860.111
809.392; 8957.768;  -10.504;13268.790
809.959; 8496.263;  -13.054;12680.389
810.526; 8341.074;   -8.294;12427.308
811.093; 8025.447;   -8.394;12030.105
811.659; 7278.974;  -12.304;11653.664
812.226; 7069.835;  -13.944;11637.183
812.793; 7553.230;  -10.484;11611.521
813.360; 7653.668;  -10.144;11885.181
813.926; 6965.207;  -11.684;12770.539
814.493; 6374.907;  -13.644;12677.638
815.060; 6260.164;   -9.724;11974.336
815.626; 6590.940;   -9.854;11594.715
816.193; 6616.824;  -13.254;11579.474
816.759; 6595.033;  -13.204;11666.972
817.325; 6379.506;   -9.434;11325.530
817.892; 6070.964;  -10.134;11105.369
818.458; 6001.046;  -13.474;10843.928
819.024; 6006.199;  -11.854;10714.406
819.591; 6306.771;  -10.244;10469.165
820.157; 6405.525;  -10.704;10235.523
820.723; 6657.061;  -12.324;10847.563
821.289; 7052.894;   -9.444;11040.980
821.855; 7091.388;   -8.374;10357.100
822.421; 6709.814;  -10.234; 9978.918
822.987; 6474.042;  -13.294; 9754.177
823.553; 6328.925;  -10.884;10065.755
824.119; 5908.746;   -8.884;10036.294
824.685; 5734.861;   -6.784;10029.192
825.251; 5692.912;  -12.004;10199.230
825.816; 5798.521;  -11.474; 9820.189
826.382; 5569.367;   -9.174; 9297.248
826.948; 5292.386;   -9.214; 9381.347
827.513; 5075.240;  -10.774; 9450.726
828.079; 5014.779;  -11.924; 9472.444
828.645; 5092.911;  -10.543; 9292.643
829.210; 5294.481;  -10.533; 9065.341
829.776; 5313.057;  -10.753; 9132.620
830.341; 5225.335;  -10.173; 9092.878
830.906; 5315.553;  -10.743; 9078.557
831.472; 5200.808;  -11.113; 8534.535
832.037; 4707.905;  -10.603; 8677.874
832.602; 4628.190;  -13.323; 8628.692
833.167; 4988.646;  -10.823; 8879.031
833.733; 4973.190;  -10.113; 9189.790
834.298; 4710.275;  -13.583; 9052.608
834.863; 4568.922;  -12.703; 8895.087
835.428; 4441.621;  -10.523; 8824.266
835.993; 4383.082;   -6.963; 8845.385
836.558; 4463.501;  -10.763; 8888.563
837.123; 4586.269;   -9.903; 8966.582
837.688; 4450.587;   -9.913; 8617.860
838.253; 4323.745;  -10.283; 8590.699
838.817; 4466.900;  -12.963; 8443.797
839.382; 4635.347;  -14.243; 8799.356
839.947; 4520.218;  -10.733; 8810.595
840.511; 4587.001;   -9.383; 8796.394
841.076; 4602.655;  -12.563; 8347.231
841.641; 4412.167;  -12.953; 8224.330
842.205; 4145.888;   -7.043; 8223.349
842.770; 4096.884;   -8.163; 8622.107
843.334; 4128.513;  -12.503; 8410.386
843.898; 4093.306;  -11.693; 8337.465
844.463; 3987.309;  -10.203; 8506.283
845.027; 3891.120;   -9.533; 8280.962
845.591; 3926.602;  -13.443; 8231.141
846.156; 3848.315;  -13.143; 7969.179
846.720; 3668.924;   -9.433; 7768.278
847.284; 3390.920;  -11.033; 7630.957
847.848; 3234.222;  -10.403; 7472.395
848.412; 3254.697;  -11.553; 7437.394
848.976; 3442.383;   -8.393; 7674.592
849.540; 3500.560;   -8.713; 7836.011
850.104; 3483.995;  -12.463; 7913.669
850.668; 3602.849;  -12.973; 7694.508
851.232; 3632.159;  -10.793; 7756.887
851.796; 3548.342;  -10.662; 7926.545
852.359; 3577.200;  -13.082; 7827.844
852.923; 3342.693;  -12.192; 7641.163
853.487; 3264.403;  -11.912; 7342.501
854.050; 3420.744;  -10.892; 7042.820
854.614; 3397.141;  -13.992; 7151.338
855.177; 3266.531;  -11.732; 7105.077
855.741; 3175.294;   -8.962; 6989.675
856.304; 3078.130;   -9.442; 6596.634
856.868; 2849.012;  -14.192; 6356.272
857.431; 2641.184;  -12.702; 6468.571
857.995; 2674.329;   -9.942; 6373.210
858.558; 2706.899;   -9.112; 6324.448
859.121; 2541.462;  -12.932; 6408.327
859.684; 2494.956;  -13.442; 6347.886
860.247; 2898.593;  -10.632; 6321.264
860.810; 3217.307;  -11.272; 6301.903
861.374; 3231.086;   -9.832; 6607.881
861.937; 3205.005;  -11.762; 6408.200
862.500; 3065.375;   -9.722; 6572.639
863.062; 2764.805;  -10.512; 6387.297
863.625; 2647.061;  -11.232; 6190.836
864.188; 2635.319;  -14.112; 5807.254
864.751; 2631.647;  -11.302; 5682.413
865.314; 2736.486;  -10.112; 5547.492
865.876; 2764.688;  -12.182; 5500.150
866.439; 2676.812;  -10.722; 5415.909
867.002; 2524.989;   -9.252; 5501.567
867.564; 2425.201;   -9.572; 5413.946
868.127; 2302.892;  -13.142; 5160.325
868.689; 2032.395;  -12.902; 5133.183
869.252; 1904.871;   -9.732; 5252.382
869.814; 1919.902;   -9.432; 5297.141
870.377; 2019.060;  -11.552; 5390.919
870.939; 2004.294;   -9.052; 5599.898
871.501; 1930.543;  -10.982; 5248.336
872.063; 1955.146;  -12.292; 4854.235
872.626; 1962.500;  -14.912; 4817.074
873.188; 1968.105;  -13.112; 4987.732
873.750; 1921.930;  -13.442; 4868.651
874.312; 1985.632;   -9.402; 4779.330
874.874; 2124.213;  -11.062; 4866.348
875.436; 2016.332;  -13.931; 4718.887
875.998; 1735.857;   -9.561; 4660.005
876.560; 1578.771;  -11.321; 4462.964
877.122; 1567.418;  -12.221; 4145.042
877.683; 1552.165;  -12.191; 4056.481
878.245; 1637.445;  -12.101; 3950.740
878.807; 1780.840;   -8.971; 4058.958
879.369; 1814.850;  -12.071; 3954.677
879.930; 1743.066;  -14.621; 3941.495
880.492; 1574.956;  -10.311; 4067.014
881.053; 1424.615;  -10.901; 3859.633
881.615; 1404.124;  -14.411; 3776.071
882.176; 1431.248;  -13.761; 3734.750
882.738; 1445.039;   -9.181; 3678.489
883.299; 1411.135;  -11.791; 3405.407
883.860; 1333.642;  -13.121; 3351.106
884.422; 1227.783;  -11.211; 3394.044
884.983; 1152.823;  -10.091; 3166.443
885.544; 1130.207;   -8.461; 3189.802
886.105; 1080.038;  -12.361; 3160.360
886.666; 1003.670;  -14.141; 3093.059
887.227;  972.072;  -11.361; 2941.957
887.788;  986.240;  -11.401; 2974.836
888.349;  940.956;  -13.791; 2721.214
888.910;  849.243;  -13.191; 2696.493
889.471;  751.431;   -9.881; 2560.172
890.032;  680.883;   -9.881; 2558.190
890.593;  679.746;  -10.371; 2567.669
891.153;  680.554;  -13.301; 2460.307
891.714;  622.719;  -11.431; 2372.046
892.275;  576.557;  -11.291; 2309.505
892.835;  561.689;  -11.471; 2382.543
893.396;  550.554;  -11.541; 2295.502
893.956;  542.011;  -11.181; 2162.420
894.517;  529.677;  -11.741; 2125.439
895.077;  485.674;  -11.671; 2086.978
895.638;  437.315;  -11.311; 2126.316
896.198;  417.928;   -9.831; 1838.275
896.758;  416.968;   -8.421; 1892.813
897.319;  410.943;  -12.351; 1792.232
897.879;  392.512;  -13.511; 1762.751
898.439;  367.328;  -12.001; 1661.149
898.999;  347.386;  -10.180; 1781.468
899.559;  333.417;  -12.030; 1703.347
900.119;  326.396;  -15.710; 1537.525
900.679;  305.240;   -8.900; 1638.384
901.239;  279.619;   -8.340; 1527.902
901.799;  265.460;  -13.910; 1456.441
902.359;  255.950;  -13.460; 1357.140
902.919;  250.636;  -11.490; 1331.118
903.479;  248.334;  -12.110; 1317.257
904.038;  240.622;  -11.720; 1262.595
904.598;  226.439;  -13.610; 1152.034
905.158;  215.405;  -11.040; 1240.893
905.717;  210.163;  -10.900; 1233.691
906.277;  204.467;  -15.080; 1217.330
906.836;  202.179;  -13.380; 1222.408
907.396;  199.055;  -10.780; 1193.047
907.955;  193.169;   -8.500; 1182.526
908.515;  185.823;  -12.760; 1099.364
909.074;  182.020;  -11.900; 1092.863
909.633;  179.614;   -8.950; 1069.121
910.192;  176.748;   -8.770; 1196.460
910.752;  172.520;  -12.390; 1029.960
911.311;  170.131;  -13.680; 1009.780
911.870;  164.972;  -12.370;  971.460
912.429;  161.740;  -10.900; 1094.080
912.988;  158.304;  -11.690; 1081.060
913.547;  155.514;  -13.240;  940.380
914.106;  154.223;  -11.990;  999.420
914.665;  154.366;   -9.990;  984.020
915.224;  152.265;  -12.880; 1035.760
915.782;  151.400;  -12.350;  922.560
916.341;  151.975;   -9.110; 1049.840
916.900;  149.403;   -9.270;  925.260
917.458;  146.893;  -13.240;  884.220
918.017;  145.607;  -13.550;  942.600
918.576;  144.653;  -12.320;  904.440
919.134;  144.238;  -11.490;  837.980
919.693;  142.714;  -13.670;  893.060
920.251;  141.780;  -15.470;  876.500
920.809;  141.033;  -11.290;  839.580
921.368;  140.157;  -10.210;  885.360
921.926;  139.889;  -12.140;  842.940
922.484;  140.187;  -13.080;  903.360
923.042;  139.074;  -11.720;  880.340
923.601;  140.704;   -7.480;  998.680
924.159;  138.806;  -11.570;  935.560
924.717;  137.984;  -13.840;  841.080
925.275;  139.223;  -10.640;  903.240
925.833;  138.094;  -11.540;  779.320
926.391;  138.571;  -12.960;  938.380
926.949;  138.720;  -14.130;  857.680
927.506;  138.869;  -11.750;  903.500
928.064;  138.241;  -10.250;  877.580
928.622;  135.817;  -13.030;  880.100
929.180;  137.958;  -13.400;  814.180
929.737;  139.723;  -10.700;  808.540
930.295;  141.014;  -10.070;  928.480
930.853;  140.542;  -11.960;  849.100
931.410;  140.127;  -13.120;  821.120
931.968;  141.753;  -10.770;  940.660
932.525;  142.035;  -10.680;  909.380
933.082;  144.773;  -13.130;  811.440
933.640;  150.877;  -13.210;  925.900
934.197;  150.849;  -11.060;  886.360
934.754;  151.196;   -9.580;  897.780
935.312;  150.847;  -14.000;  863.340
935.869;  155.093;  -10.710; 1012.980
936.426;  153.251;   -9.860;  872.800
936.983;  152.678;   -9.710;  889.020
937.540;  149.967;  -13.990;  838.280
938.097;  149.652;  -14.040;  940.120
938.654;  152.829;  -10.310;  898.860
939.211;  152.763;  -10.560;  952.480
939.768;  151.423;  -13.900;  915.420
940.324;  153.072;  -14.760;  904.200
940.881;  157.213;  -10.370;  878.500
941.438;  163.317;   -8.260; 1021.200
941.995;  163.780;  -12.540;  992.560
942.551;  162.539;  -14.670;  875.620
943.108;  162.956;  -10.450;  937.920
943.664;  163.722;  -10.750;  869.340
944.221;  168.067;  -11.550; 1088.140
944.777;  170.805;  -14.770;  869.680
945.334;  170.250;  -12.820;  884.840
945.890;  167.850;  -10.130;  946.480
946.446;  165.536;  -13.470;  947.020
947.003;  166.973;  -12.120;  964.940
947.559;  166.210;   -9.980; 1063.040
948.115;  162.798;   -9.080; 1026.540
948.671;  159.077;  -10.830;  967.300
949.227;  157.099;  -12.440;  859.560
949.783;  156.588;  -12.910;  858.900
950.339;  159.363;  -10.270;  991.000
950.895;  159.451;  -13.630; 1023.840
951.451;  158.404;  -15.100;  925.280
952.007;  158.611;  -11.330;  998.540
952.563;  156.591;  -10.580;  937.780
953.118;  152.014;  -13.440;  904.940
953.674;  149.796;  -12.710;  935.780
954.230;  151.200;  -10.350;  949.640
954.785;  154.642;   -9.190;  936.640
955.341;  155.579;  -11.200;  998.160
955.897;  152.806;  -16.560;  834.660
956.452;  150.998;  -12.570;  953.840
957.008;  149.649;   -7.970; 1083.640
957.563;  147.778;  -11.940; 1009.540
958.118;  146.071;  -13.450;  877.700
958.674;  146.121;  -12.030;  946.780
959.229;  146.493;   -9.410; 1013.980
959.784;  143.262;  -12.000;  832.400
960.339;  141.266;  -14.780; 1001.280
960.894;  136.226;   -9.860;  963.760
961.449;  129.663;   -9.970;  859.960
962.004;  128.416;  -10.900; 1212.840
962.559;  123.518;  -13.150;  860.140
963.114;  120.978;  -13.740;  742.480
963.669;  122.774;   -9.820;  915.500
964.224;  121.912;  -13.890;  874.340
964.779;  121.522;  -12.600;  828.420
965.334;  123.164;  -10.950; 1017.860
965.888;  121.065;  -11.170;  875.360
966.443;  121.417;  -12.540;  972.380
966.998;  121.832;  -15.780;  819.460
967.552;  120.709;   -9.760;  908.380
968.107;  115.706;   -9.060;  868.300
968.661;  114.770;  -11.950;  922.440
969.216;  113.482;  -12.800;  856.280
969.770;  114.682;  -11.210;  917.200
970.324;  111.425;  -11.610;  923.140
970.879;  108.114;  -11.370;  947.180
971.433;  108.717;  -12.540;  952.720
971.987;  106.631;  -11.320;  895.340
972.541;  105.745;  -10.720;  917.100
973.095;  106.517;   -9.680; 1009.460
973.649;  106.373;  -11.440;  809.480
974.203;  106.450;  -11.210;  829.040
974.757;  106.490;  -10.240;  855.220
975.311;  105.779;  -13.720;  872.600
975.865;  106.404;  -13.770;  881.820
976.419;  106.296;  -11.690;  857.400
976.973;  105.770;   -9.510;  849.620
977.526;  104.474;  -12.620;  949.920
978.080;  102.823;  -12.010;  796.780
978.634;  100.901;  -10.170;  921.320
979.187;   98.074;   -9.020;  905.400
979.741;   96.712;   -9.820; 1018.380
980.294;   92.731;  -14.870;  789.160
980.848;   89.454;  -12.380;  717.220
981.401;   87.547;  -10.350;  816.540
981.955;   87.204;  -13.720;  844.300
982.508;   85.345;  -11.490;  746.340
983.061;   84.688;  -10.000;  915.260
983.615;   83.421;  -11.480;  798.800
984.168;   83.356;  -13.220;  770.080
984.721;   83.311;  -13.960;  880.760
985.274;   82.402;  -10.870;  867.500
985.827;   80.196;   -9.790;  834.220
986.380;   78.527;  -13.120;  721.340
986.933;   79.507;  -12.450;  864.800
987.486;   79.232;  -10.210;  861.920
988.039;   78.388;   -8.430;  863.100
988.591;   75.146;  -10.520;  893.260
989.144;   71.793;  -14.860;  737.260
989.697;   70.786;  -13.080;  758.740
990.250;   69.525;  -10.150;  858.100
990.802;   66.889;  -13.430;  755.860
991.355;   67.714;  -12.750;  974.880
991.907;   65.044;  -12.040;  864.320
992.460;   62.374;  -11.330;  753.760
993.012;   60.836;  -13.610;  749.540
993.565;   59.895;  -13.460;  711.360
994.117;   61.687;   -9.360;  950.780
994.669;   59.067;  -11.300;  701.320
995.221;   58.311;  -13.540;  791.920
995.774;   57.883;  -13.430;  787.580
996.326;   57.115;  -12.520;  740.220
996.878;   57.465;  -10.950;  838.420
997.430;   55.023;  -14.300;  699.860
997.982;   54.194;  -13.760;  750.140
998.534;   53.468;  -11.530;  739.060
999.086;   52.395;  -10.310;  738.220
999.638;   49.568;  -12.530;  661.380
1000.190;   49.859;  -11.840;  699.320
1000.741;   49.643;  -10.260;  742.700
1001.293;   49.987;   -8.860;  686.020
1001.845;   47.998;  -13.700;  676.640
1002.396;   49.333;  -12.100;  743.400
1002.948;   48.434;  -12.760;  737.400
1003.500;   47.268;  -10.380;  723.780
1004.051;   47.002;  -11.900;  907.580
1004.603;   46.035;  -12.250;  791.820
1005.154;   43.142;  -13.210;  608.980
1005.705;   42.712;  -10.950;  723.960
1006.257;   41.427;  -13.880;  707.220
1006.808;   41.385;  -12.840;  685.460
1007.359;   40.700;  -10.570;  763.240
1007.910;   39.842;   -9.620;  646.640
1008.461;   39.446;  -13.630;  732.940
1009.013;   38.588;  -17.200;  588.340
1009.564;   39.346;  -10.200;  793.520
1010.115;   37.627;  -12.570;  597.040
1010.665;   36.963;  -15.150;  602.160
1011.216;   37.598;  -14.480;  667.920
1011.767;   37.478;  -11.340;  697.920
1012.318;   36.897;   -9.780;  736.980
1012.869;   35.486;  -12.380;  679.000
1013.419;   35.155;  -15.560;  603.120
1013.970;   35.411;  -11.010;  666.640
1014.521;   35.176;  -11.610;  620.620
1015.071;   34.645;  -13.450;  670.380
1015.622;   34.836;  -13.870;  635.460
1016.172;   34.143;  -11.610;  596.820
1016.723;   33.701;  -12.120;  614.380
1017.273;   33.514;  -13.620;  604.160
1017.823;   33.986;  -14.140;  650.340
1018.374;   34.304;  -12.800;  611.760
1018.924;   33.299;  -12.340;  716.880
1019.474;   32.934;  -11.410;  718.880
1020.024;   32.217;  -14.770;  657.580
1020.574;   32.561;   -9.780;  726.160
1021.124;   33.006;   -8.560;  673.580
1021.674;   30.528;  -15.190;  559.120
1022.224;   32.759;  -13.530;  708.940
1022.774;   31.995;  -13.280;  668.820
1023.324;   32.550;  -10.690;  753.520
1023.874;   32.847;  -10.240;  875.760
1024.423;   31.064;  -12.540;  613.700
1024.973;   30.340;  -10.010;  610.760
1025.523;   30.155;  -10.550;  620.960
1026.072;   29.654;  -13.560;  606.420
1026.622;   29.278;  -15.120;  675.740
1027.172;   30.444;  -11.260;  715.660
1027.721;   29.329;  -11.410;  601.220
1028.270;   30.055;  -13.530;  663.400
1028.820;   29.470;  -13.680;  638.080
1029.369;   29.736;  -13.520;  612.700
1029.918;   29.855;  -10.980;  649.840
1030.468;   28.131;  -13.530;  564.780
1031.017;   29.831;  -13.170;  634.800
1031.566;   28.254;  -12.200;  608.900
1032.115;   28.497;   -9.960;  694.500
1032.664;   26.908;  -13.210;  596.480
1033.213;   28.068;  -12.500;  735.420
1033.762;   27.709;  -11.910;  635.620
1034.311;   27.244;   -9.640;  677.220
1034.860;   26.931;  -13.310;  691.000
1035.408;   27.136;  -11.830;  722.720
1035.957;   28.072;  -12.000;  719.540
1036.506;   25.611;  -11.690;  530.800
1037.055;   28.392;  -10.990;  844.320
1037.603;   26.800;  -15.120;  664.000
1038.152;   25.072;  -12.450;  534.760
1038.700;   25.312;  -10.560;  585.740
1039.249;   24.869;  -11.080;  681.220
1039.797;   25.551;  -12.540;  633.360
1040.345;   25.945;  -11.920;  705.420
1040.894;   25.100;  -11.410;  625.300
1041.442;   24.647;  -14.320;  632.200
1041.990;   24.002;  -16.240;  559.160
1042.538;   23.835;  -11.680;  536.180
1043.087;   24.295;  -10.760;  570.860
1043.635;   24.527;  -11.850;  670.500
1044.183;   23.784;  -15.480;  586.400
1044.731;   23.799;  -11.770;  576.000
1045.279;   22.948;  -13.090;  674.920
1045.827;   25.524;  -12.440;  892.400
1046.374;   22.908;  -13.840;  515.420
1046.922;   22.459;  -13.220;  590.580
1047.470;   23.725;  -10.230;  691.300
1048.018;   22.828;  -14.590;  647.960
1048.565;   24.152;  -12.050;  708.600
1049.113;   22.000;  -11.650;  557.000
1049.660;   23.178;  -10.510;  629.660
1050.208;   22.151;  -13.310;  675.640
1050.755;   22.166;  -15.900;  606.580
1051.303;   22.909;  -11.430;  686.820
1051.850;   22.185;   -8.480;  635.120
1052.397;   19.591;  -15.010;  473.960
1052.945;   20.899;  -13.960;  617.760
1053.492;   22.656;  -13.150;  741.840
1054.039;   22.841;   -9.630;  720.180
1054.586;   20.761;  -13.680;  557.240
1055.133;   21.814;  -14.570;  693.140
1055.680;   21.459;  -13.820;  646.620
1056.227;   20.245;  -11.730;  542.780
1056.774;   21.462;  -12.480;  794.980
1057.321;   20.287;  -13.930;  523.260
1057.868;   19.940;  -11.690;  651.320
1058.415;   19.915;   -9.520;  651.980
1058.961;   19.503;  -13.160;  678.940
1059.508;   20.563;  -12.920;  643.820
1060.055;   19.724;  -11.920;  581.780
1060.601;   20.695;  -11.500;  624.300
1061.148;   19.109;  -14.330;  616.820
1061.694;   18.898;  -16.870;  592.580
1062.241;   19.197;  -10.330;  596.320
1062.787;   19.342;  -10.620;  663.140
1063.334;   20.227;  -10.110;  808.560
1063.880;   19.162;  -13.400;  668.360
1064.426;   19.637;  -10.680;  706.820
1064.972;   18.544;   -9.920;  601.340
1065.518;   16.753;  -10.980;  566.640
1066.065;   18.600;  -14.890;  624.460
1066.611;   17.904;  -12.870;  598.800
1067.157;   18.228;  -12.950;  641.860
1067.703;   17.952;  -13.540;  668.480
1068.249;   18.336;  -13.540;  605.220
1068.794;   17.792;  -12.600;  626.880
1069.340;   17.006;  -10.620;  578.960
1069.886;   17.363;  -12.830;  590.700
1070.432;   16.233;  -14.870;  541.720
1070.977;   16.844;  -11.980;  601.080
1071.523;   16.847;   -8.200;  573.060
1072.068;   16.523;  -12.330;  582.000
1072.614;   16.402;  -16.370;  527.760
1073.160;   17.298;  -11.100;  687.040
1073.705;   15.936;  -10.480;  572.520
1074.250;   15.426;  -14.520;  559.900
1074.796;   16.817;  -11.460;  655.160
1075.341;   17.355;  -11.950;  664.100
1075.886;   15.959;  -11.460;  594.240
1076.431;   15.271;  -13.770;  649.880
1076.976;   15.487;  -12.680;  639.220
1077.521;   15.199;  -13.170;  583.080
1078.067;   14.939;  -10.860;  579.400
1078.612;   15.022;  -13.920;  661.620
1079.156;   15.229;  -13.880;  601.540
1079.701;   15.938;  -13.120;  693.260
1080.246;   15.962;   -9.940;  696.300
1080.791;   14.972;  -14.740;  625.020
1081.336;   15.494;  -13.750;  659.320
1081.880;   15.177;  -13.400;  649.680
1082.425;   14.309;  -12.220;  573.480
1082.970;   15.918;  -11.610;  717.040
1083.514;   14.418;  -13.580;  597.000
1084.059;   13.918;  -12.810;  586.720
1084.603;   13.076;  -12.320;  565.840
1085.147;   13.509;  -13.190;  645.220
1085.692;   14.515;  -12.480;  716.800
1086.236;   13.178;  -13.020;  503.140
1086.780;   14.921;   -9.190;  751.440
1087.325;   14.117;  -12.480;  654.620
1087.869;   14.229;  -12.450;  610.700
1088.413;   13.978;  -12.240;  705.040
1088.957;   12.786;   -9.020;  543.400
1089.501;   12.766;  -10.320;  766.640
1090.045;   13.514;  -12.720;  726.480
1090.589;   11.429;  -13.690;  569.920
1091.133;   12.600;  -10.020;  673.340
1091.676;   12.761;  -12.330;  591.940
1092.220;   12.528;  -14.970;  600.920
1092.764;   13.589;  -12.430;  706.960
1093.307;   12.422;   -9.800;  673.780
1093.851;   11.109;  -14.970;  556.540
1094.395;   12.699;  -15.310;  683.140
1094.938;   12.376;  -10.370;  632.520
1095.482;   11.935;  -11.050;  559.800
1096.025;   12.379;  -11.840;  710.880
1096.568;   11.918;  -12.840;  779.280
1097.112;    9.637;  -14.700;  508.180
1097.655;   12.433;   -8.720;  603.000
1098.198;    9.668;  -13.610;  600.180
1098.741;    9.952;  -13.350;  612.860
1099.285;   11.870;  -11.230;  657.300
1099.828;    9.477;  -11.840;  439.400
1100.371;   10.463;  -10.840;  608.160
1100.914;   10.961;  -14.190;  682.660
1101.457;   10.905;  -11.240;  679.900
1101.999;    9.974;  -11.270;  584.680
1102.542;   10.375;  -11.480;  641.440
1103.085;   10.282;  -11.750;  658.500
1103.628;   11.087;  -11.400;  762.060
1104.170;    9.775;  -10.490;  588.280
1104.713;    9.547;  -10.600;  646.700
1105.256;    9.329;  -14.360;  557.440
1105.798;    8.753;  -13.210;  499.980
1106.341;   10.792;  -10.270;  728.900
1106.883;    9.080;  -12.200;  521.340
1107.425;    9.956;  -13.110;  668.180
1107.968;    9.418;  -12.840;  612.380
1108.510;   10.146;   -6.480;  684.960
1109.052;    7.734;  -13.940;  612.620
1109.594;    8.450;  -13.690;  554.440
1110.136;    9.514;  -11.880;  643.220
1110.679;    8.187;   -9.500;  633.080
1111.221;    8.937;  -14.160;  604.460
1111.763;    7.595;  -13.980;  559.220
1112.304;    7.961;  -13.880;  547.140
1112.846;    8.931;  -12.210;  666.240
1113.388;   11.068;  -11.390;  942.180
1113.930;    8.727;  -14.540;  694.200
1114.472;    7.842;  -12.640;  606.540
1115.013;    7.279;  -11.620;  551.280
1115.555;    6.385;  -13.640;  587.100
1116.097;    6.604;  -15.380;  579.480
1116.638;    8.083;  -12.640;  684.600
1117.180;    7.894;   -9.850;  667.740
1117.721;    6.962;  -13.690;  568.580
1118.262;    8.249;  -12.680;  677.960
1118.804;    7.633;  -12.530;  637.340
1119.345;    6.845;  -11.690;  578.400
1119.886;    7.392;  -13.380;  704.040
1120.427;    6.374;  -14.070;  589.020
1120.969;    6.010;  -13.500;  597.920
1121.510;    5.922;  -11.480;  563.060
1122.051;    5.982;  -12.830;  723.580
1122.592;    5.577;  -14.290;  655.420
1123.133;    5.249;  -12.400;  547.940
1123.673;    7.113;  -10.130;  706.480
1124.214;    6.376;  -12.930;  612.460
1124.755;    6.806;  -14.380;  639.460
1125.296;    6.549;  -14.000;  627.320
1125.836;    7.018;  -10.070;  691.500
1126.377;    4.919;  -12.640;  599.660
1126.918;    6.493;  -12.960;  614.980
1127.458;    5.400;  -13.350;  622.220
1127.999;    6.240;  -10.750;  656.980
1128.539;    5.642;  -12.350;  694.240
1129.079;    5.405;  -14.860;  632.720
1129.620;    4.566;  -13.840;  558.100
1130.160;    4.730;  -12.330;  539.480
1130.700;    5.645;  -14.530;  640.840
1131.240;    6.147;  -12.530;  643.700
1131.781;    4.761;  -14.450;  619.680
1132.321;    5.593;   -9.790;  599.120
1132.861;    3.951;  -14.860;  564.200
1133.401;    4.104;  -14.290;  593.940
1133.941;    5.106;  -11.750;  626.280
1134.481;    4.237;   -9.920;  597.580
1135.020;    3.241;  -12.290;  609.160
1135.560;    4.329;  -11.650;  674.940
1136.100;    3.473;  -16.270;  501.160
1136.640;    3.557;  -10.890;  510.480
1137.179;    3.414;  -14.180;  537.960
1137.719;    4.244;  -16.250;  605.400
1138.258;    3.749;  -14.230;  587.360
1138.798;    4.212;   -9.090;  663.780
1139.337;    2.044;  -15.130;  482.840
1139.877;    4.449;  -13.680;  642.360
1140.416;    5.673;  -11.320;  878.060
1140.955;    2.793;  -10.860;  535.380
1141.494;    3.200;  -12.920;  669.280
1142.034;    2.354;  -13.930;  583.520
1142.573;    4.362;  -11.440;  646.280
1143.112;    3.255;  -12.000;  553.480
1143.651;    2.757;  -13.670;  536.480
1144.190;    3.662;  -12.730;  691.640
1144.729;    3.400;  -14.560;  607.420
1145.267;    3.031;  -11.830;  584.900
1145.806;    3.105;  -12.230;  637.040
1146.345;    2.106;  -14.130;  635.020
1146.884;    2.981;  -11.590;  622.500
1147.422;    1.271;  -12.550;  533.060
1147.961;    3.200;  -11.180;  708.460
1148.500;    2.842;  -11.510;  669.720
1149.038;    2.845;  -11.640;  632.500
1149.577;    2.703;  -10.130;  698.640
1150.115;    0.338;  -13.970;  452.280
1150.653;    2.208;  -14.520;  607.340
1151.192;    2.678;  -12.810;  552.920
1151.730;    2.146;   -9.100;  652.560
1152.268;    0.917;  -12.220;  589.520
1152.806;    1.035;  -14.140;  571.180
1153.344;    0.403;  -12.350;  577.640
1153.882;    1.651;   -8.980;  600.060
1154.421;   -0.421;  -15.190;  470.620
1154.958;    1.341;  -15.210;  595.240
1155.496;    2.577;  -12.850;  645.280
1156.034;    1.778;   -9.940;  721.880
1156.572;    2.195;  -13.570;  667.060
1157.110;    0.010;  -14.590;  473.940
1157.647;    2.079;  -13.030;  676.960
1158.185;    0.700;  -12.140;  564.320
1158.723;   -0.484;  -14.390;  509.200
1159.260;    0.698;  -14.090;  701.700
1159.798;    1.830;  -11.920;  658.160
1160.335;    0.337;  -11.110;  631.820

