
Integration time [ms]:   3.276
Averaging Nr. [scans]: 1000
Smoothing Nr. [pixels]: 0
Data measured with spectrometer [name]: 7414430SP
Wave   ;Sample   ;Dark     ;Reference
[nm]   ;[counts] ;[counts] ;[counts] 

288.544;  148.620;    7.793;  793.890
289.143;  152.716;    7.462;  681.602
289.742;  153.047;    8.602;  828.814
290.341;  138.411;    1.321;  789.841
290.940;  127.817;   -0.709;  730.702
291.538;  127.851;    0.881;  881.108
292.137;  128.164;    0.122;  792.581
292.736;  132.735;   -1.929;  975.101
293.335;  129.621;   -8.229;  735.086
293.934;  129.798;   -5.279;  781.677
294.532;  127.749;   -1.369; 1031.958
295.131;  114.063;   -7.641;  834.394
295.730;  114.630;   -8.420;  809.588
296.328;  114.026;   -5.611;  783.442
296.927;  114.066;   -5.781;  779.652
297.525;  114.585;   -6.361;  781.236
298.124;  105.528;  -11.382;  654.009
298.722;  109.188;   -7.641;  761.933
299.321;  106.757;   -6.811;  708.597
299.919;  104.997;   -6.991;  751.918
300.518;  102.158;  -10.362;  689.338
301.116;  104.146;   -9.581;  691.381
301.715;  103.347;   -4.891;  730.222
302.313;  102.856;   -8.801;  704.943
302.911;   98.773;   -8.522;  733.830
303.509;  103.179;   -6.171;  925.627
304.108;  101.704;   -7.311;  760.383
304.706;   99.799;   -8.321;  801.664
305.304;   94.985;  -10.222;  796.707
305.902;   99.907;   -6.021;  784.484
306.500;   95.026;   -4.971;  728.200
307.098;   93.619;   -7.061;  746.560
307.696;   92.167;   -8.801;  780.432
308.294;   92.885;   -6.411;  731.359
308.892;   95.203;   -2.901;  759.769
309.490;   90.724;   -5.041;  712.161
310.088;   89.118;   -5.002;  788.444
310.686;   92.971;   -2.041;  821.749
311.284;   89.569;   -2.351;  766.040
311.882;   87.206;   -4.422;  731.225
312.480;   84.362;   -4.192;  697.167
313.078;   85.683;   -1.172;  808.331
313.675;   85.988;   -2.601;  691.600
314.273;   81.343;   -1.312;  797.837
314.871;   80.920;   -3.942;  589.829
315.468;   78.410;   -2.802;  652.090
316.066;   80.858;   -0.701;  694.427
316.664;   74.319;   -4.362;  656.351
317.261;   78.862;   -2.872;  910.128
317.859;   74.134;   -2.022;  768.735
318.456;   74.530;   -0.531;  830.096
319.054;   69.303;   -3.912;  787.828
319.651;   69.831;   -4.752;  759.928
320.249;   68.485;   -2.602;  810.188
320.846;   66.189;   -0.821;  714.286
321.443;   62.772;   -4.642;  832.135
322.041;   60.911;   -5.002;  812.315
322.638;   58.439;   -3.982;  701.456
323.235;   59.708;   -3.411;  665.683
323.833;   56.770;   -7.361;  740.354
324.430;   52.847;   -8.611;  615.900
325.027;   53.615;   -4.061;  876.855
325.624;   52.706;   -4.031;  644.532
326.221;   49.813;   -7.481;  689.717
326.818;   49.737;   -5.281;  818.332
327.415;   52.514;   -7.460;  748.828
328.012;   51.818;   -5.510;  690.585
328.609;   50.776;   -7.880;  731.389
329.206;   49.627;   -8.331;  778.621
329.803;   49.533;   -5.121;  737.841
330.400;   52.041;   -4.510;  704.260
330.997;   53.404;   -6.441;  817.147
331.594;   51.607;   -8.831;  788.185
332.191;   57.070;   -7.621;  728.722
332.787;   59.741;   -4.591;  844.463
333.384;   58.404;   -7.412;  763.093
333.981;   57.351;   -8.293;  815.687
334.578;   59.560;   -7.052;  708.378
335.174;   62.304;   -3.102;  731.469
335.771;   61.936;   -5.943;  836.456
336.367;   59.139;   -7.393;  710.631
336.964;   62.353;   -4.063;  793.266
337.561;   60.984;   -3.813;  731.112
338.157;   56.263;   -4.654;  911.916
338.754;   53.472;   -7.934;  796.589
339.350;   52.050;   -4.414;  722.493
339.946;   53.773;   -4.664;  773.135
340.543;   45.619;   -6.375;  846.136
341.139;   41.422;   -9.815;  720.836
341.735;   38.846;   -4.526;  772.593
342.332;   36.740;   -4.895;  691.472
342.928;   37.849;   -4.295;  795.394
343.524;   31.826;   -5.476;  761.684
344.120;   28.888;   -5.856;  738.562
344.716;   31.015;   -2.155;  723.717
345.313;   29.136;   -6.275;  795.342
345.909;   24.022;   -8.815;  627.336
346.505;   25.220;   -5.305;  740.247
347.101;   26.128;   -2.674;  827.864
347.697;   26.663;   -4.344;  785.398
348.293;   22.318;   -9.975;  627.244
348.889;   22.190;   -5.774;  745.914
349.485;   21.629;   -5.004;  688.205
350.081;   21.698;   -4.704;  772.592
350.676;   17.310;   -6.635;  691.606
351.272;   21.714;   -4.504;  809.530
351.868;   20.674;   -3.914;  780.497
352.464;   18.339;   -9.044;  723.932
353.059;   14.880;   -8.314;  646.017
353.655;   18.367;   -7.024;  777.063
354.251;   19.210;   -5.343;  759.845
354.846;   13.345;   -8.604;  740.646
355.442;   12.204;   -6.945;  753.071
356.038;   14.192;   -7.564;  751.708
356.633;   13.130;   -5.814;  728.594
357.229;   11.187;   -7.364;  724.757
357.824;    9.243;   -8.024;  703.600
358.420;    8.827;   -9.384;  679.726
359.015;    9.494;   -5.104;  695.357
359.610;   10.413;   -6.854;  763.920
360.206;    4.421;  -10.185;  603.240
360.801;    7.644;   -7.054;  646.503
361.396;    9.227;   -5.034;  725.975
361.992;    4.921;   -8.284;  668.220
362.587;    2.302;   -8.625;  670.160
363.182;    4.354;   -7.674;  689.631
363.777;    5.024;   -5.164;  738.242
364.372;    4.558;   -8.604;  737.314
364.967;    1.414;   -9.055;  680.744
365.563;    5.293;   -6.114;  815.567
366.158;    2.422;   -5.814;  685.161
366.753;    2.888;   -7.854;  649.263
367.348;    1.114;   -7.804;  746.056
367.942;    1.312;   -7.954;  697.298
368.537;    0.909;   -4.984;  754.245
369.132;    0.827;   -8.564;  703.428
369.727;   -3.636;   -8.855;  638.079
370.322;   -1.754;   -6.245;  580.186
370.917;   -2.575;   -6.425;  710.646
371.511;   -0.277;   -6.294;  861.834
372.106;   -3.859;   -7.685;  776.964
372.701;   -5.592;   -7.335;  585.988
373.296;   -0.648;   -4.564;  863.135
373.890;   -5.023;  -10.235;  647.840
374.485;   -7.215;   -7.885;  691.199
375.079;   -4.442;   -7.324;  738.685
375.674;   -2.835;   -3.494;  812.970
376.268;   -6.692;   -8.525;  691.759
376.863;  -13.086;  -10.086;  580.327
377.457;   -6.050;   -7.025;  662.490
378.052;   -8.068;   -3.585;  764.884
378.646;   -8.515;   -7.595;  741.167
379.240;   -9.408;   -8.335;  721.176
379.835;   -8.712;   -5.785;  636.978
380.429;  -10.373;   -4.335;  562.557
381.023;  -10.559;   -6.805;  779.205
381.617;  -13.068;   -9.195;  680.106
382.212;   -9.243;   -6.905;  685.303
382.806;   -8.203;   -3.745;  760.690
383.400;  -12.539;   -7.745;  672.281
383.994;  -13.495;   -9.765;  664.870
384.588;  -10.180;   -6.564;  697.701
385.182;   -8.555;   -5.344;  726.624
385.776;  -10.211;   -8.514;  706.875
386.370;  -12.879;   -9.555;  681.968
386.964;  -12.364;   -8.715;  684.155
387.558;  -10.623;   -6.174;  598.360
388.152;  -13.030;   -8.725;  681.959
388.745;  -12.013;   -7.965;  814.707
389.339;  -10.327;   -5.924;  747.642
389.933;   -9.596;   -5.524;  695.370
390.527;  -10.716;   -7.114;  859.029
391.120;  -16.943;  -10.725;  595.318
391.714;  -13.526;   -8.035;  711.633
392.308;  -10.576;   -3.574;  780.253
392.901;  -14.450;   -7.245;  642.460
393.495;  -16.279;   -9.285;  595.414
394.089;  -13.536;   -5.895;  760.452
394.682;  -14.856;   -4.295;  697.188
395.275;  -15.225;   -9.875;  719.927
395.869;  -16.185;   -8.485;  667.314
396.462;  -14.751;   -7.455;  616.609
397.056;  -11.573;   -5.424;  776.621
397.649;  -15.276;   -6.605;  731.575
398.242;  -12.727;   -8.224;  712.645
398.836;  -12.164;   -7.474;  766.408
399.429;  -13.170;   -7.094;  631.041
400.022;  -16.475;   -9.475;  665.902
400.615;  -14.315;   -7.145;  805.609
401.208;  -12.716;   -7.174;  691.451
401.802;  -14.696;   -5.515;  699.329
402.395;  -16.467;   -9.875;  683.502
402.988;  -17.522;   -8.845;  696.627
403.581;  -14.313;   -8.874;  646.878
404.174;  -11.372;   -5.324;  686.568
404.767;  -14.671;   -9.575;  638.583
405.360;  -15.679;  -10.965;  621.445
405.953;  -11.414;   -8.764;  759.034
406.545;  -11.532;   -7.514;  725.342
407.138;  -15.062;  -10.025;  618.350
407.731;  -13.482;  -10.034;  613.303
408.324;  -10.190;   -9.374;  660.554
408.917;  -11.156;   -6.534;  681.864
409.509;  -13.181;   -8.004;  740.396
410.102;  -14.827;   -9.875;  643.948
410.695;   -8.017;   -8.604;  665.758
411.287;  -10.689;   -6.794;  599.821
411.880;  -11.951;   -9.334;  585.421
412.472;  -14.456;  -10.254;  613.092
413.065;  -10.774;   -6.714;  629.408
413.657;   -9.648;   -7.234;  576.678
414.250;   -9.336;  -10.544;  646.681
414.842;  -10.750;   -9.744;  676.353
415.434;   -7.801;   -6.994;  570.463
416.027;   -4.855;   -5.893;  652.196
416.619;   -6.309;   -7.264;  713.400
417.211;   -7.208;  -10.374;  599.352
417.804;   -3.523;   -7.993;  628.499
418.396;   -7.069;   -7.234;  607.643
418.988;   -5.329;   -9.443;  659.238
419.580;   -8.743;  -10.724;  568.276
420.172;   -5.865;  -10.323;  536.196
420.764;   -2.286;   -8.793;  672.482
421.356;   -3.774;  -11.143;  636.898
421.948;   -3.026;   -8.293;  677.661
422.540;    0.916;   -7.893;  680.027
423.132;    0.109;   -7.082;  600.641
423.724;   -3.344;   -8.653;  561.267
424.316;   -1.449;  -10.213;  621.345
424.908;    2.241;   -9.762;  591.517
425.500;    2.906;   -5.572;  647.978
426.092;    3.129;   -8.422;  648.268
426.683;    2.152;   -9.283;  684.836
427.275;    5.252;   -7.852;  641.471
427.867;    5.793;   -5.272;  668.948
428.458;    6.621;   -7.682;  732.344
429.050;    5.795;  -10.612;  680.749
429.642;    7.978;   -9.882;  743.124
430.233;    8.122;   -6.962;  569.356
430.825;    9.633;   -6.842;  724.809
431.416;    7.000;   -9.672;  698.241
432.008;   10.971;   -6.552;  651.723
432.599;   11.260;   -6.891;  656.073
433.190;    8.365;  -10.912;  637.670
433.782;    7.999;  -11.172;  590.395
434.373;   15.057;   -6.061;  884.765
434.964;   13.056;   -8.251;  602.920
435.556;   10.906;   -9.722;  634.537
436.147;   14.550;   -9.082;  758.490
436.738;   14.010;   -8.041;  701.099
437.329;   18.972;   -7.341;  721.723
437.920;   12.377;   -8.162;  666.688
438.511;   12.715;  -11.802;  564.526
439.103;   18.619;  -10.191;  623.998
439.694;   20.296;   -7.601;  681.583
440.285;   21.328;   -8.541;  764.432
440.876;   19.337;   -9.751;  845.738
441.466;   18.735;   -9.401;  575.162
442.057;   23.468;   -7.760;  665.814
442.648;   23.049;   -9.971;  746.255
443.239;   21.472;  -11.001;  620.477
443.830;   25.798;   -7.990;  704.958
444.421;   27.576;   -7.910;  655.474
445.011;   23.992;   -8.131;  693.619
445.602;   23.443;   -7.111;  743.126
446.193;   26.139;  -10.920;  488.117
446.783;   30.205;   -6.500;  640.397
447.374;   25.710;   -8.671;  692.759
447.964;   26.612;  -10.781;  713.770
448.555;   34.650;   -9.650;  822.742
449.145;   30.963;   -8.660;  662.853
449.736;   32.151;   -8.990;  803.179
450.326;   31.649;   -9.500;  713.626
450.917;   36.873;   -8.680;  675.324
451.507;   35.727;   -7.520;  600.661
452.097;   36.751;   -8.590;  746.267
452.688;   37.203;  -11.340;  742.160
453.278;   37.899;  -10.100;  566.840
453.868;   41.576;   -6.019;  793.550
454.458;   40.073;   -9.440;  651.141
455.048;   39.804;  -10.560;  711.783
455.639;   41.766;  -11.799;  567.096
456.229;   45.253;   -6.899;  710.694
456.819;   46.439;   -7.389;  751.158
457.409;   47.190;  -11.119;  773.993
457.999;   49.871;   -9.289;  737.505
458.589;   49.975;   -6.139;  686.606
459.179;   49.485;   -8.729;  717.658
459.769;   47.311;   -9.789;  627.099
460.358;   53.303;  -10.259;  797.262
460.948;   52.224;   -7.299;  689.503
461.538;   54.080;  -10.289;  660.677
462.128;   51.648;  -11.269;  664.934
462.717;   58.323;   -9.368;  710.326
463.307;   61.689;   -7.908;  705.846
463.897;   57.164;   -9.599;  656.942
464.486;   55.721;   -9.769;  837.128
465.076;   61.382;   -8.048;  733.776
465.666;   64.361;   -9.358;  652.900
466.255;   62.124;   -7.919;  785.651
466.845;   61.652;  -11.689;  666.749
467.434;   64.818;   -7.818;  725.873
468.023;   65.792;   -7.678;  658.357
468.613;   63.295;  -10.939;  713.946
469.202;   66.509;  -10.118;  646.507
469.791;   71.293;   -9.108;  737.811
470.381;   73.107;   -6.058;  742.813
470.970;   72.197;  -10.428;  711.099
471.559;   73.218;  -10.268;  733.291
472.148;   76.554;   -8.448;  675.737
472.738;   78.281;   -6.917;  765.466
473.327;   78.010;  -11.978;  637.529
473.916;   76.939;  -11.888;  737.446
474.505;   82.274;   -9.437;  751.703
475.094;   85.191;   -6.747;  806.570
475.683;   83.834;   -9.367;  797.699
476.272;   85.229;  -12.637;  730.632
476.861;   87.961;  -10.027;  706.754
477.449;   94.248;   -8.716;  728.487
478.038;   87.846;   -9.577;  692.513
478.627;   89.698;   -9.718;  714.852
479.216;   96.249;   -8.947;  769.441
479.805;   99.129;   -6.256;  783.375
480.393;   99.519;   -7.937; 1008.945
480.982;   98.228;   -7.717;  874.501
481.571;  104.737;   -9.266;  858.333
482.159;  104.726;   -7.636;  705.386
482.748;  105.071;   -9.667;  821.385
483.336;  109.539;  -10.376;  858.209
483.925;  110.529;   -7.147;  774.373
484.513;  116.866;   -7.996;  758.962
485.102;  113.260;  -10.027;  810.965
485.690;  122.420;  -10.446; 1011.050
486.278;  124.926;   -8.446;  979.329
486.867;  124.705;   -6.356;  809.662
487.455;  126.857;   -9.136;  898.229
488.043;  128.374;  -10.646;  748.361
488.631;  136.826;   -7.456; 1005.079
489.220;  141.465;   -6.636;  908.626
489.808;  141.360;  -11.036;  741.415
490.396;  149.686;  -10.246;  914.645
490.984;  156.543;   -8.556;  830.161
491.572;  165.930;   -5.886;  940.315
492.160;  172.397;   -9.486;  919.081
492.748;  185.506;  -10.976;  884.341
493.336;  209.944;   -8.776; 1019.693
493.924;  238.148;   -5.465;  958.077
494.512;  266.692;   -9.986; 1066.638
495.100;  306.240;  -10.636; 1103.280
495.687;  364.999;  -10.885; 1206.373
496.275;  432.145;   -8.126; 1150.796
496.863;  506.610;  -10.586; 1281.171
497.451;  612.510;  -11.926; 1386.805
498.038;  748.689;  -10.885; 1556.729
498.626;  860.759;   -6.315; 1741.407
499.214; 1020.964;   -7.326; 2016.609
499.801; 1225.810;  -11.906; 2220.633
500.389; 1492.377;  -10.466; 2312.494
500.976; 1807.375;   -5.236; 2744.849
501.564; 2270.864;   -8.936; 3148.565
502.151; 2655.314;  -13.176; 3515.999
502.738; 3109.311;  -10.646; 3971.274
503.326; 3508.294;   -9.525; 4403.796
503.913; 3898.156;  -10.856; 5161.749
504.500; 4280.336;  -11.586; 5986.420
505.088; 4712.977;  -10.336; 6381.201
505.675; 5244.931;   -6.355; 6925.547
506.262; 5966.018;   -9.046; 7619.060
506.849; 6683.589;  -10.416; 8733.969
507.436; 7162.296;  -10.305; 9790.121
508.023; 7746.169;   -5.496; 9985.472
508.610; 8016.875;   -7.856;10434.618
509.197; 8656.861;  -10.097;11198.435
509.784;10043.906;  -10.886;12391.194
510.371;11130.459;   -9.315;13603.713
510.958;11836.272;   -9.936;14426.586
511.545;12574.711;   -9.326;15243.775
512.132;13362.148;  -10.075;15945.876
512.719;13851.030;   -7.796;16340.369
513.305;14809.268;  -10.606;18011.766
513.892;15515.460;  -11.486;19754.971
514.479;16790.869;   -9.126;20967.805
515.066;18400.963;   -6.026;22299.793
515.652;19798.920;   -8.466;22908.660
516.239;20923.131;  -10.886;23798.875
516.825;21758.766;  -11.496;25567.275
517.412;22706.816;   -5.796;28154.959
517.998;23382.959;  -10.506;28344.111
518.585;23627.527;  -10.076;27134.219
519.171;24091.529;   -8.315;27268.576
519.758;25421.496;   -8.596;28964.129
520.344;27189.934;   -8.466;30664.494
520.930;27302.502;  -11.006;32550.605
521.516;28515.309;  -10.495;35422.895
522.103;30558.117;   -5.526;38280.004
522.689;30906.488;   -8.746;37835.117
523.275;30433.092;  -11.376;37288.613
523.861;31841.777;  -11.156;37281.395
524.447;33355.781;   -8.135;37846.949
525.033;33115.957;   -7.896;38321.949
525.619;33028.359;  -12.476;38579.285
526.205;34570.164;   -9.516;40622.875
526.791;36997.598;   -6.926;42258.836
527.377;37231.496;   -8.346;42966.902
527.963;38552.441;   -8.717;42018.949
528.549;37099.227;  -11.016;42476.828
529.135;35816.203;   -8.536;41854.852
529.721;35078.309;   -9.666;41237.711
530.306;34358.758;  -10.066;41259.445
530.892;33995.621;  -11.356;41506.047
531.478;35482.520;   -6.596;43559.613
532.063;38280.508;   -8.836;47695.563
532.649;38885.680;  -10.047;50808.324
533.235;39738.258;   -9.746;51787.500
533.820;40125.344;   -6.566;52145.035
534.406;41590.820;  -10.817;51133.488
534.991;41362.922;   -9.416;49996.805
535.576;39688.328;   -9.036;48882.852
536.162;40197.258;   -6.156;46942.285
536.747;41110.656;  -11.607;45711.746
537.333;44647.586;  -11.787;48510.180
537.918;47700.539;  -12.437;50439.891
538.503;46435.715;   -7.196;50863.711
539.088;42970.676;  -10.556;50906.922
539.673;42547.430;   -8.767;52621.965
540.259;42624.172;  -10.026;52368.094
540.844;40580.355;   -7.416;50879.109
541.429;42097.520;   -9.467;52077.777
542.014;44597.898;   -9.527;52716.695
542.599;43771.301;   -9.946;52363.281
543.184;41714.074;   -7.927;53187.137
543.769;43322.211;   -9.297;54697.605
544.354;42739.715;  -10.127;53913.914
544.938;41374.449;   -9.267;49680.164
545.523;43205.328;   -6.506;47386.277
546.108;46104.078;   -9.787;49151.949
546.693;48017.234;  -11.587;51384.637
547.278;47684.059;  -10.986;51853.254
547.862;45131.938;   -8.206;51173.750
548.447;41073.824;  -10.067;51691.395
549.031;40504.137;   -9.637;52456.703
549.616;45133.957;   -9.926;52714.516
550.201;44690.973;   -6.347;52414.598
550.785;45885.289;   -7.917;52355.059
551.370;44674.086;  -10.867;54589.453
551.954;43989.574;   -9.047;58267.348
552.538;44723.555;   -7.827;59062.176
553.123;43296.695;  -10.287;58115.285
553.707;41107.230;  -12.178;56556.285
554.291;42537.250;   -8.717;56201.668
554.876;45058.020;   -7.457;55335.762
555.460;45401.168;  -10.387;54155.703
556.044;46425.188;   -9.618;53721.484
556.628;45092.293;  -11.567;53731.016
557.212;43946.660;   -8.097;54312.531
557.796;42449.504;  -11.077;53797.773
558.380;42742.695;  -11.108;56145.984
558.964;43210.863;   -9.057;57277.930
559.548;44483.844;   -6.977;56459.641
560.132;42790.496;  -11.457;54434.543
560.716;41291.863;  -11.378;54800.617
561.300;42111.203;   -9.577;57606.945
561.884;43183.488;   -7.127;58972.445
562.467;41719.082;   -7.118;57327.570
563.051;41266.160;  -13.358;54962.434
563.635;42349.039;  -10.178;52594.473
564.219;42423.371;   -7.837;50610.410
564.802;43425.426;  -11.398;49551.180
565.386;43397.000;  -12.788;48370.953
565.969;42712.172;   -9.077;48178.871
566.553;41733.000;   -6.207;49957.305
567.136;42414.215;   -8.568;50369.594
567.720;39157.660;  -11.868;49492.004
568.303;37045.711;   -8.268;50616.352
568.887;37041.273;   -8.698;50727.148
569.470;37355.547;   -6.808;51698.379
570.053;36143.129;  -13.188;52122.078
570.637;34594.855;  -12.037;52536.438
571.220;34506.074;   -8.577;51186.098
571.803;35128.797;   -8.498;51032.762
572.386;37331.578;  -10.498;49609.887
572.969;39813.383;   -9.388;48285.926
573.552;38071.551;   -8.338;47624.285
574.135;36489.586;   -8.518;45498.641
574.718;34074.926;  -13.628;41970.434
575.301;33161.637;  -10.893;41447.137
575.884;32248.348;   -8.158;40923.836
576.467;32982.844;  -10.328;45267.723
577.050;34056.770;  -13.058;48175.543
577.633;34670.852;   -9.458;47729.328
578.216;33970.629;   -8.928;47579.793
578.799;34038.422;   -9.358;47820.996
579.381;33925.078;  -11.388;48115.551
579.964;32639.641;  -11.718;47333.766
580.547;34275.156;   -8.588;46668.969
581.129;35352.012;   -8.859;44466.141
581.712;36223.238;  -10.729;44164.922
582.294;36808.816;  -11.118;46477.855
582.877;36633.012;   -5.218;48244.254
583.459;34446.559;   -8.679;47437.895
584.042;32441.811;  -10.709;46943.219
584.624;32612.979;  -11.669;46792.227
585.206;32049.332;   -8.218;46557.250
585.789;31879.350;  -10.569;45793.773
586.371;34638.512;  -11.859;43836.391
586.953;35135.566;  -10.719;42972.492
587.536;36282.039;   -7.198;42487.211
588.118;36105.305;   -8.720;42086.414
588.700;31676.227;  -10.439;43389.930
589.282;29243.336;   -9.198;43646.039
589.864;28012.279;   -9.199;43438.109
590.446;28596.166;  -11.319;43151.926
591.028;30734.346;  -11.159;42781.867
591.610;32207.156;  -11.779;42839.098
592.192;30878.936;   -7.668;42820.402
592.774;29858.230;  -11.949;40724.277
593.356;28652.123;  -12.129;39874.789
593.937;27662.322;  -10.669;39980.648
594.519;29736.691;   -6.509;42069.633
595.101;31879.016;  -10.849;42976.031
595.683;32087.439;  -11.679;44084.441
596.264;33155.254;   -9.049;43478.797
596.846;32736.479;   -8.849;43803.672
597.427;32799.258;   -9.570;42986.934
598.009;34509.980;  -12.620;42832.219
598.591;34879.957;  -10.039;42580.086
599.172;34069.102;  -10.369;43061.805
599.753;34195.066;   -9.140;41691.469
600.335;35657.047;  -11.430;40692.520
600.916;33628.113;   -9.939;39982.422
601.498;31040.986;   -8.479;40318.617
602.079;29639.752;  -10.920;40670.609
602.660;29492.135;  -11.480;41450.898
603.241;31169.811;  -11.699;41137.738
603.823;30031.215;   -9.579;38868.797
604.404;29318.232;  -10.620;38182.785
604.985;30940.055;  -10.450;38078.047
605.566;30903.010;   -9.129;38056.633
606.147;31031.250;   -7.510;37020.418
606.728;32461.119;  -10.660;37883.359
607.309;31047.141;  -11.740;38748.273
607.890;30562.852;   -9.759;38850.230
608.471;30021.742;   -8.250;37457.918
609.051;29242.320;   -9.240;36066.457
609.632;28183.313;  -12.120;35991.074
610.213;28811.498;   -9.110;37402.641
610.794;29471.771;   -8.030;38383.363
611.374;29010.387;   -8.110;40562.387
611.955;29780.578;  -13.560;38533.727
612.536;31225.766;  -11.400;36951.789
613.116;31010.557;   -8.070;37197.891
613.697;31233.871;  -10.830;38411.125
614.277;29603.588;  -11.641;38673.938
614.858;30530.572;  -13.310;37075.863
615.438;29611.316;   -7.460;35092.906
616.019;27036.234;   -7.601;33666.301
616.599;27856.473;  -12.020;34189.023
617.179;29747.699;  -11.780;36952.047
617.760;30761.896;   -8.570;39582.574
618.340;31810.271;  -11.471;38943.977
618.920;33098.859;  -11.170;37594.156
619.500;32786.852;  -11.071;37866.938
620.080;31725.105;   -7.750;37869.043
620.660;32773.617;  -12.711;36868.617
621.241;34104.410;  -10.211;36352.309
621.821;34507.461;  -10.961;35459.520
622.401;33599.598;   -7.720;35207.414
622.980;32910.441;   -8.981;35980.422
623.560;31445.232;   -9.331;37351.328
624.140;29980.037;   -9.850;34388.582
624.720;24891.271;   -7.451;32368.764
625.300;21428.328;   -9.070;32638.629
625.880;24704.354;  -12.601;34599.035
626.459;28510.393;  -11.751;36831.738
627.039;31622.611;   -9.281;38299.098
627.619;31587.463;   -8.801;38289.574
628.198;30120.627;  -12.071;37220.695
628.778;29392.910;   -9.461;37632.563
629.357;29998.381;   -8.491;38003.012
629.937;29782.719;   -9.721;38402.039
630.516;29246.512;   -9.951;37868.801
631.096;29075.424;  -11.731;35760.410
631.675;31540.340;   -8.572;35225.219
632.254;36605.977;  -11.282;35130.289
632.834;36014.133;  -13.322;35794.570
633.413;34084.820;  -10.301;35788.922
633.992;31542.080;   -8.582;34532.863
634.571;32298.785;   -8.352;33590.113
635.151;35437.348;  -11.912;34943.863
635.730;33795.750;  -10.511;35352.523
636.309;30204.809;   -7.731;35366.605
636.888;27606.281;   -9.952;36165.637
637.467;28213.518;  -11.672;37515.902
638.046;29780.408;   -8.901;39288.695
638.625;32787.473;   -7.912;38279.699
639.204;32555.334;  -10.022;37741.598
639.782;31343.584;  -12.252;38364.551
640.361;27968.342;  -10.041;36740.621
640.940;25283.650;  -11.161;34950.082
641.519;25930.842;   -9.701;34137.398
642.097;28483.205;  -11.271;35654.258
642.676;31307.660;   -8.651;35637.957
643.255;32029.703;   -8.711;36567.074
643.833;31227.740;   -9.581;37809.434
644.412;31037.127;  -13.711;37337.293
644.990;29950.945;  -11.811;37018.531
645.569;29677.988;   -9.411;36518.469
646.147;28765.842;  -10.291;36186.430
646.726;28852.102;  -12.401;36267.688
647.304;30176.555;  -10.411;36647.625
647.882;31983.875;   -9.651;39286.742
648.461;33610.875;   -9.631;39157.703
649.039;31833.783;  -11.881;35412.883
649.617;31136.807;   -9.661;34744.918
650.195;30748.240;   -9.301;35403.098
650.773;29400.830;  -10.511;35053.797
651.352;26861.695;  -11.521;33756.816
651.930;24437.139;  -12.211;31868.773
652.508;22960.211;   -9.171;33121.551
653.086;26773.980;   -9.371;33564.793
653.663;29668.834;  -13.161;34054.668
654.241;28395.506;  -13.031;35693.309
654.819;30014.750;   -9.371;36422.906
655.397;30332.371;  -10.511;38213.484
655.975;29805.932;  -10.371;39507.625
656.553;29702.939;  -10.051;39498.223
657.130;28263.266;  -10.061;40395.480
657.708;27389.424;   -9.561;39242.020
658.286;27520.305;  -11.511;38920.020
658.863;28857.141;  -10.261;40202.898
659.441;31886.645;   -7.531;39677.938
660.018;31452.645;   -9.501;40413.355
660.596;30211.949;  -13.301;39931.414
661.173;32050.516;  -11.211;39604.531
661.750;32213.051;   -9.951;39700.070
662.328;30802.264;   -9.390;39292.809
662.905;30050.307;  -11.330;38235.648
663.482;26112.322;   -9.050;36212.305
664.060;24278.377;   -8.240;35944.945
664.637;26937.246;  -10.050;35170.785
665.214;28586.307;  -11.760;34197.523
665.791;30106.092;  -10.530;34549.520
666.368;29092.738;   -9.690;35118.578
666.945;29739.846;   -9.320;36019.418
667.522;31327.699;  -11.860;36048.438
668.099;30944.422;  -10.770;36243.914
668.676;29760.086;   -6.260;35958.875
669.253;28658.365;   -7.000;37384.730
669.830;29336.439;  -10.190;36779.629
670.407;28980.805;   -9.550;35231.289
670.984;28728.660;   -9.260;35544.270
671.560;29374.279;   -9.280;35466.867
672.137;28746.617;  -11.810;34280.863
672.714;29504.102;  -11.490;34632.863
673.290;30137.049;   -7.740;35135.422
673.867;30318.877;  -10.660;36114.480
674.443;30352.426;  -12.230;36152.859
675.020;28731.684;  -10.450;35327.238
675.596;29750.982;   -9.260;35795.176
676.173;30057.211;  -10.780;35430.355
676.749;29804.045;  -13.690;33549.516
677.326;29809.973;  -11.980;32210.012
677.902;29804.354;   -8.630;32068.871
678.478;29142.186;  -10.730;32583.891
679.054;28393.590;  -10.520;32088.928
679.631;28668.729;  -11.920;30978.848
680.207;30307.465;   -7.490;33160.887
680.783;31959.613;   -9.860;35570.363
681.359;31035.598;  -13.380;36125.184
681.935;30493.461;  -12.480;35240.922
682.511;29888.967;   -7.900;34429.961
683.087;30097.889;   -7.710;34463.680
683.663;29521.064;  -11.480;34648.898
684.239;28190.555;  -14.090;34546.457
684.815;27874.566;   -7.560;35586.375
685.390;28346.975;   -9.910;35821.895
685.966;28913.914;  -11.159;35085.871
686.542;31246.543;  -11.169;34198.230
687.118;33409.258;   -5.959;32847.707
687.693;33678.066;  -10.329;32794.027
688.269;33338.598;  -12.059;33072.367
688.844;31586.473;  -10.909;33141.664
689.420;29511.008;   -8.019;33965.742
689.995;27278.426;   -8.399;34655.523
690.571;25826.295;  -10.949;33576.742
691.146;26251.025;   -9.619;32657.219
691.722;25835.275;   -8.999;32526.979
692.297;25469.076;  -11.589;33014.617
692.872;27276.037;  -11.739;34012.254
693.448;26968.445;  -11.059;34237.434
694.023;26042.430;  -10.139;34142.672
694.598;28027.740;   -9.029;34132.031
695.173;28483.865;  -13.319;34205.250
695.748;27649.434;  -10.169;32882.488
696.323;27922.250;   -8.339;32864.906
696.898;28319.268;   -8.169;33170.004
697.473;28189.492;  -12.309;32432.984
698.048;27490.801;  -10.989;31649.303
698.623;27198.633;   -9.329;30778.141
699.198;28976.541;   -9.849;31140.119
699.773;29940.162;  -12.329;31764.299
700.348;28327.799;  -10.389;31780.816
700.922;28556.793;   -9.269;32046.375
701.497;29580.906;   -9.329;32603.574
702.072;29835.346;  -10.789;34799.871
702.646;28410.092;  -10.839;35793.172
703.221;26290.625;   -9.099;35201.590
703.795;28394.758;  -10.939;34764.527
704.370;28716.053;  -12.859;34307.367
704.944;29044.816;  -11.559;33509.887
705.519;29815.521;   -7.939;31388.584
706.093;31256.828;  -10.499;31340.104
706.668;31844.809;  -11.289;32630.281
707.242;30662.951;  -11.509;32728.779
707.816;29059.660;   -9.639;32947.238
708.390;27618.125;  -11.429;33277.855
708.965;27984.338;  -11.869;33834.336
709.539;27763.068;  -11.689;33709.273
710.113;28225.547;  -10.478;33044.313
710.687;27825.031;  -10.228;31953.992
711.261;26352.090;  -13.698;30505.949
711.835;26136.438;  -13.378;30262.369
712.409;26749.658;   -9.698;31254.447
712.983;28761.436;  -11.898;32754.986
713.557;29797.586;  -15.138;34018.824
714.131;29312.771;  -14.098;34579.625
714.704;28166.068;   -9.958;33890.262
715.278;25902.451;  -10.028;33531.102
715.852;24824.453;  -11.148;33601.660
716.425;25686.453;   -9.068;33515.117
716.999;26612.398;  -10.038;33185.555
717.573;27697.836;   -9.798;33905.996
718.146;28848.555;  -12.378;35199.293
718.720;29069.477;  -11.918;35060.551
719.293;28543.756;   -8.088;34973.230
719.867;31360.633;  -10.888;36394.449
720.440;31139.318;  -11.938;36663.008
721.013;29413.439;  -12.818;35102.426
721.587;27877.693;  -10.298;33985.266
722.160;26858.096;  -10.048;33524.965
722.733;25743.209;  -12.108;32987.043
723.306;25938.541;  -10.818;33066.301
723.880;28477.025;   -8.908;33399.500
724.453;30733.582;   -9.878;33468.297
725.026;29822.109;  -11.188;33816.637
725.599;26931.268;  -11.678;32797.996
726.172;27161.066;   -9.618;33187.434
726.745;28208.244;   -8.258;35136.613
727.318;29387.176;  -12.978;35751.730
727.891;29982.902;  -12.148;35890.430
728.463;29877.473;   -8.968;34822.090
729.036;28878.520;  -10.188;32895.086
729.609;29293.580;  -11.788;31823.225
730.182;26260.367;  -11.788;31445.283
730.754;23675.957;  -10.268;32373.223
731.327;23667.223;   -9.998;33676.820
731.900;23893.350;  -12.228;33417.000
732.472;25217.848;  -13.848;31978.498
733.045;27230.486;   -8.698;30368.777
733.617;27271.918;  -10.607;30574.215
734.190;26963.525;  -11.507;31280.975
734.762;24248.982;  -13.647;31674.412
735.334;22427.766;   -9.767;31247.291
735.907;22900.650;   -9.897;29876.211
736.479;23130.953;  -11.637;29808.488
737.051;22952.418;   -9.567;30233.547
737.623;23900.641;   -8.187;31469.086
738.195;24525.225;  -11.187;31784.225
738.768;26369.973;  -12.337;32120.523
739.340;26798.598;  -12.227;32094.342
739.912;25761.381;  -11.057;31312.680
740.484;24265.844;  -10.207;31946.238
741.056;23027.842;  -10.047;32984.059
741.628;24746.619;  -13.627;33897.715
742.199;26827.705;   -7.177;33213.016
742.771;25150.084;  -10.797;31369.113
743.343;22983.467;  -11.997;31865.473
743.915;21999.984;  -12.867;32388.631
744.487;22043.395;   -7.617;31079.568
745.058;22301.160;   -9.557;30570.107
745.630;22777.721;   -9.877;29970.127
746.201;23678.977;  -14.177;29186.766
746.773;24236.260;   -9.237;28805.723
747.344;24072.539;   -9.847;29591.223
747.916;22544.977;  -11.657;31412.201
748.487;22682.203;  -10.587;32194.898
749.059;23789.643;   -8.707;32533.719
749.630;24407.834;  -10.537;32158.518
750.201;23329.201;  -11.687;30855.395
750.773;21592.043;  -11.647;28622.555
751.344;21564.994;   -7.147;28405.732
751.915;22809.115;   -9.757;28461.551
752.486;22871.967;  -12.427;27842.850
753.057;20596.754;  -12.227;27845.008
753.628;19342.580;  -10.417;27728.107
754.199;20424.215;  -11.767;27381.086
754.770;21479.408;  -11.187;25882.203
755.341;21569.980;  -10.507;25886.184
755.912;21601.934;   -9.387;26050.861
756.483;21121.363;  -10.647;26798.779
757.054;19366.158;  -11.837;27048.238
757.625;18072.834;  -12.716;26294.838
758.195;17729.611;   -9.666;26142.076
758.766;17386.213;   -8.656;26392.234
759.337;18183.494;  -12.856;26334.594
759.907;19832.928;  -13.366;27579.652
760.478;20724.064;   -8.576;28352.770
761.048;20131.699;  -10.526;27325.088
761.619;19283.260;  -11.116;26460.428
762.189;19315.502;  -12.136;26029.826
762.760;20298.400;   -9.456;26430.145
763.330;21464.219;   -7.136;26670.902
763.900;20973.869;  -11.786;26603.021
764.471;18484.418;  -11.546;25542.740
765.041;17243.115;   -8.096;24358.459
765.611;17289.596;   -8.876;23991.297
766.181;17611.838;  -12.196;24470.236
766.751;18442.424;  -11.636;24845.975
767.321;18281.234;  -10.156;24533.633
767.891;16531.975;  -11.766;24916.492
768.461;16063.998;  -14.936;24776.771
769.031;16625.584;  -12.356;24757.988
769.601;18162.676;   -7.526;24181.088
770.171;17914.141;  -10.766;23670.387
770.741;17050.916;  -13.176;22960.045
771.311;17113.770;  -10.616;22917.523
771.880;17450.420;   -9.576;23562.941
772.450;17103.078;  -10.336;24216.500
773.020;17030.537;  -13.516;24140.398
773.589;16358.054;  -13.466;24414.857
774.159;15760.699;   -8.686;23858.717
774.729;15486.370;   -9.476;22942.135
775.298;15072.381;  -13.666;22324.033
775.867;14662.466;  -11.716;21140.313
776.437;14784.261;   -9.906;20838.092
777.006;14661.038;  -12.166;20599.510
777.576;14495.614;  -12.356;20508.809
778.145;14516.213;  -11.646;20732.947
778.714;14321.768;   -8.226;21062.465
779.283;13530.818;   -9.556;20949.664
779.853;12984.804;  -14.116;20508.623
780.422;13439.484;  -11.506;20649.082
780.991;13060.702;   -9.556;21527.520
781.560;11951.035;   -9.095;22632.658
782.129;11827.823;  -12.135;23048.277
782.698;11914.086;  -10.865;23438.555
783.267;11485.221;   -9.335;23267.734
783.836;11368.679;  -11.045;22415.133
784.404;12355.058;  -13.865;20443.152
784.973;12944.943;  -13.095;19699.150
785.542;12856.711;  -11.575;19763.828
786.111;12626.229;   -9.705;20341.408
786.679;12113.111;  -12.105;20207.967
787.248;11897.008;  -12.455;19516.465
787.817;11769.042;  -11.535;18900.363
788.385;11412.621;   -9.765;17879.121
788.954;10887.115;  -14.005;17658.301
789.522;10365.292;  -11.955;17788.879
790.090;10928.241;  -10.135;18118.277
790.659;11351.192;  -10.975;18338.736
791.227;10815.281;  -13.375;18508.615
791.795;11168.527;  -12.375;17898.254
792.364;11553.434;  -10.725;17295.133
792.932;11915.604;   -9.715;16822.051
793.500;12041.615;  -12.675;17040.148
794.068;12186.250;  -13.495;17179.787
794.636;12293.241;  -10.885;16664.246
795.204;11706.102;  -11.045;16524.545
795.772;11784.955;  -13.175;17274.564
796.340;11342.979;  -12.445;17891.002
796.908;11138.155;   -9.735;17648.561
797.476;11005.595;   -9.815;17064.080
798.044;10595.786;  -13.985;16672.777
798.612; 9809.554;  -13.115;17023.996
799.180; 9428.071;  -10.185;16561.615
799.747; 9384.543;   -9.055;15962.773
800.315; 9140.604;  -12.385;15296.992
800.883; 8780.897;  -15.035;14801.771
801.450; 8763.636;  -10.365;14534.430
802.018; 8828.103;   -9.855;14173.248
802.585; 8970.287;  -11.905;14029.547
803.153; 9006.909;  -11.585;13836.846
803.720; 8807.799;   -9.095;13567.324
804.287; 8351.523;   -9.135;13360.622
804.855; 7938.402;  -11.604;13681.981
805.422; 7802.353;  -11.794;13536.560
805.989; 7809.785;  -10.734;13355.958
806.556; 7937.216;  -10.444;13747.896
807.124; 8138.556;  -12.764;13987.376
807.691; 8113.873;  -12.964;14038.674
808.258; 7941.474;  -11.134;14120.152
808.825; 7688.201;   -9.854;13860.111
809.392; 7763.710;  -10.504;13268.790
809.959; 7250.305;  -13.054;12680.389
810.526; 6784.786;   -8.294;12427.308
811.093; 6852.663;   -8.394;12030.105
811.659; 7508.424;  -12.304;11653.664
812.226; 8039.450;  -13.944;11637.183
812.793; 7778.317;  -10.484;11611.521
813.360; 7174.445;  -10.144;11885.181
813.926; 6881.592;  -11.684;12770.539
814.493; 6629.366;  -13.644;12677.638
815.060; 6185.440;   -9.724;11974.336
815.626; 6145.626;   -9.854;11594.715
816.193; 6514.531;  -13.254;11579.474
816.759; 6566.153;  -13.204;11666.972
817.325; 6670.339;   -9.434;11325.530
817.892; 7065.722;  -10.134;11105.369
818.458; 7499.905;  -13.474;10843.928
819.024; 7130.039;  -11.854;10714.406
819.591; 6797.038;  -10.244;10469.165
820.157; 6561.044;  -10.704;10235.523
820.723; 6066.174;  -12.324;10847.563
821.289; 5783.374;   -9.444;11040.980
821.855; 5716.550;   -8.374;10357.100
822.421; 5734.938;  -10.234; 9978.918
822.987; 5790.234;  -13.294; 9754.177
823.553; 5502.747;  -10.884;10065.755
824.119; 5310.319;   -8.884;10036.294
824.685; 5399.504;   -6.784;10029.192
825.251; 5493.033;  -12.004;10199.230
825.816; 5442.647;  -11.474; 9820.189
826.382; 5209.969;   -9.174; 9297.248
826.948; 5417.422;   -9.214; 9381.347
827.513; 5841.222;  -10.774; 9450.726
828.079; 5701.636;  -11.924; 9472.444
828.645; 5127.186;  -10.543; 9292.643
829.210; 5024.075;  -10.533; 9065.341
829.776; 5020.599;  -10.753; 9132.620
830.341; 4925.280;  -10.173; 9092.878
830.906; 5129.018;  -10.743; 9078.557
831.472; 5507.186;  -11.113; 8534.535
832.037; 5274.374;  -10.603; 8677.874
832.602; 4731.544;  -13.323; 8628.692
833.167; 4476.744;  -10.823; 8879.031
833.733; 4411.851;  -10.113; 9189.790
834.298; 4568.605;  -13.583; 9052.608
834.863; 4680.667;  -12.703; 8895.087
835.428; 4679.606;  -10.523; 8824.266
835.993; 4539.286;   -6.963; 8845.385
836.558; 4373.507;  -10.763; 8888.563
837.123; 4500.884;   -9.903; 8966.582
837.688; 4755.992;   -9.913; 8617.860
838.253; 5027.481;  -10.283; 8590.699
838.817; 5235.759;  -12.963; 8443.797
839.382; 5139.538;  -14.243; 8799.356
839.947; 4827.056;  -10.733; 8810.595
840.511; 4538.144;   -9.383; 8796.394
841.076; 4155.012;  -12.563; 8347.231
841.641; 4208.382;  -12.953; 8224.330
842.205; 4304.918;   -7.043; 8223.349
842.770; 4398.470;   -8.163; 8622.107
843.334; 4541.486;  -12.503; 8410.386
843.898; 4453.895;  -11.693; 8337.465
844.463; 4469.910;  -10.203; 8506.283
845.027; 4265.076;   -9.533; 8280.962
845.591; 4113.397;  -13.443; 8231.141
846.156; 4130.619;  -13.143; 7969.179
846.720; 4015.361;   -9.433; 7768.278
847.284; 3892.742;  -11.033; 7630.957
847.848; 3765.622;  -10.403; 7472.395
848.412; 3665.471;  -11.553; 7437.394
848.976; 3704.508;   -8.393; 7674.592
849.540; 3618.287;   -8.713; 7836.011
850.104; 3741.006;  -12.463; 7913.669
850.668; 4126.849;  -12.973; 7694.508
851.232; 4223.758;  -10.793; 7756.887
851.796; 4045.620;  -10.662; 7926.545
852.359; 3734.850;  -13.082; 7827.844
852.923; 3542.218;  -12.192; 7641.163
853.487; 3325.407;  -11.912; 7342.501
854.050; 3272.542;  -10.892; 7042.820
854.614; 3422.402;  -13.992; 7151.338
855.177; 3556.387;  -11.732; 7105.077
855.741; 3577.208;   -8.962; 6989.675
856.304; 3433.035;   -9.442; 6596.634
856.868; 3371.121;  -14.192; 6356.272
857.431; 3456.256;  -12.702; 6468.571
857.995; 3563.566;   -9.942; 6373.210
858.558; 3567.040;   -9.112; 6324.448
859.121; 3281.830;  -12.932; 6408.327
859.684; 3142.417;  -13.442; 6347.886
860.247; 3248.576;  -10.632; 6321.264
860.810; 3243.710;  -11.272; 6301.903
861.374; 2979.132;   -9.832; 6607.881
861.937; 2717.577;  -11.762; 6408.200
862.500; 2711.376;   -9.722; 6572.639
863.062; 2887.495;  -10.512; 6387.297
863.625; 3051.160;  -11.232; 6190.836
864.188; 3193.851;  -14.112; 5807.254
864.751; 3237.469;  -11.302; 5682.413
865.314; 3109.400;  -10.112; 5547.492
865.876; 2886.796;  -12.182; 5500.150
866.439; 2859.645;  -10.722; 5415.909
867.002; 2803.202;   -9.252; 5501.567
867.564; 2605.604;   -9.572; 5413.946
868.127; 2392.417;  -13.142; 5160.325
868.689; 2294.743;  -12.902; 5133.183
869.252; 2195.425;   -9.732; 5252.382
869.814; 2099.231;   -9.432; 5297.141
870.377; 2107.503;  -11.552; 5390.919
870.939; 2166.006;   -9.052; 5599.898
871.501; 2218.557;  -10.982; 5248.336
872.063; 2213.030;  -12.292; 4854.235
872.626; 2170.008;  -14.912; 4817.074
873.188; 2200.665;  -13.112; 4987.732
873.750; 2174.185;  -13.442; 4868.651
874.312; 2074.989;   -9.402; 4779.330
874.874; 1987.264;  -11.062; 4866.348
875.436; 1896.414;  -13.931; 4718.887
875.998; 1886.369;   -9.561; 4660.005
876.560; 1914.686;  -11.321; 4462.964
877.122; 1856.077;  -12.221; 4145.042
877.683; 1762.545;  -12.191; 4056.481
878.245; 1699.057;  -12.101; 3950.740
878.807; 1747.153;   -8.971; 4058.958
879.369; 1774.712;  -12.071; 3954.677
879.930; 1676.584;  -14.621; 3941.495
880.492; 1610.192;  -10.311; 4067.014
881.053; 1574.436;  -10.901; 3859.633
881.615; 1475.525;  -14.411; 3776.071
882.176; 1376.623;  -13.761; 3734.750
882.738; 1326.381;   -9.181; 3678.489
883.299; 1301.623;  -11.791; 3405.407
883.860; 1308.304;  -13.121; 3351.106
884.422; 1306.518;  -11.211; 3394.044
884.983; 1261.157;  -10.091; 3166.443
885.544; 1184.276;   -8.461; 3189.802
886.105; 1104.514;  -12.361; 3160.360
886.666; 1036.323;  -14.141; 3093.059
887.227;  980.663;  -11.361; 2941.957
887.788;  919.683;  -11.401; 2974.836
888.349;  858.817;  -13.791; 2721.214
888.910;  857.302;  -13.191; 2696.493
889.471;  863.562;   -9.881; 2560.172
890.032;  847.813;   -9.881; 2558.190
890.593;  827.192;  -10.371; 2567.669
891.153;  802.032;  -13.301; 2460.307
891.714;  753.508;  -11.431; 2372.046
892.275;  715.917;  -11.291; 2309.505
892.835;  678.947;  -11.471; 2382.543
893.396;  626.742;  -11.541; 2295.502
893.956;  571.202;  -11.181; 2162.420
894.517;  532.827;  -11.741; 2125.439
895.077;  528.462;  -11.671; 2086.978
895.638;  528.893;  -11.311; 2126.316
896.198;  498.912;   -9.831; 1838.275
896.758;  455.537;   -8.421; 1892.813
897.319;  423.849;  -12.351; 1792.232
897.879;  406.844;  -13.511; 1762.751
898.439;  381.124;  -12.001; 1661.149
898.999;  357.803;  -10.180; 1781.468
899.559;  348.948;  -12.030; 1703.347
900.119;  344.083;  -15.710; 1537.525
900.679;  340.006;   -8.900; 1638.384
901.239;  324.074;   -8.340; 1527.902
901.799;  312.399;  -13.910; 1456.441
902.359;  307.428;  -13.460; 1357.140
902.919;  300.669;  -11.490; 1331.118
903.479;  286.721;  -12.110; 1317.257
904.038;  265.987;  -11.720; 1262.595
904.598;  249.590;  -13.610; 1152.034
905.158;  246.287;  -11.040; 1240.893
905.717;  238.888;  -10.900; 1233.691
906.277;  228.347;  -15.080; 1217.330
906.836;  218.029;  -13.380; 1222.408
907.396;  208.552;  -10.780; 1193.047
907.955;  201.562;   -8.500; 1182.526
908.515;  195.424;  -12.760; 1099.364
909.074;  189.812;  -11.900; 1092.863
909.633;  184.224;   -8.950; 1069.121
910.192;  179.221;   -8.770; 1196.460
910.752;  173.820;  -12.390; 1029.960
911.311;  169.131;  -13.680; 1009.780
911.870;  167.072;  -12.370;  971.460
912.429;  167.562;  -10.900; 1094.080
912.988;  166.750;  -11.690; 1081.060
913.547;  161.941;  -13.240;  940.380
914.106;  156.649;  -11.990;  999.420
914.665;  152.952;   -9.990;  984.020
915.224;  153.096;  -12.880; 1035.760
915.782;  152.215;  -12.350;  922.560
916.341;  152.392;   -9.110; 1049.840
916.900;  148.662;   -9.270;  925.260
917.458;  146.481;  -13.240;  884.220
918.017;  145.534;  -13.550;  942.600
918.576;  145.538;  -12.320;  904.440
919.134;  143.918;  -11.490;  837.980
919.693;  141.491;  -13.670;  893.060
920.251;  139.866;  -15.470;  876.500
920.809;  138.476;  -11.290;  839.580
921.368;  138.407;  -10.210;  885.360
921.926;  137.398;  -12.140;  842.940
922.484;  135.540;  -13.080;  903.360
923.042;  135.270;  -11.720;  880.340
923.601;  138.867;   -7.480;  998.680
924.159;  136.834;  -11.570;  935.560
924.717;  133.911;  -13.840;  841.080
925.275;  133.174;  -10.640;  903.240
925.833;  132.810;  -11.540;  779.320
926.391;  134.492;  -12.960;  938.380
926.949;  132.711;  -14.130;  857.680
927.506;  132.914;  -11.750;  903.500
928.064;  132.609;  -10.250;  877.580
928.622;  132.165;  -13.030;  880.100
929.180;  132.157;  -13.400;  814.180
929.737;  133.535;  -10.700;  808.540
930.295;  137.459;  -10.070;  928.480
930.853;  138.541;  -11.960;  849.100
931.410;  138.830;  -13.120;  821.120
931.968;  138.460;  -10.770;  940.660
932.525;  137.313;  -10.680;  909.380
933.082;  138.499;  -13.130;  811.440
933.640;  139.533;  -13.210;  925.900
934.197;  137.543;  -11.060;  886.360
934.754;  139.581;   -9.580;  897.780
935.312;  141.278;  -14.000;  863.340
935.869;  145.546;  -10.710; 1012.980
936.426;  146.437;   -9.860;  872.800
936.983;  147.848;   -9.710;  889.020
937.540;  146.834;  -13.990;  838.280
938.097;  146.145;  -14.040;  940.120
938.654;  146.042;  -10.310;  898.860
939.211;  148.120;  -10.560;  952.480
939.768;  152.109;  -13.900;  915.420
940.324;  155.648;  -14.760;  904.200
940.881;  157.031;  -10.370;  878.500
941.438;  157.166;   -8.260; 1021.200
941.995;  153.463;  -12.540;  992.560
942.551;  150.909;  -14.670;  875.620
943.108;  151.971;  -10.450;  937.920
943.664;  153.980;  -10.750;  869.340
944.221;  157.706;  -11.550; 1088.140
944.777;  155.089;  -14.770;  869.680
945.334;  154.624;  -12.820;  884.840
945.890;  157.160;  -10.130;  946.480
946.446;  158.443;  -13.470;  947.020
947.003;  159.881;  -12.120;  964.940
947.559;  161.700;   -9.980; 1063.040
948.115;  161.490;   -9.080; 1026.540
948.671;  159.399;  -10.830;  967.300
949.227;  156.927;  -12.440;  859.560
949.783;  154.013;  -12.910;  858.900
950.339;  156.241;  -10.270;  991.000
950.895;  156.577;  -13.630; 1023.840
951.451;  155.891;  -15.100;  925.280
952.007;  156.307;  -11.330;  998.540
952.563;  157.117;  -10.580;  937.780
953.118;  156.668;  -13.440;  904.940
953.674;  155.912;  -12.710;  935.780
954.230;  155.768;  -10.350;  949.640
954.785;  152.381;   -9.190;  936.640
955.341;  150.164;  -11.200;  998.160
955.897;  148.518;  -16.560;  834.660
956.452;  150.088;  -12.570;  953.840
957.008;  149.635;   -7.970; 1083.640
957.563;  146.697;  -11.940; 1009.540
958.118;  142.087;  -13.450;  877.700
958.674;  142.397;  -12.030;  946.780
959.229;  144.116;   -9.410; 1013.980
959.784;  141.047;  -12.000;  832.400
960.339;  142.112;  -14.780; 1001.280
960.894;  137.903;   -9.860;  963.760
961.449;  134.302;   -9.970;  859.960
962.004;  134.740;  -10.900; 1212.840
962.559;  128.243;  -13.150;  860.140
963.114;  126.763;  -13.740;  742.480
963.669;  126.081;   -9.820;  915.500
964.224;  125.801;  -13.890;  874.340
964.779;  124.155;  -12.600;  828.420
965.334;  124.842;  -10.950; 1017.860
965.888;  125.598;  -11.170;  875.360
966.443;  129.310;  -12.540;  972.380
966.998;  128.338;  -15.780;  819.460
967.552;  126.671;   -9.760;  908.380
968.107;  122.487;   -9.060;  868.300
968.661;  123.468;  -11.950;  922.440
969.216;  124.298;  -12.800;  856.280
969.770;  126.422;  -11.210;  917.200
970.324;  126.884;  -11.610;  923.140
970.879;  124.635;  -11.370;  947.180
971.433;  119.126;  -12.540;  952.720
971.987;  106.979;  -11.320;  895.340
972.541;   96.690;  -10.720;  917.100
973.095;   89.576;   -9.680; 1009.460
973.649;   82.840;  -11.440;  809.480
974.203;   81.269;  -11.210;  829.040
974.757;   83.177;  -10.240;  855.220
975.311;   85.796;  -13.720;  872.600
975.865;   87.982;  -13.770;  881.820
976.419;   87.853;  -11.690;  857.400
976.973;   88.533;   -9.510;  849.620
977.526;   91.890;  -12.620;  949.920
978.080;   91.710;  -12.010;  796.780
978.634;   93.620;  -10.170;  921.320
979.187;   91.521;   -9.020;  905.400
979.741;   90.068;   -9.820; 1018.380
980.294;   85.234;  -14.870;  789.160
980.848;   84.037;  -12.380;  717.220
981.401;   85.924;  -10.350;  816.540
981.955;   89.442;  -13.720;  844.300
982.508;   88.239;  -11.490;  746.340
983.061;   88.852;  -10.000;  915.260
983.615;   84.735;  -11.480;  798.800
984.168;   81.690;  -13.220;  770.080
984.721;   82.088;  -13.960;  880.760
985.274;   81.183;  -10.870;  867.500
985.827;   79.976;   -9.790;  834.220
986.380;   78.140;  -13.120;  721.340
986.933;   77.236;  -12.450;  864.800
987.486;   75.367;  -10.210;  861.920
988.039;   75.426;   -8.430;  863.100
988.591;   72.985;  -10.520;  893.260
989.144;   70.762;  -14.860;  737.260
989.697;   70.547;  -13.080;  758.740
990.250;   70.776;  -10.150;  858.100
990.802;   70.398;  -13.430;  755.860
991.355;   71.176;  -12.750;  974.880
991.907;   68.779;  -12.040;  864.320
992.460;   66.381;  -11.330;  753.760
993.012;   66.383;  -13.610;  749.540
993.565;   65.353;  -13.460;  711.360
994.117;   66.797;   -9.360;  950.780
994.669;   63.529;  -11.300;  701.320
995.221;   62.169;  -13.540;  791.920
995.774;   59.892;  -13.430;  787.580
996.326;   57.978;  -12.520;  740.220
996.878;   58.303;  -10.950;  838.420
997.430;   56.307;  -14.300;  699.860
997.982;   55.273;  -13.760;  750.140
998.534;   54.455;  -11.530;  739.060
999.086;   52.186;  -10.310;  738.220
999.638;   50.424;  -12.530;  661.380
1000.190;   49.257;  -11.840;  699.320
1000.741;   48.532;  -10.260;  742.700
1001.293;   47.844;   -8.860;  686.020
1001.845;   46.520;  -13.700;  676.640
1002.396;   48.212;  -12.100;  743.400
1002.948;   48.185;  -12.760;  737.400
1003.500;   46.354;  -10.380;  723.780
1004.051;   47.210;  -11.900;  907.580
1004.603;   45.880;  -12.250;  791.820
1005.154;   42.558;  -13.210;  608.980
1005.705;   41.113;  -10.950;  723.960
1006.257;   41.247;  -13.880;  707.220
1006.808;   39.897;  -12.840;  685.460
1007.359;   39.855;  -10.570;  763.240
1007.910;   39.018;   -9.620;  646.640
1008.461;   39.046;  -13.630;  732.940
1009.013;   37.833;  -17.200;  588.340
1009.564;   39.412;  -10.200;  793.520
1010.115;   36.128;  -12.570;  597.040
1010.665;   36.379;  -15.150;  602.160
1011.216;   36.118;  -14.480;  667.920
1011.767;   36.144;  -11.340;  697.920
1012.318;   35.985;   -9.780;  736.980
1012.869;   34.687;  -12.380;  679.000
1013.419;   34.587;  -15.560;  603.120
1013.970;   35.582;  -11.010;  666.640
1014.521;   34.275;  -11.610;  620.620
1015.071;   34.384;  -13.450;  670.380
1015.622;   33.519;  -13.870;  635.460
1016.172;   32.713;  -11.610;  596.820
1016.723;   33.148;  -12.120;  614.380
1017.273;   32.597;  -13.620;  604.160
1017.823;   33.248;  -14.140;  650.340
1018.374;   32.832;  -12.800;  611.760
1018.924;   32.020;  -12.340;  716.880
1019.474;   32.517;  -11.410;  718.880
1020.024;   31.078;  -14.770;  657.580
1020.574;   31.698;   -9.780;  726.160
1021.124;   32.653;   -8.560;  673.580
1021.674;   30.503;  -15.190;  559.120
1022.224;   31.999;  -13.530;  708.940
1022.774;   31.689;  -13.280;  668.820
1023.324;   31.443;  -10.690;  753.520
1023.874;   32.433;  -10.240;  875.760
1024.423;   29.943;  -12.540;  613.700
1024.973;   29.314;  -10.010;  610.760
1025.523;   29.478;  -10.550;  620.960
1026.072;   28.756;  -13.560;  606.420
1026.622;   28.705;  -15.120;  675.740
1027.172;   29.752;  -11.260;  715.660
1027.721;   28.602;  -11.410;  601.220
1028.270;   29.061;  -13.530;  663.400
1028.820;   28.295;  -13.680;  638.080
1029.369;   28.125;  -13.520;  612.700
1029.918;   28.204;  -10.980;  649.840
1030.468;   27.757;  -13.530;  564.780
1031.017;   28.438;  -13.170;  634.800
1031.566;   26.942;  -12.200;  608.900
1032.115;   27.539;   -9.960;  694.500
1032.664;   26.327;  -13.210;  596.480
1033.213;   26.871;  -12.500;  735.420
1033.762;   27.118;  -11.910;  635.620
1034.311;   26.890;   -9.640;  677.220
1034.860;   26.413;  -13.310;  691.000
1035.408;   26.487;  -11.830;  722.720
1035.957;   27.635;  -12.000;  719.540
1036.506;   24.795;  -11.690;  530.800
1037.055;   27.424;  -10.990;  844.320
1037.603;   26.124;  -15.120;  664.000
1038.152;   24.042;  -12.450;  534.760
1038.700;   24.776;  -10.560;  585.740
1039.249;   24.255;  -11.080;  681.220
1039.797;   24.777;  -12.540;  633.360
1040.345;   24.643;  -11.920;  705.420
1040.894;   24.130;  -11.410;  625.300
1041.442;   23.720;  -14.320;  632.200
1041.990;   23.562;  -16.240;  559.160
1042.538;   23.289;  -11.680;  536.180
1043.087;   22.758;  -10.760;  570.860
1043.635;   24.515;  -11.850;  670.500
1044.183;   23.895;  -15.480;  586.400
1044.731;   22.694;  -11.770;  576.000
1045.279;   22.834;  -13.090;  674.920
1045.827;   24.204;  -12.440;  892.400
1046.374;   21.740;  -13.840;  515.420
1046.922;   21.227;  -13.220;  590.580
1047.470;   23.180;  -10.230;  691.300
1048.018;   22.870;  -14.590;  647.960
1048.565;   23.373;  -12.050;  708.600
1049.113;   21.402;  -11.650;  557.000
1049.660;   21.652;  -10.510;  629.660
1050.208;   21.704;  -13.310;  675.640
1050.755;   20.905;  -15.900;  606.580
1051.303;   21.994;  -11.430;  686.820
1051.850;   20.460;   -8.480;  635.120
1052.397;   19.866;  -15.010;  473.960
1052.945;   20.184;  -13.960;  617.760
1053.492;   21.896;  -13.150;  741.840
1054.039;   21.080;   -9.630;  720.180
1054.586;   19.524;  -13.680;  557.240
1055.133;   20.929;  -14.570;  693.140
1055.680;   21.010;  -13.820;  646.620
1056.227;   19.839;  -11.730;  542.780
1056.774;   21.375;  -12.480;  794.980
1057.321;   18.610;  -13.930;  523.260
1057.868;   19.200;  -11.690;  651.320
1058.415;   19.319;   -9.520;  651.980
1058.961;   19.692;  -13.160;  678.940
1059.508;   18.895;  -12.920;  643.820
1060.055;   19.223;  -11.920;  581.780
1060.601;   19.125;  -11.500;  624.300
1061.148;   18.851;  -14.330;  616.820
1061.694;   18.079;  -16.870;  592.580
1062.241;   18.312;  -10.330;  596.320
1062.787;   18.658;  -10.620;  663.140
1063.334;   19.463;  -10.110;  808.560
1063.880;   18.205;  -13.400;  668.360
1064.426;   18.368;  -10.680;  706.820
1064.972;   16.989;   -9.920;  601.340
1065.518;   16.139;  -10.980;  566.640
1066.065;   17.723;  -14.890;  624.460
1066.611;   17.109;  -12.870;  598.800
1067.157;   17.874;  -12.950;  641.860
1067.703;   17.207;  -13.540;  668.480
1068.249;   16.556;  -13.540;  605.220
1068.794;   17.023;  -12.600;  626.880
1069.340;   15.869;  -10.620;  578.960
1069.886;   16.452;  -12.830;  590.700
1070.432;   15.421;  -14.870;  541.720
1070.977;   14.987;  -11.980;  601.080
1071.523;   16.046;   -8.200;  573.060
1072.068;   15.783;  -12.330;  582.000
1072.614;   15.148;  -16.370;  527.760
1073.160;   16.815;  -11.100;  687.040
1073.705;   15.399;  -10.480;  572.520
1074.250;   14.868;  -14.520;  559.900
1074.796;   16.380;  -11.460;  655.160
1075.341;   15.723;  -11.950;  664.100
1075.886;   15.428;  -11.460;  594.240
1076.431;   13.929;  -13.770;  649.880
1076.976;   14.775;  -12.680;  639.220
1077.521;   14.349;  -13.170;  583.080
1078.067;   13.496;  -10.860;  579.400
1078.612;   14.863;  -13.920;  661.620
1079.156;   13.874;  -13.880;  601.540
1079.701;   14.969;  -13.120;  693.260
1080.246;   15.152;   -9.940;  696.300
1080.791;   13.960;  -14.740;  625.020
1081.336;   14.407;  -13.750;  659.320
1081.880;   13.583;  -13.400;  649.680
1082.425;   13.381;  -12.220;  573.480
1082.970;   14.347;  -11.610;  717.040
1083.514;   13.115;  -13.580;  597.000
1084.059;   12.841;  -12.810;  586.720
1084.603;   12.618;  -12.320;  565.840
1085.147;   12.736;  -13.190;  645.220
1085.692;   13.815;  -12.480;  716.800
1086.236;   11.799;  -13.020;  503.140
1086.780;   14.062;   -9.190;  751.440
1087.325;   13.065;  -12.480;  654.620
1087.869;   12.447;  -12.450;  610.700
1088.413;   13.150;  -12.240;  705.040
1088.957;   10.575;   -9.020;  543.400
1089.501;   13.060;  -10.320;  766.640
1090.045;   12.212;  -12.720;  726.480
1090.589;   11.177;  -13.690;  569.920
1091.133;   11.682;  -10.020;  673.340
1091.676;   12.086;  -12.330;  591.940
1092.220;   11.062;  -14.970;  600.920
1092.764;   12.845;  -12.430;  706.960
1093.307;   11.373;   -9.800;  673.780
1093.851;   10.616;  -14.970;  556.540
1094.395;   11.052;  -15.310;  683.140
1094.938;   10.267;  -10.370;  632.520
1095.482;   11.089;  -11.050;  559.800
1096.025;   11.283;  -11.840;  710.880
1096.568;   11.496;  -12.840;  779.280
1097.112;    9.226;  -14.700;  508.180
1097.655;   10.547;   -8.720;  603.000
1098.198;    9.584;  -13.610;  600.180
1098.741;    8.985;  -13.350;  612.860
1099.285;   11.451;  -11.230;  657.300
1099.828;    8.679;  -11.840;  439.400
1100.371;   10.253;  -10.840;  608.160
1100.914;    9.349;  -14.190;  682.660
1101.457;    9.714;  -11.240;  679.900
1101.999;    8.245;  -11.270;  584.680
1102.542;    9.437;  -11.480;  641.440
1103.085;    9.323;  -11.750;  658.500
1103.628;   10.285;  -11.400;  762.060
1104.170;    8.576;  -10.490;  588.280
1104.713;    8.836;  -10.600;  646.700
1105.256;    8.840;  -14.360;  557.440
1105.798;    8.081;  -13.210;  499.980
1106.341;    9.356;  -10.270;  728.900
1106.883;    8.259;  -12.200;  521.340
1107.425;    8.390;  -13.110;  668.180
1107.968;    8.868;  -12.840;  612.380
1108.510;    7.978;   -6.480;  684.960
1109.052;    6.910;  -13.940;  612.620
1109.594;    7.155;  -13.690;  554.440
1110.136;    8.987;  -11.880;  643.220
1110.679;    7.086;   -9.500;  633.080
1111.221;    8.513;  -14.160;  604.460
1111.763;    7.020;  -13.980;  559.220
1112.304;    7.297;  -13.880;  547.140
1112.846;    8.045;  -12.210;  666.240
1113.388;   10.046;  -11.390;  942.180
1113.930;    7.675;  -14.540;  694.200
1114.472;    6.649;  -12.640;  606.540
1115.013;    5.722;  -11.620;  551.280
1115.555;    6.095;  -13.640;  587.100
1116.097;    5.524;  -15.380;  579.480
1116.638;    7.126;  -12.640;  684.600
1117.180;    6.720;   -9.850;  667.740
1117.721;    6.156;  -13.690;  568.580
1118.262;    6.893;  -12.680;  677.960
1118.804;    7.226;  -12.530;  637.340
1119.345;    6.474;  -11.690;  578.400
1119.886;    7.119;  -13.380;  704.040
1120.427;    5.930;  -14.070;  589.020
1120.969;    5.157;  -13.500;  597.920
1121.510;    4.904;  -11.480;  563.060
1122.051;    6.092;  -12.830;  723.580
1122.592;    5.429;  -14.290;  655.420
1123.133;    4.343;  -12.400;  547.940
1123.673;    6.264;  -10.130;  706.480
1124.214;    5.624;  -12.930;  612.460
1124.755;    6.003;  -14.380;  639.460
1125.296;    5.841;  -14.000;  627.320
1125.836;    4.925;  -10.070;  691.500
1126.377;    4.383;  -12.640;  599.660
1126.918;    5.149;  -12.960;  614.980
1127.458;    4.303;  -13.350;  622.220
1127.999;    5.154;  -10.750;  656.980
1128.539;    5.209;  -12.350;  694.240
1129.079;    4.602;  -14.860;  632.720
1129.620;    3.939;  -13.840;  558.100
1130.160;    4.362;  -12.330;  539.480
1130.700;    3.993;  -14.530;  640.840
1131.240;    4.705;  -12.530;  643.700
1131.781;    3.489;  -14.450;  619.680
1132.321;    3.955;   -9.790;  599.120
1132.861;    2.556;  -14.860;  564.200
1133.401;    3.172;  -14.290;  593.940
1133.941;    3.587;  -11.750;  626.280
1134.481;    3.249;   -9.920;  597.580
1135.020;    3.046;  -12.290;  609.160
1135.560;    3.787;  -11.650;  674.940
1136.100;    3.440;  -16.270;  501.160
1136.640;    2.259;  -10.890;  510.480
1137.179;    2.854;  -14.180;  537.960
1137.719;    2.564;  -16.250;  605.400
1138.258;    3.111;  -14.230;  587.360
1138.798;    3.355;   -9.090;  663.780
1139.337;    1.819;  -15.130;  482.840
1139.877;    2.652;  -13.680;  642.360
1140.416;    4.545;  -11.320;  878.060
1140.955;    1.884;  -10.860;  535.380
1141.494;    2.340;  -12.920;  669.280
1142.034;    2.544;  -13.930;  583.520
1142.573;    3.732;  -11.440;  646.280
1143.112;    1.863;  -12.000;  553.480
1143.651;    1.504;  -13.670;  536.480
1144.190;    2.381;  -12.730;  691.640
1144.729;    2.092;  -14.560;  607.420
1145.267;    1.486;  -11.830;  584.900
1145.806;    2.473;  -12.230;  637.040
1146.345;    0.956;  -14.130;  635.020
1146.884;    1.781;  -11.590;  622.500
1147.422;    0.715;  -12.550;  533.060
1147.961;    3.354;  -11.180;  708.460
1148.500;    2.672;  -11.510;  669.720
1149.038;    2.734;  -11.640;  632.500
1149.577;    1.927;  -10.130;  698.640
1150.115;   -0.249;  -13.970;  452.280
1150.653;    1.410;  -14.520;  607.340
1151.192;    1.374;  -12.810;  552.920
1151.730;    1.488;   -9.100;  652.560
1152.268;    0.141;  -12.220;  589.520
1152.806;    0.448;  -14.140;  571.180
1153.344;   -0.645;  -12.350;  577.640
1153.882;    0.478;   -8.980;  600.060
1154.421;   -0.481;  -15.190;  470.620
1154.958;   -0.344;  -15.210;  595.240
1155.496;    1.783;  -12.850;  645.280
1156.034;   -0.118;   -9.940;  721.880
1156.572;    1.858;  -13.570;  667.060
1157.110;   -0.463;  -14.590;  473.940
1157.647;    1.425;  -13.030;  676.960
1158.185;   -0.469;  -12.140;  564.320
1158.723;   -1.052;  -14.390;  509.200
1159.260;    0.205;  -14.090;  701.700
1159.798;    0.515;  -11.920;  658.160
1160.335;    0.662;  -11.110;  631.820

