
Integration time [ms]:   3.276
Averaging Nr. [scans]: 1000
Smoothing Nr. [pixels]: 0
Data measured with spectrometer [name]: 7414430SP
Wave   ;Sample   ;Dark     ;Reference
[nm]   ;[counts] ;[counts] ;[counts] 

288.544;  149.721;    7.793;  793.890
289.143;  153.755;    7.462;  681.602
289.742;  153.131;    8.602;  828.814
290.341;  138.931;    1.321;  789.841
290.940;  127.841;   -0.709;  730.702
291.538;  129.082;    0.881;  881.108
292.137;  129.721;    0.122;  792.581
292.736;  134.051;   -1.929;  975.101
293.335;  129.749;   -8.229;  735.086
293.934;  130.293;   -5.279;  781.677
294.532;  128.230;   -1.369; 1031.958
295.131;  114.381;   -7.641;  834.394
295.730;  115.202;   -8.420;  809.588
296.328;  114.250;   -5.611;  783.442
296.927;  115.063;   -5.781;  779.652
297.525;  116.291;   -6.361;  781.236
298.124;  105.580;  -11.382;  654.009
298.722;  110.496;   -7.641;  761.933
299.321;  108.354;   -6.811;  708.597
299.919;  106.085;   -6.991;  751.918
300.518;  103.382;  -10.362;  689.338
301.116;  104.773;   -9.581;  691.381
301.715;  104.585;   -4.891;  730.222
302.313;  103.448;   -8.801;  704.943
302.911;   99.398;   -8.522;  733.830
303.509;  103.453;   -6.171;  925.627
304.108;  102.540;   -7.311;  760.383
304.706;  101.563;   -8.321;  801.664
305.304;   95.510;  -10.222;  796.707
305.902;  101.606;   -6.021;  784.484
306.500;   97.122;   -4.971;  728.200
307.098;   95.434;   -7.061;  746.560
307.696;   93.183;   -8.801;  780.432
308.294;   94.250;   -6.411;  731.359
308.892;   96.277;   -2.901;  759.769
309.490;   92.112;   -5.041;  712.161
310.088;   90.180;   -5.002;  788.444
310.686;   94.912;   -2.041;  821.749
311.284;   90.626;   -2.351;  766.040
311.882;   88.507;   -4.422;  731.225
312.480;   85.025;   -4.192;  697.167
313.078;   86.593;   -1.172;  808.331
313.675;   87.704;   -2.601;  691.600
314.273;   82.627;   -1.312;  797.837
314.871;   81.617;   -3.942;  589.829
315.468;   80.326;   -2.802;  652.090
316.066;   82.590;   -0.701;  694.427
316.664;   76.099;   -4.362;  656.351
317.261;   79.614;   -2.872;  910.128
317.859;   75.354;   -2.022;  768.735
318.456;   75.925;   -0.531;  830.096
319.054;   71.526;   -3.912;  787.828
319.651;   71.025;   -4.752;  759.928
320.249;   69.371;   -2.602;  810.188
320.846;   66.939;   -0.821;  714.286
321.443;   64.813;   -4.642;  832.135
322.041;   62.074;   -5.002;  812.315
322.638;   59.282;   -3.982;  701.456
323.235;   60.999;   -3.411;  665.683
323.833;   58.053;   -7.361;  740.354
324.430;   54.124;   -8.611;  615.900
325.027;   54.757;   -4.061;  876.855
325.624;   54.819;   -4.031;  644.532
326.221;   51.660;   -7.481;  689.717
326.818;   50.262;   -5.281;  818.332
327.415;   55.192;   -7.460;  748.828
328.012;   54.125;   -5.510;  690.585
328.609;   52.979;   -7.880;  731.389
329.206;   50.824;   -8.331;  778.621
329.803;   50.567;   -5.121;  737.841
330.400;   53.458;   -4.510;  704.260
330.997;   54.938;   -6.441;  817.147
331.594;   53.653;   -8.831;  788.185
332.191;   59.263;   -7.621;  728.722
332.787;   61.035;   -4.591;  844.463
333.384;   60.271;   -7.412;  763.093
333.981;   58.710;   -8.293;  815.687
334.578;   61.249;   -7.052;  708.378
335.174;   65.076;   -3.102;  731.469
335.771;   64.008;   -5.943;  836.456
336.367;   60.352;   -7.393;  710.631
336.964;   63.329;   -4.063;  793.266
337.561;   62.981;   -3.813;  731.112
338.157;   58.024;   -4.654;  911.916
338.754;   55.437;   -7.934;  796.589
339.350;   53.967;   -4.414;  722.493
339.946;   55.601;   -4.664;  773.135
340.543;   47.883;   -6.375;  846.136
341.139;   42.072;   -9.815;  720.836
341.735;   40.788;   -4.526;  772.593
342.332;   39.261;   -4.895;  691.472
342.928;   39.349;   -4.295;  795.394
343.524;   34.151;   -5.476;  761.684
344.120;   31.182;   -5.856;  738.562
344.716;   33.183;   -2.155;  723.717
345.313;   31.331;   -6.275;  795.342
345.909;   26.518;   -8.815;  627.336
346.505;   28.024;   -5.305;  740.247
347.101;   28.294;   -2.674;  827.864
347.697;   28.274;   -4.344;  785.398
348.293;   23.074;   -9.975;  627.244
348.889;   24.301;   -5.774;  745.914
349.485;   23.843;   -5.004;  688.205
350.081;   24.080;   -4.704;  772.592
350.676;   19.663;   -6.635;  691.606
351.272;   23.663;   -4.504;  809.530
351.868;   23.205;   -3.914;  780.497
352.464;   20.120;   -9.044;  723.932
353.059;   16.907;   -8.314;  646.017
353.655;   20.536;   -7.024;  777.063
354.251;   21.639;   -5.343;  759.845
354.846;   16.148;   -8.604;  740.646
355.442;   13.379;   -6.945;  753.071
356.038;   16.014;   -7.564;  751.708
356.633;   16.055;   -5.814;  728.594
357.229;   13.899;   -7.364;  724.757
357.824;   11.511;   -8.024;  703.600
358.420;   11.460;   -9.384;  679.726
359.015;   11.858;   -5.104;  695.357
359.610;   12.466;   -6.854;  763.920
360.206;    6.950;  -10.185;  603.240
360.801;    9.617;   -7.054;  646.503
361.396;   12.274;   -5.034;  725.975
361.992;    7.479;   -8.284;  668.220
362.587;    4.324;   -8.625;  670.160
363.182;    6.844;   -7.674;  689.631
363.777;    7.227;   -5.164;  738.242
364.372;    7.334;   -8.604;  737.314
364.967;    3.258;   -9.055;  680.744
365.563;    7.833;   -6.114;  815.567
366.158;    5.330;   -5.814;  685.161
366.753;    5.338;   -7.854;  649.263
367.348;    3.368;   -7.804;  746.056
367.942;    3.599;   -7.954;  697.298
368.537;    2.969;   -4.984;  754.245
369.132;    3.403;   -8.564;  703.428
369.727;   -1.397;   -8.855;  638.079
370.322;    1.029;   -6.245;  580.186
370.917;    0.205;   -6.425;  710.646
371.511;    2.466;   -6.294;  861.834
372.106;   -0.520;   -7.685;  776.964
372.701;   -3.144;   -7.335;  585.988
373.296;    2.238;   -4.564;  863.135
373.890;   -2.288;  -10.235;  647.840
374.485;   -5.488;   -7.885;  691.199
375.079;   -0.871;   -7.324;  738.685
375.674;    0.352;   -3.494;  812.970
376.268;   -4.300;   -8.525;  691.759
376.863;   -9.998;  -10.086;  580.327
377.457;   -3.928;   -7.025;  662.490
378.052;   -5.474;   -3.585;  764.884
378.646;   -6.676;   -7.595;  741.167
379.240;   -5.919;   -8.335;  721.176
379.835;   -5.649;   -5.785;  636.978
380.429;   -7.450;   -4.335;  562.557
381.023;   -7.522;   -6.805;  779.205
381.617;   -9.610;   -9.195;  680.106
382.212;   -6.242;   -6.905;  685.303
382.806;   -5.727;   -3.745;  760.690
383.400;   -9.959;   -7.745;  672.281
383.994;  -10.567;   -9.765;  664.870
384.588;   -6.724;   -6.564;  697.701
385.182;   -5.096;   -5.344;  726.624
385.776;   -6.859;   -8.514;  706.875
386.370;  -10.635;   -9.555;  681.968
386.964;   -8.862;   -8.715;  684.155
387.558;   -7.002;   -6.174;  598.360
388.152;  -10.422;   -8.725;  681.959
388.745;   -8.840;   -7.965;  814.707
389.339;   -7.503;   -5.924;  747.642
389.933;   -6.306;   -5.524;  695.370
390.527;   -7.235;   -7.114;  859.029
391.120;  -13.343;  -10.725;  595.318
391.714;   -9.911;   -8.035;  711.633
392.308;   -7.324;   -3.574;  780.253
392.901;  -10.967;   -7.245;  642.460
393.495;  -13.294;   -9.285;  595.414
394.089;  -10.066;   -5.895;  760.452
394.682;  -11.332;   -4.295;  697.188
395.275;  -11.422;   -9.875;  719.927
395.869;  -12.917;   -8.485;  667.314
396.462;  -11.080;   -7.455;  616.609
397.056;   -7.195;   -5.424;  776.621
397.649;  -12.456;   -6.605;  731.575
398.242;  -10.352;   -8.224;  712.645
398.836;   -9.166;   -7.474;  766.408
399.429;   -9.921;   -7.094;  631.041
400.022;  -13.378;   -9.475;  665.902
400.615;  -10.757;   -7.145;  805.609
401.208;   -8.538;   -7.174;  691.451
401.802;  -11.020;   -5.515;  699.329
402.395;  -12.086;   -9.875;  683.502
402.988;  -13.231;   -8.845;  696.627
403.581;   -9.626;   -8.874;  646.878
404.174;   -8.330;   -5.324;  686.568
404.767;  -11.249;   -9.575;  638.583
405.360;  -13.461;  -10.965;  621.445
405.953;   -7.545;   -8.764;  759.034
406.545;   -6.764;   -7.514;  725.342
407.138;  -11.367;  -10.025;  618.350
407.731;  -10.212;  -10.034;  613.303
408.324;   -6.026;   -9.374;  660.554
408.917;   -7.181;   -6.534;  681.864
409.509;   -9.102;   -8.004;  740.396
410.102;  -10.581;   -9.875;  643.948
410.695;   -4.926;   -8.604;  665.758
411.287;   -5.038;   -6.794;  599.821
411.880;   -7.092;   -9.334;  585.421
412.472;  -10.429;  -10.254;  613.092
413.065;   -6.619;   -6.714;  629.408
413.657;   -5.727;   -7.234;  576.678
414.250;   -4.944;  -10.544;  646.681
414.842;   -6.643;   -9.744;  676.353
415.434;   -3.687;   -6.994;  570.463
416.027;   -0.297;   -5.893;  652.196
416.619;   -2.152;   -7.264;  713.400
417.211;   -2.862;  -10.374;  599.352
417.804;    0.731;   -7.993;  628.499
418.396;   -2.808;   -7.234;  607.643
418.988;   -1.232;   -9.443;  659.238
419.580;   -4.540;  -10.724;  568.276
420.172;   -2.711;  -10.323;  536.196
420.764;    2.564;   -8.793;  672.482
421.356;    0.602;  -11.143;  636.898
421.948;    0.308;   -8.293;  677.661
422.540;    4.752;   -7.893;  680.027
423.132;    4.456;   -7.082;  600.641
423.724;    0.955;   -8.653;  561.267
424.316;    2.947;  -10.213;  621.345
424.908;    6.895;   -9.762;  591.517
425.500;    7.307;   -5.572;  647.978
426.092;    7.434;   -8.422;  648.268
426.683;    6.720;   -9.283;  684.836
427.275;    9.512;   -7.852;  641.471
427.867;   11.727;   -5.272;  668.948
428.458;   11.643;   -7.682;  732.344
429.050;   10.211;  -10.612;  680.749
429.642;   12.367;   -9.882;  743.124
430.233;   13.131;   -6.962;  569.356
430.825;   13.822;   -6.842;  724.809
431.416;   12.150;   -9.672;  698.241
432.008;   15.506;   -6.552;  651.723
432.599;   15.801;   -6.891;  656.073
433.190;   12.865;  -10.912;  637.670
433.782;   12.323;  -11.172;  590.395
434.373;   19.300;   -6.061;  884.765
434.964;   18.546;   -8.251;  602.920
435.556;   16.043;   -9.722;  634.537
436.147;   19.207;   -9.082;  758.490
436.738;   19.324;   -8.041;  701.099
437.329;   25.038;   -7.341;  721.723
437.920;   17.632;   -8.162;  666.688
438.511;   16.759;  -11.802;  564.526
439.103;   24.415;  -10.191;  623.998
439.694;   25.911;   -7.601;  681.583
440.285;   26.069;   -8.541;  764.432
440.876;   24.106;   -9.751;  845.738
441.466;   24.461;   -9.401;  575.162
442.057;   29.801;   -7.760;  665.814
442.648;   28.596;   -9.971;  746.255
443.239;   26.049;  -11.001;  620.477
443.830;   31.837;   -7.990;  704.958
444.421;   33.829;   -7.910;  655.474
445.011;   29.690;   -8.131;  693.619
445.602;   29.266;   -7.111;  743.126
446.193;   31.852;  -10.920;  488.117
446.783;   36.749;   -6.500;  640.397
447.374;   31.188;   -8.671;  692.759
447.964;   31.831;  -10.781;  713.770
448.555;   40.331;   -9.650;  822.742
449.145;   37.471;   -8.660;  662.853
449.736;   37.087;   -8.990;  803.179
450.326;   37.856;   -9.500;  713.626
450.917;   43.395;   -8.680;  675.324
451.507;   41.943;   -7.520;  600.661
452.097;   42.602;   -8.590;  746.267
452.688;   43.466;  -11.340;  742.160
453.278;   43.722;  -10.100;  566.840
453.868;   48.467;   -6.019;  793.550
454.458;   46.466;   -9.440;  651.141
455.048;   45.928;  -10.560;  711.783
455.639;   48.009;  -11.799;  567.096
456.229;   50.942;   -6.899;  710.694
456.819;   53.831;   -7.389;  751.158
457.409;   52.982;  -11.119;  773.993
457.999;   56.305;   -9.289;  737.505
458.589;   56.683;   -6.139;  686.606
459.179;   56.158;   -8.729;  717.658
459.769;   54.791;   -9.789;  627.099
460.358;   59.873;  -10.259;  797.262
460.948;   59.862;   -7.299;  689.503
461.538;   61.496;  -10.289;  660.677
462.128;   58.902;  -11.269;  664.934
462.717;   65.238;   -9.368;  710.326
463.307;   69.249;   -7.908;  705.846
463.897;   64.776;   -9.599;  656.942
464.486;   63.514;   -9.769;  837.128
465.076;   68.592;   -8.048;  733.776
465.666;   71.814;   -9.358;  652.900
466.255;   70.042;   -7.919;  785.651
466.845;   68.200;  -11.689;  666.749
467.434;   71.584;   -7.818;  725.873
468.023;   73.539;   -7.678;  658.357
468.613;   70.438;  -10.939;  713.946
469.202;   74.727;  -10.118;  646.507
469.791;   78.705;   -9.108;  737.811
470.381;   81.468;   -6.058;  742.813
470.970;   80.665;  -10.428;  711.099
471.559;   80.761;  -10.268;  733.291
472.148;   83.780;   -8.448;  675.737
472.738;   86.351;   -6.917;  765.466
473.327;   86.037;  -11.978;  637.529
473.916;   85.998;  -11.888;  737.446
474.505;   90.710;   -9.437;  751.703
475.094;   93.660;   -6.747;  806.570
475.683;   92.482;   -9.367;  797.699
476.272;   93.940;  -12.637;  730.632
476.861;   96.083;  -10.027;  706.754
477.449;  102.670;   -8.716;  728.487
478.038;   97.939;   -9.577;  692.513
478.627;   98.949;   -9.718;  714.852
479.216;  105.230;   -8.947;  769.441
479.805;  108.120;   -6.256;  783.375
480.393;  108.393;   -7.937; 1008.945
480.982;  107.367;   -7.717;  874.501
481.571;  113.271;   -9.266;  858.333
482.159;  114.625;   -7.636;  705.386
482.748;  114.263;   -9.667;  821.385
483.336;  119.308;  -10.376;  858.209
483.925;  120.163;   -7.147;  774.373
484.513;  127.255;   -7.996;  758.962
485.102;  124.230;  -10.027;  810.965
485.690;  132.169;  -10.446; 1011.050
486.278;  134.740;   -8.446;  979.329
486.867;  136.114;   -6.356;  809.662
487.455;  138.007;   -9.136;  898.229
488.043;  139.157;  -10.646;  748.361
488.631;  148.886;   -7.456; 1005.079
489.220;  152.831;   -6.636;  908.626
489.808;  153.366;  -11.036;  741.415
490.396;  161.899;  -10.246;  914.645
490.984;  169.362;   -8.556;  830.161
491.572;  180.730;   -5.886;  940.315
492.160;  187.460;   -9.486;  919.081
492.748;  201.835;  -10.976;  884.341
493.336;  228.260;   -8.776; 1019.693
493.924;  259.826;   -5.465;  958.077
494.512;  292.616;   -9.986; 1066.638
495.100;  335.589;  -10.636; 1103.280
495.687;  396.883;  -10.885; 1206.373
496.275;  470.178;   -8.126; 1150.796
496.863;  551.261;  -10.586; 1281.171
497.451;  667.367;  -11.926; 1386.805
498.038;  814.689;  -10.885; 1556.729
498.626;  941.260;   -6.315; 1741.407
499.214; 1113.442;   -7.326; 2016.609
499.801; 1334.329;  -11.906; 2220.633
500.389; 1628.714;  -10.466; 2312.494
500.976; 1975.920;   -5.236; 2744.849
501.564; 2478.860;   -8.936; 3148.565
502.151; 2894.489;  -13.176; 3515.999
502.738; 3388.740;  -10.646; 3971.274
503.326; 3837.039;   -9.525; 4403.796
503.913; 4278.817;  -10.856; 5161.749
504.500; 4685.394;  -11.586; 5986.420
505.088; 5156.255;  -10.336; 6381.201
505.675; 5747.895;   -6.355; 6925.547
506.262; 6550.725;   -9.046; 7619.060
506.849; 7331.246;  -10.416; 8733.969
507.436; 7846.940;  -10.305; 9790.121
508.023; 8495.007;   -5.496; 9985.472
508.610; 8818.716;   -7.856;10434.618
509.197; 9509.280;  -10.097;11198.435
509.784;11045.106;  -10.886;12391.194
510.371;12250.108;   -9.315;13603.713
510.958;13030.622;   -9.936;14426.586
511.545;13825.068;   -9.326;15243.775
512.132;14696.822;  -10.075;15945.876
512.719;15232.220;   -7.796;16340.369
513.305;16205.890;  -10.606;18011.766
513.892;17005.555;  -11.486;19754.971
514.479;18460.852;   -9.126;20967.805
515.066;20220.268;   -6.026;22299.793
515.652;21855.203;   -8.466;22908.660
516.239;23145.887;  -10.886;23798.875
516.825;23967.912;  -11.496;25567.275
517.412;24872.662;   -5.796;28154.959
517.998;25573.855;  -10.506;28344.111
518.585;25778.941;  -10.076;27134.219
519.171;26256.414;   -8.315;27268.576
519.758;27697.369;   -8.596;28964.129
520.344;29719.170;   -8.466;30664.494
520.930;29726.148;  -11.006;32550.605
521.516;30892.443;  -10.495;35422.895
522.103;33172.777;   -5.526;38280.004
522.689;33541.359;   -8.746;37835.117
523.275;33167.348;  -11.376;37288.613
523.861;34759.000;  -11.156;37281.395
524.447;36377.598;   -8.135;37846.949
525.033;36267.316;   -7.896;38321.949
525.619;36226.051;  -12.476;38579.285
526.205;37808.031;   -9.516;40622.875
526.791;40417.508;   -6.926;42258.836
527.377;40688.313;   -8.346;42966.902
527.963;42026.922;   -8.717;42018.949
528.549;40528.492;  -11.016;42476.828
529.135;39033.723;   -8.536;41854.852
529.721;38044.773;   -9.666;41237.711
530.306;37161.074;  -10.066;41259.445
530.892;36870.953;  -11.356;41506.047
531.478;38527.430;   -6.596;43559.613
532.063;41662.637;   -8.836;47695.563
532.649;42518.906;  -10.047;50808.324
533.235;43207.332;   -9.746;51787.500
533.820;43341.973;   -6.566;52145.035
534.406;44804.031;  -10.817;51133.488
534.991;44459.887;   -9.416;49996.805
535.576;42806.680;   -9.036;48882.852
536.162;43536.410;   -6.156;46942.285
536.747;44489.117;  -11.607;45711.746
537.333;47828.145;  -11.787;48510.180
537.918;51220.883;  -12.437;50439.891
538.503;50342.102;   -7.196;50863.711
539.088;46558.641;  -10.556;50906.922
539.673;46071.305;   -8.767;52621.965
540.259;46244.539;  -10.026;52368.094
540.844;43953.770;   -7.416;50879.109
541.429;45597.688;   -9.467;52077.777
542.014;48227.250;   -9.527;52716.695
542.599;47124.242;   -9.946;52363.281
543.184;44664.199;   -7.927;53187.137
543.769;46220.750;   -9.297;54697.605
544.354;45746.234;  -10.127;53913.914
544.938;44414.324;   -9.267;49680.164
545.523;46527.113;   -6.506;47386.277
546.108;49704.441;   -9.787;49151.949
546.693;51837.473;  -11.587;51384.637
547.278;51500.098;  -10.986;51853.254
547.862;48682.711;   -8.206;51173.750
548.447;44182.102;  -10.067;51691.395
549.031;43520.035;   -9.637;52456.703
549.616;48494.973;   -9.926;52714.516
550.201;47934.523;   -6.347;52414.598
550.785;49141.637;   -7.917;52355.059
551.370;48067.488;  -10.867;54589.453
551.954;47417.668;   -9.047;58267.348
552.538;48410.332;   -7.827;59062.176
553.123;46674.699;  -10.287;58115.285
553.707;44033.625;  -12.178;56556.285
554.291;45477.219;   -8.717;56201.668
554.876;48250.426;   -7.457;55335.762
555.460;48557.184;  -10.387;54155.703
556.044;49278.516;   -9.618;53721.484
556.628;48041.816;  -11.567;53731.016
557.212;47142.926;   -8.097;54312.531
557.796;45588.344;  -11.077;53797.773
558.380;45639.480;  -11.108;56145.984
558.964;45962.027;   -9.057;57277.930
559.548;47392.766;   -6.977;56459.641
560.132;45746.902;  -11.457;54434.543
560.716;43917.340;  -11.378;54800.617
561.300;44840.340;   -9.577;57606.945
561.884;46186.695;   -7.127;58972.445
562.467;44452.477;   -7.118;57327.570
563.051;44013.266;  -13.358;54962.434
563.635;45202.871;  -10.178;52594.473
564.219;45270.988;   -7.837;50610.410
564.802;46189.250;  -11.398;49551.180
565.386;46134.324;  -12.788;48370.953
565.969;45317.363;   -9.077;48178.871
566.553;44159.254;   -6.207;49957.305
567.136;45009.406;   -8.568;50369.594
567.720;41658.145;  -11.868;49492.004
568.303;39456.023;   -8.268;50616.352
568.887;39388.195;   -8.698;50727.148
569.470;39837.031;   -6.808;51698.379
570.053;38545.113;  -13.188;52122.078
570.637;36791.910;  -12.037;52536.438
571.220;36747.742;   -8.577;51186.098
571.803;37628.309;   -8.498;51032.762
572.386;39654.895;  -10.498;49609.887
572.969;42200.648;   -9.388;48285.926
573.552;40556.504;   -8.338;47624.285
574.135;39015.172;   -8.518;45498.641
574.718;36725.918;  -13.628;41970.434
575.301;35792.191;  -10.893;41447.137
575.884;34858.461;   -8.158;40923.836
576.467;36115.852;  -10.328;45267.723
577.050;37841.742;  -13.058;48175.543
577.633;39105.938;   -9.458;47729.328
578.216;38343.629;   -8.928;47579.793
578.799;37484.719;   -9.358;47820.996
579.381;36421.770;  -11.388;48115.551
579.964;34478.957;  -11.718;47333.766
580.547;36199.852;   -8.588;46668.969
581.129;37384.156;   -8.859;44466.141
581.712;38331.344;  -10.729;44164.922
582.294;39052.297;  -11.118;46477.855
582.877;38788.805;   -5.218;48244.254
583.459;36502.285;   -8.679;47437.895
584.042;34509.293;  -10.709;46943.219
584.624;34802.172;  -11.669;46792.227
585.206;34320.445;   -8.218;46557.250
585.789;34148.410;  -10.569;45793.773
586.371;37104.070;  -11.859;43836.391
586.953;37765.539;  -10.719;42972.492
587.536;39054.727;   -7.198;42487.211
588.118;39538.094;   -8.720;42086.414
588.700;35547.715;  -10.439;43389.930
589.282;34374.094;   -9.198;43646.039
589.864;35358.555;   -9.199;43438.109
590.446;36557.746;  -11.319;43151.926
591.028;36608.938;  -11.159;42781.867
591.610;35395.801;  -11.779;42839.098
592.192;32531.182;   -7.668;42820.402
592.774;30987.547;  -11.949;40724.277
593.356;29558.328;  -12.129;39874.789
593.937;28483.301;  -10.669;39980.648
594.519;30638.219;   -6.509;42069.633
595.101;32784.012;  -10.849;42976.031
595.683;32996.164;  -11.679;44084.441
596.264;34175.578;   -9.049;43478.797
596.846;33821.551;   -8.849;43803.672
597.427;33909.746;   -9.570;42986.934
598.009;35636.816;  -12.620;42832.219
598.591;35972.359;  -10.039;42580.086
599.172;35246.129;  -10.369;43061.805
599.753;35504.090;   -9.140;41691.469
600.335;37074.770;  -11.430;40692.520
600.916;34956.160;   -9.939;39982.422
601.498;32154.738;   -8.479;40318.617
602.079;30593.592;  -10.920;40670.609
602.660;30381.879;  -11.480;41450.898
603.241;32182.809;  -11.699;41137.738
603.823;30961.691;   -9.579;38868.797
604.404;29881.543;  -10.620;38182.785
604.985;31561.279;  -10.450;38078.047
605.566;31773.268;   -9.129;38056.633
606.147;32001.701;   -7.510;37020.418
606.728;33465.293;  -10.660;37883.359
607.309;32076.238;  -11.740;38748.273
607.890;31688.818;   -9.759;38850.230
608.471;31139.652;   -8.250;37457.918
609.051;30202.049;   -9.240;36066.457
609.632;28927.723;  -12.120;35991.074
610.213;29539.391;   -9.110;37402.641
610.794;30276.482;   -8.030;38383.363
611.374;29902.641;   -8.110;40562.387
611.955;30693.676;  -13.560;38533.727
612.536;32085.760;  -11.400;36951.789
613.116;31767.240;   -8.070;37197.891
613.697;32098.949;  -10.830;38411.125
614.277;30378.744;  -11.641;38673.938
614.858;31314.863;  -13.310;37075.863
615.438;30457.172;   -7.460;35092.906
616.019;27907.219;   -7.601;33666.301
616.599;28587.381;  -12.020;34189.023
617.179;30513.045;  -11.780;36952.047
617.760;31628.695;   -8.570;39582.574
618.340;32641.930;  -11.471;38943.977
618.920;33859.254;  -11.170;37594.156
619.500;33439.738;  -11.071;37866.938
620.080;32247.574;   -7.750;37869.043
620.660;33422.383;  -12.711;36868.617
621.241;34740.582;  -10.211;36352.309
621.821;35183.945;  -10.961;35459.520
622.401;34338.680;   -7.720;35207.414
622.980;33665.367;   -8.981;35980.422
623.560;32142.229;   -9.331;37351.328
624.140;30657.811;   -9.850;34388.582
624.720;25606.602;   -7.451;32368.764
625.300;22126.205;   -9.070;32638.629
625.880;25452.424;  -12.601;34599.035
626.459;29298.756;  -11.751;36831.738
627.039;32326.607;   -9.281;38299.098
627.619;32240.412;   -8.801;38289.574
628.198;30791.959;  -12.071;37220.695
628.778;29927.188;   -9.461;37632.563
629.357;30387.947;   -8.491;38003.012
629.937;30247.945;   -9.721;38402.039
630.516;29948.893;   -9.951;37868.801
631.096;29829.434;  -11.731;35760.410
631.675;31983.217;   -8.572;35225.219
632.254;37009.207;  -11.282;35130.289
632.834;36520.922;  -13.322;35794.570
633.413;34716.609;  -10.301;35788.922
633.992;32267.281;   -8.582;34532.863
634.571;33117.984;   -8.352;33590.113
635.151;36263.164;  -11.912;34943.863
635.730;34452.375;  -10.511;35352.523
636.309;30792.668;   -7.731;35366.605
636.888;28120.270;   -9.952;36165.637
637.467;28585.422;  -11.672;37515.902
638.046;30218.326;   -8.901;39288.695
638.625;33341.875;   -7.912;38279.699
639.204;33105.223;  -10.022;37741.598
639.782;31688.365;  -12.252;38364.551
640.361;28147.594;  -10.041;36740.621
640.940;25427.076;  -11.161;34950.082
641.519;26255.873;   -9.701;34137.398
642.097;28885.109;  -11.271;35654.258
642.676;31518.385;   -8.651;35637.957
643.255;32364.891;   -8.711;36567.074
643.833;31661.242;   -9.581;37809.434
644.412;31581.045;  -13.711;37337.293
644.990;30510.693;  -11.811;37018.531
645.569;30173.990;   -9.411;36518.469
646.147;29221.840;  -10.291;36186.430
646.726;29383.061;  -12.401;36267.688
647.304;30741.336;  -10.411;36647.625
647.882;32270.629;   -9.651;39286.742
648.461;33642.418;   -9.631;39157.703
649.039;32085.168;  -11.881;35412.883
649.617;31556.773;   -9.661;34744.918
650.195;31032.814;   -9.301;35403.098
650.773;29657.236;  -10.511;35053.797
651.352;27096.344;  -11.521;33756.816
651.930;24749.652;  -12.211;31868.773
652.508;23396.816;   -9.171;33121.551
653.086;27305.936;   -9.371;33564.793
653.663;30221.043;  -13.161;34054.668
654.241;28846.920;  -13.031;35693.309
654.819;30370.676;   -9.371;36422.906
655.397;30472.795;  -10.511;38213.484
655.975;29977.053;  -10.371;39507.625
656.553;29967.424;  -10.051;39498.223
657.130;28430.301;  -10.061;40395.480
657.708;27557.184;   -9.561;39242.020
658.286;27637.852;  -11.511;38920.020
658.863;29069.223;  -10.261;40202.898
659.441;32141.141;   -7.531;39677.938
660.018;31716.508;   -9.501;40413.355
660.596;30516.959;  -13.301;39931.414
661.173;32246.324;  -11.211;39604.531
661.750;32188.867;   -9.951;39700.070
662.328;30652.197;   -9.390;39292.809
662.905;30085.258;  -11.330;38235.648
663.482;26356.879;   -9.050;36212.305
664.060;24558.162;   -8.240;35944.945
664.637;27116.107;  -10.050;35170.785
665.214;28837.619;  -11.760;34197.523
665.791;30596.461;  -10.530;34549.520
666.368;29490.262;   -9.690;35118.578
666.945;29863.752;   -9.320;36019.418
667.522;31403.678;  -11.860;36048.438
668.099;31064.426;  -10.770;36243.914
668.676;29832.217;   -6.260;35958.875
669.253;28719.420;   -7.000;37384.730
669.830;29411.344;  -10.190;36779.629
670.407;29054.088;   -9.550;35231.289
670.984;28664.018;   -9.260;35544.270
671.560;29392.936;   -9.280;35466.867
672.137;28988.416;  -11.810;34280.863
672.714;29855.264;  -11.490;34632.863
673.290;30388.457;   -7.740;35135.422
673.867;30505.020;  -10.660;36114.480
674.443;30470.795;  -12.230;36152.859
675.020;28799.246;  -10.450;35327.238
675.596;29801.715;   -9.260;35795.176
676.173;30209.053;  -10.780;35430.355
676.749;29953.391;  -13.690;33549.516
677.326;29944.965;  -11.980;32210.012
677.902;29898.580;   -8.630;32068.871
678.478;29243.221;  -10.730;32583.891
679.054;28483.436;  -10.520;32088.928
679.631;28750.930;  -11.920;30978.848
680.207;30350.174;   -7.490;33160.887
680.783;31871.307;   -9.860;35570.363
681.359;31000.301;  -13.380;36125.184
681.935;30514.912;  -12.480;35240.922
682.511;29937.152;   -7.900;34429.961
683.087;30066.244;   -7.710;34463.680
683.663;29399.730;  -11.480;34648.898
684.239;28111.078;  -14.090;34546.457
684.815;27813.912;   -7.560;35586.375
685.390;28200.850;   -9.910;35821.895
685.966;28752.365;  -11.159;35085.871
686.542;31139.895;  -11.169;34198.230
687.118;33521.770;   -5.959;32847.707
687.693;33847.203;  -10.329;32794.027
688.269;33422.113;  -12.059;33072.367
688.844;31591.531;  -10.909;33141.664
689.420;29541.256;   -8.019;33965.742
689.995;27387.117;   -8.399;34655.523
690.571;25921.936;  -10.949;33576.742
691.146;26216.854;   -9.619;32657.219
691.722;25833.621;   -8.999;32526.979
692.297;25383.248;  -11.589;33014.617
692.872;27012.674;  -11.739;34012.254
693.448;26794.121;  -11.059;34237.434
694.023;25892.133;  -10.139;34142.672
694.598;27637.701;   -9.029;34132.031
695.173;28093.393;  -13.319;34205.250
695.748;27296.789;  -10.169;32882.488
696.323;27663.676;   -8.339;32864.906
696.898;28001.836;   -8.169;33170.004
697.473;28001.191;  -12.309;32432.984
698.048;27452.457;  -10.989;31649.303
698.623;27137.871;   -9.329;30778.141
699.198;28928.082;   -9.849;31140.119
699.773;29988.613;  -12.329;31764.299
700.348;28305.219;  -10.389;31780.816
700.922;28366.494;   -9.269;32046.375
701.497;29476.721;   -9.329;32603.574
702.072;29768.777;  -10.789;34799.871
702.646;28185.984;  -10.839;35793.172
703.221;25972.834;   -9.099;35201.590
703.795;28020.117;  -10.939;34764.527
704.370;28463.244;  -12.859;34307.367
704.944;28956.867;  -11.559;33509.887
705.519;29757.883;   -7.939;31388.584
706.093;31120.166;  -10.499;31340.104
706.668;31648.713;  -11.289;32630.281
707.242;30399.943;  -11.509;32728.779
707.816;28769.957;   -9.639;32947.238
708.390;27448.918;  -11.429;33277.855
708.965;27842.553;  -11.869;33834.336
709.539;27598.260;  -11.689;33709.273
710.113;27993.908;  -10.478;33044.313
710.687;27625.852;  -10.228;31953.992
711.261;26186.848;  -13.698;30505.949
711.835;25914.043;  -13.378;30262.369
712.409;26491.797;   -9.698;31254.447
712.983;28398.902;  -11.898;32754.986
713.557;29406.006;  -15.138;34018.824
714.131;29091.434;  -14.098;34579.625
714.704;28027.850;   -9.958;33890.262
715.278;25673.873;  -10.028;33531.102
715.852;24520.859;  -11.148;33601.660
716.425;25279.438;   -9.068;33515.117
716.999;26190.756;  -10.038;33185.555
717.573;27253.965;   -9.798;33905.996
718.146;28327.258;  -12.378;35199.293
718.720;28503.922;  -11.918;35060.551
719.293;28110.504;   -8.088;34973.230
719.867;30927.400;  -10.888;36394.449
720.440;30671.461;  -11.938;36663.008
721.013;29167.051;  -12.818;35102.426
721.587;27603.814;  -10.298;33985.266
722.160;26443.537;  -10.048;33524.965
722.733;25392.693;  -12.108;32987.043
723.306;25536.816;  -10.818;33066.301
723.880;28045.119;   -8.908;33399.500
724.453;30440.570;   -9.878;33468.297
725.026;29592.369;  -11.188;33816.637
725.599;26596.596;  -11.678;32797.996
726.172;26588.555;   -9.618;33187.434
726.745;27513.969;   -8.258;35136.613
727.318;28790.352;  -12.978;35751.730
727.891;29616.373;  -12.148;35890.430
728.463;29510.535;   -8.968;34822.090
729.036;28426.455;  -10.188;32895.086
729.609;28818.471;  -11.788;31823.225
730.182;25818.963;  -11.788;31445.283
730.754;23354.941;  -10.268;32373.223
731.327;23410.313;   -9.998;33676.820
731.900;23530.090;  -12.228;33417.000
732.472;24731.830;  -13.848;31978.498
733.045;26720.971;   -8.698;30368.777
733.617;26773.260;  -10.607;30574.215
734.190;26576.332;  -11.507;31280.975
734.762;24055.146;  -13.647;31674.412
735.334;22216.041;   -9.767;31247.291
735.907;22740.836;   -9.897;29876.211
736.479;22946.936;  -11.637;29808.488
737.051;22687.268;   -9.567;30233.547
737.623;23577.102;   -8.187;31469.086
738.195;24104.488;  -11.187;31784.225
738.768;25772.176;  -12.337;32120.523
739.340;26299.898;  -12.227;32094.342
739.912;25399.402;  -11.057;31312.680
740.484;23918.162;  -10.207;31946.238
741.056;22635.240;  -10.047;32984.059
741.628;24292.918;  -13.627;33897.715
742.199;26352.035;   -7.177;33213.016
742.771;24760.629;  -10.797;31369.113
743.343;22587.625;  -11.997;31865.473
743.915;21534.180;  -12.867;32388.631
744.487;21555.133;   -7.617;31079.568
745.058;21848.736;   -9.557;30570.107
745.630;22377.359;   -9.877;29970.127
746.201;23377.631;  -14.177;29186.766
746.773;24078.580;   -9.237;28805.723
747.344;23911.811;   -9.847;29591.223
747.916;22263.727;  -11.657;31412.201
748.487;22337.369;  -10.587;32194.898
749.059;23422.201;   -8.707;32533.719
749.630;23938.266;  -10.537;32158.518
750.201;22750.482;  -11.687;30855.395
750.773;21070.857;  -11.647;28622.555
751.344;21020.758;   -7.147;28405.732
751.915;22292.715;   -9.757;28461.551
752.486;22474.740;  -12.427;27842.850
753.057;20270.020;  -12.227;27845.008
753.628;18983.797;  -10.417;27728.107
754.199;20023.951;  -11.767;27381.086
754.770;21083.125;  -11.187;25882.203
755.341;21127.822;  -10.507;25886.184
755.912;21202.752;   -9.387;26050.861
756.483;20790.035;  -10.647;26798.779
757.054;19073.186;  -11.837;27048.238
757.625;17805.754;  -12.716;26294.838
758.195;17347.318;   -9.666;26142.076
758.766;16952.813;   -8.656;26392.234
759.337;17778.215;  -12.856;26334.594
759.907;19380.387;  -13.366;27579.652
760.478;20304.275;   -8.576;28352.770
761.048;19820.848;  -10.526;27325.088
761.619;19034.727;  -11.116;26460.428
762.189;18969.807;  -12.136;26029.826
762.760;19826.490;   -9.456;26430.145
763.330;20945.385;   -7.136;26670.902
763.900;20489.027;  -11.786;26603.021
764.471;18101.545;  -11.546;25542.740
765.041;16921.787;   -8.096;24358.459
765.611;16926.900;   -8.876;23991.297
766.181;17257.887;  -12.196;24470.236
766.751;18147.189;  -11.636;24845.975
767.321;17968.035;  -10.156;24533.633
767.891;16228.455;  -11.766;24916.492
768.461;15703.460;  -14.936;24776.771
769.031;16166.623;  -12.356;24757.988
769.601;17730.631;   -7.526;24181.088
770.171;17560.568;  -10.766;23670.387
770.741;16659.051;  -13.176;22960.045
771.311;16668.557;  -10.616;22917.523
771.880;17062.979;   -9.576;23562.941
772.450;16765.064;  -10.336;24216.500
773.020;16621.980;  -13.516;24140.398
773.589;15873.198;  -13.466;24414.857
774.159;15279.215;   -8.686;23858.717
774.729;15039.008;   -9.476;22942.135
775.298;14672.363;  -13.666;22324.033
775.867;14309.234;  -11.716;21140.313
776.437;14427.950;   -9.906;20838.092
777.006;14263.061;  -12.166;20599.510
777.576;14067.829;  -12.356;20508.809
778.145;14048.710;  -11.646;20732.947
778.714;13909.908;   -8.226;21062.465
779.283;13217.258;   -9.556;20949.664
779.853;12698.088;  -14.116;20508.623
780.422;13117.852;  -11.506;20649.082
780.991;12705.945;   -9.556;21527.520
781.560;11590.932;   -9.095;22632.658
782.129;11465.405;  -12.135;23048.277
782.698;11560.004;  -10.865;23438.555
783.267;11190.598;   -9.335;23267.734
783.836;11093.559;  -11.045;22415.133
784.404;12029.104;  -13.865;20443.152
784.973;12607.177;  -13.095;19699.150
785.542;12496.038;  -11.575;19763.828
786.111;12276.463;   -9.705;20341.408
786.679;11818.147;  -12.105;20207.967
787.248;11557.132;  -12.455;19516.465
787.817;11395.414;  -11.535;18900.363
788.385;11058.831;   -9.765;17879.121
788.954;10536.925;  -14.005;17658.301
789.522;10025.853;  -11.955;17788.879
790.090;10566.115;  -10.135;18118.277
790.659;10973.194;  -10.975;18338.736
791.227;10499.948;  -13.375;18508.615
791.795;10886.083;  -12.375;17898.254
792.364;11257.380;  -10.725;17295.133
792.932;11610.743;   -9.715;16822.051
793.500;11707.274;  -12.675;17040.148
794.068;11816.060;  -13.495;17179.787
794.636;11944.606;  -10.885;16664.246
795.204;11367.087;  -11.045;16524.545
795.772;11408.780;  -13.175;17274.564
796.340;10991.452;  -12.445;17891.002
796.908;10816.504;   -9.735;17648.561
797.476;10689.955;   -9.815;17064.080
798.044;10283.775;  -13.985;16672.777
798.612; 9503.727;  -13.115;17023.996
799.180; 9142.934;  -10.185;16561.615
799.747; 9091.470;   -9.055;15962.773
800.315; 8812.147;  -12.385;15296.992
800.883; 8502.038;  -15.035;14801.771
801.450; 8515.928;  -10.365;14534.430
802.018; 8569.088;   -9.855;14173.248
802.585; 8705.145;  -11.905;14029.547
803.153; 8719.219;  -11.585;13836.846
803.720; 8502.962;   -9.095;13567.324
804.287; 8084.978;   -9.135;13360.622
804.855; 7694.693;  -11.604;13681.981
805.422; 7572.231;  -11.794;13536.560
805.989; 7576.006;  -10.734;13355.958
806.556; 7661.694;  -10.444;13747.896
807.124; 7827.600;  -12.764;13987.376
807.691; 7804.343;  -12.964;14038.674
808.258; 7658.774;  -11.134;14120.152
808.825; 7432.315;   -9.854;13860.111
809.392; 7481.266;  -10.504;13268.790
809.959; 6968.670;  -13.054;12680.389
810.526; 6535.044;   -8.294;12427.308
811.093; 6609.300;   -8.394;12030.105
811.659; 7257.064;  -12.304;11653.664
812.226; 7767.504;  -13.944;11637.183
812.793; 7510.691;  -10.484;11611.521
813.360; 6935.181;  -10.144;11885.181
813.926; 6653.197;  -11.684;12770.539
814.493; 6432.370;  -13.644;12677.638
815.060; 6031.857;   -9.724;11974.336
815.626; 6000.935;   -9.854;11594.715
816.193; 6356.687;  -13.254;11579.474
816.759; 6385.154;  -13.204;11666.972
817.325; 6466.534;   -9.434;11325.530
817.892; 6831.750;  -10.134;11105.369
818.458; 7214.688;  -13.474;10843.928
819.024; 6864.608;  -11.854;10714.406
819.591; 6584.281;  -10.244;10469.165
820.157; 6363.845;  -10.704;10235.523
820.723; 5864.819;  -12.324;10847.563
821.289; 5574.991;   -9.444;11040.980
821.855; 5526.223;   -8.374;10357.100
822.421; 5575.500;  -10.234; 9978.918
822.987; 5619.978;  -13.294; 9754.177
823.553; 5304.501;  -10.884;10065.755
824.119; 5107.640;   -8.884;10036.294
824.685; 5192.236;   -6.784;10029.192
825.251; 5291.383;  -12.004;10199.230
825.816; 5272.149;  -11.474; 9820.189
826.382; 5051.775;   -9.174; 9297.248
826.948; 5230.583;   -9.214; 9381.347
827.513; 5630.758;  -10.774; 9450.726
828.079; 5503.532;  -11.924; 9472.444
828.645; 4935.013;  -10.543; 9292.643
829.210; 4795.919;  -10.533; 9065.341
829.776; 4776.281;  -10.753; 9132.620
830.341; 4694.307;  -10.173; 9092.878
830.906; 4910.182;  -10.743; 9078.557
831.472; 5277.406;  -11.113; 8534.535
832.037; 5064.715;  -10.603; 8677.874
832.602; 4550.433;  -13.323; 8628.692
833.167; 4280.053;  -10.823; 8879.031
833.733; 4219.982;  -10.113; 9189.790
834.298; 4392.555;  -13.583; 9052.608
834.863; 4514.719;  -12.703; 8895.087
835.428; 4509.000;  -10.523; 8824.266
835.993; 4346.537;   -6.963; 8845.385
836.558; 4162.949;  -10.763; 8888.563
837.123; 4286.654;   -9.903; 8966.582
837.688; 4543.563;   -9.913; 8617.860
838.253; 4828.936;  -10.283; 8590.699
838.817; 5037.520;  -12.963; 8443.797
839.382; 4941.541;  -14.243; 8799.356
839.947; 4634.412;  -10.733; 8810.595
840.511; 4344.340;   -9.383; 8796.394
841.076; 3987.035;  -12.563; 8347.231
841.641; 4048.986;  -12.953; 8224.330
842.205; 4146.188;   -7.043; 8223.349
842.770; 4241.293;   -8.163; 8622.107
843.334; 4386.214;  -12.503; 8410.386
843.898; 4299.032;  -11.693; 8337.465
844.463; 4303.689;  -10.203; 8506.283
845.027; 4077.366;   -9.533; 8280.962
845.591; 3907.208;  -13.443; 8231.141
846.156; 3912.750;  -13.143; 7969.179
846.720; 3808.901;   -9.433; 7768.278
847.284; 3703.421;  -11.033; 7630.957
847.848; 3592.343;  -10.403; 7472.395
848.412; 3504.745;  -11.553; 7437.394
848.976; 3544.813;   -8.393; 7674.592
849.540; 3463.163;   -8.713; 7836.011
850.104; 3584.701;  -12.463; 7913.669
850.668; 3948.241;  -12.973; 7694.508
851.232; 4042.408;  -10.793; 7756.887
851.796; 3873.058;  -10.662; 7926.545
852.359; 3571.719;  -13.082; 7827.844
852.923; 3381.819;  -12.192; 7641.163
853.487; 3185.218;  -11.912; 7342.501
854.050; 3144.585;  -10.892; 7042.820
854.614; 3299.642;  -13.992; 7151.338
855.177; 3431.422;  -11.732; 7105.077
855.741; 3457.281;   -8.962; 6989.675
856.304; 3308.598;   -9.442; 6596.634
856.868; 3241.382;  -14.192; 6356.272
857.431; 3317.394;  -12.702; 6468.571
857.995; 3419.210;   -9.942; 6373.210
858.558; 3419.229;   -9.112; 6324.448
859.121; 3140.271;  -12.932; 6408.327
859.684; 3003.469;  -13.442; 6347.886
860.247; 3110.129;  -10.632; 6321.264
860.810; 3118.666;  -11.272; 6301.903
861.374; 2858.528;   -9.832; 6607.881
861.937; 2599.278;  -11.762; 6408.200
862.500; 2590.856;   -9.722; 6572.639
863.062; 2761.134;  -10.512; 6387.297
863.625; 2922.807;  -11.232; 6190.836
864.188; 3059.549;  -14.112; 5807.254
864.751; 3097.514;  -11.302; 5682.413
865.314; 2975.297;  -10.112; 5547.492
865.876; 2757.533;  -12.182; 5500.150
866.439; 2735.444;  -10.722; 5415.909
867.002; 2683.702;   -9.252; 5501.567
867.564; 2499.498;   -9.572; 5413.946
868.127; 2293.196;  -13.142; 5160.325
868.689; 2199.616;  -12.902; 5133.183
869.252; 2108.086;   -9.732; 5252.382
869.814; 2019.266;   -9.432; 5297.141
870.377; 2020.432;  -11.552; 5390.919
870.939; 2074.167;   -9.052; 5599.898
871.501; 2124.998;  -10.982; 5248.336
872.063; 2124.860;  -12.292; 4854.235
872.626; 2082.243;  -14.912; 4817.074
873.188; 2103.790;  -13.112; 4987.732
873.750; 2071.318;  -13.442; 4868.651
874.312; 1970.920;   -9.402; 4779.330
874.874; 1885.105;  -11.062; 4866.348
875.436; 1806.591;  -13.931; 4718.887
875.998; 1801.506;   -9.561; 4660.005
876.560; 1830.984;  -11.321; 4462.964
877.122; 1772.967;  -12.221; 4145.042
877.683; 1684.979;  -12.191; 4056.481
878.245; 1623.451;  -12.101; 3950.740
878.807; 1668.213;   -8.971; 4058.958
879.369; 1690.638;  -12.071; 3954.677
879.930; 1592.394;  -14.621; 3941.495
880.492; 1527.311;  -10.311; 4067.014
881.053; 1497.769;  -10.901; 3859.633
881.615; 1409.767;  -14.411; 3776.071
882.176; 1315.921;  -13.761; 3734.750
882.738; 1269.535;   -9.181; 3678.489
883.299; 1245.850;  -11.791; 3405.407
883.860; 1246.636;  -13.121; 3351.106
884.422; 1244.186;  -11.211; 3394.044
884.983; 1199.662;  -10.091; 3166.443
885.544; 1128.095;   -8.461; 3189.802
886.105; 1050.279;  -12.361; 3160.360
886.666;  987.320;  -14.141; 3093.059
887.227;  934.375;  -11.361; 2941.957
887.788;  875.651;  -11.401; 2974.836
888.349;  819.960;  -13.791; 2721.214
888.910;  817.121;  -13.191; 2696.493
889.471;  825.604;   -9.881; 2560.172
890.032;  808.299;   -9.881; 2558.190
890.593;  788.603;  -10.371; 2567.669
891.153;  762.980;  -13.301; 2460.307
891.714;  715.225;  -11.431; 2372.046
892.275;  681.345;  -11.291; 2309.505
892.835;  647.448;  -11.471; 2382.543
893.396;  600.251;  -11.541; 2295.502
893.956;  547.291;  -11.181; 2162.420
894.517;  510.968;  -11.741; 2125.439
895.077;  505.302;  -11.671; 2086.978
895.638;  503.639;  -11.311; 2126.316
896.198;  475.927;   -9.831; 1838.275
896.758;  434.043;   -8.421; 1892.813
897.319;  405.426;  -12.351; 1792.232
897.879;  389.631;  -13.511; 1762.751
898.439;  363.927;  -12.001; 1661.149
898.999;  341.722;  -10.180; 1781.468
899.559;  333.959;  -12.030; 1703.347
900.119;  330.003;  -15.710; 1537.525
900.679;  325.307;   -8.900; 1638.384
901.239;  311.502;   -8.340; 1527.902
901.799;  299.491;  -13.910; 1456.441
902.359;  293.632;  -13.460; 1357.140
902.919;  288.041;  -11.490; 1331.118
903.479;  276.537;  -12.110; 1317.257
904.038;  254.771;  -11.720; 1262.595
904.598;  240.241;  -13.610; 1152.034
905.158;  237.113;  -11.040; 1240.893
905.717;  230.459;  -10.900; 1233.691
906.277;  219.133;  -15.080; 1217.330
906.836;  209.741;  -13.380; 1222.408
907.396;  201.298;  -10.780; 1193.047
907.955;  194.479;   -8.500; 1182.526
908.515;  188.748;  -12.760; 1099.364
909.074;  182.508;  -11.900; 1092.863
909.633;  176.908;   -8.950; 1069.121
910.192;  173.637;   -8.770; 1196.460
910.752;  167.181;  -12.390; 1029.960
911.311;  164.193;  -13.680; 1009.780
911.870;  161.091;  -12.370;  971.460
912.429;  161.723;  -10.900; 1094.080
912.988;  161.624;  -11.690; 1081.060
913.547;  156.096;  -13.240;  940.380
914.106;  151.959;  -11.990;  999.420
914.665;  148.393;   -9.990;  984.020
915.224;  147.653;  -12.880; 1035.760
915.782;  147.898;  -12.350;  922.560
916.341;  147.292;   -9.110; 1049.840
916.900;  143.703;   -9.270;  925.260
917.458;  141.677;  -13.240;  884.220
918.017;  141.695;  -13.550;  942.600
918.576;  141.573;  -12.320;  904.440
919.134;  138.467;  -11.490;  837.980
919.693;  136.954;  -13.670;  893.060
920.251;  134.723;  -15.470;  876.500
920.809;  134.400;  -11.290;  839.580
921.368;  134.231;  -10.210;  885.360
921.926;  132.296;  -12.140;  842.940
922.484;  131.458;  -13.080;  903.360
923.042;  131.014;  -11.720;  880.340
923.601;  134.136;   -7.480;  998.680
924.159;  132.055;  -11.570;  935.560
924.717;  128.943;  -13.840;  841.080
925.275;  130.072;  -10.640;  903.240
925.833;  129.680;  -11.540;  779.320
926.391;  129.019;  -12.960;  938.380
926.949;  127.618;  -14.130;  857.680
927.506;  128.676;  -11.750;  903.500
928.064;  129.136;  -10.250;  877.580
928.622;  127.692;  -13.030;  880.100
929.180;  127.337;  -13.400;  814.180
929.737;  129.020;  -10.700;  808.540
930.295;  132.158;  -10.070;  928.480
930.853;  132.891;  -11.960;  849.100
931.410;  133.809;  -13.120;  821.120
931.968;  133.116;  -10.770;  940.660
932.525;  132.995;  -10.680;  909.380
933.082;  133.586;  -13.130;  811.440
933.640;  133.930;  -13.210;  925.900
934.197;  132.158;  -11.060;  886.360
934.754;  134.153;   -9.580;  897.780
935.312;  136.122;  -14.000;  863.340
935.869;  140.075;  -10.710; 1012.980
936.426;  140.220;   -9.860;  872.800
936.983;  141.872;   -9.710;  889.020
937.540;  140.535;  -13.990;  838.280
938.097;  139.254;  -14.040;  940.120
938.654;  140.127;  -10.310;  898.860
939.211;  142.363;  -10.560;  952.480
939.768;  145.555;  -13.900;  915.420
940.324;  148.558;  -14.760;  904.200
940.881;  149.751;  -10.370;  878.500
941.438;  150.704;   -8.260; 1021.200
941.995;  146.681;  -12.540;  992.560
942.551;  143.721;  -14.670;  875.620
943.108;  144.907;  -10.450;  937.920
943.664;  147.460;  -10.750;  869.340
944.221;  150.499;  -11.550; 1088.140
944.777;  147.461;  -14.770;  869.680
945.334;  147.224;  -12.820;  884.840
945.890;  149.021;  -10.130;  946.480
946.446;  150.126;  -13.470;  947.020
947.003;  151.398;  -12.120;  964.940
947.559;  154.269;   -9.980; 1063.040
948.115;  152.958;   -9.080; 1026.540
948.671;  151.840;  -10.830;  967.300
949.227;  148.601;  -12.440;  859.560
949.783;  145.449;  -12.910;  858.900
950.339;  148.467;  -10.270;  991.000
950.895;  148.788;  -13.630; 1023.840
951.451;  146.991;  -15.100;  925.280
952.007;  147.268;  -11.330;  998.540
952.563;  148.400;  -10.580;  937.780
953.118;  147.425;  -13.440;  904.940
953.674;  145.926;  -12.710;  935.780
954.230;  146.702;  -10.350;  949.640
954.785;  143.787;   -9.190;  936.640
955.341;  142.076;  -11.200;  998.160
955.897;  139.774;  -16.560;  834.660
956.452;  141.413;  -12.570;  953.840
957.008;  140.343;   -7.970; 1083.640
957.563;  136.955;  -11.940; 1009.540
958.118;  131.857;  -13.450;  877.700
958.674;  132.870;  -12.030;  946.780
959.229;  135.297;   -9.410; 1013.980
959.784;  132.225;  -12.000;  832.400
960.339;  131.697;  -14.780; 1001.280
960.894;  128.639;   -9.860;  963.760
961.449;  124.933;   -9.970;  859.960
962.004;  124.880;  -10.900; 1212.840
962.559;  119.632;  -13.150;  860.140
963.114;  117.294;  -13.740;  742.480
963.669;  117.613;   -9.820;  915.500
964.224;  115.672;  -13.890;  874.340
964.779;  114.875;  -12.600;  828.420
965.334;  115.981;  -10.950; 1017.860
965.888;  114.949;  -11.170;  875.360
966.443;  118.045;  -12.540;  972.380
966.998;  117.571;  -15.780;  819.460
967.552;  116.189;   -9.760;  908.380
968.107;  112.639;   -9.060;  868.300
968.661;  113.219;  -11.950;  922.440
969.216;  113.816;  -12.800;  856.280
969.770;  114.494;  -11.210;  917.200
970.324;  113.471;  -11.610;  923.140
970.879;  109.946;  -11.370;  947.180
971.433;  107.351;  -12.540;  952.720
971.987;  101.961;  -11.320;  895.340
972.541;  100.062;  -10.720;  917.100
973.095;  100.003;   -9.680; 1009.460
973.649;   98.473;  -11.440;  809.480
974.203;   97.120;  -11.210;  829.040
974.757;   96.886;  -10.240;  855.220
975.311;   96.280;  -13.720;  872.600
975.865;   95.900;  -13.770;  881.820
976.419;   94.827;  -11.690;  857.400
976.973;   94.992;   -9.510;  849.620
977.526;   96.131;  -12.620;  949.920
978.080;   95.758;  -12.010;  796.780
978.634;   97.031;  -10.170;  921.320
979.187;   94.783;   -9.020;  905.400
979.741;   92.417;   -9.820; 1018.380
980.294;   87.295;  -14.870;  789.160
980.848;   85.517;  -12.380;  717.220
981.401;   87.216;  -10.350;  816.540
981.955;   90.414;  -13.720;  844.300
982.508;   88.673;  -11.490;  746.340
983.061;   88.631;  -10.000;  915.260
983.615;   84.510;  -11.480;  798.800
984.168;   81.789;  -13.220;  770.080
984.721;   80.369;  -13.960;  880.760
985.274;   80.527;  -10.870;  867.500
985.827;   79.443;   -9.790;  834.220
986.380;   77.161;  -13.120;  721.340
986.933;   76.394;  -12.450;  864.800
987.486;   75.204;  -10.210;  861.920
988.039;   73.877;   -8.430;  863.100
988.591;   72.040;  -10.520;  893.260
989.144;   69.785;  -14.860;  737.260
989.697;   69.090;  -13.080;  758.740
990.250;   70.542;  -10.150;  858.100
990.802;   68.220;  -13.430;  755.860
991.355;   69.139;  -12.750;  974.880
991.907;   67.152;  -12.040;  864.320
992.460;   65.165;  -11.330;  753.760
993.012;   63.655;  -13.610;  749.540
993.565;   62.930;  -13.460;  711.360
994.117;   65.564;   -9.360;  950.780
994.669;   61.579;  -11.300;  701.320
995.221;   60.056;  -13.540;  791.920
995.774;   57.755;  -13.430;  787.580
996.326;   56.555;  -12.520;  740.220
996.878;   56.135;  -10.950;  838.420
997.430;   54.514;  -14.300;  699.860
997.982;   53.043;  -13.760;  750.140
998.534;   53.137;  -11.530;  739.060
999.086;   52.092;  -10.310;  738.220
999.638;   50.748;  -12.530;  661.380
1000.190;   49.805;  -11.840;  699.320
1000.741;   49.709;  -10.260;  742.700
1001.293;   49.440;   -8.860;  686.020
1001.845;   47.792;  -13.700;  676.640
1002.396;   48.161;  -12.100;  743.400
1002.948;   47.498;  -12.760;  737.400
1003.500;   45.896;  -10.380;  723.780
1004.051;   46.257;  -11.900;  907.580
1004.603;   44.568;  -12.250;  791.820
1005.154;   41.007;  -13.210;  608.980
1005.705;   40.495;  -10.950;  723.960
1006.257;   40.432;  -13.880;  707.220
1006.808;   39.571;  -12.840;  685.460
1007.359;   39.419;  -10.570;  763.240
1007.910;   38.356;   -9.620;  646.640
1008.461;   38.031;  -13.630;  732.940
1009.013;   36.536;  -17.200;  588.340
1009.564;   37.726;  -10.200;  793.520
1010.115;   35.623;  -12.570;  597.040
1010.665;   34.457;  -15.150;  602.160
1011.216;   35.035;  -14.480;  667.920
1011.767;   34.436;  -11.340;  697.920
1012.318;   35.291;   -9.780;  736.980
1012.869;   34.578;  -12.380;  679.000
1013.419;   33.569;  -15.560;  603.120
1013.970;   34.364;  -11.010;  666.640
1014.521;   33.117;  -11.610;  620.620
1015.071;   33.333;  -13.450;  670.380
1015.622;   33.271;  -13.870;  635.460
1016.172;   32.099;  -11.610;  596.820
1016.723;   33.057;  -12.120;  614.380
1017.273;   31.926;  -13.620;  604.160
1017.823;   31.795;  -14.140;  650.340
1018.374;   30.815;  -12.800;  611.760
1018.924;   31.889;  -12.340;  716.880
1019.474;   31.387;  -11.410;  718.880
1020.024;   29.789;  -14.770;  657.580
1020.574;   31.015;   -9.780;  726.160
1021.124;   31.172;   -8.560;  673.580
1021.674;   29.977;  -15.190;  559.120
1022.224;   31.001;  -13.530;  708.940
1022.774;   30.196;  -13.280;  668.820
1023.324;   30.932;  -10.690;  753.520
1023.874;   31.764;  -10.240;  875.760
1024.423;   28.915;  -12.540;  613.700
1024.973;   29.142;  -10.010;  610.760
1025.523;   28.572;  -10.550;  620.960
1026.072;   28.072;  -13.560;  606.420
1026.622;   27.970;  -15.120;  675.740
1027.172;   29.095;  -11.260;  715.660
1027.721;   27.972;  -11.410;  601.220
1028.270;   28.155;  -13.530;  663.400
1028.820;   27.355;  -13.680;  638.080
1029.369;   27.572;  -13.520;  612.700
1029.918;   28.315;  -10.980;  649.840
1030.468;   26.749;  -13.530;  564.780
1031.017;   27.548;  -13.170;  634.800
1031.566;   26.395;  -12.200;  608.900
1032.115;   26.633;   -9.960;  694.500
1032.664;   25.483;  -13.210;  596.480
1033.213;   26.394;  -12.500;  735.420
1033.762;   26.807;  -11.910;  635.620
1034.311;   25.719;   -9.640;  677.220
1034.860;   26.053;  -13.310;  691.000
1035.408;   26.510;  -11.830;  722.720
1035.957;   26.406;  -12.000;  719.540
1036.506;   24.632;  -11.690;  530.800
1037.055;   26.463;  -10.990;  844.320
1037.603;   24.641;  -15.120;  664.000
1038.152;   23.514;  -12.450;  534.760
1038.700;   24.909;  -10.560;  585.740
1039.249;   23.878;  -11.080;  681.220
1039.797;   23.857;  -12.540;  633.360
1040.345;   23.962;  -11.920;  705.420
1040.894;   23.543;  -11.410;  625.300
1041.442;   23.045;  -14.320;  632.200
1041.990;   22.233;  -16.240;  559.160
1042.538;   22.071;  -11.680;  536.180
1043.087;   22.463;  -10.760;  570.860
1043.635;   22.927;  -11.850;  670.500
1044.183;   22.407;  -15.480;  586.400
1044.731;   22.762;  -11.770;  576.000
1045.279;   22.396;  -13.090;  674.920
1045.827;   24.461;  -12.440;  892.400
1046.374;   21.589;  -13.840;  515.420
1046.922;   20.570;  -13.220;  590.580
1047.470;   23.240;  -10.230;  691.300
1048.018;   21.602;  -14.590;  647.960
1048.565;   22.304;  -12.050;  708.600
1049.113;   20.456;  -11.650;  557.000
1049.660;   21.168;  -10.510;  629.660
1050.208;   21.573;  -13.310;  675.640
1050.755;   21.035;  -15.900;  606.580
1051.303;   21.054;  -11.430;  686.820
1051.850;   20.320;   -8.480;  635.120
1052.397;   18.398;  -15.010;  473.960
1052.945;   18.976;  -13.960;  617.760
1053.492;   21.389;  -13.150;  741.840
1054.039;   20.390;   -9.630;  720.180
1054.586;   19.377;  -13.680;  557.240
1055.133;   19.985;  -14.570;  693.140
1055.680;   20.113;  -13.820;  646.620
1056.227;   18.791;  -11.730;  542.780
1056.774;   20.364;  -12.480;  794.980
1057.321;   18.402;  -13.930;  523.260
1057.868;   18.699;  -11.690;  651.320
1058.415;   18.436;   -9.520;  651.980
1058.961;   18.399;  -13.160;  678.940
1059.508;   17.912;  -12.920;  643.820
1060.055;   18.818;  -11.920;  581.780
1060.601;   19.153;  -11.500;  624.300
1061.148;   17.809;  -14.330;  616.820
1061.694;   16.949;  -16.870;  592.580
1062.241;   17.814;  -10.330;  596.320
1062.787;   17.586;  -10.620;  663.140
1063.334;   19.391;  -10.110;  808.560
1063.880;   17.706;  -13.400;  668.360
1064.426;   17.984;  -10.680;  706.820
1064.972;   16.555;   -9.920;  601.340
1065.518;   16.280;  -10.980;  566.640
1066.065;   17.049;  -14.890;  624.460
1066.611;   16.472;  -12.870;  598.800
1067.157;   17.367;  -12.950;  641.860
1067.703;   16.558;  -13.540;  668.480
1068.249;   16.661;  -13.540;  605.220
1068.794;   16.380;  -12.600;  626.880
1069.340;   15.504;  -10.620;  578.960
1069.886;   15.957;  -12.830;  590.700
1070.432;   15.007;  -14.870;  541.720
1070.977;   15.404;  -11.980;  601.080
1071.523;   15.414;   -8.200;  573.060
1072.068;   15.669;  -12.330;  582.000
1072.614;   14.499;  -16.370;  527.760
1073.160;   15.162;  -11.100;  687.040
1073.705;   14.650;  -10.480;  572.520
1074.250;   14.044;  -14.520;  559.900
1074.796;   14.480;  -11.460;  655.160
1075.341;   14.947;  -11.950;  664.100
1075.886;   14.933;  -11.460;  594.240
1076.431;   14.301;  -13.770;  649.880
1076.976;   14.661;  -12.680;  639.220
1077.521;   13.563;  -13.170;  583.080
1078.067;   13.678;  -10.860;  579.400
1078.612;   14.034;  -13.920;  661.620
1079.156;   13.846;  -13.880;  601.540
1079.701;   14.150;  -13.120;  693.260
1080.246;   15.406;   -9.940;  696.300
1080.791;   14.162;  -14.740;  625.020
1081.336;   13.891;  -13.750;  659.320
1081.880;   13.345;  -13.400;  649.680
1082.425;   12.078;  -12.220;  573.480
1082.970;   13.983;  -11.610;  717.040
1083.514;   12.210;  -13.580;  597.000
1084.059;   12.155;  -12.810;  586.720
1084.603;   12.754;  -12.320;  565.840
1085.147;   12.401;  -13.190;  645.220
1085.692;   14.044;  -12.480;  716.800
1086.236;   12.212;  -13.020;  503.140
1086.780;   13.303;   -9.190;  751.440
1087.325;   13.010;  -12.480;  654.620
1087.869;   12.208;  -12.450;  610.700
1088.413;   12.576;  -12.240;  705.040
1088.957;   10.695;   -9.020;  543.400
1089.501;   12.739;  -10.320;  766.640
1090.045;   12.310;  -12.720;  726.480
1090.589;    9.902;  -13.690;  569.920
1091.133;   11.628;  -10.020;  673.340
1091.676;   10.945;  -12.330;  591.940
1092.220;   10.631;  -14.970;  600.920
1092.764;   12.145;  -12.430;  706.960
1093.307;   11.258;   -9.800;  673.780
1093.851;    9.220;  -14.970;  556.540
1094.395;   10.855;  -15.310;  683.140
1094.938;   10.449;  -10.370;  632.520
1095.482;   10.316;  -11.050;  559.800
1096.025;   11.096;  -11.840;  710.880
1096.568;   10.954;  -12.840;  779.280
1097.112;    8.620;  -14.700;  508.180
1097.655;   10.284;   -8.720;  603.000
1098.198;    9.509;  -13.610;  600.180
1098.741;    9.035;  -13.350;  612.860
1099.285;   10.219;  -11.230;  657.300
1099.828;    8.169;  -11.840;  439.400
1100.371;    9.374;  -10.840;  608.160
1100.914;    9.008;  -14.190;  682.660
1101.457;    9.666;  -11.240;  679.900
1101.999;    8.403;  -11.270;  584.680
1102.542;    9.268;  -11.480;  641.440
1103.085;    8.664;  -11.750;  658.500
1103.628;    9.722;  -11.400;  762.060
1104.170;    8.562;  -10.490;  588.280
1104.713;    8.798;  -10.600;  646.700
1105.256;    8.072;  -14.360;  557.440
1105.798;    7.588;  -13.210;  499.980
1106.341;    9.967;  -10.270;  728.900
1106.883;    7.630;  -12.200;  521.340
1107.425;    7.999;  -13.110;  668.180
1107.968;    7.802;  -12.840;  612.380
1108.510;    8.364;   -6.480;  684.960
1109.052;    7.193;  -13.940;  612.620
1109.594;    7.229;  -13.690;  554.440
1110.136;    7.958;  -11.880;  643.220
1110.679;    6.980;   -9.500;  633.080
1111.221;    7.694;  -14.160;  604.460
1111.763;    6.365;  -13.980;  559.220
1112.304;    6.322;  -13.880;  547.140
1112.846;    6.472;  -12.210;  666.240
1113.388;    9.742;  -11.390;  942.180
1113.930;    6.688;  -14.540;  694.200
1114.472;    6.667;  -12.640;  606.540
1115.013;    5.603;  -11.620;  551.280
1115.555;    5.242;  -13.640;  587.100
1116.097;    5.735;  -15.380;  579.480
1116.638;    6.441;  -12.640;  684.600
1117.180;    7.017;   -9.850;  667.740
1117.721;    6.383;  -13.690;  568.580
1118.262;    6.286;  -12.680;  677.960
1118.804;    6.903;  -12.530;  637.340
1119.345;    6.384;  -11.690;  578.400
1119.886;    5.922;  -13.380;  704.040
1120.427;    5.217;  -14.070;  589.020
1120.969;    4.309;  -13.500;  597.920
1121.510;    4.428;  -11.480;  563.060
1122.051;    5.051;  -12.830;  723.580
1122.592;    4.874;  -14.290;  655.420
1123.133;    3.590;  -12.400;  547.940
1123.673;    6.300;  -10.130;  706.480
1124.214;    4.855;  -12.930;  612.460
1124.755;    5.873;  -14.380;  639.460
1125.296;    5.390;  -14.000;  627.320
1125.836;    5.499;  -10.070;  691.500
1126.377;    3.996;  -12.640;  599.660
1126.918;    4.954;  -12.960;  614.980
1127.458;    3.941;  -13.350;  622.220
1127.999;    5.203;  -10.750;  656.980
1128.539;    4.497;  -12.350;  694.240
1129.079;    4.408;  -14.860;  632.720
1129.620;    4.043;  -13.840;  558.100
1130.160;    3.312;  -12.330;  539.480
1130.700;    4.099;  -14.530;  640.840
1131.240;    4.890;  -12.530;  643.700
1131.781;    3.247;  -14.450;  619.680
1132.321;    4.013;   -9.790;  599.120
1132.861;    2.300;  -14.860;  564.200
1133.401;    2.499;  -14.290;  593.940
1133.941;    3.399;  -11.750;  626.280
1134.481;    2.912;   -9.920;  597.580
1135.020;    3.099;  -12.290;  609.160
1135.560;    3.400;  -11.650;  674.940
1136.100;    2.190;  -16.270;  501.160
1136.640;    1.866;  -10.890;  510.480
1137.179;    2.337;  -14.180;  537.960
1137.719;    3.219;  -16.250;  605.400
1138.258;    2.612;  -14.230;  587.360
1138.798;    3.091;   -9.090;  663.780
1139.337;    1.721;  -15.130;  482.840
1139.877;    2.810;  -13.680;  642.360
1140.416;    4.526;  -11.320;  878.060
1140.955;    1.828;  -10.860;  535.380
1141.494;    1.743;  -12.920;  669.280
1142.034;    2.192;  -13.930;  583.520
1142.573;    2.312;  -11.440;  646.280
1143.112;    1.964;  -12.000;  553.480
1143.651;    2.036;  -13.670;  536.480
1144.190;    1.879;  -12.730;  691.640
1144.729;    1.915;  -14.560;  607.420
1145.267;    1.825;  -11.830;  584.900
1145.806;    1.899;  -12.230;  637.040
1146.345;    1.115;  -14.130;  635.020
1146.884;    1.271;  -11.590;  622.500
1147.422;    0.940;  -12.550;  533.060
1147.961;    2.303;  -11.180;  708.460
1148.500;    2.180;  -11.510;  669.720
1149.038;    2.296;  -11.640;  632.500
1149.577;    1.860;  -10.130;  698.640
1150.115;    0.241;  -13.970;  452.280
1150.653;    1.503;  -14.520;  607.340
1151.192;    0.689;  -12.810;  552.920
1151.730;    1.185;   -9.100;  652.560
1152.268;    0.264;  -12.220;  589.520
1152.806;    0.440;  -14.140;  571.180
1153.344;   -0.770;  -12.350;  577.640
1153.882;    0.939;   -8.980;  600.060
1154.421;   -0.441;  -15.190;  470.620
1154.958;    0.254;  -15.210;  595.240
1155.496;    1.483;  -12.850;  645.280
1156.034;    0.244;   -9.940;  721.880
1156.572;    1.550;  -13.570;  667.060
1157.110;   -1.010;  -14.590;  473.940
1157.647;    0.341;  -13.030;  676.960
1158.185;   -0.615;  -12.140;  564.320
1158.723;   -1.129;  -14.390;  509.200
1159.260;    0.208;  -14.090;  701.700
1159.798;    0.647;  -11.920;  658.160
1160.335;   -0.348;  -11.110;  631.820

