
Integration time [ms]:   3.276
Averaging Nr. [scans]: 1000
Smoothing Nr. [pixels]: 0
Data measured with spectrometer [name]: 7414430SP
Wave   ;Sample   ;Dark     ;Reference
[nm]   ;[counts] ;[counts] ;[counts] 

288.544;  150.275;    7.793;  793.890
289.143;  154.019;    7.462;  681.602
289.742;  154.434;    8.602;  828.814
290.341;  139.515;    1.321;  789.841
290.940;  128.284;   -0.709;  730.702
291.538;  130.246;    0.881;  881.108
292.137;  130.217;    0.122;  792.581
292.736;  134.093;   -1.929;  975.101
293.335;  131.182;   -8.229;  735.086
293.934;  131.527;   -5.279;  781.677
294.532;  129.565;   -1.369; 1031.958
295.131;  115.084;   -7.641;  834.394
295.730;  115.846;   -8.420;  809.588
296.328;  114.672;   -5.611;  783.442
296.927;  115.883;   -5.781;  779.652
297.525;  116.331;   -6.361;  781.236
298.124;  107.333;  -11.382;  654.009
298.722;  110.660;   -7.641;  761.933
299.321;  108.687;   -6.811;  708.597
299.919;  106.845;   -6.991;  751.918
300.518;  104.055;  -10.362;  689.338
301.116;  105.889;   -9.581;  691.381
301.715;  105.881;   -4.891;  730.222
302.313;  104.073;   -8.801;  704.943
302.911;   99.283;   -8.522;  733.830
303.509;  105.717;   -6.171;  925.627
304.108;  102.409;   -7.311;  760.383
304.706;  101.814;   -8.321;  801.664
305.304;   96.474;  -10.222;  796.707
305.902;  101.630;   -6.021;  784.484
306.500;   96.821;   -4.971;  728.200
307.098;   96.506;   -7.061;  746.560
307.696;   94.086;   -8.801;  780.432
308.294;   95.723;   -6.411;  731.359
308.892;   97.091;   -2.901;  759.769
309.490;   92.235;   -5.041;  712.161
310.088;   90.935;   -5.002;  788.444
310.686;   95.516;   -2.041;  821.749
311.284;   91.053;   -2.351;  766.040
311.882;   88.370;   -4.422;  731.225
312.480;   85.259;   -4.192;  697.167
313.078;   87.876;   -1.172;  808.331
313.675;   88.038;   -2.601;  691.600
314.273;   82.523;   -1.312;  797.837
314.871;   83.302;   -3.942;  589.829
315.468;   80.441;   -2.802;  652.090
316.066;   82.892;   -0.701;  694.427
316.664;   76.239;   -4.362;  656.351
317.261;   79.837;   -2.872;  910.128
317.859;   75.759;   -2.022;  768.735
318.456;   76.766;   -0.531;  830.096
319.054;   71.640;   -3.912;  787.828
319.651;   71.014;   -4.752;  759.928
320.249;   69.793;   -2.602;  810.188
320.846;   68.239;   -0.821;  714.286
321.443;   65.113;   -4.642;  832.135
322.041;   62.821;   -5.002;  812.315
322.638;   60.099;   -3.982;  701.456
323.235;   61.798;   -3.411;  665.683
323.833;   58.576;   -7.361;  740.354
324.430;   54.295;   -8.611;  615.900
325.027;   54.784;   -4.061;  876.855
325.624;   54.512;   -4.031;  644.532
326.221;   51.374;   -7.481;  689.717
326.818;   51.483;   -5.281;  818.332
327.415;   55.497;   -7.460;  748.828
328.012;   54.070;   -5.510;  690.585
328.609;   52.801;   -7.880;  731.389
329.206;   51.276;   -8.331;  778.621
329.803;   50.360;   -5.121;  737.841
330.400;   54.109;   -4.510;  704.260
330.997;   54.973;   -6.441;  817.147
331.594;   53.742;   -8.831;  788.185
332.191;   58.443;   -7.621;  728.722
332.787;   61.305;   -4.591;  844.463
333.384;   59.882;   -7.412;  763.093
333.981;   58.577;   -8.293;  815.687
334.578;   62.297;   -7.052;  708.378
335.174;   64.835;   -3.102;  731.469
335.771;   63.521;   -5.943;  836.456
336.367;   61.228;   -7.393;  710.631
336.964;   64.936;   -4.063;  793.266
337.561;   63.594;   -3.813;  731.112
338.157;   58.781;   -4.654;  911.916
338.754;   55.635;   -7.934;  796.589
339.350;   54.657;   -4.414;  722.493
339.946;   55.956;   -4.664;  773.135
340.543;   48.110;   -6.375;  846.136
341.139;   42.897;   -9.815;  720.836
341.735;   40.878;   -4.526;  772.593
342.332;   39.232;   -4.895;  691.472
342.928;   39.489;   -4.295;  795.394
343.524;   33.762;   -5.476;  761.684
344.120;   30.719;   -5.856;  738.562
344.716;   33.968;   -2.155;  723.717
345.313;   31.380;   -6.275;  795.342
345.909;   25.939;   -8.815;  627.336
346.505;   27.559;   -5.305;  740.247
347.101;   29.088;   -2.674;  827.864
347.697;   29.352;   -4.344;  785.398
348.293;   23.203;   -9.975;  627.244
348.889;   24.288;   -5.774;  745.914
349.485;   23.680;   -5.004;  688.205
350.081;   23.846;   -4.704;  772.592
350.676;   19.135;   -6.635;  691.606
351.272;   23.689;   -4.504;  809.530
351.868;   23.130;   -3.914;  780.497
352.464;   20.790;   -9.044;  723.932
353.059;   17.700;   -8.314;  646.017
353.655;   20.455;   -7.024;  777.063
354.251;   21.781;   -5.343;  759.845
354.846;   16.132;   -8.604;  740.646
355.442;   13.661;   -6.945;  753.071
356.038;   15.732;   -7.564;  751.708
356.633;   15.924;   -5.814;  728.594
357.229;   13.692;   -7.364;  724.757
357.824;   12.663;   -8.024;  703.600
358.420;   11.580;   -9.384;  679.726
359.015;   11.079;   -5.104;  695.357
359.610;   13.066;   -6.854;  763.920
360.206;    7.025;  -10.185;  603.240
360.801;   10.063;   -7.054;  646.503
361.396;   12.050;   -5.034;  725.975
361.992;    7.630;   -8.284;  668.220
362.587;    5.624;   -8.625;  670.160
363.182;    7.261;   -7.674;  689.631
363.777;    7.744;   -5.164;  738.242
364.372;    7.459;   -8.604;  737.314
364.967;    3.904;   -9.055;  680.744
365.563;    7.918;   -6.114;  815.567
366.158;    5.201;   -5.814;  685.161
366.753;    5.676;   -7.854;  649.263
367.348;    3.620;   -7.804;  746.056
367.942;    4.101;   -7.954;  697.298
368.537;    2.454;   -4.984;  754.245
369.132;    2.658;   -8.564;  703.428
369.727;   -1.374;   -8.855;  638.079
370.322;    0.596;   -6.245;  580.186
370.917;    0.375;   -6.425;  710.646
371.511;    2.359;   -6.294;  861.834
372.106;   -0.251;   -7.685;  776.964
372.701;   -4.251;   -7.335;  585.988
373.296;    1.850;   -4.564;  863.135
373.890;   -3.304;  -10.235;  647.840
374.485;   -5.077;   -7.885;  691.199
375.079;   -0.399;   -7.324;  738.685
375.674;    0.231;   -3.494;  812.970
376.268;   -4.631;   -8.525;  691.759
376.863;   -9.715;  -10.086;  580.327
377.457;   -3.687;   -7.025;  662.490
378.052;   -5.282;   -3.585;  764.884
378.646;   -5.967;   -7.595;  741.167
379.240;   -6.235;   -8.335;  721.176
379.835;   -5.379;   -5.785;  636.978
380.429;   -7.439;   -4.335;  562.557
381.023;   -7.240;   -6.805;  779.205
381.617;   -9.900;   -9.195;  680.106
382.212;   -6.492;   -6.905;  685.303
382.806;   -5.482;   -3.745;  760.690
383.400;   -9.997;   -7.745;  672.281
383.994;  -11.180;   -9.765;  664.870
384.588;   -7.009;   -6.564;  697.701
385.182;   -5.302;   -5.344;  726.624
385.776;   -7.684;   -8.514;  706.875
386.370;  -10.231;   -9.555;  681.968
386.964;   -8.838;   -8.715;  684.155
387.558;   -7.689;   -6.174;  598.360
388.152;  -11.036;   -8.725;  681.959
388.745;   -8.851;   -7.965;  814.707
389.339;   -7.547;   -5.924;  747.642
389.933;   -6.540;   -5.524;  695.370
390.527;   -7.094;   -7.114;  859.029
391.120;  -13.158;  -10.725;  595.318
391.714;  -10.677;   -8.035;  711.633
392.308;   -7.256;   -3.574;  780.253
392.901;  -11.779;   -7.245;  642.460
393.495;  -12.717;   -9.285;  595.414
394.089;  -10.606;   -5.895;  760.452
394.682;  -11.001;   -4.295;  697.188
395.275;  -12.078;   -9.875;  719.927
395.869;  -13.156;   -8.485;  667.314
396.462;  -11.462;   -7.455;  616.609
397.056;   -7.475;   -5.424;  776.621
397.649;  -12.749;   -6.605;  731.575
398.242;  -10.113;   -8.224;  712.645
398.836;   -8.942;   -7.474;  766.408
399.429;  -10.073;   -7.094;  631.041
400.022;  -13.328;   -9.475;  665.902
400.615;  -10.735;   -7.145;  805.609
401.208;   -9.060;   -7.174;  691.451
401.802;  -11.346;   -5.515;  699.329
402.395;  -12.598;   -9.875;  683.502
402.988;  -13.556;   -8.845;  696.627
403.581;   -9.950;   -8.874;  646.878
404.174;   -7.382;   -5.324;  686.568
404.767;  -11.329;   -9.575;  638.583
405.360;  -13.192;  -10.965;  621.445
405.953;   -7.722;   -8.764;  759.034
406.545;   -7.069;   -7.514;  725.342
407.138;  -11.868;  -10.025;  618.350
407.731;  -10.488;  -10.034;  613.303
408.324;   -6.274;   -9.374;  660.554
408.917;   -6.963;   -6.534;  681.864
409.509;   -8.809;   -8.004;  740.396
410.102;  -11.225;   -9.875;  643.948
410.695;   -5.067;   -8.604;  665.758
411.287;   -5.824;   -6.794;  599.821
411.880;   -7.979;   -9.334;  585.421
412.472;  -10.223;  -10.254;  613.092
413.065;   -7.104;   -6.714;  629.408
413.657;   -5.121;   -7.234;  576.678
414.250;   -4.973;  -10.544;  646.681
414.842;   -6.493;   -9.744;  676.353
415.434;   -4.628;   -6.994;  570.463
416.027;   -0.271;   -5.893;  652.196
416.619;   -2.891;   -7.264;  713.400
417.211;   -3.081;  -10.374;  599.352
417.804;    0.366;   -7.993;  628.499
418.396;   -3.243;   -7.234;  607.643
418.988;   -1.456;   -9.443;  659.238
419.580;   -5.145;  -10.724;  568.276
420.172;   -2.197;  -10.323;  536.196
420.764;    1.659;   -8.793;  672.482
421.356;    0.435;  -11.143;  636.898
421.948;    0.437;   -8.293;  677.661
422.540;    5.609;   -7.893;  680.027
423.132;    4.756;   -7.082;  600.641
423.724;    0.609;   -8.653;  561.267
424.316;    2.982;  -10.213;  621.345
424.908;    6.649;   -9.762;  591.517
425.500;    7.099;   -5.572;  647.978
426.092;    8.163;   -8.422;  648.268
426.683;    6.417;   -9.283;  684.836
427.275;    9.581;   -7.852;  641.471
427.867;   11.556;   -5.272;  668.948
428.458;   11.569;   -7.682;  732.344
429.050;   10.135;  -10.612;  680.749
429.642;   12.693;   -9.882;  743.124
430.233;   13.143;   -6.962;  569.356
430.825;   13.422;   -6.842;  724.809
431.416;   11.768;   -9.672;  698.241
432.008;   15.814;   -6.552;  651.723
432.599;   15.246;   -6.891;  656.073
433.190;   12.908;  -10.912;  637.670
433.782;   12.141;  -11.172;  590.395
434.373;   19.088;   -6.061;  884.765
434.964;   18.212;   -8.251;  602.920
435.556;   15.896;   -9.722;  634.537
436.147;   18.952;   -9.082;  758.490
436.738;   19.454;   -8.041;  701.099
437.329;   24.522;   -7.341;  721.723
437.920;   17.434;   -8.162;  666.688
438.511;   16.669;  -11.802;  564.526
439.103;   23.484;  -10.191;  623.998
439.694;   25.422;   -7.601;  681.583
440.285;   26.123;   -8.541;  764.432
440.876;   24.530;   -9.751;  845.738
441.466;   24.299;   -9.401;  575.162
442.057;   29.248;   -7.760;  665.814
442.648;   28.266;   -9.971;  746.255
443.239;   26.727;  -11.001;  620.477
443.830;   30.925;   -7.990;  704.958
444.421;   33.379;   -7.910;  655.474
445.011;   29.691;   -8.131;  693.619
445.602;   28.884;   -7.111;  743.126
446.193;   31.326;  -10.920;  488.117
446.783;   36.095;   -6.500;  640.397
447.374;   31.429;   -8.671;  692.759
447.964;   32.000;  -10.781;  713.770
448.555;   40.488;   -9.650;  822.742
449.145;   36.992;   -8.660;  662.853
449.736;   37.488;   -8.990;  803.179
450.326;   38.115;   -9.500;  713.626
450.917;   42.138;   -8.680;  675.324
451.507;   41.024;   -7.520;  600.661
452.097;   42.631;   -8.590;  746.267
452.688;   43.283;  -11.340;  742.160
453.278;   44.081;  -10.100;  566.840
453.868;   48.115;   -6.019;  793.550
454.458;   46.415;   -9.440;  651.141
455.048;   46.452;  -10.560;  711.783
455.639;   47.337;  -11.799;  567.096
456.229;   51.363;   -6.899;  710.694
456.819;   52.627;   -7.389;  751.158
457.409;   54.112;  -11.119;  773.993
457.999;   56.796;   -9.289;  737.505
458.589;   56.707;   -6.139;  686.606
459.179;   56.622;   -8.729;  717.658
459.769;   54.577;   -9.789;  627.099
460.358;   59.541;  -10.259;  797.262
460.948;   60.093;   -7.299;  689.503
461.538;   60.408;  -10.289;  660.677
462.128;   58.674;  -11.269;  664.934
462.717;   66.132;   -9.368;  710.326
463.307;   68.146;   -7.908;  705.846
463.897;   65.114;   -9.599;  656.942
464.486;   64.227;   -9.769;  837.128
465.076;   68.882;   -8.048;  733.776
465.666;   71.433;   -9.358;  652.900
466.255;   68.959;   -7.919;  785.651
466.845;   68.828;  -11.689;  666.749
467.434;   72.236;   -7.818;  725.873
468.023;   73.086;   -7.678;  658.357
468.613;   71.052;  -10.939;  713.946
469.202;   74.660;  -10.118;  646.507
469.791;   78.781;   -9.108;  737.811
470.381;   82.028;   -6.058;  742.813
470.970;   80.106;  -10.428;  711.099
471.559;   80.608;  -10.268;  733.291
472.148;   83.368;   -8.448;  675.737
472.738;   85.959;   -6.917;  765.466
473.327;   85.589;  -11.978;  637.529
473.916;   85.503;  -11.888;  737.446
474.505;   90.254;   -9.437;  751.703
475.094;   93.735;   -6.747;  806.570
475.683;   92.210;   -9.367;  797.699
476.272;   94.237;  -12.637;  730.632
476.861;   96.888;  -10.027;  706.754
477.449;  103.205;   -8.716;  728.487
478.038;   97.543;   -9.577;  692.513
478.627;   98.735;   -9.718;  714.852
479.216;  105.765;   -8.947;  769.441
479.805;  108.061;   -6.256;  783.375
480.393;  108.555;   -7.937; 1008.945
480.982;  107.303;   -7.717;  874.501
481.571;  113.757;   -9.266;  858.333
482.159;  114.658;   -7.636;  705.386
482.748;  114.741;   -9.667;  821.385
483.336;  119.031;  -10.376;  858.209
483.925;  119.871;   -7.147;  774.373
484.513;  126.655;   -7.996;  758.962
485.102;  122.519;  -10.027;  810.965
485.690;  131.422;  -10.446; 1011.050
486.278;  134.531;   -8.446;  979.329
486.867;  135.615;   -6.356;  809.662
487.455;  137.023;   -9.136;  898.229
488.043;  138.686;  -10.646;  748.361
488.631;  147.848;   -7.456; 1005.079
489.220;  151.419;   -6.636;  908.626
489.808;  151.985;  -11.036;  741.415
490.396;  159.912;  -10.246;  914.645
490.984;  166.366;   -8.556;  830.161
491.572;  176.547;   -5.886;  940.315
492.160;  183.108;   -9.486;  919.081
492.748;  196.563;  -10.976;  884.341
493.336;  220.985;   -8.776; 1019.693
493.924;  248.491;   -5.465;  958.077
494.512;  278.118;   -9.986; 1066.638
495.100;  320.691;  -10.636; 1103.280
495.687;  378.334;  -10.885; 1206.373
496.275;  445.957;   -8.126; 1150.796
496.863;  520.677;  -10.586; 1281.171
497.451;  630.567;  -11.926; 1386.805
498.038;  770.755;  -10.885; 1556.729
498.626;  878.726;   -6.315; 1741.407
499.214; 1029.881;   -7.326; 2016.609
499.801; 1251.237;  -11.906; 2220.633
500.389; 1507.762;  -10.466; 2312.494
500.976; 1848.091;   -5.236; 2744.849
501.564; 2301.754;   -8.936; 3148.565
502.151; 2716.782;  -13.176; 3515.999
502.738; 3218.400;  -10.646; 3971.274
503.326; 3610.977;   -9.525; 4403.796
503.913; 4011.878;  -10.856; 5161.749
504.500; 4402.488;  -11.586; 5986.420
505.088; 4829.650;  -10.336; 6381.201
505.675; 5381.955;   -6.355; 6925.547
506.262; 6142.443;   -9.046; 7619.060
506.849; 6868.997;  -10.416; 8733.969
507.436; 7381.081;  -10.305; 9790.121
508.023; 8023.395;   -5.496; 9985.472
508.610; 8276.868;   -7.856;10434.618
509.197; 8941.660;  -10.097;11198.435
509.784;10406.146;  -10.886;12391.194
510.371;11445.550;   -9.315;13603.713
510.958;12168.001;   -9.936;14426.586
511.545;13004.371;   -9.326;15243.775
512.132;14057.680;  -10.075;15945.876
512.719;14850.140;   -7.796;16340.369
513.305;15788.940;  -10.606;18011.766
513.892;16671.459;  -11.486;19754.971
514.479;18074.736;   -9.126;20967.805
515.066;19374.219;   -6.026;22299.793
515.652;20589.023;   -8.466;22908.660
516.239;22158.082;  -10.886;23798.875
516.825;23496.896;  -11.496;25567.275
517.412;24785.824;   -5.796;28154.959
517.998;25344.805;  -10.506;28344.111
518.585;25194.150;  -10.076;27134.219
519.171;25775.623;   -8.315;27268.576
519.758;27497.799;   -8.596;28964.129
520.344;29196.463;   -8.466;30664.494
520.930;29141.221;  -11.006;32550.605
521.516;31200.906;  -10.495;35422.895
522.103;33830.223;   -5.526;38280.004
522.689;34638.180;   -8.746;37835.117
523.275;33681.676;  -11.376;37288.613
523.861;34293.488;  -11.156;37281.395
524.447;35699.918;   -8.135;37846.949
525.033;35529.254;   -7.896;38321.949
525.619;35825.594;  -12.476;38579.285
526.205;37697.590;   -9.516;40622.875
526.791;40079.016;   -6.926;42258.836
527.377;40095.109;   -8.346;42966.902
527.963;41999.258;   -8.717;42018.949
528.549;40236.441;  -11.016;42476.828
529.135;38946.152;   -8.536;41854.852
529.721;38537.953;   -9.666;41237.711
530.306;37991.648;  -10.066;41259.445
530.892;37748.156;  -11.356;41506.047
531.478;39243.773;   -6.596;43559.613
532.063;42165.586;   -8.836;47695.563
532.649;42117.074;  -10.047;50808.324
533.235;43339.105;   -9.746;51787.500
533.820;44756.656;   -6.566;52145.035
534.406;46259.523;  -10.817;51133.488
534.991;46042.020;   -9.416;49996.805
535.576;44578.809;   -9.036;48882.852
536.162;44797.465;   -6.156;46942.285
536.747;46038.879;  -11.607;45711.746
537.333;50301.781;  -11.787;48510.180
537.918;52756.738;  -12.437;50439.891
538.503;50946.703;   -7.196;50863.711
539.088;48123.750;  -10.556;50906.922
539.673;48177.918;   -8.767;52621.965
540.259;47829.363;  -10.026;52368.094
540.844;44746.699;   -7.416;50879.109
541.429;45816.516;   -9.467;52077.777
542.014;49151.559;   -9.527;52716.695
542.599;48478.449;   -9.946;52363.281
543.184;46302.898;   -7.927;53187.137
543.769;48248.848;   -9.297;54697.605
544.354;47256.246;  -10.127;53913.914
544.938;45877.305;   -9.267;49680.164
545.523;47621.066;   -6.506;47386.277
546.108;49758.238;   -9.787;49151.949
546.693;52132.727;  -11.587;51384.637
547.278;52326.797;  -10.986;51853.254
547.862;49000.008;   -8.206;51173.750
548.447;44107.375;  -10.067;51691.395
549.031;43944.813;   -9.637;52456.703
549.616;49136.555;   -9.926;52714.516
550.201;47700.332;   -6.347;52414.598
550.785;48863.816;   -7.917;52355.059
551.370;48223.676;  -10.867;54589.453
551.954;48633.148;   -9.047;58267.348
552.538;49334.344;   -7.827;59062.176
553.123;47730.113;  -10.287;58115.285
553.707;46026.695;  -12.178;56556.285
554.291;47140.168;   -8.717;56201.668
554.876;48975.301;   -7.457;55335.762
555.460;49361.398;  -10.387;54155.703
556.044;50657.906;   -9.618;53721.484
556.628;49021.348;  -11.567;53731.016
557.212;47451.609;   -8.097;54312.531
557.796;45956.434;  -11.077;53797.773
558.380;45516.234;  -11.108;56145.984
558.964;45789.820;   -9.057;57277.930
559.548;46614.289;   -6.977;56459.641
560.132;45396.762;  -11.457;54434.543
560.716;44412.113;  -11.378;54800.617
561.300;45768.027;   -9.577;57606.945
561.884;46805.477;   -7.127;58972.445
562.467;45361.484;   -7.118;57327.570
563.051;44178.977;  -13.358;54962.434
563.635;44773.852;  -10.178;52594.473
564.219;45595.305;   -7.837;50610.410
564.802;46647.930;  -11.398;49551.180
565.386;46783.219;  -12.788;48370.953
565.969;46203.820;   -9.077;48178.871
566.553;46094.215;   -6.207;49957.305
567.136;45977.227;   -8.568;50369.594
567.720;41688.148;  -11.868;49492.004
568.303;39829.980;   -8.268;50616.352
568.887;40085.039;   -8.698;50727.148
569.470;40085.281;   -6.808;51698.379
570.053;38514.945;  -13.188;52122.078
570.637;36918.219;  -12.037;52536.438
571.220;36523.738;   -8.577;51186.098
571.803;36761.918;   -8.498;51032.762
572.386;39447.371;  -10.498;49609.887
572.969;41929.379;   -9.388;48285.926
573.552;39755.863;   -8.338;47624.285
574.135;38545.473;   -8.518;45498.641
574.718;36034.020;  -13.628;41970.434
575.301;34575.492;  -10.893;41447.137
575.884;33116.969;   -8.158;40923.836
576.467;34763.066;  -10.328;45267.723
577.050;37623.645;  -13.058;48175.543
577.633;38937.078;   -9.458;47729.328
578.216;37473.340;   -8.928;47579.793
578.799;36526.879;   -9.358;47820.996
579.381;35050.500;  -11.388;48115.551
579.964;33682.910;  -11.718;47333.766
580.547;35372.035;   -8.588;46668.969
581.129;36608.793;   -8.859;44466.141
581.712;37092.828;  -10.729;44164.922
582.294;37738.535;  -11.118;46477.855
582.877;37570.422;   -5.218;48244.254
583.459;34982.422;   -8.679;47437.895
584.042;33293.863;  -10.709;46943.219
584.624;34411.410;  -11.669;46792.227
585.206;33923.449;   -8.218;46557.250
585.789;34274.086;  -10.569;45793.773
586.371;36968.918;  -11.859;43836.391
586.953;37043.813;  -10.719;42972.492
587.536;38300.676;   -7.198;42487.211
588.118;37597.563;   -8.720;42086.414
588.700;34581.016;  -10.439;43389.930
589.282;33999.445;   -9.198;43646.039
589.864;34876.801;   -9.199;43438.109
590.446;35513.063;  -11.319;43151.926
591.028;35032.988;  -11.159;42781.867
591.610;34144.945;  -11.779;42839.098
592.192;31992.385;   -7.668;42820.402
592.774;30627.006;  -11.949;40724.277
593.356;29406.377;  -12.129;39874.789
593.937;28573.605;  -10.669;39980.648
594.519;30957.646;   -6.509;42069.633
595.101;32926.953;  -10.849;42976.031
595.683;32867.414;  -11.679;44084.441
596.264;34130.605;   -9.049;43478.797
596.846;33086.207;   -8.849;43803.672
597.427;32682.391;   -9.570;42986.934
598.009;34324.719;  -12.620;42832.219
598.591;34475.348;  -10.039;42580.086
599.172;33254.457;  -10.369;43061.805
599.753;33351.609;   -9.140;41691.469
600.335;35153.785;  -11.430;40692.520
600.916;33745.586;   -9.939;39982.422
601.498;31308.086;   -8.479;40318.617
602.079;29927.941;  -10.920;40670.609
602.660;30270.016;  -11.480;41450.898
603.241;31643.490;  -11.699;41137.738
603.823;30344.779;   -9.579;38868.797
604.404;30581.773;  -10.620;38182.785
604.985;31780.768;  -10.450;38078.047
605.566;31002.299;   -9.129;38056.633
606.147;31170.445;   -7.510;37020.418
606.728;32986.223;  -10.660;37883.359
607.309;31573.471;  -11.740;38748.273
607.890;30859.787;   -9.759;38850.230
608.471;30506.059;   -8.250;37457.918
609.051;29594.578;   -9.240;36066.457
609.632;28673.068;  -12.120;35991.074
610.213;29670.750;   -9.110;37402.641
610.794;30083.732;   -8.030;38383.363
611.374;29532.570;   -8.110;40562.387
611.955;29889.563;  -13.560;38533.727
612.536;31126.279;  -11.400;36951.789
613.116;31291.295;   -8.070;37197.891
613.697;31366.352;  -10.830;38411.125
614.277;30166.734;  -11.641;38673.938
614.858;31143.180;  -13.310;37075.863
615.438;30070.662;   -7.460;35092.906
616.019;27006.916;   -7.601;33666.301
616.599;27793.973;  -12.020;34189.023
617.179;29651.246;  -11.780;36952.047
617.760;30367.926;   -8.570;39582.574
618.340;31425.963;  -11.471;38943.977
618.920;32790.410;  -11.170;37594.156
619.500;32773.273;  -11.071;37866.938
620.080;32148.625;   -7.750;37869.043
620.660;33386.211;  -12.711;36868.617
621.241;34832.816;  -10.211;36352.309
621.821;34895.879;  -10.961;35459.520
622.401;33765.258;   -7.720;35207.414
622.980;32872.422;   -8.981;35980.422
623.560;31471.141;   -9.331;37351.328
624.140;30548.207;   -9.850;34388.582
624.720;25135.344;   -7.451;32368.764
625.300;21594.051;   -9.070;32638.629
625.880;25001.170;  -12.601;34599.035
626.459;29132.355;  -11.751;36831.738
627.039;32392.943;   -9.281;38299.098
627.619;32282.797;   -8.801;38289.574
628.198;30471.666;  -12.071;37220.695
628.778;29473.293;   -9.461;37632.563
629.357;30268.832;   -8.491;38003.012
629.937;30490.174;   -9.721;38402.039
630.516;29865.197;   -9.951;37868.801
631.096;29344.041;  -11.731;35760.410
631.675;32771.078;   -8.572;35225.219
632.254;37743.980;  -11.282;35130.289
632.834;36983.047;  -13.322;35794.570
633.413;34797.574;  -10.301;35788.922
633.992;31523.385;   -8.582;34532.863
634.571;32517.252;   -8.352;33590.113
635.151;35196.633;  -11.912;34943.863
635.730;33658.887;  -10.511;35352.523
636.309;30564.168;   -7.731;35366.605
636.888;28556.059;   -9.952;36165.637
637.467;29790.570;  -11.672;37515.902
638.046;31414.545;   -8.901;39288.695
638.625;34463.117;   -7.912;38279.699
639.204;33915.773;  -10.022;37741.598
639.782;32164.930;  -12.252;38364.551
640.361;28260.268;  -10.041;36740.621
640.940;25446.035;  -11.161;34950.082
641.519;26102.734;   -9.701;34137.398
642.097;29268.563;  -11.271;35654.258
642.676;31956.404;   -8.651;35637.957
643.255;32242.086;   -8.711;36567.074
643.833;31372.490;   -9.581;37809.434
644.412;31666.311;  -13.711;37337.293
644.990;31114.713;  -11.811;37018.531
645.569;31663.795;   -9.411;36518.469
646.147;30303.141;  -10.291;36186.430
646.726;29317.100;  -12.401;36267.688
647.304;30117.154;  -10.411;36647.625
647.882;32383.791;   -9.651;39286.742
648.461;34241.738;   -9.631;39157.703
649.039;32115.242;  -11.881;35412.883
649.617;31398.697;   -9.661;34744.918
650.195;31220.561;   -9.301;35403.098
650.773;29635.684;  -10.511;35053.797
651.352;27443.324;  -11.521;33756.816
651.930;25341.418;  -12.211;31868.773
652.508;23770.346;   -9.171;33121.551
653.086;27742.793;   -9.371;33564.793
653.663;30255.260;  -13.161;34054.668
654.241;29533.510;  -13.031;35693.309
654.819;31261.246;   -9.371;36422.906
655.397;31193.893;  -10.511;38213.484
655.975;31103.516;  -10.371;39507.625
656.553;30620.355;  -10.051;39498.223
657.130;28977.303;  -10.061;40395.480
657.708;28591.277;   -9.561;39242.020
658.286;28514.201;  -11.511;38920.020
658.863;29559.486;  -10.261;40202.898
659.441;32658.389;   -7.531;39677.938
660.018;31931.441;   -9.501;40413.355
660.596;30838.865;  -13.301;39931.414
661.173;32900.953;  -11.211;39604.531
661.750;33118.527;   -9.951;39700.070
662.328;32370.443;   -9.390;39292.809
662.905;31284.037;  -11.330;38235.648
663.482;26365.172;   -9.050;36212.305
664.060;24583.842;   -8.240;35944.945
664.637;27560.295;  -10.050;35170.785
665.214;29524.516;  -11.760;34197.523
665.791;30722.525;  -10.530;34549.520
666.368;29302.605;   -9.690;35118.578
666.945;30507.279;   -9.320;36019.418
667.522;32024.645;  -11.860;36048.438
668.099;31943.639;  -10.770;36243.914
668.676;30843.221;   -6.260;35958.875
669.253;29295.404;   -7.000;37384.730
669.830;29962.529;  -10.190;36779.629
670.407;29713.010;   -9.550;35231.289
670.984;30112.941;   -9.260;35544.270
671.560;30270.164;   -9.280;35466.867
672.137;29007.467;  -11.810;34280.863
672.714;29815.965;  -11.490;34632.863
673.290;30208.850;   -7.740;35135.422
673.867;30728.988;  -10.660;36114.480
674.443;30250.311;  -12.230;36152.859
675.020;28546.451;  -10.450;35327.238
675.596;29879.025;   -9.260;35795.176
676.173;30350.383;  -10.780;35430.355
676.749;30333.588;  -13.690;33549.516
677.326;30476.443;  -11.980;32210.012
677.902;30415.014;   -8.630;32068.871
678.478;29569.742;  -10.730;32583.891
679.054;29226.863;  -10.520;32088.928
679.631;29429.400;  -11.920;30978.848
680.207;30902.924;   -7.490;33160.887
680.783;32411.311;   -9.860;35570.363
681.359;31457.947;  -13.380;36125.184
681.935;30785.502;  -12.480;35240.922
682.511;29733.867;   -7.900;34429.961
683.087;29951.082;   -7.710;34463.680
683.663;29823.945;  -11.480;34648.898
684.239;28415.967;  -14.090;34546.457
684.815;28052.340;   -7.560;35586.375
685.390;28460.576;   -9.910;35821.895
685.966;28879.543;  -11.159;35085.871
686.542;31445.098;  -11.169;34198.230
687.118;33328.176;   -5.959;32847.707
687.693;33196.820;  -10.329;32794.027
688.269;32856.320;  -12.059;33072.367
688.844;30889.096;  -10.909;33141.664
689.420;28560.133;   -8.019;33965.742
689.995;26223.422;   -8.399;34655.523
690.571;25067.742;  -10.949;33576.742
691.146;25701.238;   -9.619;32657.219
691.722;25181.844;   -8.999;32526.979
692.297;25740.811;  -11.589;33014.617
692.872;27671.326;  -11.739;34012.254
693.448;26886.262;  -11.059;34237.434
694.023;26155.275;  -10.139;34142.672
694.598;28259.742;   -9.029;34132.031
695.173;28323.773;  -13.319;34205.250
695.748;27562.949;  -10.169;32882.488
696.323;27311.223;   -8.339;32864.906
696.898;27583.885;   -8.169;33170.004
697.473;27408.352;  -12.309;32432.984
698.048;26935.078;  -10.989;31649.303
698.623;27264.402;   -9.329;30778.141
699.198;29427.338;   -9.849;31140.119
699.773;29993.117;  -12.329;31764.299
700.348;28274.340;  -10.389;31780.816
700.922;28199.348;   -9.269;32046.375
701.497;28646.154;   -9.329;32603.574
702.072;28590.441;  -10.789;34799.871
702.646;27554.563;  -10.839;35793.172
703.221;26069.021;   -9.099;35201.590
703.795;27924.068;  -10.939;34764.527
704.370;28030.824;  -12.859;34307.367
704.944;28599.979;  -11.559;33509.887
705.519;29651.490;   -7.939;31388.584
706.093;31159.717;  -10.499;31340.104
706.668;31097.014;  -11.289;32630.281
707.242;30110.457;  -11.509;32728.779
707.816;28636.947;   -9.639;32947.238
708.390;27104.799;  -11.429;33277.855
708.965;28022.070;  -11.869;33834.336
709.539;28663.736;  -11.689;33709.273
710.113;29082.621;  -10.478;33044.313
710.687;27947.959;  -10.228;31953.992
711.261;26025.400;  -13.698;30505.949
711.835;26036.467;  -13.378;30262.369
712.409;27085.699;   -9.698;31254.447
712.983;28732.004;  -11.898;32754.986
713.557;29419.047;  -15.138;34018.824
714.131;29152.010;  -14.098;34579.625
714.704;28393.982;   -9.958;33890.262
715.278;26250.535;  -10.028;33531.102
715.852;25551.803;  -11.148;33601.660
716.425;26487.674;   -9.068;33515.117
716.999;27079.762;  -10.038;33185.555
717.573;28123.783;   -9.798;33905.996
718.146;29141.008;  -12.378;35199.293
718.720;28697.957;  -11.918;35060.551
719.293;28065.371;   -8.088;34973.230
719.867;30848.252;  -10.888;36394.449
720.440;30097.129;  -11.938;36663.008
721.013;28336.547;  -12.818;35102.426
721.587;27308.301;  -10.298;33985.266
722.160;26667.887;  -10.048;33524.965
722.733;25743.916;  -12.108;32987.043
723.306;26098.199;  -10.818;33066.301
723.880;28202.408;   -8.908;33399.500
724.453;29381.584;   -9.878;33468.297
725.026;28266.828;  -11.188;33816.637
725.599;26269.754;  -11.678;32797.996
726.172;27316.346;   -9.618;33187.434
726.745;28566.520;   -8.258;35136.613
727.318;29955.398;  -12.978;35751.730
727.891;29893.807;  -12.148;35890.430
728.463;29383.098;   -8.968;34822.090
729.036;28634.375;  -10.188;32895.086
729.609;29054.393;  -11.788;31823.225
730.182;25956.590;  -11.788;31445.283
730.754;23475.320;  -10.268;32373.223
731.327;23441.715;   -9.998;33676.820
731.900;23916.711;  -12.228;33417.000
732.472;25409.740;  -13.848;31978.498
733.045;27084.230;   -8.698;30368.777
733.617;27175.303;  -10.607;30574.215
734.190;26475.801;  -11.507;31280.975
734.762;23241.268;  -13.647;31674.412
735.334;21875.043;   -9.767;31247.291
735.907;22858.955;   -9.897;29876.211
736.479;22752.129;  -11.637;29808.488
737.051;22258.371;   -9.567;30233.547
737.623;23235.031;   -8.187;31469.086
738.195;24445.275;  -11.187;31784.225
738.768;26604.768;  -12.337;32120.523
739.340;26167.967;  -12.227;32094.342
739.912;24661.779;  -11.057;31312.680
740.484;23405.695;  -10.207;31946.238
741.056;22672.520;  -10.047;32984.059
741.628;24547.420;  -13.627;33897.715
742.199;26790.268;   -7.177;33213.016
742.771;25060.270;  -10.797;31369.113
743.343;22634.801;  -11.997;31865.473
743.915;21704.230;  -12.867;32388.631
744.487;21898.730;   -7.617;31079.568
745.058;22001.785;   -9.557;30570.107
745.630;22411.551;   -9.877;29970.127
746.201;22886.988;  -14.177;29186.766
746.773;22957.682;   -9.237;28805.723
747.344;22922.490;   -9.847;29591.223
747.916;21955.791;  -11.657;31412.201
748.487;22456.029;  -10.587;32194.898
749.059;23608.406;   -8.707;32533.719
749.630;24301.213;  -10.537;32158.518
750.201;23562.564;  -11.687;30855.395
750.773;21852.854;  -11.647;28622.555
751.344;21826.426;   -7.147;28405.732
751.915;22831.836;   -9.757;28461.551
752.486;22201.031;  -12.427;27842.850
753.057;20086.875;  -12.227;27845.008
753.628;19173.662;  -10.417;27728.107
754.199;20436.652;  -11.767;27381.086
754.770;21340.168;  -11.187;25882.203
755.341;21256.314;  -10.507;25886.184
755.912;21075.537;   -9.387;26050.861
756.483;20477.994;  -10.647;26798.779
757.054;18633.734;  -11.837;27048.238
757.625;17443.494;  -12.716;26294.838
758.195;17430.986;   -9.666;26142.076
758.766;17266.848;   -8.656;26392.234
759.337;18099.619;  -12.856;26334.594
759.907;19914.395;  -13.366;27579.652
760.478;20657.990;   -8.576;28352.770
761.048;19771.850;  -10.526;27325.088
761.619;18952.395;  -11.116;26460.428
762.189;19172.467;  -12.136;26029.826
762.760;20539.307;   -9.456;26430.145
763.330;21367.797;   -7.136;26670.902
763.900;20549.973;  -11.786;26603.021
764.471;17942.594;  -11.546;25542.740
765.041;16689.160;   -8.096;24358.459
765.611;16788.879;   -8.876;23991.297
766.181;17285.635;  -12.196;24470.236
766.751;18261.250;  -11.636;24845.975
767.321;17866.822;  -10.156;24533.633
767.891;15760.173;  -11.766;24916.492
768.461;15327.872;  -14.936;24776.771
769.031;15961.188;  -12.356;24757.988
769.601;17373.830;   -7.526;24181.088
770.171;17118.051;  -10.766;23670.387
770.741;16635.313;  -13.176;22960.045
771.311;17017.949;  -10.616;22917.523
771.880;17205.512;   -9.576;23562.941
772.450;16898.428;  -10.336;24216.500
773.020;17071.701;  -13.516;24140.398
773.589;16489.262;  -13.466;24414.857
774.159;15886.540;   -8.686;23858.717
774.729;15479.831;   -9.476;22942.135
775.298;14922.712;  -13.666;22324.033
775.867;14529.480;  -11.716;21140.313
776.437;14483.436;   -9.906;20838.092
777.006;14182.619;  -12.166;20599.510
777.576;14128.829;  -12.356;20508.809
778.145;14405.077;  -11.646;20732.947
778.714;14268.982;   -8.226;21062.465
779.283;13503.858;   -9.556;20949.664
779.853;13120.222;  -14.116;20508.623
780.422;13584.503;  -11.506;20649.082
780.991;13180.608;   -9.556;21527.520
781.560;12091.171;   -9.095;22632.658
782.129;11902.372;  -12.135;23048.277
782.698;11901.176;  -10.865;23438.555
783.267;11515.445;   -9.335;23267.734
783.836;11555.061;  -11.045;22415.133
784.404;12586.596;  -13.865;20443.152
784.973;13054.043;  -13.095;19699.150
785.542;13007.640;  -11.575;19763.828
786.111;12906.503;   -9.705;20341.408
786.679;12316.910;  -12.105;20207.967
787.248;12050.157;  -12.455;19516.465
787.817;11832.514;  -11.535;18900.363
788.385;11377.862;   -9.765;17879.121
788.954;10785.357;  -14.005;17658.301
789.522;10339.981;  -11.955;17788.879
790.090;10912.320;  -10.135;18118.277
790.659;11213.514;  -10.975;18338.736
791.227;10704.422;  -13.375;18508.615
791.795;11190.982;  -12.375;17898.254
792.364;11451.844;  -10.725;17295.133
792.932;11597.801;   -9.715;16822.051
793.500;11830.262;  -12.675;17040.148
794.068;12165.883;  -13.495;17179.787
794.636;12248.943;  -10.885;16664.246
795.204;11789.106;  -11.045;16524.545
795.772;11844.050;  -13.175;17274.564
796.340;11371.906;  -12.445;17891.002
796.908;11221.551;   -9.735;17648.561
797.476;11083.888;   -9.815;17064.080
798.044;10653.739;  -13.985;16672.777
798.612; 9872.981;  -13.115;17023.996
799.180; 9500.060;  -10.185;16561.615
799.747; 9428.509;   -9.055;15962.773
800.315; 9165.755;  -12.385;15296.992
800.883; 8770.263;  -15.035;14801.771
801.450; 8699.174;  -10.365;14534.430
802.018; 8753.646;   -9.855;14173.248
802.585; 8925.830;  -11.905;14029.547
803.153; 9041.308;  -11.585;13836.846
803.720; 8894.711;   -9.095;13567.324
804.287; 8443.628;   -9.135;13360.622
804.855; 8055.936;  -11.604;13681.981
805.422; 7936.127;  -11.794;13536.560
805.989; 7910.360;  -10.734;13355.958
806.556; 8142.288;  -10.444;13747.896
807.124; 8446.631;  -12.764;13987.376
807.691; 8405.211;  -12.964;14038.674
808.258; 8139.167;  -11.134;14120.152
808.825; 7744.335;   -9.854;13860.111
809.392; 7772.299;  -10.504;13268.790
809.959; 7364.878;  -13.054;12680.389
810.526; 7025.008;   -8.294;12427.308
811.093; 7101.927;   -8.394;12030.105
811.659; 7616.745;  -12.304;11653.664
812.226; 7983.882;  -13.944;11637.183
812.793; 7600.377;  -10.484;11611.521
813.360; 6976.280;  -10.144;11885.181
813.926; 6719.616;  -11.684;12770.539
814.493; 6548.577;  -13.644;12677.638
815.060; 6217.090;   -9.724;11974.336
815.626; 6287.562;   -9.854;11594.715
816.193; 6674.441;  -13.254;11579.474
816.759; 6694.344;  -13.204;11666.972
817.325; 6805.730;   -9.434;11325.530
817.892; 7200.924;  -10.134;11105.369
818.458; 7599.989;  -13.474;10843.928
819.024; 7156.166;  -11.854;10714.406
819.591; 6832.787;  -10.244;10469.165
820.157; 6637.594;  -10.704;10235.523
820.723; 6187.775;  -12.324;10847.563
821.289; 5897.352;   -9.444;11040.980
821.855; 5741.046;   -8.374;10357.100
822.421; 5616.549;  -10.234; 9978.918
822.987; 5565.417;  -13.294; 9754.177
823.553; 5325.969;  -10.884;10065.755
824.119; 5213.931;   -8.884;10036.294
824.685; 5269.499;   -6.784;10029.192
825.251; 5332.250;  -12.004;10199.230
825.816; 5312.846;  -11.474; 9820.189
826.382; 5135.452;   -9.174; 9297.248
826.948; 5395.743;   -9.214; 9381.347
827.513; 5718.870;  -10.774; 9450.726
828.079; 5483.579;  -11.924; 9472.444
828.645; 4985.782;  -10.543; 9292.643
829.210; 4986.824;  -10.533; 9065.341
829.776; 4961.356;  -10.753; 9132.620
830.341; 4814.083;  -10.173; 9092.878
830.906; 5002.269;  -10.743; 9078.557
831.472; 5288.397;  -11.113; 8534.535
832.037; 4957.840;  -10.603; 8677.874
832.602; 4398.203;  -13.323; 8628.692
833.167; 4171.223;  -10.823; 8879.031
833.733; 4126.533;  -10.113; 9189.790
834.298; 4232.647;  -13.583; 9052.608
834.863; 4256.460;  -12.703; 8895.087
835.428; 4252.436;  -10.523; 8824.266
835.993; 4171.411;   -6.963; 8845.385
836.558; 4075.217;  -10.763; 8888.563
837.123; 4232.358;   -9.903; 8966.582
837.688; 4432.384;   -9.913; 8617.860
838.253; 4606.015;  -10.283; 8590.699
838.817; 4789.859;  -12.963; 8443.797
839.382; 4692.260;  -14.243; 8799.356
839.947; 4390.922;  -10.733; 8810.595
840.511; 4089.014;   -9.383; 8796.394
841.076; 3743.264;  -12.563; 8347.231
841.641; 3832.076;  -12.953; 8224.330
842.205; 3927.970;   -7.043; 8223.349
842.770; 4064.732;   -8.163; 8622.107
843.334; 4265.525;  -12.503; 8410.386
843.898; 4245.028;  -11.693; 8337.465
844.463; 4272.479;  -10.203; 8506.283
845.027; 4037.639;   -9.533; 8280.962
845.591; 3860.562;  -13.443; 8231.141
846.156; 3804.822;  -13.143; 7969.179
846.720; 3679.330;   -9.433; 7768.278
847.284; 3538.628;  -11.033; 7630.957
847.848; 3399.629;  -10.403; 7472.395
848.412; 3291.425;  -11.553; 7437.394
848.976; 3322.989;   -8.393; 7674.592
849.540; 3290.143;   -8.713; 7836.011
850.104; 3436.851;  -12.463; 7913.669
850.668; 3758.076;  -12.973; 7694.508
851.232; 3819.775;  -10.793; 7756.887
851.796; 3657.247;  -10.662; 7926.545
852.359; 3380.641;  -13.082; 7827.844
852.923; 3248.473;  -12.192; 7641.163
853.487; 3088.103;  -11.912; 7342.501
854.050; 3032.036;  -10.892; 7042.820
854.614; 3134.197;  -13.992; 7151.338
855.177; 3231.800;  -11.732; 7105.077
855.741; 3260.176;   -8.962; 6989.675
856.304; 3164.976;   -9.442; 6596.634
856.868; 3122.014;  -14.192; 6356.272
857.431; 3236.124;  -12.702; 6468.571
857.995; 3366.139;   -9.942; 6373.210
858.558; 3367.285;   -9.112; 6324.448
859.121; 3100.466;  -12.932; 6408.327
859.684; 2996.870;  -13.442; 6347.886
860.247; 3086.620;  -10.632; 6321.264
860.810; 3054.027;  -11.272; 6301.903
861.374; 2798.283;   -9.832; 6607.881
861.937; 2566.463;  -11.762; 6408.200
862.500; 2578.158;   -9.722; 6572.639
863.062; 2758.781;  -10.512; 6387.297
863.625; 2918.769;  -11.232; 6190.836
864.188; 3074.000;  -14.112; 5807.254
864.751; 3135.893;  -11.302; 5682.413
865.314; 3018.247;  -10.112; 5547.492
865.876; 2833.272;  -12.182; 5500.150
866.439; 2838.526;  -10.722; 5415.909
867.002; 2771.672;   -9.252; 5501.567
867.564; 2549.278;   -9.572; 5413.946
868.127; 2323.630;  -13.142; 5160.325
868.689; 2224.966;  -12.902; 5133.183
869.252; 2119.718;   -9.732; 5252.382
869.814; 2028.215;   -9.432; 5297.141
870.377; 2051.069;  -11.552; 5390.919
870.939; 2131.031;   -9.052; 5599.898
871.501; 2184.240;  -10.982; 5248.336
872.063; 2177.005;  -12.292; 4854.235
872.626; 2143.239;  -14.912; 4817.074
873.188; 2178.265;  -13.112; 4987.732
873.750; 2144.929;  -13.442; 4868.651
874.312; 2062.098;   -9.402; 4779.330
874.874; 1967.143;  -11.062; 4866.348
875.436; 1874.016;  -13.931; 4718.887
875.998; 1859.023;   -9.561; 4660.005
876.560; 1870.720;  -11.321; 4462.964
877.122; 1819.315;  -12.221; 4145.042
877.683; 1742.658;  -12.191; 4056.481
878.245; 1677.127;  -12.101; 3950.740
878.807; 1718.165;   -8.971; 4058.958
879.369; 1738.874;  -12.071; 3954.677
879.930; 1648.904;  -14.621; 3941.495
880.492; 1594.895;  -10.311; 4067.014
881.053; 1542.104;  -10.901; 3859.633
881.615; 1423.187;  -14.411; 3776.071
882.176; 1337.631;  -13.761; 3734.750
882.738; 1299.498;   -9.181; 3678.489
883.299; 1275.984;  -11.791; 3405.407
883.860; 1288.647;  -13.121; 3351.106
884.422; 1287.812;  -11.211; 3394.044
884.983; 1234.199;  -10.091; 3166.443
885.544; 1149.675;   -8.461; 3189.802
886.105; 1073.776;  -12.361; 3160.360
886.666; 1013.419;  -14.141; 3093.059
887.227;  962.680;  -11.361; 2941.957
887.788;  903.180;  -11.401; 2974.836
888.349;  842.671;  -13.791; 2721.214
888.910;  844.010;  -13.191; 2696.493
889.471;  851.503;   -9.881; 2560.172
890.032;  830.596;   -9.881; 2558.190
890.593;  808.177;  -10.371; 2567.669
891.153;  784.341;  -13.301; 2460.307
891.714;  734.838;  -11.431; 2372.046
892.275;  691.400;  -11.291; 2309.505
892.835;  646.266;  -11.471; 2382.543
893.396;  591.331;  -11.541; 2295.502
893.956;  537.238;  -11.181; 2162.420
894.517;  504.906;  -11.741; 2125.439
895.077;  503.461;  -11.671; 2086.978
895.638;  503.443;  -11.311; 2126.316
896.198;  475.756;   -9.831; 1838.275
896.758;  434.921;   -8.421; 1892.813
897.319;  405.499;  -12.351; 1792.232
897.879;  388.942;  -13.511; 1762.751
898.439;  363.689;  -12.001; 1661.149
898.999;  339.954;  -10.180; 1781.468
899.559;  330.798;  -12.030; 1703.347
900.119;  326.122;  -15.710; 1537.525
900.679;  322.089;   -8.900; 1638.384
901.239;  307.912;   -8.340; 1527.902
901.799;  298.850;  -13.910; 1456.441
902.359;  294.305;  -13.460; 1357.140
902.919;  287.822;  -11.490; 1331.118
903.479;  274.448;  -12.110; 1317.257
904.038;  255.489;  -11.720; 1262.595
904.598;  240.711;  -13.610; 1152.034
905.158;  237.845;  -11.040; 1240.893
905.717;  229.268;  -10.900; 1233.691
906.277;  217.259;  -15.080; 1217.330
906.836;  208.500;  -13.380; 1222.408
907.396;  201.233;  -10.780; 1193.047
907.955;  193.114;   -8.500; 1182.526
908.515;  188.902;  -12.760; 1099.364
909.074;  182.645;  -11.900; 1092.863
909.633;  176.966;   -8.950; 1069.121
910.192;  172.665;   -8.770; 1196.460
910.752;  167.733;  -12.390; 1029.960
911.311;  162.966;  -13.680; 1009.780
911.870;  162.475;  -12.370;  971.460
912.429;  163.898;  -10.900; 1094.080
912.988;  161.956;  -11.690; 1081.060
913.547;  156.789;  -13.240;  940.380
914.106;  152.273;  -11.990;  999.420
914.665;  149.777;   -9.990;  984.020
915.224;  149.227;  -12.880; 1035.760
915.782;  148.723;  -12.350;  922.560
916.341;  148.355;   -9.110; 1049.840
916.900;  144.598;   -9.270;  925.260
917.458;  142.239;  -13.240;  884.220
918.017;  142.713;  -13.550;  942.600
918.576;  141.792;  -12.320;  904.440
919.134;  140.014;  -11.490;  837.980
919.693;  138.092;  -13.670;  893.060
920.251;  135.894;  -15.470;  876.500
920.809;  134.809;  -11.290;  839.580
921.368;  135.423;  -10.210;  885.360
921.926;  133.589;  -12.140;  842.940
922.484;  132.408;  -13.080;  903.360
923.042;  132.626;  -11.720;  880.340
923.601;  135.879;   -7.480;  998.680
924.159;  133.264;  -11.570;  935.560
924.717;  129.497;  -13.840;  841.080
925.275;  130.704;  -10.640;  903.240
925.833;  130.394;  -11.540;  779.320
926.391;  131.461;  -12.960;  938.380
926.949;  128.499;  -14.130;  857.680
927.506;  128.878;  -11.750;  903.500
928.064;  129.586;  -10.250;  877.580
928.622;  128.332;  -13.030;  880.100
929.180;  127.827;  -13.400;  814.180
929.737;  130.064;  -10.700;  808.540
930.295;  133.244;  -10.070;  928.480
930.853;  133.924;  -11.960;  849.100
931.410;  134.591;  -13.120;  821.120
931.968;  134.781;  -10.770;  940.660
932.525;  135.108;  -10.680;  909.380
933.082;  135.093;  -13.130;  811.440
933.640;  135.465;  -13.210;  925.900
934.197;  133.341;  -11.060;  886.360
934.754;  134.487;   -9.580;  897.780
935.312;  137.511;  -14.000;  863.340
935.869;  140.926;  -10.710; 1012.980
936.426;  142.712;   -9.860;  872.800
936.983;  143.033;   -9.710;  889.020
937.540;  141.805;  -13.990;  838.280
938.097;  138.730;  -14.040;  940.120
938.654;  140.820;  -10.310;  898.860
939.211;  143.963;  -10.560;  952.480
939.768;  147.572;  -13.900;  915.420
940.324;  150.289;  -14.760;  904.200
940.881;  151.221;  -10.370;  878.500
941.438;  151.647;   -8.260; 1021.200
941.995;  146.862;  -12.540;  992.560
942.551;  144.800;  -14.670;  875.620
943.108;  145.961;  -10.450;  937.920
943.664;  148.591;  -10.750;  869.340
944.221;  151.839;  -11.550; 1088.140
944.777;  149.054;  -14.770;  869.680
945.334;  150.480;  -12.820;  884.840
945.890;  151.436;  -10.130;  946.480
946.446;  151.315;  -13.470;  947.020
947.003;  153.106;  -12.120;  964.940
947.559;  155.782;   -9.980; 1063.040
948.115;  155.545;   -9.080; 1026.540
948.671;  153.689;  -10.830;  967.300
949.227;  150.998;  -12.440;  859.560
949.783;  148.947;  -12.910;  858.900
950.339;  150.678;  -10.270;  991.000
950.895;  150.155;  -13.630; 1023.840
951.451;  150.072;  -15.100;  925.280
952.007;  150.558;  -11.330;  998.540
952.563;  150.499;  -10.580;  937.780
953.118;  149.084;  -13.440;  904.940
953.674;  149.087;  -12.710;  935.780
954.230;  147.885;  -10.350;  949.640
954.785;  145.921;   -9.190;  936.640
955.341;  143.388;  -11.200;  998.160
955.897;  142.405;  -16.560;  834.660
956.452;  143.711;  -12.570;  953.840
957.008;  142.815;   -7.970; 1083.640
957.563;  141.199;  -11.940; 1009.540
958.118;  136.345;  -13.450;  877.700
958.674;  137.881;  -12.030;  946.780
959.229;  138.208;   -9.410; 1013.980
959.784;  136.290;  -12.000;  832.400
960.339;  134.832;  -14.780; 1001.280
960.894;  131.123;   -9.860;  963.760
961.449;  127.048;   -9.970;  859.960
962.004;  127.258;  -10.900; 1212.840
962.559;  122.329;  -13.150;  860.140
963.114;  120.707;  -13.740;  742.480
963.669;  119.933;   -9.820;  915.500
964.224;  118.660;  -13.890;  874.340
964.779;  116.928;  -12.600;  828.420
965.334;  118.222;  -10.950; 1017.860
965.888;  117.375;  -11.170;  875.360
966.443;  119.234;  -12.540;  972.380
966.998;  118.903;  -15.780;  819.460
967.552;  118.341;   -9.760;  908.380
968.107;  113.856;   -9.060;  868.300
968.661;  115.646;  -11.950;  922.440
969.216;  115.887;  -12.800;  856.280
969.770;  117.382;  -11.210;  917.200
970.324;  115.270;  -11.610;  923.140
970.879;  112.742;  -11.370;  947.180
971.433;  108.809;  -12.540;  952.720
971.987;  104.099;  -11.320;  895.340
972.541;  101.503;  -10.720;  917.100
973.095;  101.155;   -9.680; 1009.460
973.649;   98.504;  -11.440;  809.480
974.203;   98.366;  -11.210;  829.040
974.757;   98.098;  -10.240;  855.220
975.311;   98.543;  -13.720;  872.600
975.865;   97.787;  -13.770;  881.820
976.419;   95.235;  -11.690;  857.400
976.973;   96.521;   -9.510;  849.620
977.526;   98.053;  -12.620;  949.920
978.080;   97.803;  -12.010;  796.780
978.634;   98.748;  -10.170;  921.320
979.187;   95.747;   -9.020;  905.400
979.741;   92.216;   -9.820; 1018.380
980.294;   87.918;  -14.870;  789.160
980.848;   86.967;  -12.380;  717.220
981.401;   88.306;  -10.350;  816.540
981.955;   90.334;  -13.720;  844.300
982.508;   88.990;  -11.490;  746.340
983.061;   89.423;  -10.000;  915.260
983.615;   85.589;  -11.480;  798.800
984.168;   83.135;  -13.220;  770.080
984.721;   82.739;  -13.960;  880.760
985.274;   81.466;  -10.870;  867.500
985.827;   80.803;   -9.790;  834.220
986.380;   78.709;  -13.120;  721.340
986.933;   77.589;  -12.450;  864.800
987.486;   75.695;  -10.210;  861.920
988.039;   75.083;   -8.430;  863.100
988.591;   73.017;  -10.520;  893.260
989.144;   69.896;  -14.860;  737.260
989.697;   70.092;  -13.080;  758.740
990.250;   70.464;  -10.150;  858.100
990.802;   70.013;  -13.430;  755.860
991.355;   70.720;  -12.750;  974.880
991.907;   68.253;  -12.040;  864.320
992.460;   65.786;  -11.330;  753.760
993.012;   64.918;  -13.610;  749.540
993.565;   64.068;  -13.460;  711.360
994.117;   65.246;   -9.360;  950.780
994.669;   61.843;  -11.300;  701.320
995.221;   60.107;  -13.540;  791.920
995.774;   59.459;  -13.430;  787.580
996.326;   57.413;  -12.520;  740.220
996.878;   56.508;  -10.950;  838.420
997.430;   54.915;  -14.300;  699.860
997.982;   53.808;  -13.760;  750.140
998.534;   53.600;  -11.530;  739.060
999.086;   52.333;  -10.310;  738.220
999.638;   51.284;  -12.530;  661.380
1000.190;   50.126;  -11.840;  699.320
1000.741;   50.176;  -10.260;  742.700
1001.293;   50.007;   -8.860;  686.020
1001.845;   48.161;  -13.700;  676.640
1002.396;   49.133;  -12.100;  743.400
1002.948;   48.059;  -12.760;  737.400
1003.500;   46.784;  -10.380;  723.780
1004.051;   47.561;  -11.900;  907.580
1004.603;   45.819;  -12.250;  791.820
1005.154;   41.710;  -13.210;  608.980
1005.705;   41.781;  -10.950;  723.960
1006.257;   40.564;  -13.880;  707.220
1006.808;   39.571;  -12.840;  685.460
1007.359;   39.157;  -10.570;  763.240
1007.910;   39.223;   -9.620;  646.640
1008.461;   38.446;  -13.630;  732.940
1009.013;   37.713;  -17.200;  588.340
1009.564;   38.646;  -10.200;  793.520
1010.115;   36.717;  -12.570;  597.040
1010.665;   36.192;  -15.150;  602.160
1011.216;   35.682;  -14.480;  667.920
1011.767;   35.404;  -11.340;  697.920
1012.318;   35.796;   -9.780;  736.980
1012.869;   34.359;  -12.380;  679.000
1013.419;   34.277;  -15.560;  603.120
1013.970;   34.963;  -11.010;  666.640
1014.521;   34.289;  -11.610;  620.620
1015.071;   33.728;  -13.450;  670.380
1015.622;   33.079;  -13.870;  635.460
1016.172;   32.546;  -11.610;  596.820
1016.723;   32.650;  -12.120;  614.380
1017.273;   32.238;  -13.620;  604.160
1017.823;   32.448;  -14.140;  650.340
1018.374;   32.433;  -12.800;  611.760
1018.924;   32.437;  -12.340;  716.880
1019.474;   32.270;  -11.410;  718.880
1020.024;   31.253;  -14.770;  657.580
1020.574;   31.241;   -9.780;  726.160
1021.124;   30.742;   -8.560;  673.580
1021.674;   30.161;  -15.190;  559.120
1022.224;   31.803;  -13.530;  708.940
1022.774;   30.873;  -13.280;  668.820
1023.324;   31.486;  -10.690;  753.520
1023.874;   32.009;  -10.240;  875.760
1024.423;   29.598;  -12.540;  613.700
1024.973;   29.783;  -10.010;  610.760
1025.523;   28.627;  -10.550;  620.960
1026.072;   28.335;  -13.560;  606.420
1026.622;   27.876;  -15.120;  675.740
1027.172;   29.653;  -11.260;  715.660
1027.721;   28.408;  -11.410;  601.220
1028.270;   28.409;  -13.530;  663.400
1028.820;   27.814;  -13.680;  638.080
1029.369;   28.301;  -13.520;  612.700
1029.918;   27.836;  -10.980;  649.840
1030.468;   27.355;  -13.530;  564.780
1031.017;   28.221;  -13.170;  634.800
1031.566;   26.910;  -12.200;  608.900
1032.115;   27.070;   -9.960;  694.500
1032.664;   26.212;  -13.210;  596.480
1033.213;   27.082;  -12.500;  735.420
1033.762;   27.122;  -11.910;  635.620
1034.311;   26.440;   -9.640;  677.220
1034.860;   26.153;  -13.310;  691.000
1035.408;   26.613;  -11.830;  722.720
1035.957;   26.888;  -12.000;  719.540
1036.506;   24.297;  -11.690;  530.800
1037.055;   27.271;  -10.990;  844.320
1037.603;   25.164;  -15.120;  664.000
1038.152;   24.017;  -12.450;  534.760
1038.700;   25.017;  -10.560;  585.740
1039.249;   24.118;  -11.080;  681.220
1039.797;   24.455;  -12.540;  633.360
1040.345;   25.009;  -11.920;  705.420
1040.894;   24.417;  -11.410;  625.300
1041.442;   23.257;  -14.320;  632.200
1041.990;   22.741;  -16.240;  559.160
1042.538;   22.887;  -11.680;  536.180
1043.087;   23.306;  -10.760;  570.860
1043.635;   24.344;  -11.850;  670.500
1044.183;   22.569;  -15.480;  586.400
1044.731;   22.143;  -11.770;  576.000
1045.279;   22.220;  -13.090;  674.920
1045.827;   24.160;  -12.440;  892.400
1046.374;   21.692;  -13.840;  515.420
1046.922;   20.843;  -13.220;  590.580
1047.470;   22.691;  -10.230;  691.300
1048.018;   21.734;  -14.590;  647.960
1048.565;   23.194;  -12.050;  708.600
1049.113;   21.278;  -11.650;  557.000
1049.660;   21.936;  -10.510;  629.660
1050.208;   21.654;  -13.310;  675.640
1050.755;   20.850;  -15.900;  606.580
1051.303;   21.360;  -11.430;  686.820
1051.850;   21.200;   -8.480;  635.120
1052.397;   18.448;  -15.010;  473.960
1052.945;   19.205;  -13.960;  617.760
1053.492;   21.340;  -13.150;  741.840
1054.039;   21.140;   -9.630;  720.180
1054.586;   19.572;  -13.680;  557.240
1055.133;   20.601;  -14.570;  693.140
1055.680;   20.335;  -13.820;  646.620
1056.227;   19.278;  -11.730;  542.780
1056.774;   21.049;  -12.480;  794.980
1057.321;   18.804;  -13.930;  523.260
1057.868;   19.599;  -11.690;  651.320
1058.415;   19.369;   -9.520;  651.980
1058.961;   19.129;  -13.160;  678.940
1059.508;   18.751;  -12.920;  643.820
1060.055;   18.786;  -11.920;  581.780
1060.601;   19.205;  -11.500;  624.300
1061.148;   19.301;  -14.330;  616.820
1061.694;   18.294;  -16.870;  592.580
1062.241;   18.736;  -10.330;  596.320
1062.787;   18.626;  -10.620;  663.140
1063.334;   19.510;  -10.110;  808.560
1063.880;   17.664;  -13.400;  668.360
1064.426;   18.370;  -10.680;  706.820
1064.972;   16.811;   -9.920;  601.340
1065.518;   15.686;  -10.980;  566.640
1066.065;   17.494;  -14.890;  624.460
1066.611;   17.163;  -12.870;  598.800
1067.157;   17.489;  -12.950;  641.860
1067.703;   16.713;  -13.540;  668.480
1068.249;   17.052;  -13.540;  605.220
1068.794;   16.600;  -12.600;  626.880
1069.340;   15.983;  -10.620;  578.960
1069.886;   16.509;  -12.830;  590.700
1070.432;   15.308;  -14.870;  541.720
1070.977;   16.143;  -11.980;  601.080
1071.523;   15.556;   -8.200;  573.060
1072.068;   15.475;  -12.330;  582.000
1072.614;   16.254;  -16.370;  527.760
1073.160;   16.232;  -11.100;  687.040
1073.705;   14.742;  -10.480;  572.520
1074.250;   14.935;  -14.520;  559.900
1074.796;   15.757;  -11.460;  655.160
1075.341;   16.218;  -11.950;  664.100
1075.886;   15.434;  -11.460;  594.240
1076.431;   14.632;  -13.770;  649.880
1076.976;   14.379;  -12.680;  639.220
1077.521;   14.108;  -13.170;  583.080
1078.067;   13.788;  -10.860;  579.400
1078.612;   14.136;  -13.920;  661.620
1079.156;   14.257;  -13.880;  601.540
1079.701;   14.455;  -13.120;  693.260
1080.246;   14.185;   -9.940;  696.300
1080.791;   14.073;  -14.740;  625.020
1081.336;   13.784;  -13.750;  659.320
1081.880;   14.433;  -13.400;  649.680
1082.425;   13.032;  -12.220;  573.480
1082.970;   14.368;  -11.610;  717.040
1083.514;   12.973;  -13.580;  597.000
1084.059;   12.329;  -12.810;  586.720
1084.603;   12.933;  -12.320;  565.840
1085.147;   12.662;  -13.190;  645.220
1085.692;   13.143;  -12.480;  716.800
1086.236;   11.811;  -13.020;  503.140
1086.780;   13.901;   -9.190;  751.440
1087.325;   12.460;  -12.480;  654.620
1087.869;   12.559;  -12.450;  610.700
1088.413;   13.195;  -12.240;  705.040
1088.957;   11.571;   -9.020;  543.400
1089.501;   13.002;  -10.320;  766.640
1090.045;   12.318;  -12.720;  726.480
1090.589;   10.049;  -13.690;  569.920
1091.133;   11.657;  -10.020;  673.340
1091.676;   11.917;  -12.330;  591.940
1092.220;   11.283;  -14.970;  600.920
1092.764;   11.918;  -12.430;  706.960
1093.307;   11.747;   -9.800;  673.780
1093.851;   10.956;  -14.970;  556.540
1094.395;   11.599;  -15.310;  683.140
1094.938;   11.066;  -10.370;  632.520
1095.482;   10.884;  -11.050;  559.800
1096.025;   11.243;  -11.840;  710.880
1096.568;   11.027;  -12.840;  779.280
1097.112;    8.973;  -14.700;  508.180
1097.655;   10.532;   -8.720;  603.000
1098.198;    9.244;  -13.610;  600.180
1098.741;    9.945;  -13.350;  612.860
1099.285;   10.745;  -11.230;  657.300
1099.828;    8.432;  -11.840;  439.400
1100.371;   10.014;  -10.840;  608.160
1100.914;    9.777;  -14.190;  682.660
1101.457;    9.235;  -11.240;  679.900
1101.999;    8.335;  -11.270;  584.680
1102.542;    9.518;  -11.480;  641.440
1103.085;    8.379;  -11.750;  658.500
1103.628;   10.019;  -11.400;  762.060
1104.170;    9.082;  -10.490;  588.280
1104.713;    8.971;  -10.600;  646.700
1105.256;    8.768;  -14.360;  557.440
1105.798;    7.497;  -13.210;  499.980
1106.341;    9.683;  -10.270;  728.900
1106.883;    8.275;  -12.200;  521.340
1107.425;    8.256;  -13.110;  668.180
1107.968;    8.100;  -12.840;  612.380
1108.510;    8.509;   -6.480;  684.960
1109.052;    6.791;  -13.940;  612.620
1109.594;    7.485;  -13.690;  554.440
1110.136;    7.971;  -11.880;  643.220
1110.679;    7.086;   -9.500;  633.080
1111.221;    8.303;  -14.160;  604.460
1111.763;    7.068;  -13.980;  559.220
1112.304;    6.621;  -13.880;  547.140
1112.846;    7.776;  -12.210;  666.240
1113.388;    9.579;  -11.390;  942.180
1113.930;    6.733;  -14.540;  694.200
1114.472;    6.199;  -12.640;  606.540
1115.013;    5.842;  -11.620;  551.280
1115.555;    6.490;  -13.640;  587.100
1116.097;    5.316;  -15.380;  579.480
1116.638;    7.016;  -12.640;  684.600
1117.180;    7.627;   -9.850;  667.740
1117.721;    6.129;  -13.690;  568.580
1118.262;    7.172;  -12.680;  677.960
1118.804;    6.869;  -12.530;  637.340
1119.345;    6.005;  -11.690;  578.400
1119.886;    6.389;  -13.380;  704.040
1120.427;    5.288;  -14.070;  589.020
1120.969;    5.407;  -13.500;  597.920
1121.510;    5.113;  -11.480;  563.060
1122.051;    5.940;  -12.830;  723.580
1122.592;    5.095;  -14.290;  655.420
1123.133;    4.402;  -12.400;  547.940
1123.673;    5.617;  -10.130;  706.480
1124.214;    4.571;  -12.930;  612.460
1124.755;    5.817;  -14.380;  639.460
1125.296;    5.687;  -14.000;  627.320
1125.836;    6.478;  -10.070;  691.500
1126.377;    4.321;  -12.640;  599.660
1126.918;    4.563;  -12.960;  614.980
1127.458;    4.521;  -13.350;  622.220
1127.999;    5.521;  -10.750;  656.980
1128.539;    4.616;  -12.350;  694.240
1129.079;    4.595;  -14.860;  632.720
1129.620;    3.195;  -13.840;  558.100
1130.160;    3.910;  -12.330;  539.480
1130.700;    4.260;  -14.530;  640.840
1131.240;    5.050;  -12.530;  643.700
1131.781;    3.961;  -14.450;  619.680
1132.321;    3.409;   -9.790;  599.120
1132.861;    2.676;  -14.860;  564.200
1133.401;    3.190;  -14.290;  593.940
1133.941;    3.378;  -11.750;  626.280
1134.481;    3.390;   -9.920;  597.580
1135.020;    2.001;  -12.290;  609.160
1135.560;    3.293;  -11.650;  674.940
1136.100;    3.638;  -16.270;  501.160
1136.640;    2.685;  -10.890;  510.480
1137.179;    3.004;  -14.180;  537.960
1137.719;    3.615;  -16.250;  605.400
1138.258;    2.786;  -14.230;  587.360
1138.798;    2.928;   -9.090;  663.780
1139.337;    1.731;  -15.130;  482.840
1139.877;    2.954;  -13.680;  642.360
1140.416;    4.589;  -11.320;  878.060
1140.955;    1.910;  -10.860;  535.380
1141.494;    2.608;  -12.920;  669.280
1142.034;    2.700;  -13.930;  583.520
1142.573;    2.993;  -11.440;  646.280
1143.112;    2.369;  -12.000;  553.480
1143.651;    2.147;  -13.670;  536.480
1144.190;    2.899;  -12.730;  691.640
1144.729;    1.686;  -14.560;  607.420
1145.267;    1.633;  -11.830;  584.900
1145.806;    2.241;  -12.230;  637.040
1146.345;    1.818;  -14.130;  635.020
1146.884;    1.793;  -11.590;  622.500
1147.422;    1.269;  -12.550;  533.060
1147.961;    2.900;  -11.180;  708.460
1148.500;    2.542;  -11.510;  669.720
1149.038;    2.083;  -11.640;  632.500
1149.577;    2.943;  -10.130;  698.640
1150.115;   -0.237;  -13.970;  452.280
1150.653;    1.226;  -14.520;  607.340
1151.192;    1.820;  -12.810;  552.920
1151.730;    1.454;   -9.100;  652.560
1152.268;    0.681;  -12.220;  589.520
1152.806;    1.117;  -14.140;  571.180
1153.344;   -0.062;  -12.350;  577.640
1153.882;    1.263;   -8.980;  600.060
1154.421;   -0.821;  -15.190;  470.620
1154.958;    0.273;  -15.210;  595.240
1155.496;    1.427;  -12.850;  645.280
1156.034;    1.252;   -9.940;  721.880
1156.572;    1.469;  -13.570;  667.060
1157.110;   -1.216;  -14.590;  473.940
1157.647;    0.268;  -13.030;  676.960
1158.185;    0.276;  -12.140;  564.320
1158.723;   -1.206;  -14.390;  509.200
1159.260;   -0.162;  -14.090;  701.700
1159.798;    0.136;  -11.920;  658.160
1160.335;   -0.491;  -11.110;  631.820

