gmr_left
Integration time [ms]: 4415.405
Averaging Nr. [scans]: 10
Smoothing Nr. [pixels]: 0
Data measured with spectrometer [name]: 7414430SP
Wave   ;Sample   ;Dark     ;Reference
[nm]   ;[counts] ;[counts] ;[counts] 

288.544; 5685.530; 5481.567;    6.613
289.143; 4606.749; 4445.805;   14.216
289.742; 6053.483; 5944.782;   11.816
290.341; 5756.779; 5549.822;   -4.936
290.940; 5266.167; 5126.334;    0.852
291.538; 6692.522; 6565.967;    1.792
292.137; 5888.936; 5724.192;    6.262
292.736; 7710.079; 7451.822;    8.164
293.335; 5388.055; 5236.041;   -6.418
293.934; 5830.943; 5668.136;   -2.904
294.532; 8277.345; 8170.262;   -5.162
295.131; 6528.868; 6327.777;  -10.283
295.730; 6309.003; 6165.880;  -16.141
296.328; 6073.407; 5919.741;  -14.740
296.927; 6010.665; 5823.527;   -8.768
297.525; 6015.715; 5870.784;  -15.255
298.124; 4861.723; 4719.534;  -22.063
298.722; 5849.287; 5667.405;  -14.796
299.321; 5400.075; 5160.111;  -10.466
299.919; 5788.492; 5655.808;  -10.979
300.518; 5269.535; 5062.438;  -12.077
301.116; 5250.070; 5088.125;  -13.509
301.715; 5620.978; 5476.557;  -11.939
302.313; 5404.473; 5256.375;  -15.424
302.911; 5770.213; 5621.171;  -19.833
303.509; 7604.168; 7470.388;   -3.567
304.108; 5941.324; 5754.438;   -9.553
304.706; 6383.275; 6182.500;   -8.582
305.304; 6482.448; 6357.468;  -12.348
305.902; 6153.625; 5985.563;  -14.411
306.500; 5717.795; 5621.059;   -7.194
307.098; 5936.518; 5766.937;   -9.322
307.696; 6339.272; 6148.666;  -19.192
308.294; 5823.594; 5652.933;   -9.736
308.892; 6062.343; 5935.455;  -15.482
309.490; 5610.212; 5442.755;  -14.107
310.088; 6453.026; 6295.396;  -15.862
310.686; 6620.314; 6399.270;  -10.781
311.284; 6220.362; 6134.692;  -14.878
311.882; 5743.950; 5647.399;   -9.948
312.480; 5554.464; 5377.040;  -15.503
313.078; 6693.192; 6571.419;  -17.262
313.675; 5483.996; 5344.059;   -3.694
314.273; 6586.126; 6491.006;  -18.246
314.871; 4519.116; 4387.228;  -15.190
315.468; 5181.213; 5086.171;  -12.633
316.066; 5546.311; 5378.019;   -5.765
316.664; 5206.108; 5124.990;  -14.317
317.261; 7653.199; 7501.531;   -8.677
317.859; 6436.458; 6383.247;  -11.804
318.456; 6995.645; 6947.801;   -3.107
319.054; 6556.494; 6478.350;   -3.062
319.651; 6220.550; 6074.594;   -6.706
320.249; 6882.150; 6764.594;   -5.206
320.846; 5909.058; 5767.831;   -4.679
321.443; 7135.092; 7003.613;   -7.920
322.041; 6983.387; 6863.432;  -14.105
322.638; 5909.889; 5873.557;   -6.263
323.235; 5444.973; 5353.375;   -7.424
323.833; 6259.377; 6144.042;  -14.765
324.430; 4969.040; 4823.814;  -10.550
325.027; 7526.601; 7492.045;   -9.951
325.624; 5185.721; 5037.771;   -3.712
326.221; 5587.433; 5515.481;   -9.368
326.818; 6886.756; 6752.095;   -5.637
327.415; 6028.305; 5883.005;   -6.699
328.012; 5454.912; 5293.117;   -5.713
328.609; 5801.500; 5667.824;   -9.983
329.206; 6364.055; 6302.553;   -7.154
329.803; 5839.376; 5770.431;   -1.682
330.400; 5509.538; 5373.857;   -2.741
330.997; 6529.346; 6398.510;   -4.339
331.594; 6337.330; 6309.646;  -10.278
332.191; 5630.500; 5513.435;   -6.967
332.787; 6730.917; 6623.131;   -0.480
333.384; 5920.111; 5864.241;  -10.333
333.981; 6493.049; 6493.301;  -19.900
334.578; 5385.617; 5197.644;  -19.816
335.174; 5591.203; 5451.614;  -15.844
335.771; 6691.505; 6559.961;  -12.670
336.367; 5544.024; 5394.394;  -21.124
336.964; 6347.813; 6137.810;  -18.226
337.561; 5733.276; 5655.582;  -13.311
338.157; 7532.801; 7429.612;  -19.006
338.754; 6388.952; 6305.286;  -19.418
339.350; 5697.425; 5531.421;  -29.433
339.946; 6086.634; 5908.979;  -16.622
340.543; 6846.654; 6726.633;  -16.744
341.139; 5739.468; 5622.079;  -21.841
341.735; 6342.918; 6137.947;  -25.012
342.332; 5515.774; 5311.191;  -19.156
342.928; 6504.727; 6365.379;  -20.443
343.524; 6296.178; 6140.857;  -14.397
344.120; 6051.653; 6034.729;  -20.654
344.716; 5723.778; 5567.636;   -5.730
345.313; 6541.045; 6491.590;  -10.929
345.909; 4908.525; 4700.448;  -19.843
346.505; 6043.247; 5954.910;  -19.645
347.101; 6818.155; 6646.147;   -9.618
347.697; 6471.570; 6396.497;  -10.305
348.293; 4874.404; 4852.084;  -23.189
348.889; 6100.419; 5965.240;  -18.418
349.485; 5476.085; 5374.457;  -10.476
350.081; 6335.279; 6229.540;  -17.320
350.676; 5572.874; 5471.969;  -21.088
351.272; 6685.038; 6672.840;  -12.821
351.868; 6308.860; 6170.107;  -13.165
352.464; 5799.334; 5717.784;  -12.464
353.059; 5148.469; 5013.372;  -22.547
353.655; 6452.173; 6246.942;   -9.379
354.251; 6176.555; 6029.314;   -8.266
354.846; 6053.437; 6051.520;  -17.705
355.442; 6126.393; 6058.985;   -9.317
356.038; 6094.962; 6001.648;  -11.049
356.633; 5878.531; 5753.728;  -10.006
357.229; 5890.546; 5792.494;  -13.120
357.824; 5712.238; 5618.256;  -15.647
358.420; 5486.408; 5342.335;  -19.204
359.015; 5543.074; 5433.553;  -12.263
359.610; 6335.074; 6199.748;  -16.421
360.206; 4743.532; 4613.949;  -20.074
360.801; 5121.416; 4989.573;  -13.277
361.396; 5896.734; 5775.979;   -5.822
361.992; 5409.838; 5307.256;  -11.247
362.587; 5416.154; 5357.827;  -21.502
363.182; 5593.048; 5457.229;   -7.461
363.777; 6127.214; 6069.447;   -8.719
364.372; 6055.198; 6050.361;  -14.590
364.967; 5588.749; 5475.840;  -15.145
365.563; 6765.089; 6697.708;   -7.192
366.158; 5551.042; 5421.507;   -5.662
366.753; 5219.545; 5143.757;   -8.378
367.348; 6190.167; 6005.246;  -14.990
367.942; 5689.870; 5506.497;   -6.005
368.537; 6243.979; 6153.150;  -11.504
369.132; 5774.055; 5757.342;  -10.576
369.727; 5112.903; 5037.765;  -12.573
370.322; 4699.152; 4595.091;  -11.560
370.917; 5922.274; 5842.969;  -10.388
371.511; 7398.847; 7311.299;   -9.161
372.106; 6622.749; 6524.840;  -10.245
372.701; 4711.264; 4616.606;  -10.158
373.296; 7297.948; 7212.424;   -4.719
373.890; 5334.354; 5243.827;  -11.802
374.485; 5789.497; 5755.458;  -13.500
375.079; 6266.257; 6165.272;   -6.276
375.674; 6916.403; 6819.348;   -0.447
376.268; 5723.030; 5693.824;   -6.916
376.863; 4800.700; 4784.930;  -14.483
377.457; 5517.547; 5440.104;   -6.903
378.052; 6493.620; 6456.656;   -9.844
378.646; 6382.591; 6323.666;  -12.601
379.240; 6143.703; 6030.570;  -14.715
379.835; 5355.835; 5223.005;  -12.331
380.429; 4636.533; 4499.880;   -9.074
381.023; 6725.115; 6686.475;   -1.729
381.617; 5796.110; 5705.293;  -13.714
382.212; 5798.753; 5704.022;   -7.060
382.806; 6542.247; 6396.104;   -2.303
383.400; 5817.571; 5801.524;   -0.815
383.994; 5718.583; 5653.428;   -4.429
384.588; 6050.084; 5945.137;   -6.261
385.182; 6284.991; 6274.639;    0.008
385.776; 6176.970; 6114.302;   -3.247
386.370; 5907.042; 5866.729;   -1.030
386.964; 5922.942; 5861.118;   -1.346
387.558; 5103.345; 5033.563;   -2.020
388.152; 5936.581; 5824.887;   -5.345
388.745; 7252.498; 7222.972;   -2.774
389.339; 6420.664; 6398.385;    3.510
389.933; 5904.009; 5911.655;    5.280
390.527; 7705.701; 7723.223;    2.610
391.120; 5187.473; 5074.455;   -7.914
391.714; 6180.316; 6149.989;   -1.903
392.308; 6949.251; 6811.480;    6.023
392.901; 5657.782; 5654.012;   -4.103
393.495; 5231.934; 5211.686;    3.284
394.089; 6885.115; 6843.864;    8.655
394.682; 6238.344; 6168.854;    2.312
395.275; 6467.720; 6403.851;   -7.402
395.869; 5991.906; 5942.626;   -1.072
396.462; 5465.245; 5435.979;    6.454
397.056; 6909.568; 6978.566;    8.494
397.649; 6598.357; 6572.689;    1.599
398.242; 6425.906; 6452.210;    3.153
398.836; 6876.406; 6924.404;   11.395
399.429; 5547.240; 5454.381;   14.695
400.022; 5990.572; 5910.649;    3.627
400.615; 7343.895; 7402.917;    8.383
401.208; 6102.804; 6070.474;   13.295
401.802; 6330.072; 6342.039;    6.211
402.395; 6200.672; 6126.649;    7.227
402.988; 6270.762; 6313.481;    2.700
403.581; 5664.191; 5668.250;   11.225
404.174; 6066.013; 6065.711;   18.922
404.767; 5613.603; 5544.959;   14.169
405.360; 5605.393; 5603.596;    8.999
405.953; 6857.775; 6861.483;   13.138
406.545; 6569.370; 6542.691;   13.937
407.138; 5518.369; 5510.982;   10.869
407.731; 5478.932; 5483.144;   12.768
408.324; 5876.038; 5857.034;   22.921
408.917; 6156.690; 6175.639;   15.308
409.509; 6703.116; 6749.184;   12.239
410.102; 5861.593; 5889.791;   13.741
410.695; 5971.384; 5923.110;   20.249
411.287; 5381.926; 5452.936;   21.793
411.880; 5243.648; 5246.813;   22.965
412.472; 5496.921; 5503.170;   15.082
413.065; 5724.484; 5735.526;   23.423
413.657; 5180.062; 5136.232;   21.077
414.250; 5821.982; 5801.180;   12.349
414.842; 6142.880; 6125.665;   20.423
415.434; 5134.979; 5145.124;   19.906
416.027; 5797.578; 5797.902;   26.574
416.619; 6479.309; 6455.239;   15.705
417.211; 5361.819; 5399.212;   17.791
417.804; 5611.427; 5649.034;   30.244
418.396; 5483.029; 5505.186;   24.177
418.988; 5947.668; 5929.539;   24.904
419.580; 5069.758; 5079.981;   20.692
420.172; 4848.420; 4804.532;   22.275
420.764; 6001.875; 6028.040;   26.773
421.356; 5764.475; 5735.846;   25.731
421.948; 6100.688; 6057.486;   24.876
422.540; 6084.551; 5988.426;   30.042
423.132; 5353.459; 5316.469;   32.728
423.724; 4963.487; 4990.750;   21.317
424.316; 5588.519; 5562.991;   29.359
424.908; 5294.171; 5306.763;   28.798
425.500; 5828.995; 5839.766;   30.512
426.092; 5786.808; 5813.795;   26.741
426.683; 6275.563; 6207.331;   27.029
427.275; 5728.386; 5706.112;   32.611
427.867; 5934.792; 5901.224;   33.796
428.458; 6604.622; 6570.214;   34.453
429.050; 6144.332; 6174.799;   34.255
429.642; 6689.371; 6702.152;   39.082
430.233; 4917.060; 4973.373;   41.138
430.825; 6627.367; 6574.290;   31.581
431.416; 6286.065; 6312.776;   35.755
432.008; 5757.404; 5785.518;   40.566
432.599; 5775.096; 5835.669;   46.322
433.190; 5693.133; 5673.924;   46.897
433.782; 4988.152; 5016.940;   41.069
434.373; 7904.285; 7932.891;   48.778
434.964; 5243.317; 5238.937;   50.078
435.556; 5611.533; 5643.313;   52.381
436.147; 6798.947; 6783.538;   38.251
436.738; 6217.187; 6216.626;   47.237
437.329; 6371.451; 6411.497;   61.304
437.920; 5812.688; 5909.043;   48.611
438.511; 4884.118; 4911.158;   44.910
439.103; 5422.854; 5442.359;   62.404
439.694; 5994.702; 6077.560;   63.075
440.285; 6575.536; 6606.342;   61.033
440.876; 7624.170; 7624.930;   57.249
441.466; 4946.994; 4938.128;   61.306
442.057; 5776.724; 5784.021;   65.773
442.648; 6607.807; 6629.352;   65.676
443.239; 5403.824; 5509.049;   55.963
443.830; 6195.790; 6119.850;   69.631
444.421; 5653.103; 5690.269;   69.943
445.011; 6067.400; 6044.240;   72.791
445.602; 6513.565; 6527.138;   68.848
446.193; 4024.144; 4025.969;   80.044
446.783; 5381.458; 5385.583;   82.599
447.374; 5955.178; 5929.362;   77.419
447.964; 6229.488; 6208.335;   72.605
448.555; 7141.427; 7223.662;   82.041
449.145; 5644.751; 5738.081;   76.230
449.736; 7006.614; 7014.854;   75.545
450.326; 6126.680; 6179.876;   67.945
450.917; 5732.552; 5723.790;   77.598
451.507; 5061.603; 5082.658;   68.027
452.097; 6458.015; 6490.368;   67.771
452.688; 6326.301; 6304.533;   62.884
453.278; 4556.179; 4527.655;   65.512
453.868; 6886.777; 6909.113;   71.796
454.458; 5489.252; 5508.596;   60.956
455.048; 6053.522; 6086.480;   62.356
455.639; 4680.320; 4670.133;   58.782
456.229; 5990.228; 6017.371;   65.209
456.819; 6322.423; 6310.384;   61.466
457.409; 6611.826; 6598.245;   59.967
457.999; 6182.896; 6187.713;   58.093
458.589; 5655.568; 5658.654;   59.536
459.179; 6044.201; 6018.506;   55.994
459.769; 5138.391; 5190.143;   43.624
460.358; 6735.103; 6708.826;   46.978
460.948; 5684.975; 5771.766;   49.821
461.538; 5421.635; 5352.872;   54.678
462.128; 5483.028; 5494.371;   49.309
462.717; 5806.315; 5833.634;   52.774
463.307; 5791.022; 5816.940;   48.101
463.897; 5301.680; 5357.948;   45.606
464.486; 7124.432; 7205.232;   45.010
465.076; 6061.896; 6073.297;   45.519
465.666; 5173.881; 5225.046;   50.058
466.255; 6570.271; 6590.100;   44.463
466.845; 5330.146; 5408.971;   41.206
467.434; 5927.375; 5963.350;   44.847
468.023; 5177.326; 5214.607;   46.760
468.613; 5814.869; 5777.654;   39.736
469.202; 5120.062; 5139.515;   46.461
469.791; 5876.892; 5905.020;   47.944
470.381; 5882.266; 5864.085;   47.529
470.970; 5657.007; 5605.980;   43.773
471.559; 5951.634; 5959.650;   41.646
472.148; 5237.839; 5252.221;   37.914
472.738; 6059.630; 6089.373;   48.071
473.327; 4848.300; 4874.257;   47.871
473.916; 5864.717; 5828.759;   37.716
474.505; 5932.637; 5974.484;   40.256
475.094; 6482.586; 6482.811;   43.269
475.683; 6288.442; 6371.471;   36.499
476.272; 5672.449; 5731.389;   44.542
476.861; 5397.432; 5407.887;   42.297
477.449; 5552.186; 5546.784;   46.878
478.038; 5195.873; 5151.392;   35.156
478.627; 5397.771; 5446.267;   42.514
479.216; 5859.159; 5893.335;   43.937
479.805; 5948.646; 5937.625;   51.393
480.393; 8128.869; 8145.920;   53.239
480.982; 6895.467; 6924.600;   38.955
481.571; 6628.650; 6654.682;   45.436
482.159; 5067.234; 5077.721;   51.007
482.748; 6240.125; 6295.164;   49.695
483.336; 6486.726; 6456.484;   48.280
483.925; 5639.542; 5467.250;   47.166
484.513; 5465.453; 5475.321;   55.404
485.102; 5943.098; 5977.104;   54.238
485.690; 7788.063; 7717.101;   55.748
486.278; 7509.939; 7496.097;   55.934
486.867; 5760.795; 5782.952;   57.106
487.455; 6590.955; 6500.668;   56.979
488.043; 5089.465; 5053.642;   57.564
488.631; 7489.833; 7444.375;   57.432
489.220; 6510.953; 6447.516;   63.646
489.808; 4837.702; 4790.870;   65.449
490.396; 6420.245; 6508.084;   61.977
490.984; 5476.073; 5490.074;   68.834
491.572; 6462.738; 6475.361;   70.775
492.160; 6076.165; 6070.642;   67.564
492.748; 5603.238; 5624.583;   66.808
493.336; 6556.290; 6545.354;   79.747
493.924; 5571.219; 5510.734;   88.688
494.512; 6454.751; 6351.001;   84.120
495.100; 6281.542; 6290.639;   86.250
495.687; 6702.697; 6684.661;  103.074
496.275; 5363.939; 5360.486;  108.717
496.863; 5601.581; 5635.797;  107.035
497.451; 5518.711; 5572.718;  117.993
498.038; 5855.630; 5881.833;  120.116
498.626; 5619.005; 5611.704;  143.059
499.214; 6083.140; 5977.097;  153.434
499.801; 5876.355; 5898.863;  175.121
500.389; 4751.070; 4766.602;  185.617
500.976; 6164.924; 6136.526;  215.789
501.564; 5898.989; 5944.840;  240.321
502.151; 4199.869; 4163.698;  267.007
502.738; 5545.914; 5479.358;  317.961
503.326; 5665.997; 5638.856;  361.216
503.913; 5947.868; 6019.282;  401.433
504.500; 6080.472; 6033.949;  446.492
505.088; 5185.323; 5161.012;  512.063
505.675; 5680.183; 5645.826;  586.387
506.262; 5603.192; 5691.702;  671.021
506.849; 5792.518; 5799.219;  759.062
507.436; 6569.387; 6604.688;  849.788
508.023; 5731.222; 5724.595;  944.288
508.610; 6372.131; 6444.249; 1020.690
509.197; 6169.916; 6140.315; 1089.052
509.784; 5776.309; 5717.176; 1133.776
510.371; 4809.104; 4775.968; 1165.501
510.958; 5909.212; 5882.843; 1251.735
511.545; 6853.031; 6857.054; 1350.248
512.132; 5765.546; 5698.793; 1525.945
512.719; 5128.468; 5104.282; 1834.933
513.305; 5316.467; 5310.962; 1965.349
513.892; 6738.201; 6702.550; 1963.265
514.479; 5916.453; 5832.516; 2046.446
515.066; 6504.417; 6464.414; 2252.803
515.652; 5879.456; 5881.377; 2567.247
516.239; 6305.282; 6313.117; 2636.919
516.825; 4882.087; 4921.298; 2482.304
517.412; 7322.461; 7283.559; 2427.031
517.998; 5657.358; 5628.919; 2540.463
518.585; 5575.168; 5531.698; 2609.007
519.171; 5927.119; 5920.734; 2842.088
519.758; 4975.048; 4972.529; 3090.703
520.344; 6453.209; 6431.176; 3176.076
520.930; 5129.155; 5097.474; 3295.037
521.516; 6171.771; 6125.727; 3500.959
522.103; 6777.853; 6779.321; 3736.704
522.689; 5587.794; 5566.632; 3971.022
523.275; 6597.352; 6608.807; 4213.778
523.861; 5674.784; 5668.242; 4190.361
524.447; 6547.077; 6462.714; 4070.602
525.033; 6639.407; 6618.856; 4088.892
525.619; 5335.109; 5328.593; 4416.851
526.205; 4979.679; 5023.866; 4836.835
526.791; 5615.616; 5627.483; 4885.903
527.377; 5389.336; 5337.652; 4544.907
527.963; 5946.621; 5968.302; 4321.995
528.549; 6084.357; 6039.599; 4473.979
529.135; 5294.557; 5226.988; 4788.663
529.721; 5846.482; 5866.922; 4888.577
530.306; 7991.757; 7995.599; 4775.779
530.892; 5568.763; 5557.906; 4793.906
531.478; 5439.762; 5415.170; 4956.948
532.063; 5186.816; 5180.705; 5136.936
532.649; 7241.177; 7262.157; 5336.867
533.235; 5197.043; 5212.764; 5748.092
533.820; 6690.966; 6608.546; 6456.875
534.406; 5669.543; 5666.180; 6590.167
534.991; 5247.860; 5289.655; 6179.622
535.576; 5730.105; 5694.926; 6098.691
536.162; 8047.941; 7974.028; 6441.234
536.747; 4946.774; 4940.101; 6816.224
537.333; 5295.354; 5302.154; 6889.752
537.918; 5755.296; 5755.368; 7154.280
538.503; 5391.863; 5371.101; 7150.848
539.088; 6064.008; 6099.467; 7253.308
539.673; 5532.130; 5513.345; 7625.180
540.259; 5340.677; 5372.741; 8226.793
540.844; 4722.708; 4634.856; 8745.092
541.429; 7085.557; 7120.016; 8762.553
542.014; 4884.701; 4949.771; 8871.497
542.599; 6045.338; 6063.583; 8886.008
543.184; 5046.532; 5041.082; 9079.139
543.769; 5362.670; 5326.045; 9076.182
544.354; 5539.635; 5529.138; 8354.081
544.938; 6017.177; 5998.352; 8236.809
545.523; 7028.521; 7062.691; 8222.179
546.108; 5766.138; 5738.999; 8114.082
546.693; 5713.296; 5653.590; 8535.912
547.278; 5734.297; 5769.494; 9238.322
547.862; 5756.961; 5704.975; 9034.405
548.447; 6470.355; 6339.890; 7795.011
549.031; 5541.710; 5521.425; 7485.099
549.616; 5972.841; 5912.444; 7626.308
550.201; 5357.413; 5297.260; 7627.909
550.785; 6226.377; 6214.963; 7859.125
551.370; 5007.930; 4994.762; 7990.654
551.954; 6450.816; 6431.926; 8196.468
552.538; 6307.389; 6355.256; 7959.495
553.123; 5356.115; 5310.801; 7964.826
553.707; 5601.378; 5611.185; 8515.957
554.291; 6765.742; 6768.055; 8724.024
554.876; 6379.023; 6346.844; 8524.211
555.460; 5406.637; 5443.484; 8704.456
556.044; 5342.774; 5278.934; 9141.473
556.628; 5788.203; 5740.702; 9250.197
557.212; 6616.523; 6627.428; 9444.237
557.796; 5632.479; 5621.699; 9379.783
558.380; 6087.349; 6056.000; 9353.658
558.964; 5903.516; 5879.121; 9210.310
559.548; 4947.955; 4817.085; 8475.153
560.132; 5536.586; 5477.422; 7954.084
560.716; 5105.634; 5065.040; 7489.529
561.300; 5011.852; 4919.223; 7211.952
561.884; 6247.063; 6281.613; 7141.313
562.467; 6193.795; 6136.076; 7155.386
563.051; 5794.613; 5819.092; 7323.158
563.635; 5684.671; 5635.267; 7709.114
564.219; 5749.233; 5793.623; 7678.855
564.802; 6229.431; 6082.983; 7376.187
565.386; 5905.069; 5788.142; 7054.372
565.969; 6814.462; 6725.002; 6589.196
566.553; 7479.930; 7384.373; 6279.371
567.136; 6729.136; 6652.970; 5967.930
567.720; 5942.895; 5855.687; 5660.703
568.303; 6140.242; 6024.082; 5648.615
568.887; 5974.853; 5900.250; 5618.443
569.470; 6142.919; 6009.495; 5411.875
570.053; 6421.250; 6312.610; 5149.274
570.637; 5439.573; 5194.587; 5122.798
571.220; 6530.023; 6360.649; 4957.369
571.803; 7610.892; 7391.436; 4933.018
572.386; 5816.744; 5532.818; 4840.973
572.969; 5854.925; 5597.191; 4592.886
573.552; 6008.697; 5723.006; 4348.387
574.135; 5426.914; 5165.314; 4002.290
574.718; 5677.910; 5343.841; 3654.773
575.301; 5681.854; 5304.195; 3502.288
575.884; 5685.798; 5264.548; 3349.803
576.467; 7051.195; 6533.687; 3191.403
577.050; 6612.090; 5972.505; 3062.418
577.633; 7851.149; 7248.194; 3214.200
578.216; 6314.107; 5558.591; 3284.889
578.799; 6408.694; 5724.172; 3189.777
579.381; 8340.761; 7434.709; 3064.502
579.964; 6239.978; 5321.185; 2888.357
580.547; 7002.161; 5915.515; 2905.760
581.129; 8058.784; 6835.004; 2966.849
581.712; 7375.226; 6015.829; 2887.292
582.294; 7260.776; 5849.670; 2771.631
582.877; 9092.760; 7448.779; 2711.602
583.459; 7485.287; 5788.865; 2577.049
584.042; 7543.882; 5660.878; 2454.707
584.624; 7293.494; 5359.783; 2305.893
585.206; 6603.836; 4502.581; 2189.546
585.789; 7640.865; 5443.987; 2112.577
586.371; 8337.785; 6153.545; 2153.065
586.953; 8706.645; 6358.040; 2197.806
587.536; 9280.107; 6688.591; 2105.489
588.118; 8415.740; 5611.886; 1963.911
588.700; 9899.340; 6837.664; 1843.179
589.282; 9529.089; 6205.185; 1813.834
589.864; 9432.370; 5914.974; 1777.620
590.446; 8478.213; 4743.410; 1733.780
591.028; 9907.391; 5847.532; 1676.008
591.610; 9255.085; 4786.935; 1631.649
592.192;10740.437; 5910.192; 1632.362
592.774; 9938.354; 5196.694; 1569.507
593.356;10186.750; 5367.054; 1524.539
593.937;10595.900; 5418.089; 1569.720
594.519;12384.617; 6522.980; 1569.049
595.101;11085.003; 4808.242; 1545.452
595.683;12049.364; 5511.083; 1607.568
596.264;12789.313; 5733.994; 1615.506
596.846;12860.411; 5498.674; 1667.622
597.427;12845.169; 5333.876; 1670.469
598.009;13047.208; 5250.839; 1640.312
598.591;14040.845; 6341.651; 1541.022
599.172;13187.520; 5532.522; 1598.665
599.753;13328.301; 4953.922; 1619.068
600.335;15556.180; 6869.655; 1548.612
600.916;14902.935; 5819.093; 1607.510
601.498;15537.648; 6126.318; 1745.181
602.079;15841.973; 5848.932; 1801.011
602.660;16245.757; 5679.777; 1834.640
603.241;15491.328; 4596.565; 1787.351
603.823;16699.924; 5401.384; 1684.266
604.404;16188.825; 5057.730; 1654.241
604.985;17012.994; 5519.615; 1758.741
605.566;18585.207; 6349.618; 1697.679
606.147;18134.877; 5562.404; 1526.728
606.728;17627.975; 4921.279; 1484.086
607.309;17803.709; 5387.576; 1421.070
607.890;18013.729; 5481.176; 1369.867
608.471;18422.834; 5259.773; 1277.826
609.051;19758.066; 5983.847; 1180.416
609.632;19809.596; 5226.962; 1075.816
610.213;20784.979; 5714.655; 1053.313
610.794;21162.896; 5559.546;  979.442
611.374;22635.818; 6096.424;  917.414
611.955;22118.711; 4899.117;  819.987
612.536;23113.770; 5966.681;  752.627
613.116;23221.891; 5384.559;  690.799
613.697;22839.328; 5447.814;  674.974
614.277;22184.686; 5180.669;  663.846
614.858;21559.523; 5392.605;  665.898
615.438;22171.145; 5736.678;  660.712
616.019;23252.529; 6710.619;  632.732
616.599;21359.234; 4412.995;  551.759
617.179;23342.215; 5059.368;  512.871
617.760;26701.516; 7737.757;  473.655
618.340;24843.785; 5604.474;  440.004
618.920;26356.289; 7001.850;  429.731
619.500;24968.781; 5482.418;  441.361
620.080;24154.408; 5209.867;  425.202
620.660;24295.496; 5209.864;  408.164
621.241;25292.146; 5514.510;  387.161
621.821;25866.236; 5837.731;  378.017
622.401;26555.818; 6505.840;  379.188
622.980;25061.748; 4903.247;  350.019
623.560;25682.920; 5521.576;  336.446
624.140;25333.262; 5821.860;  336.473
624.720;24859.930; 6055.745;  334.974
625.300;24278.000; 5219.824;  325.717
625.880;25828.482; 5700.224;  308.519
626.459;28261.938; 5793.662;  307.117
627.039;29001.730; 4713.355;  290.890
627.619;31942.447; 7367.857;  286.635
628.198;30170.477; 6704.042;  282.535
628.778;29696.531; 6234.745;  285.474
629.357;29260.746; 4963.705;  284.103
629.937;30616.818; 5496.937;  292.178
630.516;31371.969; 7021.999;  290.749
631.096;30541.922; 5324.702;  285.489
631.675;32082.463; 6730.623;  287.022
632.254;29837.193; 5277.350;  286.038
632.834;30075.846; 5700.538;  276.451
633.413;31383.525; 6763.369;  279.447
633.992;30959.008; 6435.574;  264.508
634.571;30212.684; 6147.181;  271.010
635.151;29709.926; 5098.396;  277.338
635.730;31719.123; 5649.313;  289.305
636.309;33918.063; 6052.012;  285.306
636.888;33955.512; 6123.561;  254.051
637.467;31881.475; 4719.208;  230.324
638.046;33662.602; 6942.045;  253.349
638.625;33578.035; 6572.564;  246.866
639.204;34844.477; 5929.069;  240.825
639.782;34584.125; 5700.617;  261.970
640.361;33479.793; 6735.752;  277.780
640.940;30952.793; 5352.780;  270.101
641.519;31594.193; 5966.808;  248.622
642.097;32815.195; 6194.836;  239.843
642.676;33945.895; 5832.864;  244.264
643.255;34601.598; 5595.892;  234.985
643.833;35839.398; 6154.920;  244.406
644.412;35536.699; 5457.948;  244.927
644.990;35571.699; 5847.976;  249.948
645.569;37240.500; 6105.004;  249.569
646.147;39305.301; 6392.032;  243.290
646.726;36597.602; 5870.060;  249.511
647.304;34683.402; 5517.087;  228.032
647.882;34198.406; 4664.116;  214.552
648.461;35927.008; 6009.144;  214.973
649.039;35807.609; 6236.171;  223.394
649.617;35548.207; 6235.199;  261.415
650.195;35509.508; 5901.228;  298.736
650.773;34376.109; 5462.255;  309.557
651.352;33582.113; 4637.283;  297.978
651.930;32702.613; 4530.311;  289.399
652.508;34210.215; 6380.339;  285.620
653.086;34738.215; 6049.367;  272.241
653.663;35838.418; 5267.395;  265.062
654.241;36173.117; 4997.423;  286.083
654.819;36524.617; 5031.451;  286.404
655.397;36026.520; 5128.479;  291.825
655.975;34227.820; 5523.507;  299.145
656.553;35094.422; 6916.535;  288.866
657.130;34313.422; 5139.563;  304.087
657.708;35975.125; 5972.591;  302.908
658.286;35446.324; 5910.619;  294.629
658.863;35618.227; 5878.646;  293.350
659.441;37127.527; 5966.674;  318.671
660.018;36313.129; 5632.703;  333.692
660.596;35194.328; 4648.730;  335.013
661.173;36000.230; 5367.758;  371.534
661.750;35775.832; 5153.786;  365.155
662.328;36645.832; 6199.814;  349.976
662.905;34236.332; 5476.842;  332.997
663.482;32886.133; 5638.870;  321.717
664.060;32519.535; 5282.898;  314.438
664.637;34586.336; 6099.926;  306.259
665.214;36027.938; 5914.954;  314.580
665.791;36703.738; 5540.982;  334.501
666.368;36599.840; 5450.010;  329.222
666.945;36045.340; 6258.038;  342.143
667.522;33985.840; 5207.066;  370.964
668.099;34287.344; 5656.094;  396.885
668.676;34858.344; 5755.122;  391.706
669.253;37507.844; 6928.150;  369.627
669.830;36781.145; 6704.178;  360.348
670.407;35888.945; 5608.206;  344.769
670.984;34999.547; 5627.233;  322.890
671.560;34261.051; 6122.262;  316.910
672.137;33388.250; 5431.290;  322.531
672.714;34252.453; 6147.317;  318.552
673.290;35146.953; 5911.345;  324.473
673.867;35322.754; 5382.373;  340.594
674.443;35699.156; 4994.401;  319.515
675.020;38008.754; 5856.429;  286.336
675.596;36174.559; 5504.457;  247.557
676.173;34826.359; 4908.485;  227.778
676.749;34331.758; 4358.513;  224.399
677.326;34823.461; 4788.541;  230.520
677.902;34942.461; 5177.569;  241.841
678.478;35295.262; 4895.597;  239.762
679.054;39204.164; 8495.625;  248.583
679.631;36429.465; 5984.653;  237.503
680.207;37563.566; 7131.681;  245.924
680.783;35101.168; 4427.708;  224.845
681.359;35839.867; 5552.737;  209.666
681.935;36264.668; 5738.765;  191.687
682.511;35434.871; 5741.792;  210.008
683.087;36249.070; 6086.820;  213.329
683.663;35786.773; 5578.849;  216.850
684.239;34685.574; 4983.876;  229.471
684.815;36705.773; 6294.904;  248.792
685.390;37540.375; 7397.932;  231.813
685.966;35733.375; 5788.960;  221.234
686.542;34835.176; 5068.988;  214.255
687.118;35894.180; 5877.016;  212.276
687.693;36076.281; 6123.044;  233.096
688.269;35779.082; 5556.072;  246.917
688.844;35672.082; 5960.100;  236.938
689.420;34531.684; 5760.128;  242.059
689.995;36572.785; 7042.156;  245.480
690.571;35776.184; 6693.184;  244.701
691.146;33534.984; 5413.212;  251.922
691.722;34267.988; 5927.240;  284.743
692.297;34086.289; 5385.268;  320.664
692.872;35027.188; 5270.295;  313.885
693.448;35860.289; 5038.324;  290.106
694.023;35902.891; 5790.352;  304.327
694.598;35722.391; 5913.379;  319.648
695.173;34650.793; 5416.407;  323.169
695.748;33402.293; 4608.436;  376.389
696.323;33430.797; 5602.463;  397.610
696.898;34211.398; 6660.491;  430.231
697.473;33716.598; 4730.519;  454.952
698.048;35329.500; 5527.547;  478.973
698.623;34903.500; 4907.575;  477.094
699.198;34661.301; 5760.603;  496.915
699.773;33816.902; 5265.631;  490.236
700.348;33307.004; 5032.659;  519.957
700.922;35311.004; 5803.687;  575.678
701.497;34225.207; 5715.715;  621.399
702.072;33546.305; 6345.743;  664.420
702.646;34298.809; 6220.771;  690.541
703.221;34529.207; 5851.799;  748.862
703.795;33362.809; 5075.827;  774.282
704.370;31171.910; 4195.854;  799.803
704.944;31348.412; 5350.882;  875.824
705.519;31256.912; 5917.911;  902.945
706.093;30798.014; 5115.938;  889.266
706.668;31891.516; 5977.966;  903.487
707.242;32012.316; 6229.994;  881.708
707.816;31062.018; 5421.022;  892.329
708.390;31917.918; 5573.050;  970.250
708.965;32536.520; 5894.078;  984.671
709.539;31424.320; 5479.106; 1026.092
710.113;31470.021; 5717.134; 1067.913
710.687;32087.223; 6340.162; 1166.434
711.261;31333.023; 5046.190; 1190.854
711.835;31575.225; 5113.218; 1197.275
712.409;31214.725; 4673.246; 1308.096
712.983;31169.027; 4698.274; 1461.617
713.557;30908.627; 4738.302; 1611.838
714.131;31137.029; 5513.330; 1554.359
714.704;30519.029; 5052.357; 1520.780
715.278;30787.330; 5778.386; 1575.101
715.852;30774.932; 6195.414; 1689.822
716.425;31177.033; 7173.441; 1829.143
716.999;28448.033; 4602.469; 2008.664
717.573;30210.135; 6068.498; 2000.485
718.146;32276.436; 6993.525; 1914.506
718.720;31997.037; 5863.553; 1818.026
719.293;32405.838; 6102.581; 1734.147
719.867;31082.139; 5211.609; 1716.968
720.440;32031.941; 6702.637; 1918.589
721.013;30762.141; 5248.665; 1975.410
721.587;31260.742; 4707.693; 2073.331
722.160;32943.043; 6337.721; 2357.852
722.733;31999.846; 5699.749; 2657.073
723.306;32726.246; 5693.777; 2703.894
723.880;32062.047; 5874.805; 2549.415
724.453;32925.348; 6623.833; 2414.336
725.026;32248.250; 5414.861; 2298.557
725.599;32308.350; 5851.889; 2168.778
726.172;31876.551; 6048.917; 2106.099
726.745;30802.252; 5995.944; 2253.320
727.318;30572.354; 6349.973; 2404.740
727.891;29626.055; 5952.000; 2680.161
728.463;29526.055; 5874.028; 2838.882
729.036;29196.756; 5191.056; 2755.103
729.609;29592.258; 5164.084; 2731.824
730.182;30604.158; 6269.112; 2855.645
730.754;28584.160; 4264.140; 2946.866
731.327;30063.961; 6087.168; 2840.187
731.900;28644.662; 4722.196; 2647.608
732.472;30183.264; 5610.224; 2473.929
733.045;31714.664; 5415.252; 2445.750
733.617;30907.064; 4658.280; 2511.771
734.190;32226.566; 6048.308; 2581.592
734.762;31330.668; 5625.336; 2710.813
735.334;31037.668; 5705.364; 3005.733
735.907;31440.469; 5650.392; 3154.954
736.479;33586.172; 6477.420; 3171.675
737.051;33356.672; 6076.448; 3217.496
737.623;33878.371; 6125.476; 3246.217
738.195;32811.672; 5227.503; 2985.238
738.768;32393.574; 4413.532; 2727.559
739.340;34028.176; 5395.560; 2666.880
739.912;33772.379; 6154.587; 2769.601
740.484;32039.479; 6041.615; 2731.422
741.056;31180.979; 5406.643; 2963.043
741.628;30134.580; 5061.671; 3361.364
742.199;32090.381; 6600.699; 3641.185
742.771;30935.883; 4871.727; 3932.005
743.343;31752.584; 5107.755; 4319.926
743.915;32314.484; 5911.783; 4706.647
744.487;32571.885; 6027.811; 4874.968
745.058;31444.688; 6190.839; 4616.589
745.630;30700.488; 6120.867; 4253.410
746.201;30784.588; 5360.895; 4056.131
746.773;32950.090; 5970.923; 3772.952
747.344;32639.191; 5546.951; 3642.473
747.916;33056.191; 5867.979; 3752.294
748.487;32987.293; 6215.007; 4106.215
749.059;30873.295; 4925.035; 4457.835
749.630;31157.395; 5210.063; 4366.457
750.201;32345.896; 5596.090; 4600.078
750.773;33199.496; 5191.119; 4658.499
751.344;34472.898; 5646.146; 4609.319
751.915;33576.000; 5615.174; 4526.440
752.486;32627.900; 5290.202; 4536.061
753.057;32777.301; 5833.230; 4383.282
753.628;32201.402; 5134.258; 4296.503
754.199;32548.805; 5388.286; 4383.224
754.770;32658.904; 6050.314; 4653.545
755.341;33337.305; 6390.342; 4831.666
755.912;32962.207; 5515.370; 4831.387
756.483;32831.508; 6044.398; 4735.808
757.054;31448.609; 5429.426; 4685.029
757.625;30602.311; 4914.454; 4994.250
758.195;31598.412; 4772.482; 5051.471
758.766;33357.512; 5796.510; 5317.792
759.337;31309.213; 4685.538; 5646.512
759.907;31550.914; 4799.565; 5404.133
760.478;32346.016; 5292.594; 5090.954
761.048;34117.816; 6093.622; 4871.175
761.619;34193.520; 5987.649; 4589.396
762.189;33428.418; 5679.677; 4171.317
762.760;34455.418; 6186.706; 3872.538
763.330;34209.820; 6171.733; 3832.259
763.900;33140.723; 5877.761; 4150.180
764.471;32240.322; 5146.789; 4529.801
765.041;33654.426; 6472.817; 4715.922
765.611;33828.824; 6018.845; 4681.442
766.181;33391.625; 5600.873; 4717.063
766.751;32673.928; 5715.901; 4710.285
767.321;31517.629; 4850.929; 4450.305
767.891;33474.930; 5769.957; 4274.126
768.461;34638.629; 5538.985; 4215.047
769.031;33838.832; 5584.013; 4173.068
769.601;33399.133; 6515.041; 4174.689
770.171;31206.135; 4741.069; 4229.310
770.741;31835.334; 5430.097; 4352.031
771.311;33265.336; 5953.125; 4336.652
771.880;33057.535; 5107.152; 4300.873
772.450;32737.938; 5123.181; 4387.194
773.020;33496.539; 4730.208; 4220.415
773.589;34096.039; 5262.236; 4075.835
774.159;33515.840; 5286.264; 4105.756
774.729;33509.844; 5167.292; 4114.978
775.298;33271.043; 5219.320; 3693.298
775.867;32951.543; 5182.348; 3343.119
776.437;32236.146; 5672.376; 3062.040
777.006;30441.947; 4710.404; 2927.161
777.576;31829.447; 6039.432; 3046.482
778.145;32436.748; 5923.460; 3230.203
778.714;31061.350; 5528.488; 3253.324
779.283;30694.352; 5999.516; 3129.745
779.853;31186.252; 5550.544; 2983.566
780.422;31071.553; 5521.572; 2929.887
780.991;31831.955; 5881.600; 2863.908
781.560;32387.855; 6633.627; 2948.029
782.129;31761.855; 5883.656; 3074.149
782.698;32316.758; 6520.684; 2893.970
783.267;30833.559; 5196.711; 2721.391
783.836;33637.258; 5872.739; 2659.712
784.404;32240.461; 4896.768; 2622.233
784.973;31021.662; 4159.795; 2600.754
785.542;31653.863; 5541.823; 2528.475
786.111;31324.564; 6351.851; 2404.396
786.679;30726.965; 6007.879; 2365.717
787.248;29327.166; 4763.907; 2498.438
787.817;30595.668; 5303.935; 2645.659
788.385;31993.369; 6374.963; 2709.280
788.954;29405.369; 4857.991; 2620.500
789.522;29576.371; 6116.019; 2625.422
790.090;29183.371; 4816.047; 2743.843
790.659;30647.672; 5358.075; 2635.163
791.227;31347.273; 5509.103; 2495.484
791.795;32561.574; 5819.131; 2413.705
792.364;31141.775; 5044.159; 2345.326
792.932;31434.877; 5996.187; 2350.447
793.500;29653.078; 5421.214; 2429.768
794.068;29337.680; 4762.243; 2513.589
794.636;29560.180; 5129.271; 2664.310
795.204;28539.082; 4580.298; 2721.431
795.772;27627.182; 5100.326; 2802.052
796.340;28226.482; 5282.354; 2847.173
796.908;28630.984; 4563.382; 2997.194
797.476;29276.586; 4974.410; 3151.615
798.044;28221.086; 4456.438; 3110.735
798.612;29381.387; 5530.466; 2931.656
799.180;30347.988; 5639.494; 2785.777
799.747;30351.590; 5565.522; 2899.098
800.315;28510.191; 4923.550; 2955.519
800.883;27927.893; 4500.578; 2948.940
801.450;29099.893; 5537.606; 2965.361
802.018;29330.994; 5867.634; 3070.582
802.585;28528.494; 5644.662; 3156.103
803.153;27937.996; 5139.690; 3199.524
803.720;27704.598; 5170.718; 3168.845
804.287;28011.299; 5380.746; 3248.366
804.855;28645.199; 6321.773; 3406.187
805.422;27199.900; 5458.802; 3430.907
805.989;27261.402; 5009.830; 3453.528
806.556;27391.803; 5021.857; 3612.649
807.124;30031.604; 6214.885; 3736.570
807.691;29810.105; 4934.913; 3770.491
808.258;31435.205; 5577.941; 3705.012
808.825;31379.607; 6156.969; 3828.733
809.392;29595.207; 6660.997; 3986.754
809.959;28337.109; 5870.025; 4410.075
810.526;29272.311; 6678.053; 4774.996
811.093;28748.912; 6331.081; 4754.217
811.659;27239.912; 5531.109; 4661.238
812.226;27700.813; 5491.137; 4672.559
812.793;27943.514; 5759.165; 4822.979
813.360;26717.615; 5529.193; 5189.800
813.926;27550.016; 5868.221; 5310.622
814.493;26106.518; 4764.249; 5414.542
815.060;26632.719; 4516.277; 5548.963
815.626;26584.219; 4878.305; 5452.284
816.193;27831.521; 5715.333; 5339.305
816.759;27757.121; 5068.360; 5544.426
817.325;26346.523; 4486.389; 5706.547
817.892;27783.424; 6140.417; 5623.468
818.458;27956.025; 5899.444; 5586.689
819.024;27604.326; 6416.472; 5647.910
819.591;26190.227; 5628.500; 5762.031
820.157;24952.428; 4825.528; 6284.452
820.723;26676.930; 5904.556; 6906.973
821.289;30071.131; 8526.584; 7086.894
821.855;26687.631; 6078.612; 7054.915
822.421;25087.033; 5236.640; 7112.035
822.987;24700.633; 4891.668; 7256.156
823.553;25040.035; 5402.696; 7538.077
824.119;25904.336; 6121.724; 7594.298
824.685;26307.236; 6437.752; 7613.619
825.251;25131.938; 6140.780; 7644.140
825.816;26092.840; 6810.808; 7720.261
826.382;24985.340; 6051.835; 8014.282
826.948;25038.541; 6131.864; 8281.503
827.513;24413.441; 5517.892; 8289.624
828.079;23784.344; 4962.919; 8587.045
828.645;24313.145; 5791.947; 8821.865
829.210;23350.746; 4944.976; 9054.486
829.776;23667.047; 5965.003; 9054.607
830.341;23281.447; 6112.031; 9415.628
830.906;22694.648; 6304.059; 9932.449
831.472;21594.549; 5191.087;10150.271
832.037;22728.750; 6249.115; 9420.391
832.602;21904.752; 5259.143; 8664.912
833.167;21657.553; 5773.171; 8491.933
833.733;22253.453; 6187.199; 8872.854
834.298;21125.154; 4952.227; 9370.575
834.863;21747.256; 5789.255; 9610.695
835.428;21669.857; 5814.283; 9655.616
835.993;21302.959; 5997.311; 9437.838
836.558;21652.660; 6102.339; 9441.459
837.123;23223.561; 7443.367; 9600.979
837.688;21156.063; 5851.395; 9798.301
838.253;21176.662; 5924.422; 9902.921
838.817;20571.664; 5479.451;10339.742
839.382;21434.766; 6624.479;10548.363
839.947;20045.967; 5688.506;10252.484
840.511;20288.768; 6782.534;10040.005
841.076;17151.168; 4509.563;10099.926
841.641;18682.270; 6094.590;10347.347
842.205;18786.270; 5963.618;10817.368
842.770;19715.271; 6893.646;11435.289
843.334;18348.873; 5488.674;12072.409
843.898;18182.273; 5343.702;12635.431
844.463;19132.275; 6616.730;12537.252
845.027;17473.475; 5346.758;12759.673
845.591;18084.377; 6343.786;12821.993
846.156;17083.479; 5323.814;12520.914
846.720;17498.180; 6234.842;12390.436
847.284;16586.480; 5813.870;12956.456
847.848;16936.980; 6032.897;13240.177
848.412;16753.781; 5724.926;13216.998
848.976;17475.184; 6794.954;13014.619
849.540;17602.283; 7300.981;12355.740
850.104;16678.885; 6636.009;12208.761
850.668;14829.586; 4616.038;12106.882
851.232;15101.487; 4750.065;11862.103
851.796;16028.688; 5667.093;11700.523
852.359;16357.689; 6274.121;12375.944
852.923;16388.891; 6409.149;13087.966
853.487;15604.592; 6105.177;13297.187
854.050;13753.493; 3908.205;13851.207
854.614;15101.094; 5469.233;14854.229
855.177;15249.495; 5886.261;15802.149
855.741;15214.996; 6060.289;16603.570
856.304;15661.597; 6370.317;16359.891
856.868;14164.598; 5105.345;14365.512
857.431;14631.399; 5712.373;13361.333
857.995;13989.900; 5462.401;14130.554
858.558;13508.201; 5915.429;14883.175
859.121;13401.902; 6254.457;15754.195
859.684;12596.903; 5904.484;15995.017
860.247;12247.305; 5695.513;15149.537
860.810;12139.206; 5400.541;14640.358
861.374;14321.106; 7459.568;15551.079
861.937;12143.308; 4998.596;16519.801
862.500;12616.309; 5339.625;16796.521
863.062;12290.210; 5105.652;16538.742
863.625;12869.411; 5921.680;16716.764
864.188;12534.212; 5397.708;17055.084
864.751;12123.913; 5356.736;17197.705
865.314;12601.614; 5761.764;17151.625
865.876;13271.715; 6364.792;17783.547
866.439;12945.216; 6196.820;19283.467
867.002;14172.617; 7174.848;20256.389
867.564;13336.918; 6441.876;20485.410
868.127;12304.319; 5718.904;20789.730
868.689;12512.120; 5961.932;21981.951
869.252;12785.722; 6425.960;23803.771
869.814;11528.022; 5230.988;24974.094
870.377;12216.724; 5923.016;24690.314
870.939;14291.225; 8317.044;23963.436
871.501;11671.926; 5897.071;25167.156
872.063;10244.427; 4221.100;26995.477
872.626;10555.928; 4647.127;27443.098
873.188;11716.129; 5921.155;26718.418
873.750;11304.230; 5674.183;26558.840
874.312;10984.231; 5388.211;26701.561
874.874;12292.732; 6898.239;27970.582
875.436;11866.733; 6221.267;29173.402
875.998;12111.335; 6734.295;30376.623
876.560;11596.336; 6397.323;32507.344
877.122;10444.337; 5260.351;34833.066
877.683;11123.438; 6151.379;36458.285
878.245;10202.539; 5376.407;37248.207
878.807;10838.740; 6031.435;36758.027
879.369; 9813.841; 4942.463;35223.551
879.930; 9912.642; 5136.491;33824.969
880.492;11048.543; 6573.519;34436.492
881.053; 9505.744; 5102.547;37745.313
881.615; 9672.245; 5391.575;41184.633
882.176; 9872.347; 5567.603;42871.555
882.738;10542.048; 6274.630;41693.074
883.299; 8846.549; 4460.659;40289.895
883.860; 8958.550; 4709.687;39231.215
884.422;10098.551; 6181.714;38264.039
884.983; 8762.752; 5033.742;37171.859
885.544; 9571.053; 5855.770;35842.379
886.105; 9398.454; 5720.798;34810.000
886.666; 8921.755; 5336.826;34519.020
887.227; 8109.056; 4744.854;33905.641
887.788; 9129.157; 5936.882;34502.965
888.349; 8064.158; 4873.910;34241.785
888.910; 9443.859; 6124.938;33722.203
889.471; 9047.660; 5846.966;32539.625
890.032; 8691.161; 5702.994;31528.346
890.593; 8880.862; 6083.022;32655.068
891.153; 8362.264; 5645.050;33882.289
891.714; 7591.665; 4819.078;33318.711
892.275; 7644.166; 5036.105;31848.930
892.835; 8846.467; 6330.134;30339.752
893.396; 8607.168; 6260.162;30074.973
893.956; 7753.669; 5605.189;30338.393
894.517; 7944.670; 5858.217;30864.113
895.077; 8003.571; 5932.246;29766.734
895.638; 8830.972; 6897.273;26379.557
896.198; 6840.673; 5026.301;24056.277
896.758; 8112.974; 6261.329;22961.898
897.319; 7318.075; 5611.357;21772.020
897.879; 7303.776; 5714.385;20877.539
898.439; 6304.377; 4747.413;19509.461
898.999; 7686.679; 6119.441;17297.582
899.559; 7537.080; 6037.469;14712.002
900.119; 6555.381; 5084.497;12790.224
900.679; 8204.682; 6747.525;11586.744
901.239; 7457.483; 6168.553;10776.465
901.799; 7019.384; 5786.581; 9691.687
902.359; 6351.885; 5185.609; 8725.907
902.919; 6239.486; 5054.637; 8305.728
903.479; 6262.087; 5046.665; 8172.649
904.038; 5979.588; 4968.692; 7913.870
904.598; 5316.589; 4259.721; 7262.291
905.158; 6382.890; 5435.749; 6609.012
905.717; 6629.792; 5623.776; 6236.133
906.277; 6678.993; 5717.804; 5829.054
906.836; 6988.293; 6056.833; 5396.674
907.396; 6902.695; 6052.860; 4964.195
907.955; 6940.796; 5980.888; 4528.917
908.515; 6325.897; 5444.916; 4223.837
909.074; 6421.498; 5481.944; 4023.958
909.633; 6391.399; 5518.972; 4065.379
910.192; 7756.400; 6941.000; 4066.300
910.752; 6319.300; 5503.000; 3971.600
911.311; 6229.500; 5417.000; 3839.600
911.870; 5984.600; 5136.000; 3684.500
912.429; 7219.700; 6432.000; 3635.600
912.988; 7068.100; 6289.000; 3689.800
913.547; 5866.500; 5102.000; 3737.700
914.106; 6560.700; 5755.000; 3740.300
914.665; 6516.500; 5731.000; 3604.600
915.224; 7136.500; 6407.000; 3358.700
915.782; 6098.800; 5305.000; 3188.400
916.341; 7340.800; 6542.000; 3091.400
916.900; 6165.400; 5490.000; 3044.800
917.458; 5849.300; 5238.000; 2888.600
918.017; 6470.900; 5768.000; 2818.900
918.576; 6177.900; 5455.000; 2838.600
919.134; 5492.900; 4788.000; 2880.100
919.693; 6120.000; 5332.000; 2996.300
920.251; 6020.300; 5290.000; 3183.100
920.809; 5685.300; 4913.000; 3247.000
921.368; 6050.500; 5358.000; 3156.600
921.926; 5806.900; 5063.000; 2964.900
922.484; 6371.600; 5701.000; 2846.300
923.042; 6199.300; 5468.000; 2890.400
923.601; 7337.600; 6575.000; 2987.700
924.159; 6750.500; 6004.000; 3049.800
924.717; 5780.100; 5018.000; 3087.000
925.275; 6385.500; 5673.000; 3093.400
925.833; 5242.400; 4503.000; 3182.400
926.391; 6728.500; 5982.000; 3397.900
926.949; 6077.500; 5315.000; 3575.400
927.506; 6450.900; 5692.000; 3713.400
928.064; 6154.000; 5391.000; 3871.300
928.622; 6273.600; 5544.000; 4092.800
929.180; 5604.400; 4740.000; 4499.300
929.737; 5510.800; 4678.000; 4813.200
930.295; 6720.800; 5971.000; 5084.100
930.853; 5882.200; 5176.000; 5185.000
931.410; 5607.100; 4811.000; 5313.100
931.968; 6825.000; 5977.000; 5339.600
932.525; 6400.900; 5604.000; 5399.900
933.082; 5534.900; 4724.000; 5457.500
933.640; 6668.000; 5779.000; 5692.900
934.197; 6224.300; 5288.000; 5821.200
934.754; 6244.600; 5389.000; 5617.900
935.312; 5934.500; 5035.000; 5512.400
935.869; 7392.800; 6473.000; 5582.400
936.426; 5943.600; 5084.000; 5650.100
936.983; 6114.100; 5351.000; 5657.400
937.540; 5558.600; 4795.000; 5564.300
938.097; 6576.000; 5766.000; 5574.000
938.654; 6078.900; 5205.000; 5665.900
939.211; 6625.300; 5747.000; 5931.600
939.768; 6320.800; 5454.000; 6153.600
940.324; 6174.600; 5260.000; 6397.600
940.881; 5939.000; 5026.000; 6454.200
941.438; 7251.800; 6321.000; 6206.900
941.995; 6995.900; 6088.000; 6003.900
942.551; 5750.500; 4826.000; 6228.300
943.108; 6296.300; 5493.000; 6603.500
943.664; 5744.400; 4808.000; 7188.100
944.221; 7794.300; 6963.000; 7579.900
944.777; 5667.600; 4769.000; 7658.100
945.334; 5819.300; 4926.000; 7670.400
945.890; 6381.300; 5499.000; 7525.100
946.446; 6416.300; 5661.000; 7261.500
947.003; 6619.200; 5720.000; 6949.200
947.559; 7547.200; 6597.000; 6773.100
948.115; 7120.400; 6184.000; 6668.400
948.671; 6561.700; 5716.000; 6488.400
949.227; 5473.300; 4637.000; 6236.600
949.783; 5379.900; 4555.000; 6008.900
950.339; 6641.900; 5763.000; 5934.100
950.895; 7002.100; 6155.000; 5933.500
951.451; 6083.400; 5281.000; 6074.700
952.007; 6765.700; 5873.000; 6066.400
952.563; 6120.200; 5328.000; 5884.100
953.118; 5944.800; 5100.000; 5733.800
953.674; 6264.700; 5522.000; 5734.300
954.230; 6282.600; 5449.000; 6039.700
954.785; 6241.400; 5377.000; 6383.500
955.341; 6805.000; 5957.000; 6568.200
955.897; 5371.600; 4541.000; 6488.600
956.452; 6530.900; 5608.000; 6239.200
957.008; 7874.800; 7065.000; 5954.600
957.563; 7129.200; 6359.000; 5816.700
958.118; 5805.900; 5037.000; 5828.200
958.674; 6384.200; 5597.000; 5717.400
959.229; 7184.600; 6411.000; 5506.800
959.784; 5504.200; 4679.000; 5292.200
960.339; 7172.800; 6396.000; 5101.900
960.894; 6803.400; 5933.000; 5093.200
961.449; 5760.600; 4985.000; 5227.900
962.004; 9211.200; 8506.000; 5349.300
962.559; 5857.300; 5074.000; 5514.900
963.114; 4719.100; 3947.000; 5717.300
963.669; 6299.800; 5523.000; 5841.400
964.224; 5971.300; 5243.000; 5805.900
964.779; 5560.600; 4846.000; 5723.400
965.334; 7142.100; 6456.000; 5779.500
965.888; 5894.500; 5158.000; 5948.500
966.443; 6867.900; 6152.000; 6344.200
966.998; 5319.300; 4528.000; 6666.300
967.552; 6158.600; 5558.000; 6710.100
968.107; 5859.500; 5157.000; 6593.500
968.661; 6380.000; 5652.000; 6344.100
969.216; 5763.700; 5033.000; 6062.400
969.770; 6417.700; 5711.000; 5785.500
970.324; 6459.700; 5736.000; 5426.800
970.879; 6788.700; 6085.000; 5016.800
971.433; 6778.300; 6137.000; 4904.500
971.987; 6261.600; 5551.000; 4991.000
972.541; 6487.300; 5804.000; 4978.500
973.095; 7321.900; 6695.000; 4832.000
973.649; 5392.300; 4743.000; 4767.900
974.203; 5611.100; 4999.000; 4881.200
974.757; 5871.200; 5146.000; 4969.500
975.311; 6072.200; 5507.000; 4953.000
975.865; 6160.100; 5512.000; 4884.300
976.419; 5965.300; 5308.000; 4739.800
976.973; 5877.200; 5164.000; 4698.100
977.526; 6854.200; 6270.000; 4631.100
978.080; 5386.900; 4752.000; 4621.600
978.634; 6575.200; 5983.000; 4650.200
979.187; 6463.700; 5837.000; 4669.200
979.741; 7570.000; 6893.000; 4658.000
980.294; 5405.500; 4800.000; 4579.100
980.848; 4747.200; 4141.000; 4452.800
981.401; 5751.000; 5098.000; 4271.900
981.955; 6071.500; 5559.000; 4087.800
982.508; 5095.600; 4589.000; 3973.900
983.061; 6821.300; 6233.000; 3928.600
983.615; 5598.500; 5011.000; 3851.200
984.168; 5357.800; 4774.000; 3734.800
984.721; 6429.300; 5824.000; 3628.300
985.274; 6280.100; 5695.000; 3564.300
985.827; 6040.200; 5545.000; 3558.100
986.380; 4923.700; 4362.000; 3559.900
986.933; 6288.000; 5820.000; 3688.700
987.486; 6288.600; 5769.000; 3778.500
988.039; 6242.100; 5766.000; 3559.900
988.591; 6681.800; 6199.000; 3219.300
989.144; 5190.100; 4702.000; 2902.900
989.697; 5476.400; 4951.000; 2722.600
990.250; 6472.700; 5977.000; 2618.000
990.802; 5469.500; 4954.000; 2523.900
991.355; 7695.600; 7290.000; 2436.500
991.907; 6628.800; 6210.000; 2412.200
992.460; 5562.000; 5130.000; 2387.900
993.012; 5575.200; 5177.000; 2365.800
993.565; 5221.300; 4838.000; 2311.100
994.117; 7483.900; 7118.000; 2308.700
994.669; 5222.100; 4789.000; 2249.300
995.221; 6120.000; 5730.000; 2158.100
995.774; 6033.500; 5661.000; 2085.600
996.326; 5643.300; 5310.000; 2068.100
996.878; 6640.700; 6288.000; 1975.300
997.430; 5342.900; 5001.000; 1929.500
997.982; 5840.300; 5514.000; 1861.900
998.534; 5771.300; 5395.000; 1830.200
999.086; 5748.800; 5486.000; 1823.200
999.638; 4994.500; 4617.000; 1815.000
1000.190; 5501.100; 5201.000; 1796.600
1000.741; 5847.300; 5618.000; 1738.800
1001.293; 5340.600; 4958.000; 1666.200
1001.845; 5302.000; 4936.000; 1566.500
1002.396; 5923.200; 5683.000; 1471.900
1002.948; 5879.900; 5585.000; 1398.000
1003.500; 5774.900; 5384.000; 1356.500
1004.051; 7702.600; 7408.000; 1294.200
1004.603; 6526.000; 6321.000; 1190.000
1005.154; 4794.900; 4622.000; 1063.900
1005.705; 5933.200; 5715.000;  968.300
1006.257; 5801.000; 5621.000;  889.800
1006.808; 5639.000; 5409.000;  801.500
1007.359; 6463.200; 6277.000;  716.400
1007.910; 5327.500; 5166.000;  639.100
1008.461; 6193.300; 6046.000;  561.600
1009.013; 4783.600; 4631.000;  500.400
1009.564; 6794.500; 6641.000;  476.100
1010.115; 4869.300; 4749.000;  431.600
1010.665; 4982.300; 4862.000;  409.300
1011.216; 5613.600; 5486.000;  399.700
1011.767; 5871.900; 5682.000;  388.100
1012.318; 6128.100; 5979.000;  381.400
1012.869; 5627.800; 5469.000;  375.400
1013.419; 4946.800; 4882.000;  357.600
1013.970; 5658.400; 5508.000;  358.300
1014.521; 5122.000; 4920.000;  344.100
1015.071; 5686.000; 5526.000;  322.800
1015.622; 5308.400; 5173.000;  320.600
1016.172; 4948.700; 4798.000;  301.700
1016.723; 5109.200; 4985.000;  289.800
1017.273; 5024.100; 4919.000;  287.600
1017.823; 5465.900; 5266.000;  278.700
1018.374; 5113.100; 5017.000;  274.400
1018.924; 6154.000; 6026.000;  283.200
1019.474; 6025.700; 5935.000;  278.500
1020.024; 5509.800; 5446.000;  274.700
1020.574; 6214.800; 6046.000;  272.700
1021.124; 5762.300; 5659.000;  278.400
1021.674; 4641.300; 4550.000;  269.200
1022.224; 6087.300; 6058.000;  267.800
1022.774; 5638.200; 5508.000;  258.100
1023.324; 6556.400; 6390.000;  260.000
1023.874; 7766.300; 7690.000;  260.700
1024.423; 5170.900; 5024.000;  252.700
1024.973; 5001.500; 4838.000;  234.700
1025.523; 5232.200; 5137.000;  226.500
1026.072; 5138.800; 5038.000;  225.500
1026.622; 5748.300; 5608.000;  210.100
1027.172; 6133.900; 6037.000;  213.000
1027.721; 5045.900; 4936.000;  207.700
1028.270; 5735.000; 5591.000;  205.400
1028.820; 5443.300; 5374.000;  201.000
1029.369; 5239.800; 5199.000;  201.000
1029.918; 5489.300; 5341.000;  198.400
1030.468; 4720.800; 4593.000;  199.200
1031.017; 5448.200; 5332.000;  192.600
1031.566; 5201.300; 5112.000;  197.400
1032.115; 5997.000; 5870.000;  188.300
1032.664; 5098.500; 4961.000;  193.700
1033.213; 6369.900; 6321.000;  191.900
1033.762; 5462.200; 5365.000;  184.500
1034.311; 5799.600; 5729.000;  194.300
1034.860; 5942.400; 5882.000;  192.300
1035.408; 6327.800; 6205.000;  182.600
1035.957; 6234.100; 6129.000;  173.900
1036.506; 4420.200; 4341.000;  185.200
1037.055; 7457.400; 7433.000;  182.500
1037.603; 5733.800; 5562.000;  167.600
1038.152; 4441.200; 4363.000;  168.200
1038.700; 4944.300; 4879.000;  169.600
1039.249; 5864.000; 5805.000;  164.300
1039.797; 5515.200; 5351.000;  169.600
1040.345; 6092.000; 6042.000;  167.100
1040.894; 5415.700; 5358.000;  164.400
1041.442; 5487.200; 5318.000;  158.300
1041.990; 4773.200; 4711.000;  160.000
1042.538; 4551.200; 4442.000;  156.800
1043.087; 4823.500; 4622.000;  146.600
1043.635; 5888.100; 5900.000;  162.400
1044.183; 5067.700; 4946.000;  156.300
1044.731; 4909.000; 4900.000;  158.100
1045.279; 5881.700; 5836.000;  154.500
1045.827; 7990.100; 7934.000;  146.200
1046.374; 4335.600; 4281.000;  154.000
1046.922; 5054.600; 5002.000;  149.000
1047.470; 6074.500; 5941.000;  154.900
1048.018; 5699.600; 5569.000;  148.400
1048.565; 6284.900; 6230.000;  146.300
1049.113; 4754.100; 4693.000;  156.100
1049.660; 5399.400; 5334.000;  154.300
1050.208; 5879.700; 5811.000;  149.400
1050.755; 5236.000; 5115.000;  157.500
1051.303; 6037.300; 5906.000;  157.700
1051.850; 5498.500; 5349.000;  152.800
1052.397; 3984.800; 3904.000;  146.300
1052.945; 5372.800; 5306.000;  149.500
1053.492; 6571.100; 6448.000;  149.300
1054.039; 6393.700; 6276.000;  163.100
1054.586; 4793.000; 4669.000;  150.400
1055.133; 6101.600; 6065.000;  153.500
1055.680; 5626.000; 5558.000;  155.600
1056.227; 4635.800; 4517.000;  148.700
1056.774; 7071.000; 7027.000;  151.500
1057.321; 4468.500; 4417.000;  143.700
1057.868; 5669.100; 5537.000;  145.300
1058.415; 5748.100; 5620.000;  153.500
1058.961; 5961.800; 5887.000;  149.900
1059.508; 5604.500; 5514.000;  147.300
1060.055; 5071.500; 4957.000;  151.000
1060.601; 5420.200; 5313.000;  148.700
1061.148; 5466.900; 5405.000;  153.800
1061.694; 5178.700; 5146.000;  150.500
1062.241; 5212.300; 5032.000;  149.100
1062.787; 5870.400; 5747.000;  153.000
1063.334; 7143.400; 7001.000;  153.200
1063.880; 5939.500; 5827.000;  148.400
1064.426; 6269.900; 6202.000;  149.200
1064.972; 5208.400; 5161.000;  156.400
1065.518; 4917.300; 4912.000;  144.700
1066.065; 5517.400; 5581.000;  139.400
1066.611; 5263.500; 5178.000;  139.300
1067.157; 5634.000; 5532.000;  138.400
1067.703; 5939.800; 5887.000;  142.700
1068.249; 5193.900; 5113.000;  136.700
1068.794; 5500.700; 5423.000;  139.400
1069.340; 5024.600; 5006.000;  142.700
1069.886; 5224.600; 5117.000;  135.600
1070.432; 4660.200; 4606.000;  133.400
1070.977; 5290.800; 5135.000;  138.200
1071.523; 4918.300; 4894.000;  132.400
1072.068; 5009.300; 4936.000;  132.700
1072.614; 4537.500; 4503.000;  127.000
1073.160; 6145.300; 6090.000;  131.300
1073.705; 5057.100; 5030.000;  135.700
1074.250; 4917.800; 4904.000;  133.000
1074.796; 5837.200; 5771.000;  138.000
1075.341; 5855.400; 5822.000;  137.300
1075.886; 5146.500; 4986.000;  134.300
1076.431; 5821.600; 5812.000;  138.200
1076.976; 5684.700; 5633.000;  132.200
1077.521; 5098.700; 5046.000;  138.900
1078.067; 5110.400; 5050.000;  128.600
1078.612; 5907.200; 5886.000;  138.900
1079.156; 5308.600; 5189.000;  128.900
1079.701; 6177.900; 6155.000;  129.700
1080.246; 6211.700; 6178.000;  128.600
1080.791; 5584.600; 5562.000;  122.600
1081.336; 5825.900; 5852.000;  122.000
1081.880; 5771.600; 5717.000;  123.900
1082.425; 5007.200; 4948.000;  120.600
1082.970; 6429.100; 6384.000;  124.500
1083.514; 5249.200; 5162.000;  112.000
1084.059; 5183.200; 5063.000;  120.700
1084.603; 4994.000; 4893.000;  116.000
1085.147; 5765.500; 5713.000;  116.300
1085.692; 6467.500; 6383.000;  108.200
1086.236; 4422.400; 4346.000;  114.600
1086.780; 6769.600; 6644.000;  118.900
1087.325; 5861.200; 5849.000;  120.400
1087.869; 5461.200; 5459.000;  110.500
1088.413; 6287.500; 6238.000;  114.000
1088.957; 4710.800; 4614.000;  114.300
1089.501; 6944.900; 6857.000;  114.600
1090.045; 6575.300; 6559.000;  114.200
1090.589; 5020.000; 4966.000;  105.500
1091.133; 6010.600; 5902.000;  111.800
1091.676; 5171.200; 5140.000;  110.900
1092.220; 5370.400; 5377.000;  110.100
1092.764; 6356.300; 6290.000;  108.100
1093.307; 6035.700; 5998.000;  109.900
1093.851; 4911.400; 4870.000;  107.500
1094.395; 6149.300; 6119.000;   96.200
1094.938; 5663.500; 5617.000;   99.300
1095.482; 4936.100; 4918.000;   97.700
1096.025; 6406.900; 6310.000;   84.900
1096.568; 6993.400; 6932.000;   88.500
1097.112; 4418.800; 4354.000;   95.700
1097.655; 5274.800; 5181.000;   97.300
1098.198; 5317.100; 5278.000;   92.600
1098.741; 5521.400; 5520.000;   91.800
1099.285; 5849.000; 5763.000;   88.000
1099.828; 3831.900; 3796.000;   91.700
1100.371; 5463.800; 5383.000;   89.900
1100.914; 6155.500; 6094.000;   91.500
1101.457; 6095.800; 6083.000;   88.100
1101.999; 5156.900; 5084.000;   86.400
1102.542; 5686.300; 5645.000;   90.800
1103.085; 5959.800; 5802.000;   95.400
1103.628; 6941.400; 6918.000;   97.700
1104.170; 5199.900; 5102.000;   84.000
1104.713; 5803.600; 5745.000;   93.900
1105.256; 4931.000; 4875.000;   93.000
1105.798; 4440.300; 4434.000;   85.600
1106.341; 6603.100; 6532.000;   87.100
1106.883; 4647.300; 4570.000;   85.200
1107.425; 6052.800; 6045.000;   85.000
1107.968; 5563.100; 5472.000;   84.300
1108.510; 6175.000; 6108.000;   88.200
1109.052; 5539.400; 5533.000;   86.600
1109.594; 5023.600; 4946.000;   79.400
1110.136; 5793.800; 5831.000;   81.700
1110.679; 5664.100; 5623.000;   75.500
1111.221; 5452.700; 5411.000;   88.500
1111.763; 4956.900; 4911.000;   87.700
1112.304; 4906.900; 4854.000;   89.700
1112.846; 6029.600; 5956.000;   81.900
1113.388; 8738.200; 8762.000;   86.400
1113.930; 6283.000; 6282.000;   84.700
1114.472; 5485.500; 5366.000;   78.900
1115.013; 4910.500; 4872.000;   78.100
1115.555; 5323.800; 5271.000;   84.900
1116.097; 5153.100; 5162.000;   79.200
1116.638; 6223.300; 6142.000;   83.700
1117.180; 5973.300; 5892.000;   85.500
1117.721; 5147.900; 5089.000;   78.800
1118.262; 6153.800; 6168.000;   77.400
1118.804; 5760.200; 5668.000;   81.400
1119.345; 5237.800; 5154.000;   77.800
1119.886; 6398.900; 6365.000;   81.200
1120.427; 5285.400; 5263.000;   77.200
1120.969; 5438.700; 5361.000;   75.200
1121.510; 5085.000; 5095.000;   80.900
1122.051; 6589.100; 6478.000;   77.300
1122.592; 5972.800; 5955.000;   73.300
1123.133; 4897.800; 4880.000;   90.100
1123.673; 6444.200; 6445.000;   75.000
1124.214; 5547.900; 5548.000;   80.600
1124.755; 5861.400; 5830.000;   78.000
1125.296; 5650.400; 5628.000;   77.500
1125.836; 6282.200; 6237.000;   80.400
1126.377; 5441.400; 5435.000;   75.600
1126.918; 5565.200; 5571.000;   78.900
1127.458; 5653.300; 5616.000;   78.000
1127.999; 5985.100; 5905.000;   76.100
1128.539; 6325.100; 6283.000;   81.400
1129.079; 5792.200; 5794.000;   77.400
1129.620; 5032.900; 5066.000;   68.000
1130.160; 4860.600; 4819.000;   77.500
1130.700; 5821.600; 5809.000;   76.300
1131.240; 5873.000; 5810.000;   66.800
1131.781; 5675.000; 5572.000;   70.600
1132.321; 5471.100; 5434.000;   77.200
1132.861; 5066.200; 4954.000;   70.400
1133.401; 5429.600; 5415.000;   68.700
1133.941; 5715.000; 5752.000;   68.500
1134.481; 5515.600; 5399.000;   75.900
1135.020; 5524.300; 5478.000;   66.600
1135.560; 6085.800; 6106.000;   68.100
1136.100; 4484.600; 4466.000;   64.900
1136.640; 4622.500; 4595.000;   72.500
1137.179; 4818.900; 4772.000;   69.700
1137.719; 5520.400; 5456.000;   68.400
1138.258; 5356.300; 5364.000;   67.000
1138.798; 6043.500; 5978.000;   69.600
1139.337; 4325.000; 4292.000;   64.000
1139.877; 5828.200; 5855.000;   64.500
1140.416; 8073.800; 8129.000;   74.900
1140.955; 4812.600; 4763.000;   67.200
1141.494; 6188.100; 6114.000;   69.900
1142.034; 5304.400; 5349.000;   59.100
1142.573; 5898.900; 5846.000;   65.900
1143.112; 5020.600; 4973.000;   70.600
1143.651; 4860.900; 4810.000;   67.100
1144.190; 6382.200; 6414.000;   56.700
1144.729; 5506.300; 5553.000;   61.800
1145.267; 5263.500; 5202.000;   62.500
1145.806; 5819.600; 5715.000;   68.500
1146.345; 5891.100; 5888.000;   58.300
1146.884; 5730.800; 5660.000;   63.100
1147.422; 4821.700; 4811.000;   54.800
1147.961; 6528.500; 6432.000;   67.600
1148.500; 6138.500; 6104.000;   64.700
1149.038; 5852.400; 5811.000;   61.000
1149.577; 6448.900; 6411.000;   65.100
1150.115; 4058.500; 3998.000;   58.100
1150.653; 5547.700; 5591.000;   60.500
1151.192; 5042.900; 5061.000;   56.600
1151.730; 6028.800; 5962.000;   62.300
1152.268; 5337.600; 5302.000;   55.500
1152.806; 5229.500; 5130.000;   58.200
1153.344; 5266.000; 5204.000;   55.000
1153.882; 5443.500; 5389.000;   64.200
1154.421; 4193.200; 4188.000;   60.300
1154.958; 5480.400; 5482.000;   58.100
1155.496; 5914.000; 5874.000;   55.800
1156.034; 6686.200; 6597.000;   61.000
1156.572; 6141.600; 6053.000;   56.200
1157.110; 4282.100; 4289.000;   53.200
1157.647; 6244.500; 6224.000;   57.400
1158.185; 5191.700; 5144.000;   55.500
1158.723; 4622.000; 4643.000;   58.000
1159.260; 6432.600; 6461.000;   53.700
1159.798; 6064.100; 6045.000;   51.700
1160.335; 5797.200; 5797.000;   59.600

