source
Integration time [ms]: 4415.405
Averaging Nr. [scans]: 10
Smoothing Nr. [pixels]: 0
Data measured with spectrometer [name]: 7414430SP
Wave   ;Sample   ;Dark     ;Reference
[nm]   ;[counts] ;[counts] ;[counts] 

288.544; 5712.937; 5481.567;    6.613
289.143; 4678.592; 4445.805;   14.216
289.742; 6122.802; 5944.782;   11.816
290.341; 5821.177; 5549.822;   -4.936
290.940; 5323.861; 5126.334;    0.852
291.538; 6766.295; 6565.967;    1.792
292.137; 5936.306; 5724.192;    6.262
292.736; 7767.877; 7451.822;    8.164
293.335; 5451.084; 5236.041;   -6.418
293.934; 5892.182; 5668.136;   -2.904
294.532; 8361.753; 8170.262;   -5.162
295.131; 6559.457; 6327.777;  -10.283
295.730; 6366.438; 6165.880;  -16.141
296.328; 6139.203; 5919.741;  -14.740
296.927; 6071.617; 5823.527;   -8.768
297.525; 6037.840; 5870.784;  -15.255
298.124; 4909.778; 4719.534;  -22.063
298.722; 5939.988; 5667.405;  -14.796
299.321; 5444.010; 5160.111;  -10.466
299.919; 5802.408; 5655.808;  -10.979
300.518; 5336.880; 5062.438;  -12.077
301.116; 5321.675; 5088.125;  -13.509
301.715; 5655.889; 5476.557;  -11.939
302.313; 5470.716; 5256.375;  -15.424
302.911; 5819.633; 5621.171;  -19.833
303.509; 7666.381; 7470.388;   -3.567
304.108; 5990.801; 5754.438;   -9.553
304.706; 6426.986; 6182.500;   -8.582
305.304; 6503.852; 6357.468;  -12.348
305.902; 6182.171; 5985.563;  -14.411
306.500; 5782.149; 5621.059;   -7.194
307.098; 5952.120; 5766.937;   -9.322
307.696; 6338.131; 6148.666;  -19.192
308.294; 5857.979; 5652.933;   -9.736
308.892; 6103.308; 5935.455;  -15.482
309.490; 5605.647; 5442.755;  -14.107
310.088; 6484.343; 6295.396;  -15.862
310.686; 6650.793; 6399.270;  -10.781
311.284; 6253.062; 6134.692;  -14.878
311.882; 5741.984; 5647.399;   -9.948
312.480; 5557.980; 5377.040;  -15.503
313.078; 6696.732; 6571.419;  -17.262
313.675; 5494.149; 5344.059;   -3.694
314.273; 6594.867; 6491.006;  -18.246
314.871; 4535.635; 4387.228;  -15.190
315.468; 5229.133; 5086.171;  -12.633
316.066; 5570.553; 5378.019;   -5.765
316.664; 5222.160; 5124.990;  -14.317
317.261; 7707.237; 7501.531;   -8.677
317.859; 6461.683; 6383.247;  -11.804
318.456; 7041.525; 6947.801;   -3.107
319.054; 6566.464; 6478.350;   -3.062
319.651; 6234.222; 6074.594;   -6.706
320.249; 6875.922; 6764.594;   -5.206
320.846; 5902.098; 5767.831;   -4.679
321.443; 7123.570; 7003.613;   -7.920
322.041; 6986.597; 6863.432;  -14.105
322.638; 5923.268; 5873.557;   -6.263
323.235; 5465.416; 5353.375;   -7.424
323.833; 6248.142; 6144.042;  -14.765
324.430; 4961.491; 4823.814;  -10.550
325.027; 7568.383; 7492.045;   -9.951
325.624; 5188.875; 5037.771;   -3.712
326.221; 5589.138; 5515.481;   -9.368
326.818; 6873.104; 6752.095;   -5.637
327.415; 6036.908; 5883.005;   -6.699
328.012; 5477.713; 5293.117;   -5.713
328.609; 5811.636; 5667.824;   -9.983
329.206; 6393.947; 6302.553;   -7.154
329.803; 5901.318; 5770.431;   -1.682
330.400; 5526.349; 5373.857;   -2.741
330.997; 6565.610; 6398.510;   -4.339
331.594; 6404.184; 6309.646;  -10.278
332.191; 5676.359; 5513.435;   -6.967
332.787; 6770.258; 6623.131;   -0.480
333.384; 5957.500; 5864.241;  -10.333
333.981; 6513.124; 6493.301;  -19.900
334.578; 5412.121; 5197.644;  -19.816
335.174; 5647.349; 5451.614;  -15.844
335.771; 6679.667; 6559.961;  -12.670
336.367; 5579.660; 5394.394;  -21.124
336.964; 6361.466; 6137.810;  -18.226
337.561; 5761.715; 5655.582;  -13.311
338.157; 7570.666; 7429.612;  -19.006
338.754; 6433.475; 6305.286;  -19.418
339.350; 5736.669; 5531.421;  -29.433
339.946; 6083.653; 5908.979;  -16.622
340.543; 6922.593; 6726.633;  -16.744
341.139; 5763.951; 5622.079;  -21.841
341.735; 6349.698; 6137.947;  -25.012
342.332; 5531.456; 5311.191;  -19.156
342.928; 6503.312; 6365.379;  -20.443
343.524; 6314.083; 6140.857;  -14.397
344.120; 6077.571; 6034.729;  -20.654
344.716; 5735.635; 5567.636;   -5.730
345.313; 6604.056; 6491.590;  -10.929
345.909; 4918.979; 4700.448;  -19.843
346.505; 6064.364; 5954.910;  -19.645
347.101; 6820.840; 6646.147;   -9.618
347.697; 6488.820; 6396.497;  -10.305
348.293; 4916.055; 4852.084;  -23.189
348.889; 6114.897; 5965.240;  -18.418
349.485; 5477.824; 5374.457;  -10.476
350.081; 6370.657; 6229.540;  -17.320
350.676; 5612.308; 5471.969;  -21.088
351.272; 6727.417; 6672.840;  -12.821
351.868; 6354.865; 6170.107;  -13.165
352.464; 5863.615; 5717.784;  -12.464
353.059; 5157.550; 5013.372;  -22.547
353.655; 6444.999; 6246.942;   -9.379
354.251; 6200.068; 6029.314;   -8.266
354.846; 6107.309; 6051.520;  -17.705
355.442; 6151.115; 6058.985;   -9.317
356.038; 6131.021; 6001.648;  -11.049
356.633; 5950.313; 5753.728;  -10.006
357.229; 5883.979; 5792.494;  -13.120
357.824; 5732.604; 5618.256;  -15.647
358.420; 5491.095; 5342.335;  -19.204
359.015; 5591.822; 5433.553;  -12.263
359.610; 6323.561; 6199.748;  -16.421
360.206; 4737.860; 4613.949;  -20.074
360.801; 5131.371; 4989.573;  -13.277
361.396; 5908.053; 5775.979;   -5.822
361.992; 5415.803; 5307.256;  -11.247
362.587; 5433.231; 5357.827;  -21.502
363.182; 5658.473; 5457.229;   -7.461
363.777; 6151.500; 6069.447;   -8.719
364.372; 6099.826; 6050.361;  -14.590
364.967; 5620.797; 5475.840;  -15.145
365.563; 6844.665; 6697.708;   -7.192
366.158; 5566.244; 5421.507;   -5.662
366.753; 5236.984; 5143.757;   -8.378
367.348; 6228.580; 6005.246;  -14.990
367.942; 5724.220; 5506.497;   -6.005
368.537; 6283.881; 6153.150;  -11.504
369.132; 5812.478; 5757.342;  -10.576
369.727; 5134.546; 5037.765;  -12.573
370.322; 4723.537; 4595.091;  -11.560
370.917; 5927.808; 5842.969;  -10.388
371.511; 7410.141; 7311.299;   -9.161
372.106; 6656.997; 6524.840;  -10.245
372.701; 4744.963; 4616.606;  -10.158
373.296; 7347.011; 7212.424;   -4.719
373.890; 5337.431; 5243.827;  -11.802
374.485; 5816.303; 5755.458;  -13.500
375.079; 6288.610; 6165.272;   -6.276
375.674; 6958.061; 6819.348;   -0.447
376.268; 5719.290; 5693.824;   -6.916
376.863; 4821.992; 4784.930;  -14.483
377.457; 5544.103; 5440.104;   -6.903
378.052; 6559.183; 6456.656;   -9.844
378.646; 6390.207; 6323.666;  -12.601
379.240; 6183.508; 6030.570;  -14.715
379.835; 5401.063; 5223.005;  -12.331
380.429; 4653.493; 4499.880;   -9.074
381.023; 6725.610; 6686.475;   -1.729
381.617; 5811.537; 5705.293;  -13.714
382.212; 5834.870; 5704.022;   -7.060
382.806; 6565.303; 6396.104;   -2.303
383.400; 5812.729; 5801.524;   -0.815
383.994; 5762.332; 5653.428;   -4.429
384.588; 6036.516; 5945.137;   -6.261
385.182; 6314.297; 6274.639;    0.008
385.776; 6199.182; 6114.302;   -3.247
386.370; 5917.592; 5866.729;   -1.030
386.964; 5951.568; 5861.118;   -1.346
387.558; 5119.946; 5033.563;   -2.020
388.152; 5959.575; 5824.887;   -5.345
388.745; 7298.450; 7222.972;   -2.774
389.339; 6466.315; 6398.385;    3.510
389.933; 5950.903; 5911.655;    5.280
390.527; 7758.190; 7723.223;    2.610
391.120; 5198.062; 5074.455;   -7.914
391.714; 6196.556; 6149.989;   -1.903
392.308; 6963.013; 6811.480;    6.023
392.901; 5647.146; 5654.012;   -4.103
393.495; 5239.555; 5211.686;    3.284
394.089; 6950.486; 6843.864;    8.655
394.682; 6225.462; 6168.854;    2.312
395.275; 6460.221; 6403.851;   -7.402
395.869; 5994.811; 5942.626;   -1.072
396.462; 5467.332; 5435.979;    6.454
397.056; 6939.488; 6978.566;    8.494
397.649; 6616.396; 6572.689;    1.599
398.242; 6423.325; 6452.210;    3.153
398.836; 6935.863; 6924.404;   11.395
399.429; 5547.273; 5454.381;   14.695
400.022; 5996.500; 5910.649;    3.627
400.615; 7411.347; 7402.917;    8.383
401.208; 6150.631; 6070.474;   13.295
401.802; 6326.276; 6342.039;    6.211
402.395; 6217.900; 6126.649;    7.227
402.988; 6290.893; 6313.481;    2.700
403.581; 5663.421; 5668.250;   11.225
404.174; 6060.406; 6065.711;   18.922
404.767; 5631.584; 5544.959;   14.169
405.360; 5622.239; 5603.596;    8.999
405.953; 6863.255; 6861.483;   13.138
406.545; 6560.158; 6542.691;   13.937
407.138; 5526.474; 5510.982;   10.869
407.731; 5471.398; 5483.144;   12.768
408.324; 5920.056; 5857.034;   22.921
408.917; 6190.997; 6175.639;   15.308
409.509; 6720.294; 6749.184;   12.239
410.102; 5865.977; 5889.791;   13.741
410.695; 5985.806; 5923.110;   20.249
411.287; 5364.716; 5452.936;   21.793
411.880; 5251.687; 5246.813;   22.965
412.472; 5522.629; 5503.170;   15.082
413.065; 5750.292; 5735.526;   23.423
413.657; 5180.135; 5136.232;   21.077
414.250; 5810.674; 5801.180;   12.349
414.842; 6113.927; 6125.665;   20.423
415.434; 5166.471; 5145.124;   19.906
416.027; 5802.423; 5797.902;   26.574
416.619; 6474.518; 6455.239;   15.705
417.211; 5351.887; 5399.212;   17.791
417.804; 5617.276; 5649.034;   30.244
418.396; 5470.356; 5505.186;   24.177
418.988; 5975.278; 5929.539;   24.904
419.580; 5113.594; 5079.981;   20.692
420.172; 4824.495; 4804.532;   22.275
420.764; 6000.259; 6028.040;   26.773
421.356; 5771.821; 5735.846;   25.731
421.948; 6088.417; 6057.486;   24.876
422.540; 6069.094; 5988.426;   30.042
423.132; 5370.131; 5316.469;   32.728
423.724; 4976.522; 4990.750;   21.317
424.316; 5584.839; 5562.991;   29.359
424.908; 5331.009; 5306.763;   28.798
425.500; 5824.550; 5839.766;   30.512
426.092; 5814.822; 5813.795;   26.741
426.683; 6273.496; 6207.331;   27.029
427.275; 5738.089; 5706.112;   32.611
427.867; 5934.394; 5901.224;   33.796
428.458; 6624.870; 6570.214;   34.453
429.050; 6158.863; 6174.799;   34.255
429.642; 6682.785; 6702.152;   39.082
430.233; 4893.054; 4973.373;   41.138
430.825; 6589.521; 6574.290;   31.581
431.416; 6278.974; 6312.776;   35.755
432.008; 5755.472; 5785.518;   40.566
432.599; 5788.173; 5835.669;   46.322
433.190; 5663.934; 5673.924;   46.897
433.782; 4970.440; 5016.940;   41.069
434.373; 7917.441; 7932.891;   48.778
434.964; 5246.120; 5238.937;   50.078
435.556; 5595.410; 5643.313;   52.381
436.147; 6762.520; 6783.538;   38.251
436.738; 6228.536; 6216.626;   47.237
437.329; 6349.645; 6411.497;   61.304
437.920; 5791.821; 5909.043;   48.611
438.511; 4879.968; 4911.158;   44.910
439.103; 5439.809; 5442.359;   62.404
439.694; 5982.930; 6077.560;   63.075
440.285; 6562.303; 6606.342;   61.033
440.876; 7653.737; 7624.930;   57.249
441.466; 4933.716; 4938.128;   61.306
442.057; 5754.115; 5784.021;   65.773
442.648; 6645.727; 6629.352;   65.676
443.239; 5404.225; 5509.049;   55.963
443.830; 6184.566; 6119.850;   69.631
444.421; 5638.814; 5690.269;   69.943
445.011; 6053.622; 6044.240;   72.791
445.602; 6512.440; 6527.138;   68.848
446.193; 4026.254; 4025.969;   80.044
446.783; 5373.840; 5385.583;   82.599
447.374; 5911.250; 5929.362;   77.419
447.964; 6227.520; 6208.335;   72.605
448.555; 7146.532; 7223.662;   82.041
449.145; 5674.059; 5738.081;   76.230
449.736; 6981.008; 7014.854;   75.545
450.326; 6126.197; 6179.876;   67.945
450.917; 5760.743; 5723.790;   77.598
451.507; 5056.090; 5082.658;   68.027
452.097; 6442.854; 6490.368;   67.771
452.688; 6334.920; 6304.533;   62.884
453.278; 4527.449; 4527.655;   65.512
453.868; 6924.793; 6909.113;   71.796
454.458; 5483.205; 5508.596;   60.956
455.048; 6087.859; 6086.480;   62.356
455.639; 4652.241; 4670.133;   58.782
456.229; 6015.416; 6017.371;   65.209
456.819; 6345.682; 6310.384;   61.466
457.409; 6611.946; 6598.245;   59.967
457.999; 6189.414; 6187.713;   58.093
458.589; 5655.470; 5658.654;   59.536
459.179; 6045.811; 6018.506;   55.994
459.769; 5156.065; 5190.143;   43.624
460.358; 6708.219; 6708.826;   46.978
460.948; 5690.875; 5771.766;   49.821
461.538; 5395.897; 5352.872;   54.678
462.128; 5479.916; 5494.371;   49.309
462.717; 5807.743; 5833.634;   52.774
463.307; 5767.086; 5816.940;   48.101
463.897; 5311.948; 5357.948;   45.606
464.486; 7133.980; 7205.232;   45.010
465.076; 6063.828; 6073.297;   45.519
465.666; 5178.308; 5225.046;   50.058
466.255; 6540.849; 6590.100;   44.463
466.845; 5310.037; 5408.971;   41.206
467.434; 5923.889; 5963.350;   44.847
468.023; 5156.812; 5214.607;   46.760
468.613; 5815.270; 5777.654;   39.736
469.202; 5109.555; 5139.515;   46.461
469.791; 5902.478; 5905.020;   47.944
470.381; 5892.504; 5864.085;   47.529
470.970; 5638.582; 5605.980;   43.773
471.559; 5916.149; 5959.650;   41.646
472.148; 5240.298; 5252.221;   37.914
472.738; 6092.599; 6089.373;   48.071
473.327; 4860.153; 4874.257;   47.871
473.916; 5858.313; 5828.759;   37.716
474.505; 5940.304; 5974.484;   40.256
475.094; 6494.095; 6482.811;   43.269
475.683; 6299.639; 6371.471;   36.499
476.272; 5662.006; 5731.389;   44.542
476.861; 5421.246; 5407.887;   42.297
477.449; 5539.085; 5546.784;   46.878
478.038; 5184.647; 5151.392;   35.156
478.627; 5413.677; 5446.267;   42.514
479.216; 5866.065; 5893.335;   43.937
479.805; 5960.802; 5937.625;   51.393
480.393; 8161.159; 8145.920;   53.239
480.982; 6904.650; 6924.600;   38.955
481.571; 6653.404; 6654.682;   45.436
482.159; 5093.100; 5077.721;   51.007
482.748; 6259.017; 6295.164;   49.695
483.336; 6499.225; 6456.484;   48.280
483.925; 5609.391; 5467.250;   47.166
484.513; 5487.321; 5475.321;   55.404
485.102; 5956.473; 5977.104;   54.238
485.690; 7822.952; 7717.101;   55.748
486.278; 7522.411; 7496.097;   55.934
486.867; 5767.393; 5782.952;   57.106
487.455; 6579.139; 6500.668;   56.979
488.043; 5088.909; 5053.642;   57.564
488.631; 7523.082; 7444.375;   57.432
489.220; 6537.359; 6447.516;   63.646
489.808; 4848.760; 4790.870;   65.449
490.396; 6445.446; 6508.084;   61.977
490.984; 5496.922; 5490.074;   68.834
491.572; 6472.917; 6475.361;   70.775
492.160; 6103.909; 6070.642;   67.564
492.748; 5612.865; 5624.583;   66.808
493.336; 6546.734; 6545.354;   79.747
493.924; 5603.986; 5510.734;   88.688
494.512; 6455.913; 6351.001;   84.120
495.100; 6302.767; 6290.639;   86.250
495.687; 6709.177; 6684.661;  103.074
496.275; 5365.787; 5360.486;  108.717
496.863; 5620.250; 5635.797;  107.035
497.451; 5544.059; 5572.718;  117.993
498.038; 5881.626; 5881.833;  120.116
498.626; 5645.515; 5611.704;  143.059
499.214; 6073.111; 5977.097;  153.434
499.801; 5916.377; 5898.863;  175.121
500.389; 4808.934; 4766.602;  185.617
500.976; 6167.383; 6136.526;  215.789
501.564; 5923.588; 5944.840;  240.321
502.151; 4196.811; 4163.698;  267.007
502.738; 5562.676; 5479.358;  317.961
503.326; 5679.715; 5638.856;  361.216
503.913; 5944.825; 6019.282;  401.433
504.500; 6117.751; 6033.949;  446.492
505.088; 5191.336; 5161.012;  512.063
505.675; 5695.443; 5645.826;  586.387
506.262; 5625.752; 5691.702;  671.021
506.849; 5794.740; 5799.219;  759.062
507.436; 6601.808; 6604.688;  849.788
508.023; 5775.451; 5724.595;  944.288
508.610; 6447.812; 6444.249; 1020.690
509.197; 6199.417; 6140.315; 1089.052
509.784; 5831.303; 5717.176; 1133.776
510.371; 4815.021; 4775.968; 1165.501
510.958; 5917.329; 5882.843; 1251.735
511.545; 6869.374; 6857.054; 1350.248
512.132; 5787.030; 5698.793; 1525.945
512.719; 5163.625; 5104.282; 1834.933
513.305; 5317.617; 5310.962; 1965.349
513.892; 6761.251; 6702.550; 1963.265
514.479; 5961.559; 5832.516; 2046.446
515.066; 6522.578; 6464.414; 2252.803
515.652; 5925.324; 5881.377; 2567.247
516.239; 6298.059; 6313.117; 2636.919
516.825; 4906.432; 4921.298; 2482.304
517.412; 7322.396; 7283.559; 2427.031
517.998; 5674.379; 5628.919; 2540.463
518.585; 5582.811; 5531.698; 2609.007
519.171; 5979.086; 5920.734; 2842.088
519.758; 5025.824; 4972.529; 3090.703
520.344; 6452.903; 6431.176; 3176.076
520.930; 5152.701; 5097.474; 3295.037
521.516; 6197.804; 6125.727; 3500.959
522.103; 6812.021; 6779.321; 3736.704
522.689; 5600.484; 5566.632; 3971.022
523.275; 6591.575; 6608.807; 4213.778
523.861; 5721.529; 5668.242; 4190.361
524.447; 6606.938; 6462.714; 4070.602
525.033; 6679.194; 6618.856; 4088.892
525.619; 5355.089; 5328.593; 4416.851
526.205; 5005.918; 5023.866; 4836.835
526.791; 5629.646; 5627.483; 4885.903
527.377; 5422.032; 5337.652; 4544.907
527.963; 5968.752; 5968.302; 4321.995
528.549; 6071.871; 6039.599; 4473.979
529.135; 5312.947; 5226.988; 4788.663
529.721; 5889.521; 5866.922; 4888.577
530.306; 7984.971; 7995.599; 4775.779
530.892; 5599.814; 5557.906; 4793.906
531.478; 5480.420; 5415.170; 4956.948
532.063; 5180.194; 5180.705; 5136.936
532.649; 7308.234; 7262.157; 5336.867
533.235; 5223.137; 5212.764; 5748.092
533.820; 6696.231; 6608.546; 6456.875
534.406; 5700.423; 5666.180; 6590.167
534.991; 5286.974; 5289.655; 6179.622
535.576; 5754.462; 5694.926; 6098.691
536.162; 8065.243; 7974.028; 6441.234
536.747; 4978.432; 4940.101; 6816.224
537.333; 5307.093; 5302.154; 6889.752
537.918; 5782.079; 5755.368; 7154.280
538.503; 5401.752; 5371.101; 7150.848
539.088; 6110.318; 6099.467; 7253.308
539.673; 5575.189; 5513.345; 7625.180
540.259; 5390.348; 5372.741; 8226.793
540.844; 4695.495; 4634.856; 8745.092
541.429; 7090.957; 7120.016; 8762.553
542.014; 4901.699; 4949.771; 8871.497
542.599; 6049.965; 6063.583; 8886.008
543.184; 5072.184; 5041.082; 9079.139
543.769; 5378.529; 5326.045; 9076.182
544.354; 5586.786; 5529.138; 8354.081
544.938; 5995.972; 5998.352; 8236.809
545.523; 7073.928; 7062.691; 8222.179
546.108; 5790.451; 5738.999; 8114.082
546.693; 5751.426; 5653.590; 8535.912
547.278; 5784.949; 5769.494; 9238.322
547.862; 5770.082; 5704.975; 9034.405
548.447; 6485.087; 6339.890; 7795.011
549.031; 5559.260; 5521.425; 7485.099
549.616; 6027.029; 5912.444; 7626.308
550.201; 5438.615; 5297.260; 7627.909
550.785; 6302.696; 6214.963; 7859.125
551.370; 5043.675; 4994.762; 7990.654
551.954; 6475.841; 6431.926; 8196.468
552.538; 6337.474; 6355.256; 7959.495
553.123; 5408.871; 5310.801; 7964.826
553.707; 5619.144; 5611.185; 8515.957
554.291; 6806.053; 6768.055; 8724.024
554.876; 6413.408; 6346.844; 8524.211
555.460; 5454.304; 5443.484; 8704.456
556.044; 5387.103; 5278.934; 9141.473
556.628; 5830.731; 5740.702; 9250.197
557.212; 6653.623; 6627.428; 9444.237
557.796; 5664.290; 5621.699; 9379.783
558.380; 6131.030; 6056.000; 9353.658
558.964; 5948.979; 5879.121; 9210.310
559.548; 4995.325; 4817.085; 8475.153
560.132; 5584.519; 5477.422; 7954.084
560.716; 5140.625; 5065.040; 7489.529
561.300; 5056.561; 4919.223; 7211.952
561.884; 6282.916; 6281.613; 7141.313
562.467; 6234.480; 6136.076; 7155.386
563.051; 5849.187; 5819.092; 7323.158
563.635; 5768.777; 5635.267; 7709.114
564.219; 5816.140; 5793.623; 7678.855
564.802; 6291.923; 6082.983; 7376.187
565.386; 5953.407; 5788.142; 7054.372
565.969; 6860.392; 6725.002; 6589.196
566.553; 7531.599; 7384.373; 6279.371
567.136; 6798.058; 6652.970; 5967.930
567.720; 5997.604; 5855.687; 5660.703
568.303; 6239.363; 6024.082; 5648.615
568.887; 6079.170; 5900.250; 5618.443
569.470; 6220.507; 6009.495; 5411.875
570.053; 6538.554; 6312.610; 5149.274
570.637; 5546.685; 5194.587; 5122.798
571.220; 6612.570; 6360.649; 4957.369
571.803; 7738.264; 7391.436; 4933.018
572.386; 5993.457; 5532.818; 4840.973
572.969; 6022.326; 5597.191; 4592.886
573.552; 6182.212; 5723.006; 4348.387
574.135; 5592.435; 5165.314; 4002.290
574.718; 5841.346; 5343.841; 3654.773
575.301; 5902.007; 5304.195; 3502.288
575.884; 5962.668; 5264.548; 3349.803
576.467; 7324.004; 6533.687; 3191.403
577.050; 6902.331; 5972.505; 3062.418
577.633; 8251.468; 7248.194; 3214.200
578.216; 6685.206; 5558.591; 3284.889
578.799; 6829.658; 5724.172; 3189.777
579.381; 8781.894; 7434.709; 3064.502
579.964; 6737.844; 5321.185; 2888.357
580.547; 7576.955; 5915.515; 2905.760
581.129; 8714.650; 6835.004; 2966.849
581.712; 8025.260; 6015.829; 2887.292
582.294; 8007.697; 5849.670; 2771.631
582.877; 9881.061; 7448.779; 2711.602
583.459; 8381.415; 5788.865; 2577.049
584.042; 8521.680; 5660.878; 2454.707
584.624; 8322.382; 5359.783; 2305.893
585.206; 7655.882; 4502.581; 2189.546
585.789; 8727.344; 5443.987; 2112.577
586.371; 9443.906; 6153.545; 2153.065
586.953; 9892.604; 6358.040; 2197.806
587.536;10536.806; 6688.591; 2105.489
588.118; 9788.642; 5611.886; 1963.911
588.700;11476.294; 6837.664; 1843.179
589.282;11262.323; 6205.185; 1813.834
589.864;11263.078; 5914.974; 1777.620
590.446;10431.712; 4743.410; 1733.780
591.028;12034.541; 5847.532; 1676.008
591.610;11513.683; 4786.935; 1631.649
592.192;13162.506; 5910.192; 1632.362
592.774;12310.966; 5196.694; 1569.507
593.356;12652.149; 5367.054; 1524.539
593.937;13338.324; 5418.089; 1569.720
594.519;15363.161; 6522.980; 1569.049
595.101;14331.704; 4808.242; 1545.452
595.683;15508.021; 5511.083; 1607.568
596.264;16445.227; 5733.994; 1615.506
596.846;16602.418; 5498.674; 1667.622
597.427;16674.318; 5333.876; 1670.469
598.009;16959.563; 5250.839; 1640.312
598.591;17914.928; 6341.651; 1541.022
599.172;17120.916; 5532.522; 1598.665
599.753;17523.596; 4953.922; 1619.068
600.335;19903.648; 6869.655; 1548.612
600.916;19588.445; 5819.093; 1607.510
601.498;20375.455; 6126.318; 1745.181
602.079;20977.820; 5848.932; 1801.011
602.660;21577.479; 5679.777; 1834.640
603.241;20901.955; 4596.565; 1787.351
603.823;22262.480; 5401.384; 1684.266
604.404;21897.000; 5057.730; 1654.241
604.985;23170.453; 5519.615; 1758.741
605.566;24842.615; 6349.618; 1697.679
606.147;24364.508; 5562.404; 1526.728
606.728;23977.139; 4921.279; 1484.086
607.309;24010.357; 5387.576; 1421.070
607.890;24394.078; 5481.176; 1369.867
608.471;25250.736; 5259.773; 1277.826
609.051;26951.525; 5983.847; 1180.416
609.632;27252.371; 5226.962; 1075.816
610.213;28419.449; 5714.655; 1053.313
610.794;29079.186; 5559.546;  979.442
611.374;31191.855; 6096.424;  917.414
611.955;30899.514; 4899.117;  819.987
612.536;32052.480; 5966.681;  752.627
613.116;32460.951; 5384.559;  690.799
613.697;31749.111; 5447.814;  674.974
614.277;30861.094; 5180.669;  663.846
614.858;29837.430; 5392.605;  665.898
615.438;30353.238; 5736.678;  660.712
616.019;31377.973; 6710.619;  632.732
616.599;29757.885; 4412.995;  551.759
617.179;32834.652; 5059.368;  512.871
617.760;36524.430; 7737.757;  473.655
618.340;34884.355; 5604.474;  440.004
618.920;36611.266; 7001.850;  429.731
619.500;35340.953; 5482.418;  441.361
620.080;34086.672; 5209.867;  425.202
620.660;34010.012; 5209.864;  408.164
621.241;35185.609; 5514.510;  387.161
621.821;36076.680; 5837.731;  378.017
622.401;36886.441; 6505.840;  379.188
622.980;35713.504; 4903.247;  350.019
623.560;36381.336; 5521.576;  336.446
624.140;35733.691; 5821.860;  336.473
624.720;34808.742; 6055.745;  334.974
625.300;34195.734; 5219.824;  325.717
625.880;36246.816; 5700.224;  308.519
626.459;39922.512; 5793.662;  307.117
627.039;41484.770; 4713.355;  290.890
627.619;44718.930; 7367.857;  286.635
628.198;42556.242; 6704.042;  282.535
628.778;41849.645; 6234.745;  285.474
629.357;41916.949; 4963.705;  284.103
629.937;43415.520; 5496.937;  292.178
630.516;43628.805; 7021.999;  290.749
631.096;43462.207; 5324.702;  285.489
631.675;45379.793; 6730.623;  287.022
632.254;42466.766; 5277.350;  286.038
632.834;42633.820; 5700.538;  276.451
633.413;44388.934; 6763.369;  279.447
633.992;44022.176; 6435.574;  264.508
634.571;43137.656; 6147.181;  271.010
635.151;42659.645; 5098.396;  277.338
635.730;45297.531; 5649.313;  289.305
636.309;48279.570; 6052.012;  285.306
636.888;48235.707; 6123.561;  254.051
637.467;45916.688; 4719.208;  230.324
638.046;47326.883; 6942.045;  253.349
638.625;47852.648; 6572.564;  246.866
639.204;50261.352; 5929.069;  240.825
639.782;49987.391; 5700.617;  261.970
640.361;47660.809; 6735.752;  277.780
640.940;44079.160; 5352.780;  270.101
641.519;44274.609; 5966.808;  248.622
642.097;45950.563; 6194.836;  239.843
642.676;47955.910; 5832.864;  244.264
643.255;49658.160; 5595.892;  234.985
643.833;51589.711; 6154.920;  244.406
644.412;51405.363; 5457.948;  244.927
644.990;50976.813; 5847.976;  249.948
645.569;52663.461; 6105.004;  249.569
646.147;55842.813; 6392.032;  243.290
646.726;52386.563; 5870.060;  249.511
647.304;49855.613; 5517.087;  228.032
647.882;49871.563; 4664.116;  214.552
648.461;52460.711; 6009.144;  214.973
649.039;51916.465; 6236.171;  223.394
649.617;51205.715; 6235.199;  261.415
650.195;51547.863; 5901.228;  298.736
650.773;50150.113; 5462.255;  309.557
651.352;48896.063; 4637.283;  297.978
651.930;47172.313; 4530.311;  289.399
652.508;48116.465; 6380.339;  285.620
653.086;49005.414; 6049.367;  272.241
653.663;51182.465; 5267.395;  265.062
654.241;52197.414; 4997.423;  286.083
654.819;52413.566; 5031.451;  286.404
655.397;51751.914; 5128.479;  291.825
655.975;49259.863; 5523.507;  299.145
656.553;49798.617; 6916.535;  288.866
657.130;49260.465; 5139.563;  304.087
657.708;51305.816; 5972.591;  302.908
658.286;50892.266; 5910.619;  294.629
658.863;51094.918; 5878.646;  293.350
659.441;53152.168; 5966.674;  318.671
660.018;52158.918; 5632.703;  333.692
660.596;51365.668; 4648.730;  335.013
661.173;52260.219; 5367.758;  371.534
661.750;51960.066; 5153.786;  365.155
662.328;52686.719; 6199.814;  349.976
662.905;49017.266; 5476.842;  332.997
663.482;47136.520; 5638.870;  321.717
664.060;46677.566; 5282.898;  314.438
664.637;49375.816; 6099.926;  306.259
665.214;51867.668; 5914.954;  314.580
665.791;52901.418; 5540.982;  334.501
666.368;52742.770; 5450.010;  329.222
666.945;52005.117; 6258.038;  342.143
667.522;49688.867; 5207.066;  370.964
668.099;50064.719; 5656.094;  396.885
668.676;50633.469; 5755.122;  391.706
669.253;53769.621; 6928.150;  369.627
669.830;52988.871; 6704.178;  360.348
670.407;52238.621; 5608.206;  344.769
670.984;51047.469; 5627.233;  322.890
671.560;49732.020; 6122.262;  316.910
672.137;48503.270; 5431.290;  322.531
672.714;49908.320; 6147.317;  318.552
673.290;51637.172; 5911.345;  324.473
673.867;51821.422; 5382.373;  340.594
674.443;52389.473; 4994.401;  319.515
675.020;55264.922; 5856.429;  286.336
675.596;52797.273; 5504.457;  247.557
676.173;51271.023; 4908.485;  227.778
676.749;51140.371; 4358.513;  224.399
677.326;51460.422; 4788.541;  230.520
677.902;51482.773; 5177.569;  241.841
678.478;51879.223; 4895.597;  239.762
679.054;55914.273; 8495.625;  248.583
679.631;53389.523; 5984.653;  237.503
680.207;54203.672; 7131.681;  245.924
680.783;51547.523; 4427.708;  224.845
681.359;52544.273; 5552.737;  209.666
681.935;53611.023; 5738.765;  191.687
682.511;52507.973; 5741.792;  210.008
683.087;53680.926; 6086.820;  213.329
683.663;53128.375; 5578.849;  216.850
684.239;51984.023; 4983.876;  229.471
684.815;54732.875; 6294.904;  248.792
685.390;55642.625; 7397.932;  231.813
685.966;53676.477; 5788.960;  221.234
686.542;52159.426; 5068.988;  214.255
687.118;52940.977; 5877.016;  212.276
687.693;53524.125; 6123.044;  233.096
688.269;53256.977; 5556.072;  246.917
688.844;53135.027; 5960.100;  236.938
689.420;52223.477; 5760.128;  242.059
689.995;55286.926; 7042.156;  245.480
690.571;54057.078; 6693.184;  244.701
691.146;51282.125; 5413.212;  251.922
691.722;52396.676; 5927.240;  284.743
692.297;52592.328; 5385.268;  320.664
692.872;53835.777; 5270.295;  313.885
693.448;54944.129; 5038.324;  290.106
694.023;54861.176; 5790.352;  304.327
694.598;54876.727; 5913.379;  319.648
695.173;53834.180; 5416.407;  323.169
695.748;52336.930; 4608.436;  376.389
696.323;52286.180; 5602.463;  397.610
696.898;53067.230; 6660.491;  430.231
697.473;52812.078; 4730.519;  454.952
698.048;54161.328; 5527.547;  478.973
698.623;54003.078; 4907.575;  477.094
699.198;53829.930; 5760.603;  496.915
699.773;53101.078; 5265.631;  490.236
700.348;52150.531; 5032.659;  519.957
700.922;54985.980; 5803.687;  575.678
701.497;53924.230; 5715.715;  621.399
702.072;52544.879; 6345.743;  664.420
702.646;53901.629; 6220.771;  690.541
703.221;54136.680; 5851.799;  748.862
703.795;52318.430; 5075.827;  774.282
704.370;49704.480; 4195.854;  799.803
704.944;49817.332; 5350.882;  875.824
705.519;49627.883; 5917.911;  902.945
706.093;49353.031; 5115.938;  889.266
706.668;50912.184; 5977.966;  903.487
707.242;51113.031; 6229.994;  881.708
707.816;50159.480; 5421.022;  892.329
708.390;51687.734; 5573.050;  970.250
708.965;52656.383; 5894.078;  984.671
709.539;50798.133; 5479.106; 1026.092
710.113;50790.582; 5717.134; 1067.913
710.687;51392.734; 6340.162; 1166.434
711.261;50954.984; 5046.190; 1190.854
711.835;51145.332; 5113.218; 1197.275
712.409;51717.184; 4673.246; 1308.096
712.983;51705.234; 4698.274; 1461.617
713.557;51422.785; 4738.302; 1611.838
714.131;50750.035; 5513.330; 1554.359
714.704;49923.184; 5052.357; 1520.780
715.278;50273.836; 5778.386; 1575.101
715.852;50392.387; 6195.414; 1689.822
716.425;50089.035; 7173.441; 1829.143
716.999;47234.285; 4602.469; 2008.664
717.573;49035.234; 6068.498; 2000.485
718.146;51559.984; 6993.525; 1914.506
718.720;52158.438; 5863.553; 1818.026
719.293;52336.484; 6102.581; 1734.147
719.867;50140.336; 5211.609; 1716.968
720.440;50965.188; 6702.637; 1918.589
721.013;50065.637; 5248.665; 1975.410
721.587;51388.988; 4707.693; 2073.331
722.160;53806.238; 6337.721; 2357.852
722.733;53199.586; 5699.749; 2657.073
723.306;54116.438; 5693.777; 2703.894
723.880;53159.086; 5874.805; 2549.415
724.453;54281.336; 6623.833; 2414.336
725.026;53904.789; 5414.861; 2298.557
725.599;54034.738; 5851.889; 2168.778
726.172;53378.887; 6048.917; 2106.099
726.745;51160.637; 5995.944; 2253.320
727.318;49925.688; 6349.973; 2404.740
727.891;48479.539; 5952.000; 2680.161
728.463;48709.590; 5874.028; 2838.882
729.036;48634.238; 5191.056; 2755.103
729.609;49673.590; 5164.084; 2731.824
730.182;50889.141; 6269.112; 2855.645
730.754;48770.590; 4264.140; 2946.866
731.327;49961.539; 6087.168; 2840.187
731.900;48934.789; 4722.196; 2647.608
732.472;50054.039; 5610.224; 2473.929
733.045;52493.191; 5415.252; 2445.750
733.617;51803.742; 4658.280; 2511.771
734.190;52879.590; 6048.308; 2581.592
734.762;51891.340; 5625.336; 2710.813
735.334;51360.590; 5705.364; 3005.733
735.907;52377.242; 5650.392; 3154.954
736.479;53379.191; 6477.420; 3171.675
737.051;52886.844; 6076.448; 3217.496
737.623;53813.793; 6125.476; 3246.217
738.195;53213.641; 5227.503; 2985.238
738.768;53710.891; 4413.532; 2727.559
739.340;56135.742; 5395.560; 2666.880
739.912;54859.594; 6154.587; 2769.601
740.484;52066.043; 6041.615; 2731.422
741.056;50926.492; 5406.643; 2963.043
741.628;50372.445; 5061.671; 3361.364
742.199;53165.293; 6600.699; 3641.185
742.771;52463.742; 4871.727; 3932.005
743.343;53645.695; 5107.755; 4319.926
743.915;53906.246; 5911.783; 4706.647
744.487;53152.094; 6027.811; 4874.968
745.058;52215.844; 6190.839; 4616.589
745.630;51740.793; 6120.867; 4253.410
746.201;52190.445; 5360.895; 4056.131
746.773;54960.996; 5970.923; 3772.952
747.344;54652.344; 5546.951; 3642.473
747.916;53978.195; 5867.979; 3752.294
748.487;53036.348; 6215.007; 4106.215
749.059;50656.895; 4925.035; 4457.835
749.630;51709.246; 5210.063; 4366.457
750.201;53422.098; 5596.090; 4600.078
750.773;54236.945; 5191.119; 4658.499
751.344;54806.297; 5646.146; 4609.319
751.915;54129.945; 5615.174; 4526.440
752.486;53032.297; 5290.202; 4536.061
753.057;53688.246; 5833.230; 4383.282
753.628;53403.996; 5134.258; 4296.503
754.199;54043.848; 5388.286; 4383.224
754.770;53370.996; 6050.314; 4653.545
755.341;52303.148; 6390.342; 4831.666
755.912;51456.098; 5515.370; 4831.387
756.483;51974.949; 6044.398; 4735.808
757.054;51151.098; 5429.426; 4685.029
757.625;51172.250; 4914.454; 4994.250
758.195;51609.598; 4772.482; 5051.471
758.766;52459.348; 5796.510; 5317.792
759.337;51210.301; 4685.538; 5646.512
759.907;51689.051; 4799.565; 5404.133
760.478;53267.398; 5292.594; 5090.954
761.048;54778.148; 6093.622; 4871.175
761.619;53694.102; 5987.649; 4589.396
762.189;52725.551; 5679.677; 4171.317
762.760;53199.602; 6186.706; 3872.538
763.330;53907.652; 6171.733; 3832.259
763.900;53270.801; 5877.761; 4150.180
764.471;51101.750; 5146.789; 4529.801
765.041;52246.801; 6472.817; 4715.922
765.611;53037.551; 6018.845; 4681.442
766.181;52993.402; 5600.873; 4717.063
766.751;51780.051; 5715.901; 4710.285
767.321;51187.004; 4850.929; 4450.305
767.891;53448.352; 5769.957; 4274.126
768.461;54118.203; 5538.985; 4215.047
769.031;54064.254; 5584.013; 4173.068
769.601;54759.004; 6515.041; 4174.689
770.171;52934.555; 4741.069; 4229.310
770.741;53182.004; 5430.097; 4352.031
771.311;53591.152; 5953.125; 4336.652
771.880;53424.902; 5107.152; 4300.873
772.450;53270.652; 5123.181; 4387.194
773.020;54761.004; 4730.208; 4220.415
773.589;54260.152; 5262.236; 4075.835
774.159;52885.305; 5286.264; 4105.756
774.729;52964.355; 5167.292; 4114.978
775.298;53062.406; 5219.320; 3693.298
775.867;51910.254; 5182.348; 3343.119
776.437;51420.703; 5672.376; 3062.040
777.006;50687.355; 4710.404; 2927.161
777.576;52777.105; 6039.432; 3046.482
778.145;52800.254; 5923.460; 3230.203
778.714;51264.504; 5528.488; 3253.324
779.283;50305.258; 5999.516; 3129.745
779.853;49564.805; 5550.544; 2983.566
780.422;49294.258; 5521.572; 2929.887
780.991;49941.008; 5881.600; 2863.908
781.560;50305.656; 6633.627; 2948.029
782.129;49714.207; 5883.656; 3074.149
782.698;50790.059; 6520.684; 2893.970
783.267;48473.207; 5196.711; 2721.391
783.836;51304.156; 5872.739; 2659.712
784.404;50793.109; 4896.768; 2622.233
784.973;49532.359; 4159.795; 2600.754
785.542;50160.906; 5541.823; 2528.475
786.111;51319.457; 6351.851; 2404.396
786.679;50983.207; 6007.879; 2365.717
787.248;48326.859; 4763.907; 2498.438
787.817;48762.109; 5303.935; 2645.659
788.385;50060.160; 6374.963; 2709.280
788.954;47922.109; 4857.991; 2620.500
789.522;49860.461; 6116.019; 2625.422
790.090;49545.711; 4816.047; 2743.843
790.659;50281.359; 5358.075; 2635.163
791.227;50118.309; 5509.103; 2495.484
791.795;50103.262; 5819.131; 2413.705
792.364;48793.410; 5044.159; 2345.326
792.932;49053.559; 5996.187; 2350.447
793.500;47200.512; 5421.214; 2429.768
794.068;47541.359; 4762.243; 2513.589
794.636;49232.012; 5129.271; 2664.310
795.204;47373.859; 4580.298; 2721.431
795.772;45018.711; 5100.326; 2802.052
796.340;44457.063; 5282.354; 2847.173
796.908;45159.910; 4563.382; 2997.194
797.476;45662.961; 4974.410; 3151.615
798.044;45655.512; 4456.438; 3110.735
798.612;46679.063; 5530.466; 2931.656
799.180;46630.113; 5639.494; 2785.777
799.747;46107.563; 5565.522; 2899.098
800.315;45055.012; 4923.550; 2955.519
800.883;45295.664; 4500.578; 2948.940
801.450;46861.512; 5537.606; 2965.361
802.018;47456.563; 5867.634; 3070.582
802.585;46414.113; 5644.662; 3156.103
803.153;44300.563; 5139.690; 3199.524
803.720;43554.914; 5170.718; 3168.845
804.287;43516.965; 5380.746; 3248.366
804.855;44087.414; 6321.773; 3406.187
805.422;43955.766; 5458.802; 3430.907
805.989;43401.316; 5009.830; 3453.528
806.556;42951.363; 5021.857; 3612.649
807.124;46710.215; 6214.885; 3736.570
807.691;46560.867; 4934.913; 3770.491
808.258;46655.414; 5577.941; 3705.012
808.825;46383.465; 6156.969; 3828.733
809.392;45610.418; 6660.997; 3986.754
809.959;45238.766; 5870.025; 4410.075
810.526;46768.918; 6678.053; 4774.996
811.093;45415.566; 6331.081; 4754.217
811.659;43127.719; 5531.109; 4661.238
812.226;42708.168; 5491.137; 4672.559
812.793;43088.816; 5759.165; 4822.979
813.360;43278.766; 5529.193; 5189.800
813.926;44044.719; 5868.221; 5310.622
814.493;42895.867; 4764.249; 5414.542
815.060;42500.918; 4516.277; 5548.963
815.626;42044.469; 4878.305; 5452.284
816.193;42246.316; 5715.333; 5339.305
816.759;41718.969; 5068.360; 5544.426
817.325;40446.918; 4486.389; 5706.547
817.892;42658.070; 6140.417; 5623.468
818.458;42894.719; 5899.444; 5586.689
819.024;41844.668; 6416.472; 5647.910
819.591;40945.520; 5628.500; 5762.031
820.157;40297.570; 4825.528; 6284.452
820.723;41490.219; 5904.556; 6906.973
821.289;44200.969; 8526.584; 7086.894
821.855;40205.020; 6078.612; 7054.915
822.421;39099.570; 5236.640; 7112.035
822.987;39205.422; 4891.668; 7256.156
823.553;39352.871; 5402.696; 7538.077
824.119;39144.621; 6121.724; 7594.298
824.685;38627.473; 6437.752; 7613.619
825.251;38102.020; 6140.780; 7644.140
825.816;39103.773; 6810.808; 7720.261
826.382;38828.223; 6051.835; 8014.282
826.948;38361.273; 6131.864; 8281.503
827.513;37022.320; 5517.892; 8289.624
828.079;36930.672; 4962.919; 8587.045
828.645;37639.324; 5791.947; 8821.865
829.210;37130.273; 4944.976; 9054.486
829.776;36861.023; 5965.003; 9054.607
830.341;35667.875; 6112.031; 9415.628
830.906;34631.023; 6304.059; 9932.449
831.472;32849.973; 5191.087;10150.271
832.037;33284.023; 6249.115; 9420.391
832.602;32627.773; 5259.143; 8664.912
833.167;33493.824; 5773.171; 8491.933
833.733;33624.074; 6187.199; 8872.854
834.298;31814.023; 4952.227; 9370.575
834.863;32334.074; 5789.255; 9610.695
835.428;31414.125; 5814.283; 9655.616
835.993;31559.875; 5997.311; 9437.838
836.558;31659.025; 6102.339; 9441.459
837.123;32813.375; 7443.367; 9600.979
837.688;31165.025; 5851.395; 9798.301
838.253;31593.775; 5924.422; 9902.921
838.817;30305.727; 5479.451;10339.742
839.382;30551.176; 6624.479;10548.363
839.947;29623.227; 5688.506;10252.484
840.511;29896.076; 6782.534;10040.005
841.076;27339.627; 4509.563;10099.926
841.641;28381.477; 6094.590;10347.347
842.205;28329.027; 5963.618;10817.368
842.770;29567.777; 6893.646;11435.289
843.334;27855.127; 5488.674;12072.409
843.898;27600.078; 5343.702;12635.431
844.463;28332.428; 6616.730;12537.252
845.027;26552.578; 5346.758;12759.673
845.591;26955.229; 6343.786;12821.993
846.156;26176.178; 5323.814;12520.914
846.720;27266.729; 6234.842;12390.436
847.284;26007.078; 5813.870;12956.456
847.848;25403.629; 6032.897;13240.177
848.412;24733.180; 5724.926;13216.998
848.976;25198.229; 6794.954;13014.619
849.540;25512.680; 7300.981;12355.740
850.104;25108.129; 6636.009;12208.761
850.668;22901.080; 4616.038;12106.882
851.232;23155.830; 4750.065;11862.103
851.796;24171.580; 5667.093;11700.523
852.359;24231.031; 6274.121;12375.944
852.923;23668.281; 6409.149;13087.966
853.487;22724.932; 6105.177;13297.187
854.050;20212.881; 3908.205;13851.207
854.614;22068.932; 5469.233;14854.229
855.177;22774.881; 5886.261;15802.149
855.741;22389.531; 6060.289;16603.570
856.304;22121.682; 6370.317;16359.891
856.868;20167.232; 5105.345;14365.512
857.431;20181.383; 5712.373;13361.333
857.995;20187.633; 5462.401;14130.554
858.558;20410.582; 5915.429;14883.175
859.121;20867.732; 6254.457;15754.195
859.684;20730.383; 5904.484;15995.017
860.247;20340.133; 5695.513;15149.537
860.810;20046.084; 5400.541;14640.358
861.374;21702.734; 7459.568;15551.079
861.937;19482.984; 4998.596;16519.801
862.500;19925.434; 5339.625;16796.521
863.062;19646.084; 5105.652;16538.742
863.625;20213.734; 5921.680;16716.764
864.188;19176.184; 5397.708;17055.084
864.751;18533.436; 5356.736;17197.705
865.314;18761.084; 5761.764;17151.625
865.876;19002.336; 6364.792;17783.547
866.439;18797.785; 6196.820;19283.467
867.002;20041.336; 7174.848;20256.389
867.564;18963.186; 6441.876;20485.410
868.127;17803.836; 5718.904;20789.730
868.689;18172.086; 5961.932;21981.951
869.252;18129.236; 6425.960;23803.771
869.814;16713.086; 5230.988;24974.094
870.377;17267.736; 5923.016;24690.314
870.939;19587.688; 8317.044;23963.436
871.501;17027.836; 5897.071;25167.156
872.063;15490.188; 4221.100;26995.477
872.626;15998.737; 4647.127;27443.098
873.188;16791.887; 5921.155;26718.418
873.750;16211.237; 5674.183;26558.840
874.312;15867.688; 5388.211;26701.561
874.874;17336.139; 6898.239;27970.582
875.436;16859.289; 6221.267;29173.402
875.998;17085.039; 6734.295;30376.623
876.560;16413.588; 6397.323;32507.344
877.122;14738.339; 5260.351;34833.066
877.683;15138.889; 6151.379;36458.285
878.245;13995.439; 5376.407;37248.207
878.807;14508.989; 6031.435;36758.027
879.369;13249.040; 4942.463;35223.551
879.930;13490.390; 5136.491;33824.969
880.492;14786.940; 6573.519;34436.492
881.053;13197.590; 5102.547;37745.313
881.615;13346.240; 5391.575;41184.633
882.176;13503.190; 5567.603;42871.555
882.738;14019.940; 6274.630;41693.074
883.299;12095.690; 4460.659;40289.895
883.860;12033.941; 4709.687;39231.215
884.422;13307.591; 6181.714;38264.039
884.983;11942.342; 5033.742;37171.859
885.544;12628.092; 5855.770;35842.379
886.105;12436.842; 5720.798;34810.000
886.666;11975.892; 5336.826;34519.020
887.227;11139.143; 4744.854;33905.641
887.788;12116.692; 5936.882;34502.965
888.349;10607.543; 4873.910;34241.785
888.910;11756.192; 6124.938;33722.203
889.471;11314.343; 5846.966;32539.625
890.032;10898.894; 5702.994;31528.346
890.593;11137.043; 6083.022;32655.068
891.153;10579.993; 5645.050;33882.289
891.714; 9655.844; 4819.078;33318.711
892.275; 9644.194; 5036.105;31848.930
892.835;10758.145; 6330.134;30339.752
893.396;10486.494; 6260.162;30074.973
893.956; 9541.545; 5605.189;30338.393
894.517; 9656.095; 5858.217;30864.113
895.077; 9586.745; 5932.246;29766.734
895.638;10390.396; 6897.273;26379.557
896.198; 8352.646; 5026.301;24056.277
896.758; 9526.695; 6261.329;22961.898
897.319; 8696.445; 5611.357;21772.020
897.879; 8541.696; 5714.385;20877.539
898.439; 7431.746; 4747.413;19509.461
898.999; 8791.196; 6119.441;17297.582
899.559; 8628.446; 6037.469;14712.002
900.119; 7585.796; 5084.497;12790.224
900.679; 9201.946; 6747.525;11586.744
901.239; 8451.497; 6168.553;10776.465
901.799; 7881.647; 5786.581; 9691.687
902.359; 7138.897; 5185.609; 8725.907
902.919; 7030.748; 5054.637; 8305.728
903.479; 6985.498; 5046.665; 8172.649
904.038; 6717.948; 4968.692; 7913.870
904.598; 6045.098; 4259.721; 7262.291
905.158; 7053.249; 5435.749; 6609.012
905.717; 7263.898; 5623.776; 6236.133
906.277; 7252.749; 5717.804; 5829.054
906.836; 7561.099; 6056.833; 5396.674
907.396; 7449.749; 6052.860; 4964.195
907.955; 7470.499; 5980.888; 4528.917
908.515; 6862.750; 5444.916; 4223.837
909.074; 6887.700; 5481.944; 4023.958
909.633; 6881.350; 5518.972; 4065.379
910.192; 8295.300; 6941.000; 4066.300
910.752; 6773.900; 5503.000; 3971.600
911.311; 6674.600; 5417.000; 3839.600
911.870; 6407.000; 5136.000; 3684.500
912.429; 7692.900; 6432.000; 3635.600
912.988; 7508.000; 6289.000; 3689.800
913.547; 6311.900; 5102.000; 3737.700
914.106; 7003.500; 5755.000; 3740.300
914.665; 6933.200; 5731.000; 3604.600
915.224; 7541.500; 6407.000; 3358.700
915.782; 6474.900; 5305.000; 3188.400
916.341; 7711.500; 6542.000; 3091.400
916.900; 6543.400; 5490.000; 3044.800
917.458; 6213.400; 5238.000; 2888.600
918.017; 6861.600; 5768.000; 2818.900
918.576; 6549.300; 5455.000; 2838.600
919.134; 5863.100; 4788.000; 2880.100
919.693; 6500.500; 5332.000; 2996.300
920.251; 6375.000; 5290.000; 3183.100
920.809; 6057.700; 4913.000; 3247.000
921.368; 6380.400; 5358.000; 3156.600
921.926; 6157.300; 5063.000; 2964.900
922.484; 6759.000; 5701.000; 2846.300
923.042; 6526.600; 5468.000; 2890.400
923.601; 7713.200; 6575.000; 2987.700
924.159; 7095.400; 6004.000; 3049.800
924.717; 6160.300; 5018.000; 3087.000
925.275; 6770.700; 5673.000; 3093.400
925.833; 5640.200; 4503.000; 3182.400
926.391; 7101.500; 5982.000; 3397.900
926.949; 6472.900; 5315.000; 3575.400
927.506; 6882.300; 5692.000; 3713.400
928.064; 6587.700; 5391.000; 3871.300
928.622; 6676.800; 5544.000; 4092.800
929.180; 6067.400; 4740.000; 4499.300
929.737; 5938.400; 4678.000; 4813.200
930.295; 7180.000; 5971.000; 5084.100
930.853; 6361.800; 5176.000; 5185.000
931.410; 6097.200; 4811.000; 5313.100
931.968; 7314.400; 5977.000; 5339.600
932.525; 6880.400; 5604.000; 5399.900
933.082; 6055.700; 4724.000; 5457.500
933.640; 7120.000; 5779.000; 5692.900
934.197; 6684.400; 5288.000; 5821.200
934.754; 6760.400; 5389.000; 5617.900
935.312; 6436.500; 5035.000; 5512.400
935.869; 7888.800; 6473.000; 5582.400
936.426; 6491.100; 5084.000; 5650.100
936.983; 6680.000; 5351.000; 5657.400
937.540; 6128.200; 4795.000; 5564.300
938.097; 7194.900; 5766.000; 5574.000
938.654; 6663.500; 5205.000; 5665.900
939.211; 7225.300; 5747.000; 5931.600
939.768; 6915.200; 5454.000; 6153.600
940.324; 6745.300; 5260.000; 6397.600
940.881; 6521.600; 5026.000; 6454.200
941.438; 7761.400; 6321.000; 6206.900
941.995; 7568.000; 6088.000; 6003.900
942.551; 6320.700; 4826.000; 6228.300
943.108; 6868.300; 5493.000; 6603.500
943.664; 6293.900; 4808.000; 7188.100
944.221; 8388.900; 6963.000; 7579.900
944.777; 6291.100; 4769.000; 7658.100
945.334; 6423.000; 4926.000; 7670.400
945.890; 7004.900; 5499.000; 7525.100
946.446; 7029.100; 5661.000; 7261.500
947.003; 7213.600; 5720.000; 6949.200
947.559; 8106.800; 6597.000; 6773.100
948.115; 7718.500; 6184.000; 6668.400
948.671; 7154.600; 5716.000; 6488.400
949.227; 6068.600; 4637.000; 6236.600
949.783; 5975.900; 4555.000; 6008.900
950.339; 7228.300; 5763.000; 5934.100
950.895; 7599.400; 6155.000; 5933.500
951.451; 6682.200; 5281.000; 6074.700
952.007; 7340.800; 5873.000; 6066.400
952.563; 6667.700; 5328.000; 5884.100
953.118; 6475.800; 5100.000; 5733.800
953.674; 6860.500; 5522.000; 5734.300
954.230; 6873.000; 5449.000; 6039.700
954.785; 6827.400; 5377.000; 6383.500
955.341; 7422.600; 5957.000; 6568.200
955.897; 5975.800; 4541.000; 6488.600
956.452; 7082.900; 5608.000; 6239.200
957.008; 8403.700; 7065.000; 5954.600
957.563; 7652.000; 6359.000; 5816.700
958.118; 6371.300; 5037.000; 5828.200
958.674; 6938.100; 5597.000; 5717.400
959.229; 7724.900; 6411.000; 5506.800
959.784; 6002.800; 4679.000; 5292.200
960.339; 7673.700; 6396.000; 5101.900
960.894; 7305.300; 5933.000; 5093.200
961.449; 6285.100; 4985.000; 5227.900
962.004; 9753.900; 8506.000; 5349.300
962.559; 6368.800; 5074.000; 5514.900
963.114; 5261.900; 3947.000; 5717.300
963.669; 6845.800; 5523.000; 5841.400
964.224; 6568.600; 5243.000; 5805.900
964.779; 6097.200; 4846.000; 5723.400
965.334; 7664.300; 6456.000; 5779.500
965.888; 6422.200; 5158.000; 5948.500
966.443; 7349.800; 6152.000; 6344.200
966.998; 5827.300; 4528.000; 6666.300
967.552; 6717.000; 5558.000; 6710.100
968.107; 6345.500; 5157.000; 6593.500
968.661; 6891.200; 5652.000; 6344.100
969.216; 6234.400; 5033.000; 6062.400
969.770; 6889.100; 5711.000; 5785.500
970.324; 6948.700; 5736.000; 5426.800
970.879; 7253.900; 6085.000; 5016.800
971.433; 7281.000; 6137.000; 4904.500
971.987; 6738.200; 5551.000; 4991.000
972.541; 6957.900; 5804.000; 4978.500
973.095; 7794.500; 6695.000; 4832.000
973.649; 5862.800; 4743.000; 4767.900
974.203; 6063.900; 4999.000; 4881.200
974.757; 6318.000; 5146.000; 4969.500
975.311; 6536.900; 5507.000; 4953.000
975.865; 6558.000; 5512.000; 4884.300
976.419; 6367.900; 5308.000; 4739.800
976.973; 6291.600; 5164.000; 4698.100
977.526; 7281.800; 6270.000; 4631.100
978.080; 5792.700; 4752.000; 4621.600
978.634; 6942.900; 5983.000; 4650.200
979.187; 6830.300; 5837.000; 4669.200
979.741; 7934.300; 6893.000; 4658.000
980.294; 5772.000; 4800.000; 4579.100
980.848; 5104.000; 4141.000; 4452.800
981.401; 6086.900; 5098.000; 4271.900
981.955; 6424.500; 5559.000; 4087.800
982.508; 5410.800; 4589.000; 3973.900
983.061; 7142.400; 6233.000; 3928.600
983.615; 5906.000; 5011.000; 3851.200
984.168; 5668.000; 4774.000; 3734.800
984.721; 6755.700; 5824.000; 3628.300
985.274; 6578.800; 5695.000; 3564.300
985.827; 6325.900; 5545.000; 3558.100
986.380; 5214.900; 4362.000; 3559.900
986.933; 6585.000; 5820.000; 3688.700
987.486; 6618.000; 5769.000; 3778.500
988.039; 6570.600; 5766.000; 3559.900
988.591; 6958.200; 6199.000; 3219.300
989.144; 5462.200; 4702.000; 2902.900
989.697; 5747.700; 4951.000; 2722.600
990.250; 6724.300; 5977.000; 2618.000
990.802; 5739.600; 4954.000; 2523.900
991.355; 7950.000; 7290.000; 2436.500
991.907; 6876.100; 6210.000; 2412.200
992.460; 5802.200; 5130.000; 2387.900
993.012; 5818.200; 5177.000; 2365.800
993.565; 5478.500; 4838.000; 2311.100
994.117; 7746.000; 7118.000; 2308.700
994.669; 5437.700; 4789.000; 2249.300
995.221; 6369.800; 5730.000; 2158.100
995.774; 6254.400; 5661.000; 2085.600
996.326; 5835.900; 5310.000; 2068.100
996.878; 6853.600; 6288.000; 1975.300
997.430; 5506.900; 5001.000; 1929.500
997.982; 6047.200; 5514.000; 1861.900
998.534; 5996.300; 5395.000; 1830.200
999.086; 5928.100; 5486.000; 1823.200
999.638; 5177.400; 4617.000; 1815.000
1000.190; 5682.600; 5201.000; 1796.600
1000.741; 6049.900; 5618.000; 1738.800
1001.293; 5499.900; 4958.000; 1666.200
1001.845; 5509.400; 4936.000; 1566.500
1002.396; 6130.800; 5683.000; 1471.900
1002.948; 6050.900; 5585.000; 1398.000
1003.500; 5928.600; 5384.000; 1356.500
1004.051; 7837.500; 7408.000; 1294.200
1004.603; 6719.500; 6321.000; 1190.000
1005.154; 4956.500; 4622.000; 1063.900
1005.705; 6083.300; 5715.000;  968.300
1006.257; 5953.300; 5621.000;  889.800
1006.808; 5765.400; 5409.000;  801.500
1007.359; 6575.800; 6277.000;  716.400
1007.910; 5431.300; 5166.000;  639.100
1008.461; 6311.300; 6046.000;  561.600
1009.013; 4914.300; 4631.000;  500.400
1009.564; 6914.000; 6641.000;  476.100
1010.115; 4974.600; 4749.000;  431.600
1010.665; 5080.400; 4862.000;  409.300
1011.216; 5721.300; 5486.000;  399.700
1011.767; 5964.100; 5682.000;  388.100
1012.318; 6214.800; 5979.000;  381.400
1012.869; 5741.100; 5469.000;  375.400
1013.419; 5058.600; 4882.000;  357.600
1013.970; 5771.300; 5508.000;  358.300
1014.521; 5214.000; 4920.000;  344.100
1015.071; 5766.100; 5526.000;  322.800
1015.622; 5386.900; 5173.000;  320.600
1016.172; 5048.600; 4798.000;  301.700
1016.723; 5206.700; 4985.000;  289.800
1017.273; 5128.400; 4919.000;  287.600
1017.823; 5559.300; 5266.000;  278.700
1018.374; 5214.100; 5017.000;  274.400
1018.924; 6225.200; 6026.000;  283.200
1019.474; 6126.000; 5935.000;  278.500
1020.024; 5618.100; 5446.000;  274.700
1020.574; 6300.200; 6046.000;  272.700
1021.124; 5836.400; 5659.000;  278.400
1021.674; 4732.400; 4550.000;  269.200
1022.224; 6157.600; 6058.000;  267.800
1022.774; 5710.600; 5508.000;  258.100
1023.324; 6635.400; 6390.000;  260.000
1023.874; 7887.000; 7690.000;  260.700
1024.423; 5231.300; 5024.000;  252.700
1024.973; 5127.300; 4838.000;  234.700
1025.523; 5309.200; 5137.000;  226.500
1026.072; 5202.000; 5038.000;  225.500
1026.622; 5845.400; 5608.000;  210.100
1027.172; 6231.200; 6037.000;  213.000
1027.721; 5131.700; 4936.000;  207.700
1028.270; 5826.500; 5591.000;  205.400
1028.820; 5581.500; 5374.000;  201.000
1029.369; 5302.000; 5199.000;  201.000
1029.918; 5561.800; 5341.000;  198.400
1030.468; 4822.300; 4593.000;  199.200
1031.017; 5509.900; 5332.000;  192.600
1031.566; 5270.800; 5112.000;  197.400
1032.115; 6082.900; 5870.000;  188.300
1032.664; 5192.900; 4961.000;  193.700
1033.213; 6463.500; 6321.000;  191.900
1033.762; 5525.400; 5365.000;  184.500
1034.311; 5887.900; 5729.000;  194.300
1034.860; 6035.900; 5882.000;  192.300
1035.408; 6406.500; 6205.000;  182.600
1035.957; 6326.100; 6129.000;  173.900
1036.506; 4504.000; 4341.000;  185.200
1037.055; 7523.000; 7433.000;  182.500
1037.603; 5809.500; 5562.000;  167.600
1038.152; 4506.000; 4363.000;  168.200
1038.700; 5019.800; 4879.000;  169.600
1039.249; 5914.500; 5805.000;  164.300
1039.797; 5540.600; 5351.000;  169.600
1040.345; 6176.800; 6042.000;  167.100
1040.894; 5484.400; 5358.000;  164.400
1041.442; 5541.000; 5318.000;  158.300
1041.990; 4854.600; 4711.000;  160.000
1042.538; 4622.900; 4442.000;  156.800
1043.087; 4871.200; 4622.000;  146.600
1043.635; 5949.100; 5900.000;  162.400
1044.183; 5135.900; 4946.000;  156.300
1044.731; 5001.900; 4900.000;  158.100
1045.279; 5942.200; 5836.000;  154.500
1045.827; 8098.200; 7934.000;  146.200
1046.374; 4394.300; 4281.000;  154.000
1046.922; 5135.100; 5002.000;  149.000
1047.470; 6137.200; 5941.000;  154.900
1048.018; 5762.700; 5569.000;  148.400
1048.565; 6366.000; 6230.000;  146.300
1049.113; 4820.000; 4693.000;  156.100
1049.660; 5478.100; 5334.000;  154.300
1050.208; 5942.700; 5811.000;  149.400
1050.755; 5319.300; 5115.000;  157.500
1051.303; 6116.300; 5906.000;  157.700
1051.850; 5549.500; 5349.000;  152.800
1052.397; 4041.300; 3904.000;  146.300
1052.945; 5442.800; 5306.000;  149.500
1053.492; 6642.700; 6448.000;  149.300
1054.039; 6433.700; 6276.000;  163.100
1054.586; 4860.000; 4669.000;  150.400
1055.133; 6178.500; 6065.000;  153.500
1055.680; 5695.600; 5558.000;  155.600
1056.227; 4704.700; 4517.000;  148.700
1056.774; 7131.400; 7027.000;  151.500
1057.321; 4563.200; 4417.000;  143.700
1057.868; 5734.200; 5537.000;  145.300
1058.415; 5806.100; 5620.000;  153.500
1058.961; 6014.600; 5887.000;  149.900
1059.508; 5693.300; 5514.000;  147.300
1060.055; 5130.900; 4957.000;  151.000
1060.601; 5462.000; 5313.000;  148.700
1061.148; 5541.700; 5405.000;  153.800
1061.694; 5223.300; 5146.000;  150.500
1062.241; 5278.400; 5032.000;  149.100
1062.787; 5916.600; 5747.000;  153.000
1063.334; 7225.500; 7001.000;  153.200
1063.880; 6004.500; 5827.000;  148.400
1064.426; 6327.100; 6202.000;  149.200
1064.972; 5287.600; 5161.000;  156.400
1065.518; 4962.300; 4912.000;  144.700
1066.065; 5584.100; 5581.000;  139.400
1066.611; 5315.900; 5178.000;  139.300
1067.157; 5730.100; 5532.000;  138.400
1067.703; 5978.400; 5887.000;  142.700
1068.249; 5281.600; 5113.000;  136.700
1068.794; 5571.000; 5423.000;  139.400
1069.340; 5058.500; 5006.000;  142.700
1069.886; 5265.400; 5117.000;  135.600
1070.432; 4744.600; 4606.000;  133.400
1070.977; 5385.300; 5135.000;  138.200
1071.523; 4989.400; 4894.000;  132.400
1072.068; 5086.500; 4936.000;  132.700
1072.614; 4599.700; 4503.000;  127.000
1073.160; 6238.500; 6090.000;  131.300
1073.705; 5112.900; 5030.000;  135.700
1074.250; 4950.100; 4904.000;  133.000
1074.796; 5911.200; 5771.000;  138.000
1075.341; 5936.300; 5822.000;  137.300
1075.886; 5222.400; 4986.000;  134.300
1076.431; 5865.200; 5812.000;  138.200
1076.976; 5760.400; 5633.000;  132.200
1077.521; 5180.100; 5046.000;  138.900
1078.067; 5155.900; 5050.000;  128.600
1078.612; 5975.400; 5886.000;  138.900
1079.156; 5353.500; 5189.000;  128.900
1079.701; 6252.600; 6155.000;  129.700
1080.246; 6265.800; 6178.000;  128.600
1080.791; 5659.800; 5562.000;  122.600
1081.336; 5897.600; 5852.000;  122.000
1081.880; 5860.500; 5717.000;  123.900
1082.425; 5088.100; 4948.000;  120.600
1082.970; 6464.700; 6384.000;  124.500
1083.514; 5349.300; 5162.000;  112.000
1084.059; 5235.800; 5063.000;  120.700
1084.603; 5056.900; 4893.000;  116.000
1085.147; 5810.600; 5713.000;  116.300
1085.692; 6527.700; 6383.000;  108.200
1086.236; 4475.500; 4346.000;  114.600
1086.780; 6879.000; 6644.000;  118.900
1087.325; 5907.100; 5849.000;  120.400
1087.869; 5517.000; 5459.000;  110.500
1088.413; 6336.500; 6238.000;  114.000
1088.957; 4783.200; 4614.000;  114.300
1089.501; 6991.400; 6857.000;  114.600
1090.045; 6606.200; 6559.000;  114.200
1090.589; 5060.700; 4966.000;  105.500
1091.133; 6060.900; 5902.000;  111.800
1091.676; 5235.200; 5140.000;  110.900
1092.220; 5428.900; 5377.000;  110.100
1092.764; 6391.800; 6290.000;  108.100
1093.307; 6078.900; 5998.000;  109.900
1093.851; 4968.800; 4870.000;  107.500
1094.395; 6204.400; 6119.000;   96.200
1094.938; 5704.000; 5617.000;   99.300
1095.482; 5022.700; 4918.000;   97.700
1096.025; 6454.400; 6310.000;   84.900
1096.568; 7050.900; 6932.000;   88.500
1097.112; 4459.400; 4354.000;   95.700
1097.655; 5352.600; 5181.000;   97.300
1098.198; 5379.700; 5278.000;   92.600
1098.741; 5562.900; 5520.000;   91.800
1099.285; 5890.500; 5763.000;   88.000
1099.828; 3882.400; 3796.000;   91.700
1100.371; 5511.000; 5383.000;   89.900
1100.914; 6226.800; 6094.000;   91.500
1101.457; 6139.100; 6083.000;   88.100
1101.999; 5207.400; 5084.000;   86.400
1102.542; 5744.800; 5645.000;   90.800
1103.085; 5986.000; 5802.000;   95.400
1103.628; 6989.100; 6918.000;   97.700
1104.170; 5234.100; 5102.000;   84.000
1104.713; 5831.800; 5745.000;   93.900
1105.256; 5007.200; 4875.000;   93.000
1105.798; 4481.400; 4434.000;   85.600
1106.341; 6667.500; 6532.000;   87.100
1106.883; 4670.200; 4570.000;   85.200
1107.425; 6086.200; 6045.000;   85.000
1107.968; 5611.300; 5472.000;   84.300
1108.510; 6229.000; 6108.000;   88.200
1109.052; 5618.200; 5533.000;   86.600
1109.594; 5050.900; 4946.000;   79.400
1110.136; 5881.900; 5831.000;   81.700
1110.679; 5696.000; 5623.000;   75.500
1111.221; 5519.800; 5411.000;   88.500
1111.763; 4990.800; 4911.000;   87.700
1112.304; 4933.000; 4854.000;   89.700
1112.846; 6080.000; 5956.000;   81.900
1113.388; 8804.600; 8762.000;   86.400
1113.930; 6366.900; 6282.000;   84.700
1114.472; 5521.900; 5366.000;   78.900
1115.013; 4976.400; 4872.000;   78.100
1115.555; 5389.600; 5271.000;   84.900
1116.097; 5228.000; 5162.000;   79.200
1116.638; 6291.300; 6142.000;   83.700
1117.180; 6055.400; 5892.000;   85.500
1117.721; 5182.800; 5089.000;   78.800
1118.262; 6197.200; 6168.000;   77.400
1118.804; 5810.900; 5668.000;   81.400
1119.345; 5283.900; 5154.000;   77.800
1119.886; 6465.500; 6365.000;   81.200
1120.427; 5367.300; 5263.000;   77.200
1120.969; 5449.700; 5361.000;   75.200
1121.510; 5116.100; 5095.000;   80.900
1122.051; 6608.200; 6478.000;   77.300
1122.592; 6028.500; 5955.000;   73.300
1123.133; 4923.400; 4880.000;   90.100
1123.673; 6498.600; 6445.000;   75.000
1124.214; 5594.900; 5548.000;   80.600
1124.755; 5891.700; 5830.000;   78.000
1125.296; 5689.700; 5628.000;   77.500
1125.836; 6330.600; 6237.000;   80.400
1126.377; 5468.200; 5435.000;   75.600
1126.918; 5627.300; 5571.000;   78.900
1127.458; 5711.600; 5616.000;   78.000
1127.999; 6027.400; 5905.000;   76.100
1128.539; 6381.600; 6283.000;   81.400
1129.079; 5830.700; 5794.000;   77.400
1129.620; 5080.900; 5066.000;   68.000
1130.160; 4934.600; 4819.000;   77.500
1130.700; 5868.600; 5809.000;   76.300
1131.240; 5921.600; 5810.000;   66.800
1131.781; 5712.800; 5572.000;   70.600
1132.321; 5524.100; 5434.000;   77.200
1132.861; 5092.900; 4954.000;   70.400
1133.401; 5452.300; 5415.000;   68.700
1133.941; 5740.600; 5752.000;   68.500
1134.481; 5552.300; 5399.000;   75.900
1135.020; 5583.600; 5478.000;   66.600
1135.560; 6137.100; 6106.000;   68.100
1136.100; 4530.700; 4466.000;   64.900
1136.640; 4662.800; 4595.000;   72.500
1137.179; 4844.200; 4772.000;   69.700
1137.719; 5565.400; 5456.000;   68.400
1138.258; 5389.800; 5364.000;   67.000
1138.798; 6099.500; 5978.000;   69.600
1139.337; 4365.700; 4292.000;   64.000
1139.877; 5845.300; 5855.000;   64.500
1140.416; 8114.400; 8129.000;   74.900
1140.955; 4841.200; 4763.000;   67.200
1141.494; 6236.200; 6114.000;   69.900
1142.034; 5356.100; 5349.000;   59.100
1142.573; 5950.000; 5846.000;   65.900
1143.112; 5054.600; 4973.000;   70.600
1143.651; 4885.100; 4810.000;   67.100
1144.190; 6430.600; 6414.000;   56.700
1144.729; 5582.000; 5553.000;   61.800
1145.267; 5333.000; 5202.000;   62.500
1145.806; 5867.600; 5715.000;   68.500
1146.345; 5893.900; 5888.000;   58.300
1146.884; 5780.600; 5660.000;   63.100
1147.422; 4870.000; 4811.000;   54.800
1147.961; 6608.300; 6432.000;   67.600
1148.500; 6178.700; 6104.000;   64.700
1149.038; 5912.400; 5811.000;   61.000
1149.577; 6500.000; 6411.000;   65.100
1150.115; 4092.500; 3998.000;   58.100
1150.653; 5620.200; 5591.000;   60.500
1151.192; 5125.200; 5061.000;   56.600
1151.730; 6082.400; 5962.000;   62.300
1152.268; 5380.400; 5302.000;   55.500
1152.806; 5284.600; 5130.000;   58.200
1153.344; 5302.400; 5204.000;   55.000
1153.882; 5477.600; 5389.000;   64.200
1154.421; 4229.300; 4188.000;   60.300
1154.958; 5513.700; 5482.000;   58.100
1155.496; 5945.300; 5874.000;   55.800
1156.034; 6683.900; 6597.000;   61.000
1156.572; 6208.300; 6053.000;   56.200
1157.110; 4300.800; 4289.000;   53.200
1157.647; 6270.900; 6224.000;   57.400
1158.185; 5252.800; 5144.000;   55.500
1158.723; 4693.500; 4643.000;   58.000
1159.260; 6490.500; 6461.000;   53.700
1159.798; 6120.500; 6045.000;   51.700
1160.335; 5849.200; 5797.000;   59.600

