
Integration time [ms]:   3.276
Averaging Nr. [scans]: 1000
Smoothing Nr. [pixels]: 0
Data measured with spectrometer [name]: 7414430SP
Wave   ;Sample   ;Dark     ;Reference
[nm]   ;[counts] ;[counts] ;[counts] 

288.544;  151.717;    7.793;  793.890
289.143;  154.206;    7.462;  681.602
289.742;  153.837;    8.602;  828.814
290.341;  140.237;    1.321;  789.841
290.940;  129.678;   -0.709;  730.702
291.538;  129.751;    0.881;  881.108
292.137;  129.774;    0.122;  792.581
292.736;  134.703;   -1.929;  975.101
293.335;  132.946;   -8.229;  735.086
293.934;  130.503;   -5.279;  781.677
294.532;  128.529;   -1.369; 1031.958
295.131;  115.765;   -7.641;  834.394
295.730;  117.241;   -8.420;  809.588
296.328;  115.701;   -5.611;  783.442
296.927;  115.594;   -5.781;  779.652
297.525;  116.696;   -6.361;  781.236
298.124;  106.634;  -11.382;  654.009
298.722;  110.276;   -7.641;  761.933
299.321;  108.377;   -6.811;  708.597
299.919;  106.261;   -6.991;  751.918
300.518;  104.465;  -10.362;  689.338
301.116;  105.315;   -9.581;  691.381
301.715;  104.631;   -4.891;  730.222
302.313;  103.978;   -8.801;  704.943
302.911;   99.421;   -8.522;  733.830
303.509;  104.519;   -6.171;  925.627
304.108;  102.502;   -7.311;  760.383
304.706;  102.428;   -8.321;  801.664
305.304;   97.050;  -10.222;  796.707
305.902;  101.399;   -6.021;  784.484
306.500;   97.273;   -4.971;  728.200
307.098;   96.229;   -7.061;  746.560
307.696;   94.720;   -8.801;  780.432
308.294;   94.425;   -6.411;  731.359
308.892;   96.250;   -2.901;  759.769
309.490;   93.015;   -5.041;  712.161
310.088;   91.580;   -5.002;  788.444
310.686;   94.799;   -2.041;  821.749
311.284;   90.214;   -2.351;  766.040
311.882;   89.366;   -4.422;  731.225
312.480;   86.505;   -4.192;  697.167
313.078;   86.714;   -1.172;  808.331
313.675;   86.614;   -2.601;  691.600
314.273;   82.523;   -1.312;  797.837
314.871;   82.705;   -3.942;  589.829
315.468;   79.686;   -2.802;  652.090
316.066;   82.876;   -0.701;  694.427
316.664;   75.695;   -4.362;  656.351
317.261;   80.487;   -2.872;  910.128
317.859;   75.283;   -2.022;  768.735
318.456;   75.732;   -0.531;  830.096
319.054;   71.791;   -3.912;  787.828
319.651;   71.517;   -4.752;  759.928
320.249;   69.292;   -2.602;  810.188
320.846;   67.974;   -0.821;  714.286
321.443;   65.506;   -4.642;  832.135
322.041;   62.575;   -5.002;  812.315
322.638;   59.363;   -3.982;  701.456
323.235;   60.653;   -3.411;  665.683
323.833;   58.537;   -7.361;  740.354
324.430;   54.538;   -8.611;  615.900
325.027;   54.524;   -4.061;  876.855
325.624;   54.240;   -4.031;  644.532
326.221;   52.283;   -7.481;  689.717
326.818;   51.888;   -5.281;  818.332
327.415;   54.780;   -7.460;  748.828
328.012;   53.495;   -5.510;  690.585
328.609;   53.742;   -7.880;  731.389
329.206;   51.545;   -8.331;  778.621
329.803;   51.146;   -5.121;  737.841
330.400;   53.956;   -4.510;  704.260
330.997;   56.042;   -6.441;  817.147
331.594;   54.383;   -8.831;  788.185
332.191;   58.959;   -7.621;  728.722
332.787;   61.141;   -4.591;  844.463
333.384;   60.928;   -7.412;  763.093
333.981;   59.292;   -8.293;  815.687
334.578;   61.545;   -7.052;  708.378
335.174;   64.111;   -3.102;  731.469
335.771;   63.810;   -5.943;  836.456
336.367;   61.413;   -7.393;  710.631
336.964;   63.843;   -4.063;  793.266
337.561;   61.560;   -3.813;  731.112
338.157;   58.365;   -4.654;  911.916
338.754;   55.632;   -7.934;  796.589
339.350;   53.937;   -4.414;  722.493
339.946;   55.619;   -4.664;  773.135
340.543;   48.398;   -6.375;  846.136
341.139;   43.054;   -9.815;  720.836
341.735;   40.433;   -4.526;  772.593
342.332;   37.933;   -4.895;  691.472
342.928;   39.521;   -4.295;  795.394
343.524;   34.346;   -5.476;  761.684
344.120;   30.153;   -5.856;  738.562
344.716;   32.617;   -2.155;  723.717
345.313;   30.949;   -6.275;  795.342
345.909;   26.292;   -8.815;  627.336
346.505;   27.826;   -5.305;  740.247
347.101;   28.233;   -2.674;  827.864
347.697;   29.440;   -4.344;  785.398
348.293;   24.231;   -9.975;  627.244
348.889;   24.227;   -5.774;  745.914
349.485;   23.111;   -5.004;  688.205
350.081;   23.543;   -4.704;  772.592
350.676;   19.800;   -6.635;  691.606
351.272;   23.364;   -4.504;  809.530
351.868;   22.470;   -3.914;  780.497
352.464;   20.725;   -9.044;  723.932
353.059;   17.299;   -8.314;  646.017
353.655;   20.836;   -7.024;  777.063
354.251;   21.302;   -5.343;  759.845
354.846;   15.721;   -8.604;  740.646
355.442;   14.404;   -6.945;  753.071
356.038;   14.799;   -7.564;  751.708
356.633;   16.117;   -5.814;  728.594
357.229;   13.964;   -7.364;  724.757
357.824;   12.504;   -8.024;  703.600
358.420;   10.590;   -9.384;  679.726
359.015;   11.581;   -5.104;  695.357
359.610;   13.596;   -6.854;  763.920
360.206;    6.544;  -10.185;  603.240
360.801;    9.279;   -7.054;  646.503
361.396;   11.625;   -5.034;  725.975
361.992;    7.281;   -8.284;  668.220
362.587;    5.334;   -8.625;  670.160
363.182;    7.120;   -7.674;  689.631
363.777;    7.110;   -5.164;  738.242
364.372;    7.324;   -8.604;  737.314
364.967;    3.693;   -9.055;  680.744
365.563;    7.819;   -6.114;  815.567
366.158;    4.970;   -5.814;  685.161
366.753;    5.486;   -7.854;  649.263
367.348;    3.604;   -7.804;  746.056
367.942;    3.802;   -7.954;  697.298
368.537;    2.288;   -4.984;  754.245
369.132;    3.351;   -8.564;  703.428
369.727;   -0.664;   -8.855;  638.079
370.322;    0.333;   -6.245;  580.186
370.917;   -0.655;   -6.425;  710.646
371.511;    3.130;   -6.294;  861.834
372.106;   -0.182;   -7.685;  776.964
372.701;   -4.039;   -7.335;  585.988
373.296;    0.803;   -4.564;  863.135
373.890;   -3.194;  -10.235;  647.840
374.485;   -4.969;   -7.885;  691.199
375.079;   -1.336;   -7.324;  738.685
375.674;   -0.016;   -3.494;  812.970
376.268;   -3.459;   -8.525;  691.759
376.863;   -9.011;  -10.086;  580.327
377.457;   -4.297;   -7.025;  662.490
378.052;   -5.771;   -3.585;  764.884
378.646;   -6.347;   -7.595;  741.167
379.240;   -6.242;   -8.335;  721.176
379.835;   -5.701;   -5.785;  636.978
380.429;   -8.413;   -4.335;  562.557
381.023;   -6.900;   -6.805;  779.205
381.617;   -9.299;   -9.195;  680.106
382.212;   -6.776;   -6.905;  685.303
382.806;   -6.123;   -3.745;  760.690
383.400;   -9.798;   -7.745;  672.281
383.994;  -10.202;   -9.765;  664.870
384.588;   -6.802;   -6.564;  697.701
385.182;   -6.390;   -5.344;  726.624
385.776;   -6.724;   -8.514;  706.875
386.370;   -9.282;   -9.555;  681.968
386.964;   -9.724;   -8.715;  684.155
387.558;   -7.862;   -6.174;  598.360
388.152;  -10.558;   -8.725;  681.959
388.745;   -9.639;   -7.965;  814.707
389.339;   -7.588;   -5.924;  747.642
389.933;   -6.898;   -5.524;  695.370
390.527;   -7.604;   -7.114;  859.029
391.120;  -13.794;  -10.725;  595.318
391.714;  -10.794;   -8.035;  711.633
392.308;   -7.529;   -3.574;  780.253
392.901;  -11.316;   -7.245;  642.460
393.495;  -12.601;   -9.285;  595.414
394.089;  -11.162;   -5.895;  760.452
394.682;  -12.235;   -4.295;  697.188
395.275;  -12.152;   -9.875;  719.927
395.869;  -12.999;   -8.485;  667.314
396.462;  -11.954;   -7.455;  616.609
397.056;   -8.587;   -5.424;  776.621
397.649;  -12.266;   -6.605;  731.575
398.242;   -9.503;   -8.224;  712.645
398.836;   -9.334;   -7.474;  766.408
399.429;  -10.538;   -7.094;  631.041
400.022;  -12.998;   -9.475;  665.902
400.615;  -11.285;   -7.145;  805.609
401.208;  -10.138;   -7.174;  691.451
401.802;  -12.188;   -5.515;  699.329
402.395;  -12.007;   -9.875;  683.502
402.988;  -13.287;   -8.845;  696.627
403.581;  -10.517;   -8.874;  646.878
404.174;   -8.389;   -5.324;  686.568
404.767;  -10.156;   -9.575;  638.583
405.360;  -12.858;  -10.965;  621.445
405.953;   -7.944;   -8.764;  759.034
406.545;   -7.710;   -7.514;  725.342
407.138;  -11.586;  -10.025;  618.350
407.731;   -9.831;  -10.034;  613.303
408.324;   -7.058;   -9.374;  660.554
408.917;   -7.694;   -6.534;  681.864
409.509;   -8.795;   -8.004;  740.396
410.102;  -10.700;   -9.875;  643.948
410.695;   -4.748;   -8.604;  665.758
411.287;   -6.609;   -6.794;  599.821
411.880;   -7.678;   -9.334;  585.421
412.472;   -9.715;  -10.254;  613.092
413.065;   -8.254;   -6.714;  629.408
413.657;   -5.610;   -7.234;  576.678
414.250;   -5.165;  -10.544;  646.681
414.842;   -5.921;   -9.744;  676.353
415.434;   -5.371;   -6.994;  570.463
416.027;   -0.795;   -5.893;  652.196
416.619;   -2.006;   -7.264;  713.400
417.211;   -3.546;  -10.374;  599.352
417.804;    0.524;   -7.993;  628.499
418.396;   -3.548;   -7.234;  607.643
418.988;   -0.940;   -9.443;  659.238
419.580;   -3.742;  -10.724;  568.276
420.172;   -2.933;  -10.323;  536.196
420.764;    1.205;   -8.793;  672.482
421.356;    0.383;  -11.143;  636.898
421.948;    0.698;   -8.293;  677.661
422.540;    4.659;   -7.893;  680.027
423.132;    3.898;   -7.082;  600.641
423.724;    0.770;   -8.653;  561.267
424.316;    3.184;  -10.213;  621.345
424.908;    6.592;   -9.762;  591.517
425.500;    6.451;   -5.572;  647.978
426.092;    7.932;   -8.422;  648.268
426.683;    6.756;   -9.283;  684.836
427.275;    9.201;   -7.852;  641.471
427.867;   11.443;   -5.272;  668.948
428.458;   11.388;   -7.682;  732.344
429.050;    9.780;  -10.612;  680.749
429.642;   12.308;   -9.882;  743.124
430.233;   12.414;   -6.962;  569.356
430.825;   13.924;   -6.842;  724.809
431.416;   12.014;   -9.672;  698.241
432.008;   14.689;   -6.552;  651.723
432.599;   15.532;   -6.891;  656.073
433.190;   13.532;  -10.912;  637.670
433.782;   12.387;  -11.172;  590.395
434.373;   19.974;   -6.061;  884.765
434.964;   17.924;   -8.251;  602.920
435.556;   16.050;   -9.722;  634.537
436.147;   19.184;   -9.082;  758.490
436.738;   18.960;   -8.041;  701.099
437.329;   23.983;   -7.341;  721.723
437.920;   16.962;   -8.162;  666.688
438.511;   17.608;  -11.802;  564.526
439.103;   24.157;  -10.191;  623.998
439.694;   25.441;   -7.601;  681.583
440.285;   26.103;   -8.541;  764.432
440.876;   24.818;   -9.751;  845.738
441.466;   24.367;   -9.401;  575.162
442.057;   28.582;   -7.760;  665.814
442.648;   28.970;   -9.971;  746.255
443.239;   27.445;  -11.001;  620.477
443.830;   30.587;   -7.990;  704.958
444.421;   33.271;   -7.910;  655.474
445.011;   29.497;   -8.131;  693.619
445.602;   29.778;   -7.111;  743.126
446.193;   30.738;  -10.920;  488.117
446.783;   36.345;   -6.500;  640.397
447.374;   31.589;   -8.671;  692.759
447.964;   32.563;  -10.781;  713.770
448.555;   40.691;   -9.650;  822.742
449.145;   36.764;   -8.660;  662.853
449.736;   38.126;   -8.990;  803.179
450.326;   38.330;   -9.500;  713.626
450.917;   42.676;   -8.680;  675.324
451.507;   41.547;   -7.520;  600.661
452.097;   42.750;   -8.590;  746.267
452.688;   44.010;  -11.340;  742.160
453.278;   43.641;  -10.100;  566.840
453.868;   47.276;   -6.019;  793.550
454.458;   46.175;   -9.440;  651.141
455.048;   46.626;  -10.560;  711.783
455.639;   47.888;  -11.799;  567.096
456.229;   51.632;   -6.899;  710.694
456.819;   53.032;   -7.389;  751.158
457.409;   54.192;  -11.119;  773.993
457.999;   56.389;   -9.289;  737.505
458.589;   55.885;   -6.139;  686.606
459.179;   56.732;   -8.729;  717.658
459.769;   55.473;   -9.789;  627.099
460.358;   59.170;  -10.259;  797.262
460.948;   59.736;   -7.299;  689.503
461.538;   61.553;  -10.289;  660.677
462.128;   59.452;  -11.269;  664.934
462.717;   65.532;   -9.368;  710.326
463.307;   68.283;   -7.908;  705.846
463.897;   64.111;   -9.599;  656.942
464.486;   64.010;   -9.769;  837.128
465.076;   68.144;   -8.048;  733.776
465.666;   71.864;   -9.358;  652.900
466.255;   69.466;   -7.919;  785.651
466.845;   69.263;  -11.689;  666.749
467.434;   71.897;   -7.818;  725.873
468.023;   72.644;   -7.678;  658.357
468.613;   70.820;  -10.939;  713.946
469.202;   75.622;  -10.118;  646.507
469.791;   79.311;   -9.108;  737.811
470.381;   80.734;   -6.058;  742.813
470.970;   81.561;  -10.428;  711.099
471.559;   81.494;  -10.268;  733.291
472.148;   83.995;   -8.448;  675.737
472.738;   85.840;   -6.917;  765.466
473.327;   86.033;  -11.978;  637.529
473.916;   86.205;  -11.888;  737.446
474.505;   90.029;   -9.437;  751.703
475.094;   93.661;   -6.747;  806.570
475.683;   92.630;   -9.367;  797.699
476.272;   93.886;  -12.637;  730.632
476.861;   96.826;  -10.027;  706.754
477.449;  102.678;   -8.716;  728.487
478.038;   97.369;   -9.577;  692.513
478.627;   99.101;   -9.718;  714.852
479.216;  105.713;   -8.947;  769.441
479.805;  108.156;   -6.256;  783.375
480.393;  108.938;   -7.937; 1008.945
480.982;  108.328;   -7.717;  874.501
481.571;  113.736;   -9.266;  858.333
482.159;  114.496;   -7.636;  705.386
482.748;  115.138;   -9.667;  821.385
483.336;  120.072;  -10.376;  858.209
483.925;  119.760;   -7.147;  774.373
484.513;  126.468;   -7.996;  758.962
485.102;  123.958;  -10.027;  810.965
485.690;  132.930;  -10.446; 1011.050
486.278;  134.739;   -8.446;  979.329
486.867;  134.952;   -6.356;  809.662
487.455;  137.015;   -9.136;  898.229
488.043;  139.500;  -10.646;  748.361
488.631;  147.808;   -7.456; 1005.079
489.220;  152.039;   -6.636;  908.626
489.808;  152.287;  -11.036;  741.415
490.396;  161.526;  -10.246;  914.645
490.984;  167.796;   -8.556;  830.161
491.572;  177.400;   -5.886;  940.315
492.160;  184.248;   -9.486;  919.081
492.748;  197.294;  -10.976;  884.341
493.336;  221.741;   -8.776; 1019.693
493.924;  248.450;   -5.465;  958.077
494.512;  279.565;   -9.986; 1066.638
495.100;  317.886;  -10.636; 1103.280
495.687;  376.695;  -10.885; 1206.373
496.275;  445.728;   -8.126; 1150.796
496.863;  521.034;  -10.586; 1281.171
497.451;  628.865;  -11.926; 1386.805
498.038;  768.805;  -10.885; 1556.729
498.626;  886.879;   -6.315; 1741.407
499.214; 1052.399;   -7.326; 2016.609
499.801; 1261.357;  -11.906; 2220.633
500.389; 1527.101;  -10.466; 2312.494
500.976; 1843.478;   -5.236; 2744.849
501.564; 2318.740;   -8.936; 3148.565
502.151; 2694.810;  -13.176; 3515.999
502.738; 3133.586;  -10.646; 3971.274
503.326; 3581.032;   -9.525; 4403.796
503.913; 4020.313;  -10.856; 5161.749
504.500; 4436.119;  -11.586; 5986.420
505.088; 4835.586;  -10.336; 6381.201
505.675; 5421.793;   -6.355; 6925.547
506.262; 6158.162;   -9.046; 7619.060
506.849; 6940.592;  -10.416; 8733.969
507.436; 7517.883;  -10.305; 9790.121
508.023; 8151.441;   -5.496; 9985.472
508.610; 8415.767;   -7.856;10434.618
509.197; 9070.522;  -10.097;11198.435
509.784;10543.256;  -10.886;12391.194
510.371;11832.462;   -9.315;13603.713
510.958;12677.419;   -9.936;14426.586
511.545;13487.085;   -9.326;15243.775
512.132;14374.395;  -10.075;15945.876
512.719;14836.942;   -7.796;16340.369
513.305;15926.090;  -10.606;18011.766
513.892;16658.891;  -11.486;19754.971
514.479;17934.273;   -9.126;20967.805
515.066;19670.695;   -6.026;22299.793
515.652;21533.242;   -8.466;22908.660
516.239;22866.719;  -10.886;23798.875
516.825;23714.551;  -11.496;25567.275
517.412;24546.570;   -5.796;28154.959
517.998;25300.793;  -10.506;28344.111
518.585;25459.781;  -10.076;27134.219
519.171;26164.014;   -8.315;27268.576
519.758;27935.555;   -8.596;28964.129
520.344;30210.006;   -8.466;30664.494
520.930;30004.797;  -11.006;32550.605
521.516;30765.557;  -10.495;35422.895
522.103;32657.344;   -5.526;38280.004
522.689;33052.152;   -8.746;37835.117
523.275;32940.676;  -11.376;37288.613
523.861;35065.141;  -11.156;37281.395
524.447;37009.129;   -8.135;37846.949
525.033;36812.191;   -7.896;38321.949
525.619;37023.117;  -12.476;38579.285
526.205;38508.410;   -9.516;40622.875
526.791;41534.023;   -6.926;42258.836
527.377;41689.125;   -8.346;42966.902
527.963;42608.746;   -8.717;42018.949
528.549;41822.359;  -11.016;42476.828
529.135;40268.934;   -8.536;41854.852
529.721;38868.848;   -9.666;41237.711
530.306;38017.340;  -10.066;41259.445
530.892;37848.207;  -11.356;41506.047
531.478;39300.652;   -6.596;43559.613
532.063;42979.148;   -8.836;47695.563
532.649;44476.848;  -10.047;50808.324
533.235;44669.074;   -9.746;51787.500
533.820;44017.496;   -6.566;52145.035
534.406;45584.598;  -10.817;51133.488
534.991;45811.891;   -9.416;49996.805
535.576;43944.523;   -9.036;48882.852
536.162;44839.570;   -6.156;46942.285
536.747;46112.105;  -11.607;45711.746
537.333;48690.785;  -11.787;48510.180
537.918;52226.762;  -12.437;50439.891
538.503;52041.176;   -7.196;50863.711
539.088;48242.668;  -10.556;50906.922
539.673;47717.883;   -8.767;52621.965
540.259;48487.379;  -10.026;52368.094
540.844;45815.391;   -7.416;50879.109
541.429;47753.684;   -9.467;52077.777
542.014;49827.188;   -9.527;52716.695
542.599;48712.922;   -9.946;52363.281
543.184;45714.684;   -7.927;53187.137
543.769;46720.465;   -9.297;54697.605
544.354;46891.418;  -10.127;53913.914
544.938;45473.766;   -9.267;49680.164
545.523;47231.574;   -6.506;47386.277
546.108;50282.023;   -9.787;49151.949
546.693;52080.469;  -11.587;51384.637
547.278;52448.309;  -10.986;51853.254
547.862;49690.949;   -8.206;51173.750
548.447;45184.238;  -10.067;51691.395
549.031;44151.203;   -9.637;52456.703
549.616;48566.707;   -9.926;52714.516
550.201;48623.355;   -6.347;52414.598
550.785;49943.293;   -7.917;52355.059
551.370;48959.082;  -10.867;54589.453
551.954;48150.145;   -9.047;58267.348
552.538;49155.945;   -7.827;59062.176
553.123;47708.145;  -10.287;58115.285
553.707;45114.813;  -12.178;56556.285
554.291;46672.984;   -8.717;56201.668
554.876;50361.234;   -7.457;55335.762
555.460;50506.180;  -10.387;54155.703
556.044;50254.586;   -9.618;53721.484
556.628;47922.648;  -11.567;53731.016
557.212;46753.805;   -8.097;54312.531
557.796;45740.781;  -11.077;53797.773
558.380;46123.938;  -11.108;56145.984
558.964;46058.156;   -9.057;57277.930
559.548;47335.699;   -6.977;56459.641
560.132;45415.578;  -11.457;54434.543
560.716;43279.773;  -11.378;54800.617
561.300;44165.707;   -9.577;57606.945
561.884;45396.430;   -7.127;58972.445
562.467;43106.379;   -7.118;57327.570
563.051;42464.961;  -13.358;54962.434
563.635;44597.152;  -10.178;52594.473
564.219;44974.559;   -7.837;50610.410
564.802;45400.238;  -11.398;49551.180
565.386;44948.434;  -12.788;48370.953
565.969;44238.031;   -9.077;48178.871
566.553;42750.449;   -6.207;49957.305
567.136;43750.801;   -8.568;50369.594
567.720;40881.797;  -11.868;49492.004
568.303;38715.973;   -8.268;50616.352
568.887;38818.352;   -8.698;50727.148
569.470;39485.102;   -6.808;51698.379
570.053;38601.895;  -13.188;52122.078
570.637;36145.141;  -12.037;52536.438
571.220;36048.594;   -8.577;51186.098
571.803;37523.992;   -8.498;51032.762
572.386;39402.320;  -10.498;49609.887
572.969;41524.930;   -9.388;48285.926
573.552;40025.934;   -8.338;47624.285
574.135;38464.711;   -8.518;45498.641
574.718;36074.363;  -13.628;41970.434
575.301;35429.629;  -10.893;41447.137
575.884;34784.895;   -8.158;40923.836
576.467;35981.438;  -10.328;45267.723
577.050;37107.164;  -13.058;48175.543
577.633;38172.051;   -9.458;47729.328
578.216;37632.316;   -8.928;47579.793
578.799;36868.980;   -9.358;47820.996
579.381;35998.945;  -11.388;48115.551
579.964;33646.645;  -11.718;47333.766
580.547;36076.676;   -8.588;46668.969
581.129;36977.949;   -8.859;44466.141
581.712;37638.172;  -10.729;44164.922
582.294;37925.887;  -11.118;46477.855
582.877;37924.828;   -5.218;48244.254
583.459;36163.797;   -8.679;47437.895
584.042;34045.781;  -10.709;46943.219
584.624;33858.488;  -11.669;46792.227
585.206;33549.145;   -8.218;46557.250
585.789;33660.395;  -10.569;45793.773
586.371;36027.148;  -11.859;43836.391
586.953;36832.816;  -10.719;42972.492
587.536;37590.438;   -7.198;42487.211
588.118;38369.832;   -8.720;42086.414
588.700;34295.309;  -10.439;43389.930
589.282;33274.438;   -9.198;43646.039
589.864;34269.234;   -9.199;43438.109
590.446;35586.594;  -11.319;43151.926
591.028;35856.938;  -11.159;42781.867
591.610;34465.035;  -11.779;42839.098
592.192;31381.229;   -7.668;42820.402
592.774;29996.475;  -11.949;40724.277
593.356;28952.684;  -12.129;39874.789
593.937;27754.139;  -10.669;39980.648
594.519;29862.574;   -6.509;42069.633
595.101;32002.209;  -10.849;42976.031
595.683;32101.297;  -11.679;44084.441
596.264;32896.082;   -9.049;43478.797
596.846;33031.594;   -8.849;43803.672
597.427;33127.211;   -9.570;42986.934
598.009;34454.621;  -12.620;42832.219
598.591;34726.801;  -10.039;42580.086
599.172;34427.551;  -10.369;43061.805
599.753;34640.668;   -9.140;41691.469
600.335;35856.652;  -11.430;40692.520
600.916;33963.754;   -9.939;39982.422
601.498;31691.662;   -8.479;40318.617
602.079;30176.656;  -10.920;40670.609
602.660;29654.855;  -11.480;41450.898
603.241;31579.883;  -11.699;41137.738
603.823;30487.543;   -9.579;38868.797
604.404;29104.131;  -10.620;38182.785
604.985;30839.689;  -10.450;38078.047
605.566;31417.125;   -9.129;38056.633
606.147;31410.922;   -7.510;37020.418
606.728;32693.727;  -10.660;37883.359
607.309;31177.729;  -11.740;38748.273
607.890;31101.559;   -9.759;38850.230
608.471;30731.373;   -8.250;37457.918
609.051;29935.037;   -9.240;36066.457
609.632;28593.516;  -12.120;35991.074
610.213;28663.307;   -9.110;37402.641
610.794;29520.307;   -8.030;38383.363
611.374;29447.016;   -8.110;40562.387
611.955;30454.043;  -13.560;38533.727
612.536;31821.354;  -11.400;36951.789
613.116;31265.121;   -8.070;37197.891
613.697;31781.385;  -10.830;38411.125
614.277;29778.525;  -11.641;38673.938
614.858;30314.248;  -13.310;37075.863
615.438;30118.453;   -7.460;35092.906
616.019;28286.840;   -7.601;33666.301
616.599;28465.557;  -12.020;34189.023
617.179;30060.369;  -11.780;36952.047
617.760;31330.951;   -8.570;39582.574
618.340;31996.174;  -11.471;38943.977
618.920;32882.969;  -11.170;37594.156
619.500;32874.766;  -11.071;37866.938
620.080;31674.275;   -7.750;37869.043
620.660;32593.658;  -12.711;36868.617
621.241;34243.598;  -10.211;36352.309
621.821;34975.895;  -10.961;35459.520
622.401;33839.367;   -7.720;35207.414
622.980;32696.805;   -8.981;35980.422
623.560;31298.730;   -9.331;37351.328
624.140;29885.023;   -9.850;34388.582
624.720;25186.457;   -7.451;32368.764
625.300;21887.773;   -9.070;32638.629
625.880;25281.547;  -12.601;34599.035
626.459;29278.250;  -11.751;36831.738
627.039;32012.338;   -9.281;38299.098
627.619;31959.854;   -8.801;38289.574
628.198;30756.189;  -12.071;37220.695
628.778;29789.764;   -9.461;37632.563
629.357;30123.246;   -8.491;38003.012
629.937;30336.795;   -9.721;38402.039
630.516;29957.635;   -9.951;37868.801
631.096;29887.625;  -11.731;35760.410
631.675;31536.133;   -8.572;35225.219
632.254;36610.215;  -11.282;35130.289
632.834;36413.328;  -13.322;35794.570
633.413;34877.391;  -10.301;35788.922
633.992;32662.131;   -8.582;34532.863
634.571;32893.012;   -8.352;33590.113
635.151;35540.922;  -11.912;34943.863
635.730;34437.395;  -10.511;35352.523
636.309;31177.154;   -7.731;35366.605
636.888;28331.459;   -9.952;36165.637
637.467;28503.367;  -11.672;37515.902
638.046;29782.045;   -8.901;39288.695
638.625;32531.143;   -7.912;38279.699
639.204;32480.930;  -10.022;37741.598
639.782;31373.609;  -12.252;38364.551
640.361;27873.996;  -10.041;36740.621
640.940;25253.779;  -11.161;34950.082
641.519;26149.078;   -9.701;34137.398
642.097;28979.371;  -11.271;35654.258
642.676;31477.654;   -8.651;35637.957
643.255;32845.742;   -8.711;36567.074
643.833;32304.834;   -9.581;37809.434
644.412;32284.148;  -13.711;37337.293
644.990;31209.824;  -11.811;37018.531
645.569;30799.914;   -9.411;36518.469
646.147;30431.375;  -10.291;36186.430
646.726;30917.428;  -12.401;36267.688
647.304;31944.980;  -10.411;36647.625
647.882;32943.586;   -9.651;39286.742
648.461;34400.844;   -9.631;39157.703
649.039;33130.398;  -11.881;35412.883
649.617;32188.947;   -9.661;34744.918
650.195;31136.426;   -9.301;35403.098
650.773;29891.439;  -10.511;35053.797
651.352;27488.449;  -11.521;33756.816
651.930;25101.756;  -12.211;31868.773
652.508;23839.807;   -9.171;33121.551
653.086;27730.869;   -9.371;33564.793
653.663;30946.154;  -13.161;34054.668
654.241;29405.648;  -13.031;35693.309
654.819;30428.752;   -9.371;36422.906
655.397;30275.371;  -10.511;38213.484
655.975;29858.117;  -10.371;39507.625
656.553;29673.453;  -10.051;39498.223
657.130;28245.021;  -10.061;40395.480
657.708;27323.141;   -9.561;39242.020
658.286;27394.381;  -11.511;38920.020
658.863;28816.213;  -10.261;40202.898
659.441;32231.682;   -7.531;39677.938
660.018;32317.420;   -9.501;40413.355
660.596;30915.828;  -13.301;39931.414
661.173;32218.900;  -11.211;39604.531
661.750;32508.996;   -9.951;39700.070
662.328;31109.471;   -9.390;39292.809
662.905;30143.504;  -11.330;38235.648
663.482;26493.594;   -9.050;36212.305
664.060;24623.869;   -8.240;35944.945
664.637;27375.221;  -10.050;35170.785
665.214;28723.414;  -11.760;34197.523
665.791;30454.910;  -10.530;34549.520
666.368;29863.352;   -9.690;35118.578
666.945;30081.676;   -9.320;36019.418
667.522;31534.484;  -11.860;36048.438
668.099;31312.164;  -10.770;36243.914
668.676;29994.518;   -6.260;35958.875
669.253;28745.727;   -7.000;37384.730
669.830;28948.514;  -10.190;36779.629
670.407;28897.277;   -9.550;35231.289
670.984;28511.369;   -9.260;35544.270
671.560;29496.609;   -9.280;35466.867
672.137;29169.396;  -11.810;34280.863
672.714;30082.086;  -11.490;34632.863
673.290;31278.957;   -7.740;35135.422
673.867;31165.373;  -10.660;36114.480
674.443;31024.357;  -12.230;36152.859
675.020;29151.477;  -10.450;35327.238
675.596;29801.211;   -9.260;35795.176
676.173;30462.682;  -10.780;35430.355
676.749;30196.328;  -13.690;33549.516
677.326;29971.834;  -11.980;32210.012
677.902;29726.793;   -8.630;32068.871
678.478;29208.350;  -10.730;32583.891
679.054;28146.346;  -10.520;32088.928
679.631;28385.795;  -11.920;30978.848
680.207;29935.709;   -7.490;33160.887
680.783;31462.756;   -9.860;35570.363
681.359;30618.035;  -13.380;36125.184
681.935;30407.688;  -12.480;35240.922
682.511;30486.400;   -7.900;34429.961
683.087;30917.670;   -7.710;34463.680
683.663;29921.746;  -11.480;34648.898
684.239;28432.148;  -14.090;34546.457
684.815;27823.633;   -7.560;35586.375
685.390;27851.432;   -9.910;35821.895
685.966;28389.275;  -11.159;35085.871
686.542;30719.545;  -11.169;34198.230
687.118;33323.484;   -5.959;32847.707
687.693;34142.605;  -10.329;32794.027
688.269;33730.449;  -12.059;33072.367
688.844;31934.768;  -10.909;33141.664
689.420;29923.842;   -8.019;33965.742
689.995;28141.646;   -8.399;34655.523
690.571;26614.121;  -10.949;33576.742
691.146;26573.680;   -9.619;32657.219
691.722;26689.240;   -8.999;32526.979
692.297;25994.588;  -11.589;33014.617
692.872;27066.295;  -11.739;34012.254
693.448;26987.541;  -11.059;34237.434
694.023;26085.947;  -10.139;34142.672
694.598;27843.428;   -9.029;34132.031
695.173;28624.848;  -13.319;34205.250
695.748;27553.010;  -10.169;32882.488
696.323;27609.205;   -8.339;32864.906
696.898;28008.840;   -8.169;33170.004
697.473;28297.125;  -12.309;32432.984
698.048;27745.262;  -10.989;31649.303
698.623;27347.320;   -9.329;30778.141
699.198;28661.816;   -9.849;31140.119
699.773;30110.570;  -12.329;31764.299
700.348;28782.189;  -10.389;31780.816
700.922;28575.615;   -9.269;32046.375
701.497;29801.818;   -9.329;32603.574
702.072;30355.697;  -10.789;34799.871
702.646;28744.711;  -10.839;35793.172
703.221;26201.207;   -9.099;35201.590
703.795;28021.996;  -10.939;34764.527
704.370;28718.576;  -12.859;34307.367
704.944;28934.705;  -11.559;33509.887
705.519;29393.387;   -7.939;31388.584
706.093;30562.773;  -10.499;31340.104
706.668;31273.342;  -11.289;32630.281
707.242;30214.516;  -11.509;32728.779
707.816;28852.875;   -9.639;32947.238
708.390;27315.678;  -11.429;33277.855
708.965;27535.885;  -11.869;33834.336
709.539;27257.146;  -11.689;33709.273
710.113;27464.877;  -10.478;33044.313
710.687;27310.537;  -10.228;31953.992
711.261;25991.287;  -13.698;30505.949
711.835;25620.059;  -13.378;30262.369
712.409;25742.352;   -9.698;31254.447
712.983;27786.420;  -11.898;32754.986
713.557;29193.889;  -15.138;34018.824
714.131;29027.594;  -14.098;34579.625
714.704;28001.756;   -9.958;33890.262
715.278;25514.092;  -10.028;33531.102
715.852;24166.066;  -11.148;33601.660
716.425;25159.721;   -9.068;33515.117
716.999;26336.115;  -10.038;33185.555
717.573;27179.746;   -9.798;33905.996
718.146;28256.494;  -12.378;35199.293
718.720;28415.377;  -11.918;35060.551
719.293;28291.633;   -8.088;34973.230
719.867;31330.271;  -10.888;36394.449
720.440;31347.830;  -11.938;36663.008
721.013;29772.096;  -12.818;35102.426
721.587;28114.953;  -10.298;33985.266
722.160;26835.334;  -10.048;33524.965
722.733;25722.977;  -12.108;32987.043
723.306;25683.000;  -10.818;33066.301
723.880;27948.133;   -8.908;33399.500
724.453;30697.777;   -9.878;33468.297
725.026;30236.873;  -11.188;33816.637
725.599;27166.773;  -11.678;32797.996
726.172;26583.705;   -9.618;33187.434
726.745;27318.273;   -8.258;35136.613
727.318;28435.486;  -12.978;35751.730
727.891;29387.207;  -12.148;35890.430
728.463;29098.814;   -8.968;34822.090
729.036;27751.662;  -10.188;32895.086
729.609;28143.984;  -11.788;31823.225
730.182;25576.797;  -11.788;31445.283
730.754;23370.404;  -10.268;32373.223
731.327;23666.984;   -9.998;33676.820
731.900;23898.607;  -12.228;33417.000
732.472;24438.014;  -13.848;31978.498
733.045;25909.861;   -8.698;30368.777
733.617;26085.436;  -10.607;30574.215
734.190;26507.920;  -11.507;31280.975
734.762;24592.049;  -13.647;31674.412
735.334;22720.217;   -9.767;31247.291
735.907;22956.178;   -9.897;29876.211
736.479;23406.127;  -11.637;29808.488
737.051;23039.350;   -9.567;30233.547
737.623;23445.992;   -8.187;31469.086
738.195;23566.730;  -11.187;31784.225
738.768;25374.254;  -12.337;32120.523
739.340;26446.453;  -12.227;32094.342
739.912;25781.920;  -11.057;31312.680
740.484;24340.764;  -10.207;31946.238
741.056;22594.342;  -10.047;32984.059
741.628;23637.074;  -13.627;33897.715
742.199;25719.004;   -7.177;33213.016
742.771;24457.500;  -10.797;31369.113
743.343;22445.197;  -11.997;31865.473
743.915;21530.869;  -12.867;32388.631
744.487;21542.715;   -7.617;31079.568
745.058;21701.820;   -9.557;30570.107
745.630;22271.623;   -9.877;29970.127
746.201;23652.559;  -14.177;29186.766
746.773;24562.773;   -9.237;28805.723
747.344;24286.105;   -9.847;29591.223
747.916;22269.592;  -11.657;31412.201
748.487;22088.867;  -10.587;32194.898
749.059;23347.893;   -8.707;32533.719
749.630;24005.465;  -10.537;32158.518
750.201;22993.051;  -11.687;30855.395
750.773;21357.633;  -11.647;28622.555
751.344;21081.602;   -7.147;28405.732
751.915;22016.172;   -9.757;28461.551
752.486;22440.951;  -12.427;27842.850
753.057;20595.660;  -12.227;27845.008
753.628;19255.256;  -10.417;27728.107
754.199;20012.129;  -11.767;27381.086
754.770;21018.668;  -11.187;25882.203
755.341;21288.125;  -10.507;25886.184
755.912;21582.896;   -9.387;26050.861
756.483;21133.498;  -10.647;26798.779
757.054;19436.523;  -11.837;27048.238
757.625;18097.402;  -12.716;26294.838
758.195;17798.203;   -9.666;26142.076
758.766;17390.094;   -8.656;26392.234
759.337;17825.508;  -12.856;26334.594
759.907;19138.980;  -13.366;27579.652
760.478;20154.434;   -8.576;28352.770
761.048;19876.811;  -10.526;27325.088
761.619;18976.086;  -11.116;26460.428
762.189;18863.713;  -12.136;26029.826
762.760;19633.213;   -9.456;26430.145
763.330;20911.965;   -7.136;26670.902
763.900;20693.643;  -11.786;26603.021
764.471;18512.070;  -11.546;25542.740
765.041;17276.551;   -8.096;24358.459
765.611;16999.076;   -8.876;23991.297
766.181;17068.635;  -12.196;24470.236
766.751;18123.293;  -11.636;24845.975
767.321;18119.238;  -10.156;24533.633
767.891;16255.866;  -11.766;24916.492
768.461;15608.692;  -14.936;24776.771
769.031;15998.207;  -12.356;24757.988
769.601;17686.236;   -7.526;24181.088
770.171;17806.750;  -10.766;23670.387
770.741;16709.703;  -13.176;22960.045
771.311;16530.580;  -10.616;22917.523
771.880;17220.752;   -9.576;23562.941
772.450;17291.393;  -10.336;24216.500
773.020;17215.689;  -13.516;24140.398
773.589;16300.721;  -13.466;24414.857
774.159;15465.263;   -8.686;23858.717
774.729;15032.367;   -9.476;22942.135
775.298;14757.405;  -13.666;22324.033
775.867;14415.291;  -11.716;21140.313
776.437;14657.560;   -9.906;20838.092
777.006;14461.119;  -12.166;20599.510
777.576;14017.759;  -12.356;20508.809
778.145;13901.691;  -11.646;20732.947
778.714;14051.876;   -8.226;21062.465
779.283;13628.923;   -9.556;20949.664
779.853;13090.330;  -14.116;20508.623
780.422;13492.478;  -11.506;20649.082
780.991;13047.961;   -9.556;21527.520
781.560;11705.732;   -9.095;22632.658
782.129;11451.187;  -12.135;23048.277
782.698;11473.311;  -10.865;23438.555
783.267;11161.848;   -9.335;23267.734
783.836;11080.474;  -11.045;22415.133
784.404;12021.987;  -13.865;20443.152
784.973;12753.017;  -13.095;19699.150
785.542;12833.583;  -11.575;19763.828
786.111;12594.305;   -9.705;20341.408
786.679;12126.115;  -12.105;20207.967
787.248;11855.562;  -12.455;19516.465
787.817;11701.780;  -11.535;18900.363
788.385;11447.581;   -9.765;17879.121
788.954;10958.471;  -14.005;17658.301
789.522;10275.269;  -11.955;17788.879
790.090;10589.906;  -10.135;18118.277
790.659;11186.132;  -10.975;18338.736
791.227;10899.614;  -13.375;18508.615
791.795;11285.596;  -12.375;17898.254
792.364;11636.966;  -10.725;17295.133
792.932;12046.057;   -9.715;16822.051
793.500;12287.907;  -12.675;17040.148
794.068;12398.269;  -13.495;17179.787
794.636;12538.021;  -10.885;16664.246
795.204;11829.787;  -11.045;16524.545
795.772;11796.422;  -13.175;17274.564
796.340;11367.459;  -12.445;17891.002
796.908;11106.554;   -9.735;17648.561
797.476;10935.449;   -9.815;17064.080
798.044;10541.314;  -13.985;16672.777
798.612; 9825.302;  -13.115;17023.996
799.180; 9495.411;  -10.185;16561.615
799.747; 9376.354;   -9.055;15962.773
800.315; 9056.435;  -12.385;15296.992
800.883; 8880.768;  -15.035;14801.771
801.450; 9112.302;  -10.365;14534.430
802.018; 9260.798;   -9.855;14173.248
802.585; 9300.724;  -11.905;14029.547
803.153; 9247.339;  -11.585;13836.846
803.720; 8993.129;   -9.095;13567.324
804.287; 8509.815;   -9.135;13360.622
804.855; 8004.399;  -11.604;13681.981
805.422; 7840.185;  -11.794;13536.560
805.989; 7933.210;  -10.734;13355.958
806.556; 8090.716;  -10.444;13747.896
807.124; 8286.725;  -12.764;13987.376
807.691; 8236.475;  -12.964;14038.674
808.258; 8106.383;  -11.134;14120.152
808.825; 7875.836;   -9.854;13860.111
809.392; 7980.598;  -10.504;13268.790
809.959; 7467.334;  -13.054;12680.389
810.526; 6936.688;   -8.294;12427.308
811.093; 6886.891;   -8.394;12030.105
811.659; 7547.369;  -12.304;11653.664
812.226; 8193.327;  -13.944;11637.183
812.793; 7997.113;  -10.484;11611.521
813.360; 7372.288;  -10.144;11885.181
813.926; 7053.896;  -11.684;12770.539
814.493; 6858.896;  -13.644;12677.638
815.060; 6483.387;   -9.724;11974.336
815.626; 6389.036;   -9.854;11594.715
816.193; 6701.303;  -13.254;11579.474
816.759; 6734.479;  -13.204;11666.972
817.325; 6724.049;   -9.434;11325.530
817.892; 7025.409;  -10.134;11105.369
818.458; 7453.277;  -13.474;10843.928
819.024; 7177.260;  -11.854;10714.406
819.591; 6887.055;  -10.244;10469.165
820.157; 6698.653;  -10.704;10235.523
820.723; 6188.323;  -12.324;10847.563
821.289; 5843.110;   -9.444;11040.980
821.855; 5778.359;   -8.374;10357.100
822.421; 5811.661;  -10.234; 9978.918
822.987; 5828.508;  -13.294; 9754.177
823.553; 5449.002;  -10.884;10065.755
824.119; 5204.114;   -8.884;10036.294
824.685; 5344.167;   -6.784;10029.192
825.251; 5498.867;  -12.004;10199.230
825.816; 5437.099;  -11.474; 9820.189
826.382; 5121.338;   -9.174; 9297.248
826.948; 5193.988;   -9.214; 9381.347
827.513; 5597.885;  -10.774; 9450.726
828.079; 5539.533;  -11.924; 9472.444
828.645; 4945.063;  -10.543; 9292.643
829.210; 4711.651;  -10.533; 9065.341
829.776; 4671.236;  -10.753; 9132.620
830.341; 4562.022;  -10.173; 9092.878
830.906; 4695.539;  -10.743; 9078.557
831.472; 5035.973;  -11.113; 8534.535
832.037; 4884.735;  -10.603; 8677.874
832.602; 4427.911;  -13.323; 8628.692
833.167; 4199.433;  -10.823; 8879.031
833.733; 4162.496;  -10.113; 9189.790
834.298; 4315.064;  -13.583; 9052.608
834.863; 4463.565;  -12.703; 8895.087
835.428; 4461.891;  -10.523; 8824.266
835.993; 4273.583;   -6.963; 8845.385
836.558; 4062.646;  -10.763; 8888.563
837.123; 4109.786;   -9.903; 8966.582
837.688; 4356.062;   -9.913; 8617.860
838.253; 4647.802;  -10.283; 8590.699
838.817; 4851.395;  -12.963; 8443.797
839.382; 4773.494;  -14.243; 8799.356
839.947; 4472.708;  -10.733; 8810.595
840.511; 4184.620;   -9.383; 8796.394
841.076; 3819.234;  -12.563; 8347.231
841.641; 3863.182;  -12.953; 8224.330
842.205; 3982.696;   -7.043; 8223.349
842.770; 3993.946;   -8.163; 8622.107
843.334; 4061.811;  -12.503; 8410.386
843.898; 3997.352;  -11.693; 8337.465
844.463; 4003.115;  -10.203; 8506.283
845.027; 3825.595;   -9.533; 8280.962
845.591; 3653.376;  -13.443; 8231.141
846.156; 3665.096;  -13.143; 7969.179
846.720; 3582.658;   -9.433; 7768.278
847.284; 3485.622;  -11.033; 7630.957
847.848; 3360.720;  -10.403; 7472.395
848.412; 3279.760;  -11.553; 7437.394
848.976; 3321.646;   -8.393; 7674.592
849.540; 3228.067;   -8.713; 7836.011
850.104; 3260.329;  -12.463; 7913.669
850.668; 3611.449;  -12.973; 7694.508
851.232; 3792.980;  -10.793; 7756.887
851.796; 3680.133;  -10.662; 7926.545
852.359; 3372.037;  -13.082; 7827.844
852.923; 3176.233;  -12.192; 7641.163
853.487; 3022.801;  -11.912; 7342.501
854.050; 3003.717;  -10.892; 7042.820
854.614; 3150.903;  -13.992; 7151.338
855.177; 3266.898;  -11.732; 7105.077
855.741; 3296.635;   -8.962; 6989.675
856.304; 3184.313;   -9.442; 6596.634
856.868; 3156.707;  -14.192; 6356.272
857.431; 3274.490;  -12.702; 6468.571
857.995; 3403.353;   -9.942; 6373.210
858.558; 3441.369;   -9.112; 6324.448
859.121; 3186.516;  -12.932; 6408.327
859.684; 3000.503;  -13.442; 6347.886
860.247; 3101.915;  -10.632; 6321.264
860.810; 3147.200;  -11.272; 6301.903
861.374; 2914.500;   -9.832; 6607.881
861.937; 2647.758;  -11.762; 6408.200
862.500; 2638.309;   -9.722; 6572.639
863.062; 2779.574;  -10.512; 6387.297
863.625; 2922.742;  -11.232; 6190.836
864.188; 3077.048;  -14.112; 5807.254
864.751; 3155.931;  -11.302; 5682.413
865.314; 3085.680;  -10.112; 5547.492
865.876; 2864.355;  -12.182; 5500.150
866.439; 2804.552;  -10.722; 5415.909
867.002; 2765.702;   -9.252; 5501.567
867.564; 2599.118;   -9.572; 5413.946
868.127; 2412.060;  -13.142; 5160.325
868.689; 2295.649;  -12.902; 5133.183
869.252; 2199.449;   -9.732; 5252.382
869.814; 2094.928;   -9.432; 5297.141
870.377; 2083.455;  -11.552; 5390.919
870.939; 2132.572;   -9.052; 5599.898
871.501; 2205.697;  -10.982; 5248.336
872.063; 2234.056;  -12.292; 4854.235
872.626; 2179.866;  -14.912; 4817.074
873.188; 2163.649;  -13.112; 4987.732
873.750; 2131.983;  -13.442; 4868.651
874.312; 2040.421;   -9.402; 4779.330
874.874; 1965.809;  -11.062; 4866.348
875.436; 1890.730;  -13.931; 4718.887
875.998; 1884.983;   -9.561; 4660.005
876.560; 1910.927;  -11.321; 4462.964
877.122; 1852.896;  -12.221; 4145.042
877.683; 1749.736;  -12.191; 4056.481
878.245; 1668.585;  -12.101; 3950.740
878.807; 1705.582;   -8.971; 4058.958
879.369; 1736.040;  -12.071; 3954.677
879.930; 1646.405;  -14.621; 3941.495
880.492; 1573.770;  -10.311; 4067.014
881.053; 1552.139;  -10.901; 3859.633
881.615; 1472.332;  -14.411; 3776.071
882.176; 1372.368;  -13.761; 3734.750
882.738; 1309.462;   -9.181; 3678.489
883.299; 1282.323;  -11.791; 3405.407
883.860; 1268.370;  -13.121; 3351.106
884.422; 1255.248;  -11.211; 3394.044
884.983; 1218.238;  -10.091; 3166.443
885.544; 1154.623;   -8.461; 3189.802
886.105; 1086.299;  -12.361; 3160.360
886.666; 1016.314;  -14.141; 3093.059
887.227;  954.687;  -11.361; 2941.957
887.788;  893.713;  -11.401; 2974.836
888.349;  829.123;  -13.791; 2721.214
888.910;  819.724;  -13.191; 2696.493
889.471;  824.684;   -9.881; 2560.172
890.032;  811.250;   -9.881; 2558.190
890.593;  785.142;  -10.371; 2567.669
891.153;  755.488;  -13.301; 2460.307
891.714;  709.666;  -11.431; 2372.046
892.275;  677.879;  -11.291; 2309.505
892.835;  651.211;  -11.471; 2382.543
893.396;  605.777;  -11.541; 2295.502
893.956;  548.938;  -11.181; 2162.420
894.517;  507.230;  -11.741; 2125.439
895.077;  497.568;  -11.671; 2086.978
895.638;  499.074;  -11.311; 2126.316
896.198;  473.054;   -9.831; 1838.275
896.758;  432.533;   -8.421; 1892.813
897.319;  402.747;  -12.351; 1792.232
897.879;  388.688;  -13.511; 1762.751
898.439;  363.714;  -12.001; 1661.149
898.999;  340.118;  -10.180; 1781.468
899.559;  330.271;  -12.030; 1703.347
900.119;  325.669;  -15.710; 1537.525
900.679;  321.192;   -8.900; 1638.384
901.239;  307.814;   -8.340; 1527.902
901.799;  299.247;  -13.910; 1456.441
902.359;  292.338;  -13.460; 1357.140
902.919;  285.511;  -11.490; 1331.118
903.479;  273.259;  -12.110; 1317.257
904.038;  254.477;  -11.720; 1262.595
904.598;  240.081;  -13.610; 1152.034
905.158;  235.300;  -11.040; 1240.893
905.717;  230.092;  -10.900; 1233.691
906.277;  219.622;  -15.080; 1217.330
906.836;  210.778;  -13.380; 1222.408
907.396;  201.155;  -10.780; 1193.047
907.955;  194.649;   -8.500; 1182.526
908.515;  188.561;  -12.760; 1099.364
909.074;  183.298;  -11.900; 1092.863
909.633;  176.566;   -8.950; 1069.121
910.192;  171.994;   -8.770; 1196.460
910.752;  168.115;  -12.390; 1029.960
911.311;  164.412;  -13.680; 1009.780
911.870;  160.630;  -12.370;  971.460
912.429;  160.896;  -10.900; 1094.080
912.988;  161.276;  -11.690; 1081.060
913.547;  157.949;  -13.240;  940.380
914.106;  152.650;  -11.990;  999.420
914.665;  148.313;   -9.990;  984.020
915.224;  147.294;  -12.880; 1035.760
915.782;  148.264;  -12.350;  922.560
916.341;  147.655;   -9.110; 1049.840
916.900;  143.886;   -9.270;  925.260
917.458;  141.248;  -13.240;  884.220
918.017;  142.338;  -13.550;  942.600
918.576;  140.377;  -12.320;  904.440
919.134;  138.894;  -11.490;  837.980
919.693;  137.935;  -13.670;  893.060
920.251;  136.808;  -15.470;  876.500
920.809;  135.188;  -11.290;  839.580
921.368;  134.943;  -10.210;  885.360
921.926;  134.269;  -12.140;  842.940
922.484;  132.903;  -13.080;  903.360
923.042;  132.025;  -11.720;  880.340
923.601;  134.445;   -7.480;  998.680
924.159;  133.450;  -11.570;  935.560
924.717;  130.387;  -13.840;  841.080
925.275;  130.152;  -10.640;  903.240
925.833;  128.961;  -11.540;  779.320
926.391;  130.442;  -12.960;  938.380
926.949;  128.895;  -14.130;  857.680
927.506;  128.951;  -11.750;  903.500
928.064;  129.236;  -10.250;  877.580
928.622;  128.890;  -13.030;  880.100
929.180;  128.184;  -13.400;  814.180
929.737;  128.018;  -10.700;  808.540
930.295;  131.639;  -10.070;  928.480
930.853;  133.809;  -11.960;  849.100
931.410;  135.558;  -13.120;  821.120
931.968;  133.295;  -10.770;  940.660
932.525;  133.495;  -10.680;  909.380
933.082;  135.096;  -13.130;  811.440
933.640;  135.536;  -13.210;  925.900
934.197;  133.313;  -11.060;  886.360
934.754;  133.751;   -9.580;  897.780
935.312;  137.300;  -14.000;  863.340
935.869;  141.196;  -10.710; 1012.980
936.426;  142.249;   -9.860;  872.800
936.983;  142.478;   -9.710;  889.020
937.540;  142.815;  -13.990;  838.280
938.097;  142.221;  -14.040;  940.120
938.654;  141.923;  -10.310;  898.860
939.211;  143.965;  -10.560;  952.480
939.768;  148.402;  -13.900;  915.420
940.324;  151.402;  -14.760;  904.200
940.881;  152.247;  -10.370;  878.500
941.438;  152.969;   -8.260; 1021.200
941.995;  149.302;  -12.540;  992.560
942.551;  146.979;  -14.670;  875.620
943.108;  145.905;  -10.450;  937.920
943.664;  148.028;  -10.750;  869.340
944.221;  152.470;  -11.550; 1088.140
944.777;  149.762;  -14.770;  869.680
945.334;  148.818;  -12.820;  884.840
945.890;  150.311;  -10.130;  946.480
946.446;  151.752;  -13.470;  947.020
947.003;  153.631;  -12.120;  964.940
947.559;  155.710;   -9.980; 1063.040
948.115;  155.861;   -9.080; 1026.540
948.671;  153.818;  -10.830;  967.300
949.227;  151.438;  -12.440;  859.560
949.783;  148.529;  -12.910;  858.900
950.339;  150.484;  -10.270;  991.000
950.895;  150.853;  -13.630; 1023.840
951.451;  150.246;  -15.100;  925.280
952.007;  148.427;  -11.330;  998.540
952.563;  148.063;  -10.580;  937.780
953.118;  147.762;  -13.440;  904.940
953.674;  146.925;  -12.710;  935.780
954.230;  147.462;  -10.350;  949.640
954.785;  144.574;   -9.190;  936.640
955.341;  143.088;  -11.200;  998.160
955.897;  141.730;  -16.560;  834.660
956.452;  142.715;  -12.570;  953.840
957.008;  142.001;   -7.970; 1083.640
957.563;  140.186;  -11.940; 1009.540
958.118;  134.915;  -13.450;  877.700
958.674;  134.536;  -12.030;  946.780
959.229;  135.331;   -9.410; 1013.980
959.784;  133.749;  -12.000;  832.400
960.339;  133.621;  -14.780; 1001.280
960.894;  129.787;   -9.860;  963.760
961.449;  126.170;   -9.970;  859.960
962.004;  126.596;  -10.900; 1212.840
962.559;  121.188;  -13.150;  860.140
963.114;  117.257;  -13.740;  742.480
963.669;  117.665;   -9.820;  915.500
964.224;  116.737;  -13.890;  874.340
964.779;  115.100;  -12.600;  828.420
965.334;  115.348;  -10.950; 1017.860
965.888;  115.082;  -11.170;  875.360
966.443;  118.713;  -12.540;  972.380
966.998;  119.042;  -15.780;  819.460
967.552;  118.183;   -9.760;  908.380
968.107;  112.836;   -9.060;  868.300
968.661;  114.963;  -11.950;  922.440
969.216;  115.331;  -12.800;  856.280
969.770;  114.742;  -11.210;  917.200
970.324;  114.156;  -11.610;  923.140
970.879;  111.379;  -11.370;  947.180
971.433;  108.255;  -12.540;  952.720
971.987;  103.686;  -11.320;  895.340
972.541;   99.755;  -10.720;  917.100
973.095;  100.340;   -9.680; 1009.460
973.649;   98.611;  -11.440;  809.480
974.203;   97.189;  -11.210;  829.040
974.757;   96.995;  -10.240;  855.220
975.311;   98.233;  -13.720;  872.600
975.865;   97.751;  -13.770;  881.820
976.419;   94.947;  -11.690;  857.400
976.973;   94.381;   -9.510;  849.620
977.526;   96.955;  -12.620;  949.920
978.080;   95.599;  -12.010;  796.780
978.634;   96.869;  -10.170;  921.320
979.187;   94.784;   -9.020;  905.400
979.741;   93.013;   -9.820; 1018.380
980.294;   89.223;  -14.870;  789.160
980.848;   85.885;  -12.380;  717.220
981.401;   87.614;  -10.350;  816.540
981.955;   90.308;  -13.720;  844.300
982.508;   89.661;  -11.490;  746.340
983.061;   89.460;  -10.000;  915.260
983.615;   85.687;  -11.480;  798.800
984.168;   82.048;  -13.220;  770.080
984.721;   82.498;  -13.960;  880.760
985.274;   80.675;  -10.870;  867.500
985.827;   79.489;   -9.790;  834.220
986.380;   77.616;  -13.120;  721.340
986.933;   77.473;  -12.450;  864.800
987.486;   75.324;  -10.210;  861.920
988.039;   74.336;   -8.430;  863.100
988.591;   73.440;  -10.520;  893.260
989.144;   70.758;  -14.860;  737.260
989.697;   68.874;  -13.080;  758.740
990.250;   69.422;  -10.150;  858.100
990.802;   68.340;  -13.430;  755.860
991.355;   70.237;  -12.750;  974.880
991.907;   67.531;  -12.040;  864.320
992.460;   64.824;  -11.330;  753.760
993.012;   64.935;  -13.610;  749.540
993.565;   64.377;  -13.460;  711.360
994.117;   65.231;   -9.360;  950.780
994.669;   61.022;  -11.300;  701.320
995.221;   59.916;  -13.540;  791.920
995.774;   58.551;  -13.430;  787.580
996.326;   56.941;  -12.520;  740.220
996.878;   56.288;  -10.950;  838.420
997.430;   54.780;  -14.300;  699.860
997.982;   54.237;  -13.760;  750.140
998.534;   53.562;  -11.530;  739.060
999.086;   51.478;  -10.310;  738.220
999.638;   50.845;  -12.530;  661.380
1000.190;   49.890;  -11.840;  699.320
1000.741;   50.335;  -10.260;  742.700
1001.293;   49.180;   -8.860;  686.020
1001.845;   49.024;  -13.700;  676.640
1002.396;   48.286;  -12.100;  743.400
1002.948;   47.778;  -12.760;  737.400
1003.500;   45.573;  -10.380;  723.780
1004.051;   47.278;  -11.900;  907.580
1004.603;   46.148;  -12.250;  791.820
1005.154;   41.530;  -13.210;  608.980
1005.705;   40.541;  -10.950;  723.960
1006.257;   40.603;  -13.880;  707.220
1006.808;   40.227;  -12.840;  685.460
1007.359;   39.377;  -10.570;  763.240
1007.910;   37.758;   -9.620;  646.640
1008.461;   38.711;  -13.630;  732.940
1009.013;   37.480;  -17.200;  588.340
1009.564;   38.373;  -10.200;  793.520
1010.115;   36.218;  -12.570;  597.040
1010.665;   35.350;  -15.150;  602.160
1011.216;   36.410;  -14.480;  667.920
1011.767;   35.404;  -11.340;  697.920
1012.318;   35.240;   -9.780;  736.980
1012.869;   34.903;  -12.380;  679.000
1013.419;   34.081;  -15.560;  603.120
1013.970;   33.954;  -11.010;  666.640
1014.521;   33.253;  -11.610;  620.620
1015.071;   34.064;  -13.450;  670.380
1015.622;   34.093;  -13.870;  635.460
1016.172;   32.514;  -11.610;  596.820
1016.723;   32.652;  -12.120;  614.380
1017.273;   31.925;  -13.620;  604.160
1017.823;   32.483;  -14.140;  650.340
1018.374;   31.839;  -12.800;  611.760
1018.924;   30.839;  -12.340;  716.880
1019.474;   32.046;  -11.410;  718.880
1020.024;   31.465;  -14.770;  657.580
1020.574;   31.620;   -9.780;  726.160
1021.124;   31.365;   -8.560;  673.580
1021.674;   29.845;  -15.190;  559.120
1022.224;   31.147;  -13.530;  708.940
1022.774;   31.180;  -13.280;  668.820
1023.324;   30.343;  -10.690;  753.520
1023.874;   32.336;  -10.240;  875.760
1024.423;   29.906;  -12.540;  613.700
1024.973;   28.915;  -10.010;  610.760
1025.523;   28.199;  -10.550;  620.960
1026.072;   28.586;  -13.560;  606.420
1026.622;   28.884;  -15.120;  675.740
1027.172;   28.591;  -11.260;  715.660
1027.721;   28.201;  -11.410;  601.220
1028.270;   28.645;  -13.530;  663.400
1028.820;   28.584;  -13.680;  638.080
1029.369;   27.070;  -13.520;  612.700
1029.918;   27.777;  -10.980;  649.840
1030.468;   27.973;  -13.530;  564.780
1031.017;   27.676;  -13.170;  634.800
1031.566;   26.251;  -12.200;  608.900
1032.115;   26.824;   -9.960;  694.500
1032.664;   25.717;  -13.210;  596.480
1033.213;   27.753;  -12.500;  735.420
1033.762;   25.862;  -11.910;  635.620
1034.311;   25.207;   -9.640;  677.220
1034.860;   26.623;  -13.310;  691.000
1035.408;   26.786;  -11.830;  722.720
1035.957;   26.351;  -12.000;  719.540
1036.506;   24.020;  -11.690;  530.800
1037.055;   27.236;  -10.990;  844.320
1037.603;   25.135;  -15.120;  664.000
1038.152;   22.924;  -12.450;  534.760
1038.700;   23.131;  -10.560;  585.740
1039.249;   23.850;  -11.080;  681.220
1039.797;   24.937;  -12.540;  633.360
1040.345;   23.993;  -11.920;  705.420
1040.894;   23.419;  -11.410;  625.300
1041.442;   23.395;  -14.320;  632.200
1041.990;   23.298;  -16.240;  559.160
1042.538;   22.649;  -11.680;  536.180
1043.087;   22.028;  -10.760;  570.860
1043.635;   23.610;  -11.850;  670.500
1044.183;   22.609;  -15.480;  586.400
1044.731;   21.525;  -11.770;  576.000
1045.279;   21.534;  -13.090;  674.920
1045.827;   24.430;  -12.440;  892.400
1046.374;   22.104;  -13.840;  515.420
1046.922;   20.500;  -13.220;  590.580
1047.470;   21.226;  -10.230;  691.300
1048.018;   22.166;  -14.590;  647.960
1048.565;   23.221;  -12.050;  708.600
1049.113;   20.808;  -11.650;  557.000
1049.660;   20.494;  -10.510;  629.660
1050.208;   20.902;  -13.310;  675.640
1050.755;   20.939;  -15.900;  606.580
1051.303;   20.831;  -11.430;  686.820
1051.850;   20.551;   -8.480;  635.120
1052.397;   19.044;  -15.010;  473.960
1052.945;   20.613;  -13.960;  617.760
1053.492;   21.060;  -13.150;  741.840
1054.039;   20.525;   -9.630;  720.180
1054.586;   19.616;  -13.680;  557.240
1055.133;   20.101;  -14.570;  693.140
1055.680;   19.346;  -13.820;  646.620
1056.227;   18.682;  -11.730;  542.780
1056.774;   20.693;  -12.480;  794.980
1057.321;   19.598;  -13.930;  523.260
1057.868;   18.779;  -11.690;  651.320
1058.415;   18.447;   -9.520;  651.980
1058.961;   19.470;  -13.160;  678.940
1059.508;   19.218;  -12.920;  643.820
1060.055;   17.948;  -11.920;  581.780
1060.601;   18.543;  -11.500;  624.300
1061.148;   18.926;  -14.330;  616.820
1061.694;   18.756;  -16.870;  592.580
1062.241;   17.729;  -10.330;  596.320
1062.787;   17.713;  -10.620;  663.140
1063.334;   19.391;  -10.110;  808.560
1063.880;   18.537;  -13.400;  668.360
1064.426;   17.755;  -10.680;  706.820
1064.972;   16.590;   -9.920;  601.340
1065.518;   16.357;  -10.980;  566.640
1066.065;   17.311;  -14.890;  624.460
1066.611;   16.341;  -12.870;  598.800
1067.157;   17.193;  -12.950;  641.860
1067.703;   17.171;  -13.540;  668.480
1068.249;   16.708;  -13.540;  605.220
1068.794;   16.432;  -12.600;  626.880
1069.340;   16.274;  -10.620;  578.960
1069.886;   16.047;  -12.830;  590.700
1070.432;   15.550;  -14.870;  541.720
1070.977;   15.312;  -11.980;  601.080
1071.523;   15.603;   -8.200;  573.060
1072.068;   15.793;  -12.330;  582.000
1072.614;   15.753;  -16.370;  527.760
1073.160;   15.634;  -11.100;  687.040
1073.705;   14.416;  -10.480;  572.520
1074.250;   14.778;  -14.520;  559.900
1074.796;   16.041;  -11.460;  655.160
1075.341;   15.407;  -11.950;  664.100
1075.886;   14.872;  -11.460;  594.240
1076.431;   14.404;  -13.770;  649.880
1076.976;   14.709;  -12.680;  639.220
1077.521;   14.062;  -13.170;  583.080
1078.067;   13.852;  -10.860;  579.400
1078.612;   14.481;  -13.920;  661.620
1079.156;   14.522;  -13.880;  601.540
1079.701;   13.928;  -13.120;  693.260
1080.246;   14.545;   -9.940;  696.300
1080.791;   14.423;  -14.740;  625.020
1081.336;   14.037;  -13.750;  659.320
1081.880;   13.711;  -13.400;  649.680
1082.425;   11.976;  -12.220;  573.480
1082.970;   15.230;  -11.610;  717.040
1083.514;   13.782;  -13.580;  597.000
1084.059;   12.073;  -12.810;  586.720
1084.603;   11.839;  -12.320;  565.840
1085.147;   12.751;  -13.190;  645.220
1085.692;   14.127;  -12.480;  716.800
1086.236;   11.601;  -13.020;  503.140
1086.780;   13.599;   -9.190;  751.440
1087.325;   12.649;  -12.480;  654.620
1087.869;   13.060;  -12.450;  610.700
1088.413;   12.091;  -12.240;  705.040
1088.957;   10.516;   -9.020;  543.400
1089.501;   13.308;  -10.320;  766.640
1090.045;   12.596;  -12.720;  726.480
1090.589;   10.320;  -13.690;  569.920
1091.133;   10.970;  -10.020;  673.340
1091.676;   12.272;  -12.330;  591.940
1092.220;   11.712;  -14.970;  600.920
1092.764;   12.093;  -12.430;  706.960
1093.307;   11.025;   -9.800;  673.780
1093.851;    9.966;  -14.970;  556.540
1094.395;   11.439;  -15.310;  683.140
1094.938;   10.011;  -10.370;  632.520
1095.482;   10.241;  -11.050;  559.800
1096.025;   11.179;  -11.840;  710.880
1096.568;   12.023;  -12.840;  779.280
1097.112;    8.765;  -14.700;  508.180
1097.655;   10.368;   -8.720;  603.000
1098.198;    9.038;  -13.610;  600.180
1098.741;   10.126;  -13.350;  612.860
1099.285;   10.144;  -11.230;  657.300
1099.828;    8.281;  -11.840;  439.400
1100.371;    9.472;  -10.840;  608.160
1100.914;    9.959;  -14.190;  682.660
1101.457;    9.640;  -11.240;  679.900
1101.999;    7.969;  -11.270;  584.680
1102.542;    9.202;  -11.480;  641.440
1103.085;    9.252;  -11.750;  658.500
1103.628;    9.190;  -11.400;  762.060
1104.170;    8.450;  -10.490;  588.280
1104.713;    8.719;  -10.600;  646.700
1105.256;    8.877;  -14.360;  557.440
1105.798;    7.568;  -13.210;  499.980
1106.341;    9.266;  -10.270;  728.900
1106.883;    8.524;  -12.200;  521.340
1107.425;    8.671;  -13.110;  668.180
1107.968;    7.904;  -12.840;  612.380
1108.510;    8.160;   -6.480;  684.960
1109.052;    7.184;  -13.940;  612.620
1109.594;    7.827;  -13.690;  554.440
1110.136;    7.813;  -11.880;  643.220
1110.679;    7.565;   -9.500;  633.080
1111.221;    7.916;  -14.160;  604.460
1111.763;    7.651;  -13.980;  559.220
1112.304;    6.566;  -13.880;  547.140
1112.846;    7.309;  -12.210;  666.240
1113.388;   10.037;  -11.390;  942.180
1113.930;    7.667;  -14.540;  694.200
1114.472;    6.217;  -12.640;  606.540
1115.013;    4.802;  -11.620;  551.280
1115.555;    5.667;  -13.640;  587.100
1116.097;    6.288;  -15.380;  579.480
1116.638;    6.367;  -12.640;  684.600
1117.180;    6.465;   -9.850;  667.740
1117.721;    6.426;  -13.690;  568.580
1118.262;    7.517;  -12.680;  677.960
1118.804;    6.243;  -12.530;  637.340
1119.345;    4.943;  -11.690;  578.400
1119.886;    7.214;  -13.380;  704.040
1120.427;    5.982;  -14.070;  589.020
1120.969;    4.437;  -13.500;  597.920
1121.510;    4.195;  -11.480;  563.060
1122.051;    5.563;  -12.830;  723.580
1122.592;    5.371;  -14.290;  655.420
1123.133;    3.803;  -12.400;  547.940
1123.673;    5.142;  -10.130;  706.480
1124.214;    5.373;  -12.930;  612.460
1124.755;    5.935;  -14.380;  639.460
1125.296;    5.290;  -14.000;  627.320
1125.836;    5.615;  -10.070;  691.500
1126.377;    4.596;  -12.640;  599.660
1126.918;    5.055;  -12.960;  614.980
1127.458;    4.446;  -13.350;  622.220
1127.999;    4.391;  -10.750;  656.980
1128.539;    4.973;  -12.350;  694.240
1129.079;    4.134;  -14.860;  632.720
1129.620;    3.704;  -13.840;  558.100
1130.160;    3.830;  -12.330;  539.480
1130.700;    4.560;  -14.530;  640.840
1131.240;    5.431;  -12.530;  643.700
1131.781;    3.685;  -14.450;  619.680
1132.321;    3.757;   -9.790;  599.120
1132.861;    2.618;  -14.860;  564.200
1133.401;    2.755;  -14.290;  593.940
1133.941;    3.425;  -11.750;  626.280
1134.481;    2.550;   -9.920;  597.580
1135.020;    2.420;  -12.290;  609.160
1135.560;    4.545;  -11.650;  674.940
1136.100;    2.728;  -16.270;  501.160
1136.640;    1.730;  -10.890;  510.480
1137.179;    3.116;  -14.180;  537.960
1137.719;    3.272;  -16.250;  605.400
1138.258;    2.991;  -14.230;  587.360
1138.798;    2.677;   -9.090;  663.780
1139.337;    1.825;  -15.130;  482.840
1139.877;    3.249;  -13.680;  642.360
1140.416;    4.548;  -11.320;  878.060
1140.955;    1.750;  -10.860;  535.380
1141.494;    2.765;  -12.920;  669.280
1142.034;    1.889;  -13.930;  583.520
1142.573;    2.606;  -11.440;  646.280
1143.112;    0.641;  -12.000;  553.480
1143.651;    1.875;  -13.670;  536.480
1144.190;    3.215;  -12.730;  691.640
1144.729;    1.757;  -14.560;  607.420
1145.267;    0.734;  -11.830;  584.900
1145.806;    2.086;  -12.230;  637.040
1146.345;    1.568;  -14.130;  635.020
1146.884;    0.979;  -11.590;  622.500
1147.422;    0.770;  -12.550;  533.060
1147.961;    2.474;  -11.180;  708.460
1148.500;    2.522;  -11.510;  669.720
1149.038;    1.945;  -11.640;  632.500
1149.577;    1.944;  -10.130;  698.640
1150.115;   -0.099;  -13.970;  452.280
1150.653;    2.193;  -14.520;  607.340
1151.192;    1.161;  -12.810;  552.920
1151.730;    0.370;   -9.100;  652.560
1152.268;    0.027;  -12.220;  589.520
1152.806;    1.459;  -14.140;  571.180
1153.344;   -0.938;  -12.350;  577.640
1153.882;    0.845;   -8.980;  600.060
1154.421;   -0.810;  -15.190;  470.620
1154.958;    0.354;  -15.210;  595.240
1155.496;    0.952;  -12.850;  645.280
1156.034;    0.191;   -9.940;  721.880
1156.572;    1.744;  -13.570;  667.060
1157.110;   -0.427;  -14.590;  473.940
1157.647;    0.521;  -13.030;  676.960
1158.185;   -1.129;  -12.140;  564.320
1158.723;   -0.711;  -14.390;  509.200
1159.260;    0.474;  -14.090;  701.700
1159.798;    0.368;  -11.920;  658.160
1160.335;   -0.977;  -11.110;  631.820

