
Integration time [ms]:   3.276
Averaging Nr. [scans]: 1000
Smoothing Nr. [pixels]: 0
Data measured with spectrometer [name]: 7414430SP
Wave   ;Sample   ;Dark     ;Reference
[nm]   ;[counts] ;[counts] ;[counts] 

288.544;  157.782;    7.793;  793.890
289.143;  160.852;    7.462;  681.602
289.742;  161.266;    8.602;  828.814
290.341;  149.065;    1.321;  789.841
290.940;  139.332;   -0.709;  730.702
291.538;  141.061;    0.881;  881.108
292.137;  139.897;    0.122;  792.581
292.736;  142.357;   -1.929;  975.101
293.335;  137.540;   -8.229;  735.086
293.934;  139.797;   -5.279;  781.677
294.532;  140.545;   -1.369; 1031.958
295.131;  125.834;   -7.641;  834.394
295.730;  126.516;   -8.420;  809.588
296.328;  123.293;   -5.611;  783.442
296.927;  123.306;   -5.781;  779.652
297.525;  124.801;   -6.361;  781.236
298.124;  116.515;  -11.382;  654.009
298.722;  121.251;   -7.641;  761.933
299.321;  116.732;   -6.811;  708.597
299.919;  113.884;   -6.991;  751.918
300.518;  111.529;  -10.362;  689.338
301.116;  113.220;   -9.581;  691.381
301.715;  113.450;   -4.891;  730.222
302.313;  111.855;   -8.801;  704.943
302.911;  106.341;   -8.522;  733.830
303.509;  111.512;   -6.171;  925.627
304.108;  109.519;   -7.311;  760.383
304.706;  110.412;   -8.321;  801.664
305.304;  104.614;  -10.222;  796.707
305.902;  108.606;   -6.021;  784.484
306.500;  103.228;   -4.971;  728.200
307.098;  102.525;   -7.061;  746.560
307.696;  102.041;   -8.801;  780.432
308.294;  100.730;   -6.411;  731.359
308.892;  103.138;   -2.901;  759.769
309.490;   98.899;   -5.041;  712.161
310.088;   97.845;   -5.002;  788.444
310.686;  101.404;   -2.041;  821.749
311.284;   96.421;   -2.351;  766.040
311.882;   95.332;   -4.422;  731.225
312.480;   92.032;   -4.192;  697.167
313.078;   93.114;   -1.172;  808.331
313.675;   94.228;   -2.601;  691.600
314.273;   88.906;   -1.312;  797.837
314.871;   88.231;   -3.942;  589.829
315.468;   85.958;   -2.802;  652.090
316.066;   88.986;   -0.701;  694.427
316.664;   81.735;   -4.362;  656.351
317.261;   86.768;   -2.872;  910.128
317.859;   81.735;   -2.022;  768.735
318.456;   81.683;   -0.531;  830.096
319.054;   77.689;   -3.912;  787.828
319.651;   76.770;   -4.752;  759.928
320.249;   75.208;   -2.602;  810.188
320.846;   73.083;   -0.821;  714.286
321.443;   71.122;   -4.642;  832.135
322.041;   68.475;   -5.002;  812.315
322.638;   65.622;   -3.982;  701.456
323.235;   66.549;   -3.411;  665.683
323.833;   63.434;   -7.361;  740.354
324.430;   59.128;   -8.611;  615.900
325.027;   59.051;   -4.061;  876.855
325.624;   59.082;   -4.031;  644.532
326.221;   56.739;   -7.481;  689.717
326.818;   55.164;   -5.281;  818.332
327.415;   58.484;   -7.460;  748.828
328.012;   57.763;   -5.510;  690.585
328.609;   56.583;   -7.880;  731.389
329.206;   54.463;   -8.331;  778.621
329.803;   54.564;   -5.121;  737.841
330.400;   56.698;   -4.510;  704.260
330.997;   58.478;   -6.441;  817.147
331.594;   56.685;   -8.831;  788.185
332.191;   62.274;   -7.621;  728.722
332.787;   65.651;   -4.591;  844.463
333.384;   65.464;   -7.412;  763.093
333.981;   65.776;   -8.293;  815.687
334.578;   68.052;   -7.052;  708.378
335.174;   68.280;   -3.102;  731.469
335.771;   67.590;   -5.943;  836.456
336.367;   65.929;   -7.393;  710.631
336.964;   71.246;   -4.063;  793.266
337.561;   67.456;   -3.813;  731.112
338.157;   63.044;   -4.654;  911.916
338.754;   62.413;   -7.934;  796.589
339.350;   60.558;   -4.414;  722.493
339.946;   62.190;   -4.664;  773.135
340.543;   55.132;   -6.375;  846.136
341.139;   48.243;   -9.815;  720.836
341.735;   45.469;   -4.526;  772.593
342.332;   44.962;   -4.895;  691.472
342.928;   45.049;   -4.295;  795.394
343.524;   38.004;   -5.476;  761.684
344.120;   33.845;   -5.856;  738.562
344.716;   37.441;   -2.155;  723.717
345.313;   34.959;   -6.275;  795.342
345.909;   29.720;   -8.815;  627.336
346.505;   30.501;   -5.305;  740.247
347.101;   32.172;   -2.674;  827.864
347.697;   31.197;   -4.344;  785.398
348.293;   26.399;   -9.975;  627.244
348.889;   26.858;   -5.774;  745.914
349.485;   26.887;   -5.004;  688.205
350.081;   27.253;   -4.704;  772.592
350.676;   23.422;   -6.635;  691.606
351.272;   26.809;   -4.504;  809.530
351.868;   24.937;   -3.914;  780.497
352.464;   23.765;   -9.044;  723.932
353.059;   19.659;   -8.314;  646.017
353.655;   22.310;   -7.024;  777.063
354.251;   23.829;   -5.343;  759.845
354.846;   18.891;   -8.604;  740.646
355.442;   16.202;   -6.945;  753.071
356.038;   18.553;   -7.564;  751.708
356.633;   18.216;   -5.814;  728.594
357.229;   16.426;   -7.364;  724.757
357.824;   14.564;   -8.024;  703.600
358.420;   13.811;   -9.384;  679.726
359.015;   13.246;   -5.104;  695.357
359.610;   14.603;   -6.854;  763.920
360.206;    9.011;  -10.185;  603.240
360.801;   10.893;   -7.054;  646.503
361.396;   14.412;   -5.034;  725.975
361.992;    8.860;   -8.284;  668.220
362.587;    6.502;   -8.625;  670.160
363.182;    8.213;   -7.674;  689.631
363.777;    7.872;   -5.164;  738.242
364.372;    8.127;   -8.604;  737.314
364.967;    4.616;   -9.055;  680.744
365.563;    8.971;   -6.114;  815.567
366.158;    5.414;   -5.814;  685.161
366.753;    5.968;   -7.854;  649.263
367.348;    5.695;   -7.804;  746.056
367.942;    4.653;   -7.954;  697.298
368.537;    3.835;   -4.984;  754.245
369.132;    3.628;   -8.564;  703.428
369.727;    0.194;   -8.855;  638.079
370.322;    1.616;   -6.245;  580.186
370.917;    0.540;   -6.425;  710.646
371.511;    4.257;   -6.294;  861.834
372.106;    0.021;   -7.685;  776.964
372.701;   -2.482;   -7.335;  585.988
373.296;    2.368;   -4.564;  863.135
373.890;   -3.020;  -10.235;  647.840
374.485;   -4.387;   -7.885;  691.199
375.079;   -0.330;   -7.324;  738.685
375.674;   -0.107;   -3.494;  812.970
376.268;   -3.798;   -8.525;  691.759
376.863;   -8.970;  -10.086;  580.327
377.457;   -2.712;   -7.025;  662.490
378.052;   -5.481;   -3.585;  764.884
378.646;   -6.319;   -7.595;  741.167
379.240;   -6.389;   -8.335;  721.176
379.835;   -5.619;   -5.785;  636.978
380.429;   -7.832;   -4.335;  562.557
381.023;   -8.086;   -6.805;  779.205
381.617;  -10.255;   -9.195;  680.106
382.212;   -7.604;   -6.905;  685.303
382.806;   -6.178;   -3.745;  760.690
383.400;   -9.700;   -7.745;  672.281
383.994;  -11.304;   -9.765;  664.870
384.588;   -8.164;   -6.564;  697.701
385.182;   -5.988;   -5.344;  726.624
385.776;   -8.439;   -8.514;  706.875
386.370;  -11.783;   -9.555;  681.968
386.964;  -10.360;   -8.715;  684.155
387.558;   -8.899;   -6.174;  598.360
388.152;  -11.977;   -8.725;  681.959
388.745;   -9.184;   -7.965;  814.707
389.339;   -8.358;   -5.924;  747.642
389.933;   -6.776;   -5.524;  695.370
390.527;   -8.310;   -7.114;  859.029
391.120;  -14.584;  -10.725;  595.318
391.714;  -11.776;   -8.035;  711.633
392.308;   -8.860;   -3.574;  780.253
392.901;  -12.743;   -7.245;  642.460
393.495;  -14.305;   -9.285;  595.414
394.089;  -11.833;   -5.895;  760.452
394.682;  -13.252;   -4.295;  697.188
395.275;  -13.453;   -9.875;  719.927
395.869;  -14.471;   -8.485;  667.314
396.462;  -13.490;   -7.455;  616.609
397.056;   -9.300;   -5.424;  776.621
397.649;  -13.661;   -6.605;  731.575
398.242;  -11.436;   -8.224;  712.645
398.836;  -10.640;   -7.474;  766.408
399.429;  -11.617;   -7.094;  631.041
400.022;  -14.969;   -9.475;  665.902
400.615;  -12.229;   -7.145;  805.609
401.208;  -10.986;   -7.174;  691.451
401.802;  -13.219;   -5.515;  699.329
402.395;  -14.392;   -9.875;  683.502
402.988;  -15.190;   -8.845;  696.627
403.581;  -11.630;   -8.874;  646.878
404.174;   -9.772;   -5.324;  686.568
404.767;  -13.674;   -9.575;  638.583
405.360;  -14.837;  -10.965;  621.445
405.953;  -10.050;   -8.764;  759.034
406.545;   -9.604;   -7.514;  725.342
407.138;  -13.820;  -10.025;  618.350
407.731;  -12.046;  -10.034;  613.303
408.324;   -7.771;   -9.374;  660.554
408.917;   -9.152;   -6.534;  681.864
409.509;  -11.211;   -8.004;  740.396
410.102;  -13.234;   -9.875;  643.948
410.695;   -6.674;   -8.604;  665.758
411.287;   -7.590;   -6.794;  599.821
411.880;   -9.141;   -9.334;  585.421
412.472;  -11.995;  -10.254;  613.092
413.065;  -10.119;   -6.714;  629.408
413.657;   -7.709;   -7.234;  576.678
414.250;   -6.961;  -10.544;  646.681
414.842;   -8.744;   -9.744;  676.353
415.434;   -7.262;   -6.994;  570.463
416.027;   -3.291;   -5.893;  652.196
416.619;   -4.901;   -7.264;  713.400
417.211;   -5.044;  -10.374;  599.352
417.804;   -1.811;   -7.993;  628.499
418.396;   -6.455;   -7.234;  607.643
418.988;   -3.765;   -9.443;  659.238
419.580;   -6.678;  -10.724;  568.276
420.172;   -5.067;  -10.323;  536.196
420.764;   -0.984;   -8.793;  672.482
421.356;   -1.885;  -11.143;  636.898
421.948;   -2.862;   -8.293;  677.661
422.540;    2.265;   -7.893;  680.027
423.132;    1.820;   -7.082;  600.641
423.724;   -1.143;   -8.653;  561.267
424.316;    0.479;  -10.213;  621.345
424.908;    3.868;   -9.762;  591.517
425.500;    3.859;   -5.572;  647.978
426.092;    4.753;   -8.422;  648.268
426.683;    4.052;   -9.283;  684.836
427.275;    6.836;   -7.852;  641.471
427.867;    8.791;   -5.272;  668.948
428.458;    8.287;   -7.682;  732.344
429.050;    7.655;  -10.612;  680.749
429.642;    9.303;   -9.882;  743.124
430.233;    9.988;   -6.962;  569.356
430.825;   11.665;   -6.842;  724.809
431.416;    8.779;   -9.672;  698.241
432.008;   12.391;   -6.552;  651.723
432.599;   12.532;   -6.891;  656.073
433.190;   10.314;  -10.912;  637.670
433.782;    9.478;  -11.172;  590.395
434.373;   17.407;   -6.061;  884.765
434.964;   14.940;   -8.251;  602.920
435.556;   12.522;   -9.722;  634.537
436.147;   15.921;   -9.082;  758.490
436.738;   15.594;   -8.041;  701.099
437.329;   21.259;   -7.341;  721.723
437.920;   13.542;   -8.162;  666.688
438.511;   14.059;  -11.802;  564.526
439.103;   20.548;  -10.191;  623.998
439.694;   22.040;   -7.601;  681.583
440.285;   22.425;   -8.541;  764.432
440.876;   21.030;   -9.751;  845.738
441.466;   20.350;   -9.401;  575.162
442.057;   26.016;   -7.760;  665.814
442.648;   24.773;   -9.971;  746.255
443.239;   23.229;  -11.001;  620.477
443.830;   28.147;   -7.990;  704.958
444.421;   29.335;   -7.910;  655.474
445.011;   26.251;   -8.131;  693.619
445.602;   25.463;   -7.111;  743.126
446.193;   27.916;  -10.920;  488.117
446.783;   32.684;   -6.500;  640.397
447.374;   27.037;   -8.671;  692.759
447.964;   28.301;  -10.781;  713.770
448.555;   36.502;   -9.650;  822.742
449.145;   32.779;   -8.660;  662.853
449.736;   34.369;   -8.990;  803.179
450.326;   34.110;   -9.500;  713.626
450.917;   39.213;   -8.680;  675.324
451.507;   37.682;   -7.520;  600.661
452.097;   38.627;   -8.590;  746.267
452.688;   40.276;  -11.340;  742.160
453.278;   40.025;  -10.100;  566.840
453.868;   43.832;   -6.019;  793.550
454.458;   42.116;   -9.440;  651.141
455.048;   42.319;  -10.560;  711.783
455.639;   43.424;  -11.799;  567.096
456.229;   47.200;   -6.899;  710.694
456.819;   49.038;   -7.389;  751.158
457.409;   49.338;  -11.119;  773.993
457.999;   52.231;   -9.289;  737.505
458.589;   51.845;   -6.139;  686.606
459.179;   50.848;   -8.729;  717.658
459.769;   50.040;   -9.789;  627.099
460.358;   55.530;  -10.259;  797.262
460.948;   54.677;   -7.299;  689.503
461.538;   56.757;  -10.289;  660.677
462.128;   53.933;  -11.269;  664.934
462.717;   60.951;   -9.368;  710.326
463.307;   63.496;   -7.908;  705.846
463.897;   59.086;   -9.599;  656.942
464.486;   59.144;   -9.769;  837.128
465.076;   64.041;   -8.048;  733.776
465.666;   67.367;   -9.358;  652.900
466.255;   65.246;   -7.919;  785.651
466.845;   63.625;  -11.689;  666.749
467.434;   66.903;   -7.818;  725.873
468.023;   67.882;   -7.678;  658.357
468.613;   65.602;  -10.939;  713.946
469.202;   70.493;  -10.118;  646.507
469.791;   74.305;   -9.108;  737.811
470.381;   76.466;   -6.058;  742.813
470.970;   75.126;  -10.428;  711.099
471.559;   75.915;  -10.268;  733.291
472.148;   78.657;   -8.448;  675.737
472.738;   81.277;   -6.917;  765.466
473.327;   80.357;  -11.978;  637.529
473.916;   80.013;  -11.888;  737.446
474.505;   84.710;   -9.437;  751.703
475.094;   87.613;   -6.747;  806.570
475.683;   87.313;   -9.367;  797.699
476.272;   88.628;  -12.637;  730.632
476.861;   90.892;  -10.027;  706.754
477.449;   96.676;   -8.716;  728.487
478.038;   91.568;   -9.577;  692.513
478.627;   93.073;   -9.718;  714.852
479.216;   99.352;   -8.947;  769.441
479.805;  101.682;   -6.256;  783.375
480.393;  101.715;   -7.937; 1008.945
480.982;  101.250;   -7.717;  874.501
481.571;  107.592;   -9.266;  858.333
482.159;  107.953;   -7.636;  705.386
482.748;  107.608;   -9.667;  821.385
483.336;  113.179;  -10.376;  858.209
483.925;  113.268;   -7.147;  774.373
484.513;  119.910;   -7.996;  758.962
485.102;  117.204;  -10.027;  810.965
485.690;  125.473;  -10.446; 1011.050
486.278;  127.145;   -8.446;  979.329
486.867;  127.670;   -6.356;  809.662
487.455;  130.166;   -9.136;  898.229
488.043;  132.154;  -10.646;  748.361
488.631;  140.732;   -7.456; 1005.079
489.220;  144.530;   -6.636;  908.626
489.808;  144.373;  -11.036;  741.415
490.396;  153.695;  -10.246;  914.645
490.984;  160.354;   -8.556;  830.161
491.572;  171.501;   -5.886;  940.315
492.160;  179.022;   -9.486;  919.081
492.748;  191.926;  -10.976;  884.341
493.336;  213.225;   -8.776; 1019.693
493.924;  241.525;   -5.465;  958.077
494.512;  275.100;   -9.986; 1066.638
495.100;  323.259;  -10.636; 1103.280
495.687;  383.306;  -10.885; 1206.373
496.275;  434.061;   -8.126; 1150.796
496.863;  504.094;  -10.586; 1281.171
497.451;  618.714;  -11.926; 1386.805
498.038;  726.780;  -10.885; 1556.729
498.626;  821.421;   -6.315; 1741.407
499.214;  971.075;   -7.326; 2016.609
499.801; 1187.930;  -11.906; 2220.633
500.389; 1438.289;  -10.466; 2312.494
500.976; 1674.635;   -5.236; 2744.849
501.564; 2087.705;   -8.936; 3148.565
502.151; 2565.702;  -13.176; 3515.999
502.738; 3073.999;  -10.646; 3971.274
503.326; 3448.103;   -9.525; 4403.796
503.913; 3737.309;  -10.856; 5161.749
504.500; 4228.458;  -11.586; 5986.420
505.088; 4543.061;  -10.336; 6381.201
505.675; 5005.662;   -6.355; 6925.547
506.262; 5452.567;   -9.046; 7619.060
506.849; 5911.372;  -10.416; 8733.969
507.436; 6401.543;  -10.305; 9790.121
508.023; 6879.123;   -5.496; 9985.472
508.610; 7772.921;   -7.856;10434.618
509.197; 9101.083;  -10.097;11198.435
509.784;10509.389;  -10.886;12391.194
510.371;11802.797;   -9.315;13603.713
510.958;12616.932;   -9.936;14426.586
511.545;13254.000;   -9.326;15243.775
512.132;13895.427;  -10.075;15945.876
512.719;14119.626;   -7.796;16340.369
513.305;14999.299;  -10.606;18011.766
513.892;16317.774;  -11.486;19754.971
514.479;18074.078;   -9.126;20967.805
515.066;19648.770;   -6.026;22299.793
515.652;19888.416;   -8.466;22908.660
516.239;20858.215;  -10.886;23798.875
516.825;23111.498;  -11.496;25567.275
517.412;25223.174;   -5.796;28154.959
517.998;27067.656;  -10.506;28344.111
518.585;26691.375;  -10.076;27134.219
519.171;25384.164;   -8.315;27268.576
519.758;26015.738;   -8.596;28964.129
520.344;27198.217;   -8.466;30664.494
520.930;29664.896;  -11.006;32550.605
521.516;30008.152;  -10.495;35422.895
522.103;28769.553;   -5.526;38280.004
522.689;29257.113;   -8.746;37835.117
523.275;30996.596;  -11.376;37288.613
523.861;33072.094;  -11.156;37281.395
524.447;36548.836;   -8.135;37846.949
525.033;37494.523;   -7.896;38321.949
525.619;36730.668;  -12.476;38579.285
526.205;36753.711;   -9.516;40622.875
526.791;36487.297;   -6.926;42258.836
527.377;37761.906;   -8.346;42966.902
527.963;39388.645;   -8.717;42018.949
528.549;38339.277;  -11.016;42476.828
529.135;38708.293;   -8.536;41854.852
529.721;38295.184;   -9.666;41237.711
530.306;36598.305;  -10.066;41259.445
530.892;37006.215;  -11.356;41506.047
531.478;36547.309;   -6.596;43559.613
532.063;37038.977;   -8.836;47695.563
532.649;40345.465;  -10.047;50808.324
533.235;41637.199;   -9.746;51787.500
533.820;40808.953;   -6.566;52145.035
534.406;40164.785;  -10.817;51133.488
534.991;43085.500;   -9.416;49996.805
535.576;44526.402;   -9.036;48882.852
536.162;44786.578;   -6.156;46942.285
536.747;45704.590;  -11.607;45711.746
537.333;46048.426;  -11.787;48510.180
537.918;46091.410;  -12.437;50439.891
538.503;46789.848;   -7.196;50863.711
539.088;44579.727;  -10.556;50906.922
539.673;43160.016;   -8.767;52621.965
540.259;44527.297;  -10.026;52368.094
540.844;46373.621;   -7.416;50879.109
541.429;44950.504;   -9.467;52077.777
542.014;44562.855;   -9.527;52716.695
542.599;47241.063;   -9.946;52363.281
543.184;49964.156;   -7.927;53187.137
543.769;48233.148;   -9.297;54697.605
544.354;44816.359;  -10.127;53913.914
544.938;43271.367;   -9.267;49680.164
545.523;45572.609;   -6.506;47386.277
546.108;48918.477;   -9.787;49151.949
546.693;48633.762;  -11.587;51384.637
547.278;48770.617;  -10.986;51853.254
547.862;45461.684;   -8.206;51173.750
548.447;42762.953;  -10.067;51691.395
549.031;43562.891;   -9.637;52456.703
549.616;44819.336;   -9.926;52714.516
550.201;43868.086;   -6.347;52414.598
550.785;42712.086;   -7.917;52355.059
551.370;43384.613;  -10.867;54589.453
551.954;44470.941;   -9.047;58267.348
552.538;46214.285;   -7.827;59062.176
553.123;46242.547;  -10.287;58115.285
553.707;42081.930;  -12.178;56556.285
554.291;42632.781;   -8.717;56201.668
554.876;45630.031;   -7.457;55335.762
555.460;46501.391;  -10.387;54155.703
556.044;47306.496;   -9.618;53721.484
556.628;46391.156;  -11.567;53731.016
557.212;44338.887;   -8.097;54312.531
557.796;45470.422;  -11.077;53797.773
558.380;43854.145;  -11.108;56145.984
558.964;42729.898;   -9.057;57277.930
559.548;42855.379;   -6.977;56459.641
560.132;41935.859;  -11.457;54434.543
560.716;40684.555;  -11.378;54800.617
561.300;41490.285;   -9.577;57606.945
561.884;43605.230;   -7.127;58972.445
562.467;44709.402;   -7.118;57327.570
563.051;44689.473;  -13.358;54962.434
563.635;42150.488;  -10.178;52594.473
564.219;41188.523;   -7.837;50610.410
564.802;40672.070;  -11.398;49551.180
565.386;41707.074;  -12.788;48370.953
565.969;42443.168;   -9.077;48178.871
566.553;42741.520;   -6.207;49957.305
567.136;40275.410;   -8.568;50369.594
567.720;39370.461;  -11.868;49492.004
568.303;39362.027;   -8.268;50616.352
568.887;38161.043;   -8.698;50727.148
569.470;37953.398;   -6.808;51698.379
570.053;36479.316;  -13.188;52122.078
570.637;35166.094;  -12.037;52536.438
571.220;34631.887;   -8.577;51186.098
571.803;34990.043;   -8.498;51032.762
572.386;36708.383;  -10.498;49609.887
572.969;37136.469;   -9.388;48285.926
573.552;32896.633;   -8.338;47624.285
574.135;31428.451;   -8.518;45498.641
574.718;29622.189;  -13.628;41970.434
575.301;29842.406;  -10.893;41447.137
575.884;30062.623;   -8.158;40923.836
576.467;34756.504;  -10.328;45267.723
577.050;33323.543;  -13.058;48175.543
577.633;32358.795;   -9.458;47729.328
578.216;33965.633;   -8.928;47579.793
578.799;34905.563;   -9.358;47820.996
579.381;34185.566;  -11.388;48115.551
579.964;31479.406;  -11.718;47333.766
580.547;31506.531;   -8.588;46668.969
581.129;32860.363;   -8.859;44466.141
581.712;33204.109;  -10.729;44164.922
582.294;34906.391;  -11.118;46477.855
582.877;32719.197;   -5.218;48244.254
583.459;32807.578;   -8.679;47437.895
584.042;34632.633;  -10.709;46943.219
584.624;36728.066;  -11.669;46792.227
585.206;35432.945;   -8.218;46557.250
585.789;34071.496;  -10.569;45793.773
586.371;34408.781;  -11.859;43836.391
586.953;33176.184;  -10.719;42972.492
587.536;35041.906;   -7.198;42487.211
588.118;36070.188;   -8.720;42086.414
588.700;35263.227;  -10.439;43389.930
589.282;35128.246;   -9.198;43646.039
589.864;34105.121;   -9.199;43438.109
590.446;31918.213;  -11.319;43151.926
591.028;31380.910;  -11.159;42781.867
591.610;30919.314;  -11.779;42839.098
592.192;27481.396;   -7.668;42820.402
592.774;27725.088;  -11.949;40724.277
593.356;27826.752;  -12.129;39874.789
593.937;24900.471;  -10.669;39980.648
594.519;25368.844;   -6.509;42069.633
595.101;28107.809;  -10.849;42976.031
595.683;29056.295;  -11.679;44084.441
596.264;29925.441;   -9.049;43478.797
596.846;32408.129;   -8.849;43803.672
597.427;32876.395;   -9.570;42986.934
598.009;34121.055;  -12.620;42832.219
598.591;33345.879;  -10.039;42580.086
599.172;32333.123;  -10.369;43061.805
599.753;30737.709;   -9.140;41691.469
600.335;30842.896;  -11.430;40692.520
600.916;31120.635;   -9.939;39982.422
601.498;29592.938;   -8.479;40318.617
602.079;28390.637;  -10.920;40670.609
602.660;30452.797;  -11.480;41450.898
603.241;32140.004;  -11.699;41137.738
603.823;32465.127;   -9.579;38868.797
604.404;32184.381;  -10.620;38182.785
604.985;30864.283;  -10.450;38078.047
605.566;30305.559;   -9.129;38056.633
606.147;30215.449;   -7.510;37020.418
606.728;31356.463;  -10.660;37883.359
607.309;31970.592;  -11.740;38748.273
607.890;31416.467;   -9.759;38850.230
608.471;30161.215;   -8.250;37457.918
609.051;30769.816;   -9.240;36066.457
609.632;28801.088;  -12.120;35991.074
610.213;27377.875;   -9.110;37402.641
610.794;29256.883;   -8.030;38383.363
611.374;31881.490;   -8.110;40562.387
611.955;31658.559;  -13.560;38533.727
612.536;28999.545;  -11.400;36951.789
613.116;27816.133;   -8.070;37197.891
613.697;29882.061;  -10.830;38411.125
614.277;31327.359;  -11.641;38673.938
614.858;30622.475;  -13.310;37075.863
615.438;29078.611;   -7.460;35092.906
616.019;27560.801;   -7.601;33666.301
616.599;28226.295;  -12.020;34189.023
617.179;29923.555;  -11.780;36952.047
617.760;32793.168;   -8.570;39582.574
618.340;32967.328;  -11.471;38943.977
618.920;31513.586;  -11.170;37594.156
619.500;33266.215;  -11.071;37866.938
620.080;33287.281;   -7.750;37869.043
620.660;31403.531;  -12.711;36868.617
621.241;29837.967;  -10.211;36352.309
621.821;28879.371;  -10.961;35459.520
622.401;28161.775;   -7.720;35207.414
622.980;29251.936;   -8.981;35980.422
623.560;29627.453;   -9.331;37351.328
624.140;28529.426;   -9.850;34388.582
624.720;26029.070;   -7.451;32368.764
625.300;24362.215;   -9.070;32638.629
625.880;27692.951;  -12.601;34599.035
626.459;29543.123;  -11.751;36831.738
627.039;30622.699;   -9.281;38299.098
627.619;32505.871;   -8.801;38289.574
628.198;31497.158;  -12.071;37220.695
628.778;30299.523;   -9.461;37632.563
629.357;31293.453;   -8.491;38003.012
629.937;31400.615;   -9.721;38402.039
630.516;31637.643;   -9.951;37868.801
631.096;32016.129;  -11.731;35760.410
631.675;33508.750;   -8.572;35225.219
632.254;33059.773;  -11.282;35130.289
632.834;32274.844;  -13.322;35794.570
633.413;32108.176;  -10.301;35788.922
633.992;31387.516;   -8.582;34532.863
634.571;32726.814;   -8.352;33590.113
635.151;32661.641;  -11.912;34943.863
635.730;32343.158;  -10.511;35352.523
636.309;34600.434;   -7.731;35366.605
636.888;32229.887;   -9.952;36165.637
637.467;30618.156;  -11.672;37515.902
638.046;30745.971;   -8.901;39288.695
638.625;31823.418;   -7.912;38279.699
639.204;32042.592;  -10.022;37741.598
639.782;29946.859;  -12.252;38364.551
640.361;28088.660;  -10.041;36740.621
640.940;27284.184;  -11.161;34950.082
641.519;28497.039;   -9.701;34137.398
642.097;30359.340;  -11.271;35654.258
642.676;32118.904;   -8.651;35637.957
643.255;33399.578;   -8.711;36567.074
643.833;30920.543;   -9.581;37809.434
644.412;28554.105;  -13.711;37337.293
644.990;30504.662;  -11.811;37018.531
645.569;32999.645;   -9.411;36518.469
646.147;32043.635;  -10.291;36186.430
646.726;30973.900;  -12.401;36267.688
647.304;30988.646;  -10.411;36647.625
647.882;30248.398;   -9.651;39286.742
648.461;31744.168;   -9.631;39157.703
649.039;34930.969;  -11.881;35412.883
649.617;34981.691;   -9.661;34744.918
650.195;32818.906;   -9.301;35403.098
650.773;31556.795;  -10.511;35053.797
651.352;30595.395;  -11.521;33756.816
651.930;28567.713;  -12.211;31868.773
652.508;25799.967;   -9.171;33121.551
653.086;26767.141;   -9.371;33564.793
653.663;32359.705;  -13.161;34054.668
654.241;35817.703;  -13.031;35693.309
654.819;36763.754;   -9.371;36422.906
655.397;36814.922;  -10.511;38213.484
655.975;33356.406;  -10.371;39507.625
656.553;30207.412;  -10.051;39498.223
657.130;28839.600;  -10.061;40395.480
657.708;26984.191;   -9.561;39242.020
658.286;24210.580;  -11.511;38920.020
658.863;26150.242;  -10.261;40202.898
659.441;29898.135;   -7.531;39677.938
660.018;31995.695;   -9.501;40413.355
660.596;31192.875;  -13.301;39931.414
661.173;30844.033;  -11.211;39604.531
661.750;32504.164;   -9.951;39700.070
662.328;31673.930;   -9.390;39292.809
662.905;30535.064;  -11.330;38235.648
663.482;27977.049;   -9.050;36212.305
664.060;25135.322;   -8.240;35944.945
664.637;25888.586;  -10.050;35170.785
665.214;29178.660;  -11.760;34197.523
665.791;29724.910;  -10.530;34549.520
666.368;28662.191;   -9.690;35118.578
666.945;30108.305;   -9.320;36019.418
667.522;30651.895;  -11.860;36048.438
668.099;31945.479;  -10.770;36243.914
668.676;32067.953;   -6.260;35958.875
669.253;34365.953;   -7.000;37384.730
669.830;35590.883;  -10.190;36779.629
670.407;32608.307;   -9.550;35231.289
670.984;33080.000;   -9.260;35544.270
671.560;30047.391;   -9.280;35466.867
672.137;25879.012;  -11.810;34280.863
672.714;28048.320;  -11.490;34632.863
673.290;31710.957;   -7.740;35135.422
673.867;31263.652;  -10.660;36114.480
674.443;31359.893;  -12.230;36152.859
675.020;31087.506;  -10.450;35327.238
675.596;29849.432;   -9.260;35795.176
676.173;28903.307;  -10.780;35430.355
676.749;28579.352;  -13.690;33549.516
677.326;28328.193;  -11.980;32210.012
677.902;27811.709;   -8.630;32068.871
678.478;29446.328;  -10.730;32583.891
679.054;30099.600;  -10.520;32088.928
679.631;29571.822;  -11.920;30978.848
680.207;29579.244;   -7.490;33160.887
680.783;31385.127;   -9.860;35570.363
681.359;32929.719;  -13.380;36125.184
681.935;33718.855;  -12.480;35240.922
682.511;32820.957;   -7.900;34429.961
683.087;31559.453;   -7.710;34463.680
683.663;31087.525;  -11.480;34648.898
684.239;29884.238;  -14.090;34546.457
684.815;28701.154;   -7.560;35586.375
685.390;29255.693;   -9.910;35821.895
685.966;30881.137;  -11.159;35085.871
686.542;32381.074;  -11.169;34198.230
687.118;33511.457;   -5.959;32847.707
687.693;32397.260;  -10.329;32794.027
688.269;33225.941;  -12.059;33072.367
688.844;33365.219;  -10.909;33141.664
689.420;30726.303;   -8.019;33965.742
689.995;29611.811;   -8.399;34655.523
690.571;30774.832;  -10.949;33576.742
691.146;30054.141;   -9.619;32657.219
691.722;28644.350;   -8.999;32526.979
692.297;28078.111;  -11.589;33014.617
692.872;28066.025;  -11.739;34012.254
693.448;30896.832;  -11.059;34237.434
694.023;31261.305;  -10.139;34142.672
694.598;29321.465;   -9.029;34132.031
695.173;30497.668;  -13.319;34205.250
695.748;30770.326;  -10.169;32882.488
696.323;28568.250;   -8.339;32864.906
696.898;27217.584;   -8.169;33170.004
697.473;27875.783;  -12.309;32432.984
698.048;27916.295;  -10.989;31649.303
698.623;26765.680;   -9.329;30778.141
699.198;27801.563;   -9.849;31140.119
699.773;28639.281;  -12.329;31764.299
700.348;29864.254;  -10.389;31780.816
700.922;30119.930;   -9.269;32046.375
701.497;30932.898;   -9.329;32603.574
702.072;32025.408;  -10.789;34799.871
702.646;31094.668;  -10.839;35793.172
703.221;30770.617;   -9.099;35201.590
703.795;32756.410;  -10.939;34764.527
704.370;30141.523;  -12.859;34307.367
704.944;28523.104;  -11.559;33509.887
705.519;29643.221;   -7.939;31388.584
706.093;31610.352;  -10.499;31340.104
706.668;33419.852;  -11.289;32630.281
707.242;32639.568;  -11.509;32728.779
707.816;30748.396;   -9.639;32947.238
708.390;29691.725;  -11.429;33277.855
708.965;29391.217;  -11.869;33834.336
709.539;31098.158;  -11.689;33709.273
710.113;31360.914;  -10.478;33044.313
710.687;30444.000;  -10.228;31953.992
711.261;29756.689;  -13.698;30505.949
711.835;30157.264;  -13.378;30262.369
712.409;29006.549;   -9.698;31254.447
712.983;28559.748;  -11.898;32754.986
713.557;30924.822;  -15.138;34018.824
714.131;29161.174;  -14.098;34579.625
714.704;28720.758;   -9.958;33890.262
715.278;30820.539;  -10.028;33531.102
715.852;29294.107;  -11.148;33601.660
716.425;28128.463;   -9.068;33515.117
716.999;27111.500;  -10.038;33185.555
717.573;26773.139;   -9.798;33905.996
718.146;26059.943;  -12.378;35199.293
718.720;26287.391;  -11.918;35060.551
719.293;26539.635;   -8.088;34973.230
719.867;28779.281;  -10.888;36394.449
720.440;30866.563;  -11.938;36663.008
721.013;31653.375;  -12.818;35102.426
721.587;29365.840;  -10.298;33985.266
722.160;27290.408;  -10.048;33524.965
722.733;26226.785;  -12.108;32987.043
723.306;26446.590;  -10.818;33066.301
723.880;28378.842;   -8.908;33399.500
724.453;28096.939;   -9.878;33468.297
725.026;28598.998;  -11.188;33816.637
725.599;31216.791;  -11.678;32797.996
726.172;30266.506;   -9.618;33187.434
726.745;27631.453;   -8.258;35136.613
727.318;27258.400;  -12.978;35751.730
727.891;26952.607;  -12.148;35890.430
728.463;26332.922;   -8.968;34822.090
729.036;26268.578;  -10.188;32895.086
729.609;26140.488;  -11.788;31823.225
730.182;24072.445;  -11.788;31445.283
730.754;22719.979;  -10.268;32373.223
731.327;23109.307;   -9.998;33676.820
731.900;24495.102;  -12.228;33417.000
732.472;24229.738;  -13.848;31978.498
733.045;23118.076;   -8.698;30368.777
733.617;22690.604;  -10.607;30574.215
734.190;24717.898;  -11.507;31280.975
734.762;25628.488;  -13.647;31674.412
735.334;26893.613;   -9.767;31247.291
735.907;27266.316;   -9.897;29876.211
736.479;26952.531;  -11.637;29808.488
737.051;27974.521;   -9.567;30233.547
737.623;27436.477;   -8.187;31469.086
738.195;26119.293;  -11.187;31784.225
738.768;24723.883;  -12.337;32120.523
739.340;23078.119;  -12.227;32094.342
739.912;22408.258;  -11.057;31312.680
740.484;22486.023;  -10.207;31946.238
741.056;22143.479;  -10.047;32984.059
741.628;23146.322;  -13.627;33897.715
742.199;24123.621;   -7.177;33213.016
742.771;26507.371;  -10.797;31369.113
743.343;27454.197;  -11.997;31865.473
743.915;27066.584;  -12.867;32388.631
744.487;24470.973;   -7.617;31079.568
745.058;21700.082;   -9.557;30570.107
745.630;22547.207;   -9.877;29970.127
746.201;23933.141;  -14.177;29186.766
746.773;24412.816;   -9.237;28805.723
747.344;22664.301;   -9.847;29591.223
747.916;21002.318;  -11.657;31412.201
748.487;21978.887;  -10.587;32194.898
749.059;23692.225;   -8.707;32533.719
749.630;24102.713;  -10.537;32158.518
750.201;23518.174;  -11.687;30855.395
750.773;22272.693;  -11.647;28622.555
751.344;22106.652;   -7.147;28405.732
751.915;24143.109;   -9.757;28461.551
752.486;25189.740;  -12.427;27842.850
753.057;24222.705;  -12.227;27845.008
753.628;24255.713;  -10.417;27728.107
754.199;23669.195;  -11.767;27381.086
754.770;23354.814;  -11.187;25882.203
755.341;22381.787;  -10.507;25886.184
755.912;20762.842;   -9.387;26050.861
756.483;19239.613;  -10.647;26798.779
757.054;19623.924;  -11.837;27048.238
757.625;19691.582;  -12.716;26294.838
758.195;19488.301;   -9.666;26142.076
758.766;19682.627;   -8.656;26392.234
759.337;19117.854;  -12.856;26334.594
759.907;18905.971;  -13.366;27579.652
760.478;18804.953;   -8.576;28352.770
761.048;19846.105;  -10.526;27325.088
761.619;19865.662;  -11.116;26460.428
762.189;18450.182;  -12.136;26029.826
762.760;18186.498;   -9.456;26430.145
763.330;18728.494;   -7.136;26670.902
763.900;18916.340;  -11.786;26603.021
764.471;18298.863;  -11.546;25542.740
765.041;17294.055;   -8.096;24358.459
765.611;16626.547;   -8.876;23991.297
766.181;16737.840;  -12.196;24470.236
766.751;16506.443;  -11.636;24845.975
767.321;17361.959;  -10.156;24533.633
767.891;16700.027;  -11.766;24916.492
768.461;17009.311;  -14.936;24776.771
769.031;18204.967;  -12.356;24757.988
769.601;18740.650;   -7.526;24181.088
770.171;18392.365;  -10.766;23670.387
770.741;17606.711;  -13.176;22960.045
771.311;17212.537;  -10.616;22917.523
771.880;17603.580;   -9.576;23562.941
772.450;17277.125;  -10.336;24216.500
773.020;16934.238;  -13.516;24140.398
773.589;17527.475;  -13.466;24414.857
774.159;17310.549;   -8.686;23858.717
774.729;15991.357;   -9.476;22942.135
775.298;14183.403;  -13.666;22324.033
775.867;13901.983;  -11.716;21140.313
776.437;14081.803;   -9.906;20838.092
777.006;13363.448;  -12.166;20599.510
777.576;12867.327;  -12.356;20508.809
778.145;12856.431;  -11.646;20732.947
778.714;13336.858;   -8.226;21062.465
779.283;14308.599;   -9.556;20949.664
779.853;14809.076;  -14.116;20508.623
780.422;14159.204;  -11.506;20649.082
780.991;13719.746;   -9.556;21527.520
781.560;13508.410;   -9.095;22632.658
782.129;13440.182;  -12.135;23048.277
782.698;13301.791;  -10.865;23438.555
783.267;12929.707;   -9.335;23267.734
783.836;13084.508;  -11.045;22415.133
784.404;13772.874;  -13.865;20443.152
784.973;13026.813;  -13.095;19699.150
785.542;11700.348;  -11.575;19763.828
786.111;11097.020;   -9.705;20341.408
786.679;11854.814;  -12.105;20207.967
787.248;12095.960;  -12.455;19516.465
787.817;11688.996;  -11.535;18900.363
788.385;11771.784;   -9.765;17879.121
788.954;11872.411;  -14.005;17658.301
789.522;11357.412;  -11.955;17788.879
790.090;11612.904;  -10.135;18118.277
790.659;12487.937;  -10.975;18338.736
791.227;12316.870;  -13.375;18508.615
791.795;11650.466;  -12.375;17898.254
792.364;11170.984;  -10.725;17295.133
792.932;11333.057;   -9.715;16822.051
793.500;11519.088;  -12.675;17040.148
794.068;11291.777;  -13.495;17179.787
794.636;10040.143;  -10.885;16664.246
795.204; 8965.852;  -11.045;16524.545
795.772; 9750.517;  -13.175;17274.564
796.340;10954.592;  -12.445;17891.002
796.908;10723.157;   -9.735;17648.561
797.476;11102.207;   -9.815;17064.080
798.044;11861.943;  -13.985;16672.777
798.612;11596.762;  -13.115;17023.996
799.180;10298.465;  -10.185;16561.615
799.747; 9347.110;   -9.055;15962.773
800.315; 8840.841;  -12.385;15296.992
800.883; 9143.444;  -15.035;14801.771
801.450; 9404.515;  -10.365;14534.430
802.018; 9480.776;   -9.855;14173.248
802.585; 9602.865;  -11.905;14029.547
803.153; 9161.931;  -11.585;13836.846
803.720; 8552.126;   -9.095;13567.324
804.287; 8672.519;   -9.135;13360.622
804.855; 9015.927;  -11.604;13681.981
805.422; 9140.430;  -11.794;13536.560
805.989; 8980.916;  -10.734;13355.958
806.556; 8524.728;  -10.444;13747.896
807.124; 8409.640;  -12.764;13987.376
807.691; 8990.639;  -12.964;14038.674
808.258; 9328.445;  -11.134;14120.152
808.825; 9540.518;   -9.854;13860.111
809.392; 9220.744;  -10.504;13268.790
809.959; 8701.759;  -13.054;12680.389
810.526; 8506.783;   -8.294;12427.308
811.093; 8178.102;   -8.394;12030.105
811.659; 7433.363;  -12.304;11653.664
812.226; 7254.125;  -13.944;11637.183
812.793; 7774.902;  -10.484;11611.521
813.360; 7876.676;  -10.144;11885.181
813.926; 7204.093;  -11.684;12770.539
814.493; 6619.566;  -13.644;12677.638
815.060; 6498.868;   -9.724;11974.336
815.626; 6816.791;   -9.854;11594.715
816.193; 6801.320;  -13.254;11579.474
816.759; 6752.691;  -13.204;11666.972
817.325; 6528.547;   -9.434;11325.530
817.892; 6228.830;  -10.134;11105.369
818.458; 6175.128;  -13.474;10843.928
819.024; 6167.827;  -11.854;10714.406
819.591; 6493.655;  -10.244;10469.165
820.157; 6672.231;  -10.704;10235.523
820.723; 6984.217;  -12.324;10847.563
821.289; 7362.280;   -9.444;11040.980
821.855; 7336.399;   -8.374;10357.100
822.421; 6895.061;  -10.234; 9978.918
822.987; 6663.433;  -13.294; 9754.177
823.553; 6518.011;  -10.884;10065.755
824.119; 6109.316;   -8.884;10036.294
824.685; 5958.966;   -6.784;10029.192
825.251; 5903.894;  -12.004;10199.230
825.816; 6018.731;  -11.474; 9820.189
826.382; 5799.491;   -9.174; 9297.248
826.948; 5517.022;   -9.214; 9381.347
827.513; 5303.069;  -10.774; 9450.726
828.079; 5244.579;  -11.924; 9472.444
828.645; 5286.063;  -10.543; 9292.643
829.210; 5430.899;  -10.533; 9065.341
829.776; 5450.180;  -10.753; 9132.620
830.341; 5417.306;  -10.173; 9092.878
830.906; 5569.170;  -10.743; 9078.557
831.472; 5450.310;  -11.113; 8534.535
832.037; 4936.156;  -10.603; 8677.874
832.602; 4848.617;  -13.323; 8628.692
833.167; 5223.851;  -10.823; 8879.031
833.733; 5188.777;  -10.113; 9189.790
834.298; 4904.681;  -13.583; 9052.608
834.863; 4754.554;  -12.703; 8895.087
835.428; 4611.704;  -10.523; 8824.266
835.993; 4534.828;   -6.963; 8845.385
836.558; 4637.644;  -10.763; 8888.563
837.123; 4781.071;   -9.903; 8966.582
837.688; 4668.964;   -9.913; 8617.860
838.253; 4540.771;  -10.283; 8590.699
838.817; 4692.968;  -12.963; 8443.797
839.382; 4850.036;  -14.243; 8799.356
839.947; 4704.227;  -10.733; 8810.595
840.511; 4767.342;   -9.383; 8796.394
841.076; 4785.354;  -12.563; 8347.231
841.641; 4593.936;  -12.953; 8224.330
842.205; 4318.966;   -7.043; 8223.349
842.770; 4273.505;   -8.163; 8622.107
843.334; 4316.070;  -12.503; 8410.386
843.898; 4285.868;  -11.693; 8337.465
844.463; 4182.307;  -10.203; 8506.283
845.027; 4076.719;   -9.533; 8280.962
845.591; 4113.492;  -13.443; 8231.141
846.156; 4014.851;  -13.143; 7969.179
846.720; 3801.287;   -9.433; 7768.278
847.284; 3510.750;  -11.033; 7630.957
847.848; 3368.260;  -10.403; 7472.395
848.412; 3399.525;  -11.553; 7437.394
848.976; 3589.371;   -8.393; 7674.592
849.540; 3649.472;   -8.713; 7836.011
850.104; 3646.979;  -12.463; 7913.669
850.668; 3778.698;  -12.973; 7694.508
851.232; 3804.448;  -10.793; 7756.887
851.796; 3712.751;  -10.662; 7926.545
852.359; 3727.343;  -13.082; 7827.844
852.923; 3461.587;  -12.192; 7641.163
853.487; 3367.714;  -11.912; 7342.501
854.050; 3508.342;  -10.892; 7042.820
854.614; 3458.118;  -13.992; 7151.338
855.177; 3325.640;  -11.732; 7105.077
855.741; 3261.928;   -8.962; 6989.675
856.304; 3167.679;   -9.442; 6596.634
856.868; 2940.816;  -14.192; 6356.272
857.431; 2728.124;  -12.702; 6468.571
857.995; 2769.604;   -9.942; 6373.210
858.558; 2815.623;   -9.112; 6324.448
859.121; 2634.910;  -12.932; 6408.327
859.684; 2555.334;  -13.442; 6347.886
860.247; 2962.503;  -10.632; 6321.264
860.810; 3303.063;  -11.272; 6301.903
861.374; 3321.708;   -9.832; 6607.881
861.937; 3293.742;  -11.762; 6408.200
862.500; 3142.144;   -9.722; 6572.639
863.062; 2820.813;  -10.512; 6387.297
863.625; 2709.907;  -11.232; 6190.836
864.188; 2712.774;  -14.112; 5807.254
864.751; 2723.612;  -11.302; 5682.413
865.314; 2846.705;  -10.112; 5547.492
865.876; 2884.225;  -12.182; 5500.150
866.439; 2806.657;  -10.722; 5415.909
867.002; 2660.761;   -9.252; 5501.567
867.564; 2552.021;   -9.572; 5413.946
868.127; 2421.412;  -13.142; 5160.325
868.689; 2135.516;  -12.902; 5133.183
869.252; 1992.622;   -9.732; 5252.382
869.814; 2003.099;   -9.432; 5297.141
870.377; 2117.785;  -11.552; 5390.919
870.939; 2107.478;   -9.052; 5599.898
871.501; 2024.534;  -10.982; 5248.336
872.063; 2043.871;  -12.292; 4854.235
872.626; 2048.146;  -14.912; 4817.074
873.188; 2060.972;  -13.112; 4987.732
873.750; 2016.282;  -13.442; 4868.651
874.312; 2077.242;   -9.402; 4779.330
874.874; 2211.151;  -11.062; 4866.348
875.436; 2084.506;  -13.931; 4718.887
875.998; 1791.783;   -9.561; 4660.005
876.560; 1639.735;  -11.321; 4462.964
877.122; 1636.737;  -12.221; 4145.042
877.683; 1613.681;  -12.191; 4056.481
878.245; 1694.225;  -12.101; 3950.740
878.807; 1838.400;   -8.971; 4058.958
879.369; 1876.768;  -12.071; 3954.677
879.930; 1807.107;  -14.621; 3941.495
880.492; 1632.143;  -10.311; 4067.014
881.053; 1483.306;  -10.901; 3859.633
881.615; 1470.507;  -14.411; 3776.071
882.176; 1499.470;  -13.761; 3734.750
882.738; 1508.155;   -9.181; 3678.489
883.299; 1466.261;  -11.791; 3405.407
883.860; 1387.755;  -13.121; 3351.106
884.422; 1287.497;  -11.211; 3394.044
884.983; 1216.362;  -10.091; 3166.443
885.544; 1194.005;   -8.461; 3189.802
886.105; 1133.405;  -12.361; 3160.360
886.666; 1052.537;  -14.141; 3093.059
887.227; 1024.275;  -11.361; 2941.957
887.788; 1043.269;  -11.401; 2974.836
888.349;  996.935;  -13.791; 2721.214
888.910;  896.807;  -13.191; 2696.493
889.471;  789.279;   -9.881; 2560.172
890.032;  720.739;   -9.881; 2558.190
890.593;  721.587;  -10.371; 2567.669
891.153;  719.873;  -13.301; 2460.307
891.714;  654.814;  -11.431; 2372.046
892.275;  605.682;  -11.291; 2309.505
892.835;  595.660;  -11.471; 2382.543
893.396;  585.370;  -11.541; 2295.502
893.956;  575.437;  -11.181; 2162.420
894.517;  557.033;  -11.741; 2125.439
895.077;  508.338;  -11.671; 2086.978
895.638;  457.698;  -11.311; 2126.316
896.198;  435.984;   -9.831; 1838.275
896.758;  438.154;   -8.421; 1892.813
897.319;  431.322;  -12.351; 1792.232
897.879;  411.250;  -13.511; 1762.751
898.439;  385.831;  -12.001; 1661.149
898.999;  362.947;  -10.180; 1781.468
899.559;  348.263;  -12.030; 1703.347
900.119;  338.608;  -15.710; 1537.525
900.679;  317.983;   -8.900; 1638.384
901.239;  289.626;   -8.340; 1527.902
901.799;  276.723;  -13.910; 1456.441
902.359;  266.866;  -13.460; 1357.140
902.919;  262.294;  -11.490; 1331.118
903.479;  260.041;  -12.110; 1317.257
904.038;  252.131;  -11.720; 1262.595
904.598;  235.715;  -13.610; 1152.034
905.158;  223.776;  -11.040; 1240.893
905.717;  216.882;  -10.900; 1233.691
906.277;  213.252;  -15.080; 1217.330
906.836;  209.855;  -13.380; 1222.408
907.396;  206.911;  -10.780; 1193.047
907.955;  199.903;   -8.500; 1182.526
908.515;  192.984;  -12.760; 1099.364
909.074;  189.082;  -11.900; 1092.863
909.633;  186.793;   -8.950; 1069.121
910.192;  183.612;   -8.770; 1196.460
910.752;  178.481;  -12.390; 1029.960
911.311;  174.929;  -13.680; 1009.780
911.870;  169.871;  -12.370;  971.460
912.429;  166.183;  -10.900; 1094.080
912.988;  163.484;  -11.690; 1081.060
913.547;  160.531;  -13.240;  940.380
914.106;  158.653;  -11.990;  999.420
914.665;  159.207;   -9.990;  984.020
915.224;  157.440;  -12.880; 1035.760
915.782;  156.660;  -12.350;  922.560
916.341;  156.221;   -9.110; 1049.840
916.900;  155.195;   -9.270;  925.260
917.458;  152.093;  -13.240;  884.220
918.017;  150.327;  -13.550;  942.600
918.576;  149.803;  -12.320;  904.440
919.134;  148.819;  -11.490;  837.980
919.693;  147.811;  -13.670;  893.060
920.251;  145.977;  -15.470;  876.500
920.809;  144.659;  -11.290;  839.580
921.368;  145.615;  -10.210;  885.360
921.926;  144.996;  -12.140;  842.940
922.484;  144.326;  -13.080;  903.360
923.042;  143.418;  -11.720;  880.340
923.601;  144.716;   -7.480;  998.680
924.159;  144.316;  -11.570;  935.560
924.717;  142.717;  -13.840;  841.080
925.275;  144.926;  -10.640;  903.240
925.833;  143.147;  -11.540;  779.320
926.391;  143.855;  -12.960;  938.380
926.949;  143.758;  -14.130;  857.680
927.506;  144.306;  -11.750;  903.500
928.064;  142.512;  -10.250;  877.580
928.622;  141.505;  -13.030;  880.100
929.180;  143.580;  -13.400;  814.180
929.737;  145.848;  -10.700;  808.540
930.295;  147.093;  -10.070;  928.480
930.853;  146.381;  -11.960;  849.100
931.410;  145.181;  -13.120;  821.120
931.968;  146.451;  -10.770;  940.660
932.525;  146.893;  -10.680;  909.380
933.082;  150.507;  -13.130;  811.440
933.640;  156.437;  -13.210;  925.900
934.197;  157.030;  -11.060;  886.360
934.754;  157.118;   -9.580;  897.780
935.312;  157.628;  -14.000;  863.340
935.869;  161.373;  -10.710; 1012.980
936.426;  160.197;   -9.860;  872.800
936.983;  158.812;   -9.710;  889.020
937.540;  156.649;  -13.990;  838.280
938.097;  156.716;  -14.040;  940.120
938.654;  160.243;  -10.310;  898.860
939.211;  160.505;  -10.560;  952.480
939.768;  158.982;  -13.900;  915.420
940.324;  160.390;  -14.760;  904.200
940.881;  164.184;  -10.370;  878.500
941.438;  171.073;   -8.260; 1021.200
941.995;  172.933;  -12.540;  992.560
942.551;  172.001;  -14.670;  875.620
943.108;  171.632;  -10.450;  937.920
943.664;  172.646;  -10.750;  869.340
944.221;  178.399;  -11.550; 1088.140
944.777;  180.089;  -14.770;  869.680
945.334;  179.905;  -12.820;  884.840
945.890;  178.323;  -10.130;  946.480
946.446;  175.318;  -13.470;  947.020
947.003;  175.298;  -12.120;  964.940
947.559;  175.392;   -9.980; 1063.040
948.115;  171.462;   -9.080; 1026.540
948.671;  169.456;  -10.830;  967.300
949.227;  167.079;  -12.440;  859.560
949.783;  167.721;  -12.910;  858.900
950.339;  169.536;  -10.270;  991.000
950.895;  171.350;  -13.630; 1023.840
951.451;  169.345;  -15.100;  925.280
952.007;  169.875;  -11.330;  998.540
952.563;  167.442;  -10.580;  937.780
953.118;  162.198;  -13.440;  904.940
953.674;  160.512;  -12.710;  935.780
954.230;  162.386;  -10.350;  949.640
954.785;  166.816;   -9.190;  936.640
955.341;  169.024;  -11.200;  998.160
955.897;  165.020;  -16.560;  834.660
956.452;  162.625;  -12.570;  953.840
957.008;  160.232;   -7.970; 1083.640
957.563;  159.912;  -11.940; 1009.540
958.118;  157.837;  -13.450;  877.700
958.674;  156.678;  -12.030;  946.780
959.229;  156.848;   -9.410; 1013.980
959.784;  155.516;  -12.000;  832.400
960.339;  153.087;  -14.780; 1001.280
960.894;  148.597;   -9.860;  963.760
961.449;  144.718;   -9.970;  859.960
962.004;  142.910;  -10.900; 1212.840
962.559;  134.369;  -13.150;  860.140
963.114;  125.958;  -13.740;  742.480
963.669;  119.661;   -9.820;  915.500
964.224;  110.956;  -13.890;  874.340
964.779;  102.555;  -12.600;  828.420
965.334;  100.328;  -10.950; 1017.860
965.888;   98.872;  -11.170;  875.360
966.443;  102.575;  -12.540;  972.380
966.998;  106.911;  -15.780;  819.460
967.552;  111.443;   -9.760;  908.380
968.107;  108.227;   -9.060;  868.300
968.661;  107.864;  -11.950;  922.440
969.216;  107.703;  -12.800;  856.280
969.770;  108.775;  -11.210;  917.200
970.324;  107.517;  -11.610;  923.140
970.879;  106.051;  -11.370;  947.180
971.433;  106.573;  -12.540;  952.720
971.987;  105.574;  -11.320;  895.340
972.541;  104.686;  -10.720;  917.100
973.095;  105.618;   -9.680; 1009.460
973.649;  105.293;  -11.440;  809.480
974.203;  105.580;  -11.210;  829.040
974.757;  105.253;  -10.240;  855.220
975.311;  106.403;  -13.720;  872.600
975.865;  107.114;  -13.770;  881.820
976.419;  106.058;  -11.690;  857.400
976.973;  105.564;   -9.510;  849.620
977.526;  106.610;  -12.620;  949.920
978.080;  103.135;  -12.010;  796.780
978.634;  101.735;  -10.170;  921.320
979.187;   98.532;   -9.020;  905.400
979.741;   98.326;   -9.820; 1018.380
980.294;   94.585;  -14.870;  789.160
980.848;   91.018;  -12.380;  717.220
981.401;   90.421;  -10.350;  816.540
981.955;   90.307;  -13.720;  844.300
982.508;   86.412;  -11.490;  746.340
983.061;   87.367;  -10.000;  915.260
983.615;   85.873;  -11.480;  798.800
984.168;   85.214;  -13.220;  770.080
984.721;   86.044;  -13.960;  880.760
985.274;   83.862;  -10.870;  867.500
985.827;   82.742;   -9.790;  834.220
986.380;   81.111;  -13.120;  721.340
986.933;   82.434;  -12.450;  864.800
987.486;   81.477;  -10.210;  861.920
988.039;   80.787;   -8.430;  863.100
988.591;   77.988;  -10.520;  893.260
989.144;   74.246;  -14.860;  737.260
989.697;   72.549;  -13.080;  758.740
990.250;   71.676;  -10.150;  858.100
990.802;   69.756;  -13.430;  755.860
991.355;   69.659;  -12.750;  974.880
991.907;   66.865;  -12.040;  864.320
992.460;   64.071;  -11.330;  753.760
993.012;   62.905;  -13.610;  749.540
993.565;   62.326;  -13.460;  711.360
994.117;   64.071;   -9.360;  950.780
994.669;   61.301;  -11.300;  701.320
995.221;   60.735;  -13.540;  791.920
995.774;   59.437;  -13.430;  787.580
996.326;   58.923;  -12.520;  740.220
996.878;   58.406;  -10.950;  838.420
997.430;   56.810;  -14.300;  699.860
997.982;   55.891;  -13.760;  750.140
998.534;   54.866;  -11.530;  739.060
999.086;   53.275;  -10.310;  738.220
999.638;   53.164;  -12.530;  661.380
1000.190;   52.025;  -11.840;  699.320
1000.741;   51.429;  -10.260;  742.700
1001.293;   50.728;   -8.860;  686.020
1001.845;   51.509;  -13.700;  676.640
1002.396;   50.941;  -12.100;  743.400
1002.948;   50.375;  -12.760;  737.400
1003.500;   48.907;  -10.380;  723.780
1004.051;   49.635;  -11.900;  907.580
1004.603;   48.634;  -12.250;  791.820
1005.154;   44.173;  -13.210;  608.980
1005.705;   43.929;  -10.950;  723.960
1006.257;   43.789;  -13.880;  707.220
1006.808;   43.077;  -12.840;  685.460
1007.359;   42.218;  -10.570;  763.240
1007.910;   40.789;   -9.620;  646.640
1008.461;   40.435;  -13.630;  732.940
1009.013;   39.670;  -17.200;  588.340
1009.564;   40.234;  -10.200;  793.520
1010.115;   37.965;  -12.570;  597.040
1010.665;   38.121;  -15.150;  602.160
1011.216;   39.002;  -14.480;  667.920
1011.767;   37.670;  -11.340;  697.920
1012.318;   38.134;   -9.780;  736.980
1012.869;   36.743;  -12.380;  679.000
1013.419;   36.335;  -15.560;  603.120
1013.970;   36.633;  -11.010;  666.640
1014.521;   35.637;  -11.610;  620.620
1015.071;   36.108;  -13.450;  670.380
1015.622;   36.711;  -13.870;  635.460
1016.172;   34.957;  -11.610;  596.820
1016.723;   35.064;  -12.120;  614.380
1017.273;   35.449;  -13.620;  604.160
1017.823;   34.881;  -14.140;  650.340
1018.374;   34.862;  -12.800;  611.760
1018.924;   33.919;  -12.340;  716.880
1019.474;   34.944;  -11.410;  718.880
1020.024;   32.983;  -14.770;  657.580
1020.574;   33.933;   -9.780;  726.160
1021.124;   34.033;   -8.560;  673.580
1021.674;   32.060;  -15.190;  559.120
1022.224;   34.295;  -13.530;  708.940
1022.774;   33.474;  -13.280;  668.820
1023.324;   33.637;  -10.690;  753.520
1023.874;   34.458;  -10.240;  875.760
1024.423;   32.010;  -12.540;  613.700
1024.973;   31.400;  -10.010;  610.760
1025.523;   30.714;  -10.550;  620.960
1026.072;   31.184;  -13.560;  606.420
1026.622;   30.629;  -15.120;  675.740
1027.172;   31.698;  -11.260;  715.660
1027.721;   30.015;  -11.410;  601.220
1028.270;   30.553;  -13.530;  663.400
1028.820;   30.871;  -13.680;  638.080
1029.369;   30.619;  -13.520;  612.700
1029.918;   29.853;  -10.980;  649.840
1030.468;   29.247;  -13.530;  564.780
1031.017;   30.065;  -13.170;  634.800
1031.566;   29.050;  -12.200;  608.900
1032.115;   29.438;   -9.960;  694.500
1032.664;   28.089;  -13.210;  596.480
1033.213;   29.258;  -12.500;  735.420
1033.762;   28.268;  -11.910;  635.620
1034.311;   27.949;   -9.640;  677.220
1034.860;   28.290;  -13.310;  691.000
1035.408;   28.692;  -11.830;  722.720
1035.957;   28.808;  -12.000;  719.540
1036.506;   25.353;  -11.690;  530.800
1037.055;   29.086;  -10.990;  844.320
1037.603;   27.419;  -15.120;  664.000
1038.152;   25.667;  -12.450;  534.760
1038.700;   27.192;  -10.560;  585.740
1039.249;   26.545;  -11.080;  681.220
1039.797;   26.900;  -12.540;  633.360
1040.345;   25.873;  -11.920;  705.420
1040.894;   25.974;  -11.410;  625.300
1041.442;   25.621;  -14.320;  632.200
1041.990;   24.787;  -16.240;  559.160
1042.538;   24.471;  -11.680;  536.180
1043.087;   24.647;  -10.760;  570.860
1043.635;   26.214;  -11.850;  670.500
1044.183;   24.988;  -15.480;  586.400
1044.731;   24.575;  -11.770;  576.000
1045.279;   24.363;  -13.090;  674.920
1045.827;   26.827;  -12.440;  892.400
1046.374;   23.325;  -13.840;  515.420
1046.922;   22.633;  -13.220;  590.580
1047.470;   24.483;  -10.230;  691.300
1048.018;   24.018;  -14.590;  647.960
1048.565;   25.026;  -12.050;  708.600
1049.113;   23.269;  -11.650;  557.000
1049.660;   22.748;  -10.510;  629.660
1050.208;   23.445;  -13.310;  675.640
1050.755;   22.979;  -15.900;  606.580
1051.303;   23.955;  -11.430;  686.820
1051.850;   22.748;   -8.480;  635.120
1052.397;   20.752;  -15.010;  473.960
1052.945;   21.638;  -13.960;  617.760
1053.492;   23.378;  -13.150;  741.840
1054.039;   22.989;   -9.630;  720.180
1054.586;   21.116;  -13.680;  557.240
1055.133;   22.713;  -14.570;  693.140
1055.680;   22.206;  -13.820;  646.620
1056.227;   21.878;  -11.730;  542.780
1056.774;   23.177;  -12.480;  794.980
1057.321;   21.290;  -13.930;  523.260
1057.868;   21.084;  -11.690;  651.320
1058.415;   20.779;   -9.520;  651.980
1058.961;   20.945;  -13.160;  678.940
1059.508;   20.719;  -12.920;  643.820
1060.055;   19.802;  -11.920;  581.780
1060.601;   21.124;  -11.500;  624.300
1061.148;   20.309;  -14.330;  616.820
1061.694;   20.313;  -16.870;  592.580
1062.241;   20.804;  -10.330;  596.320
1062.787;   20.741;  -10.620;  663.140
1063.334;   22.106;  -10.110;  808.560
1063.880;   20.356;  -13.400;  668.360
1064.426;   20.426;  -10.680;  706.820
1064.972;   19.174;   -9.920;  601.340
1065.518;   18.347;  -10.980;  566.640
1066.065;   19.402;  -14.890;  624.460
1066.611;   18.377;  -12.870;  598.800
1067.157;   19.340;  -12.950;  641.860
1067.703;   18.920;  -13.540;  668.480
1068.249;   19.001;  -13.540;  605.220
1068.794;   19.331;  -12.600;  626.880
1069.340;   17.611;  -10.620;  578.960
1069.886;   18.729;  -12.830;  590.700
1070.432;   17.703;  -14.870;  541.720
1070.977;   17.110;  -11.980;  601.080
1071.523;   17.896;   -8.200;  573.060
1072.068;   16.862;  -12.330;  582.000
1072.614;   17.284;  -16.370;  527.760
1073.160;   18.373;  -11.100;  687.040
1073.705;   16.736;  -10.480;  572.520
1074.250;   16.555;  -14.520;  559.900
1074.796;   17.843;  -11.460;  655.160
1075.341;   18.364;  -11.950;  664.100
1075.886;   16.717;  -11.460;  594.240
1076.431;   16.828;  -13.770;  649.880
1076.976;   16.731;  -12.680;  639.220
1077.521;   15.620;  -13.170;  583.080
1078.067;   15.179;  -10.860;  579.400
1078.612;   15.936;  -13.920;  661.620
1079.156;   16.164;  -13.880;  601.540
1079.701;   15.461;  -13.120;  693.260
1080.246;   16.721;   -9.940;  696.300
1080.791;   16.794;  -14.740;  625.020
1081.336;   16.214;  -13.750;  659.320
1081.880;   16.347;  -13.400;  649.680
1082.425;   14.229;  -12.220;  573.480
1082.970;   16.882;  -11.610;  717.040
1083.514;   14.702;  -13.580;  597.000
1084.059;   15.350;  -12.810;  586.720
1084.603;   13.705;  -12.320;  565.840
1085.147;   15.440;  -13.190;  645.220
1085.692;   14.787;  -12.480;  716.800
1086.236;   13.632;  -13.020;  503.140
1086.780;   15.763;   -9.190;  751.440
1087.325;   14.047;  -12.480;  654.620
1087.869;   14.863;  -12.450;  610.700
1088.413;   14.186;  -12.240;  705.040
1088.957;   13.142;   -9.020;  543.400
1089.501;   14.944;  -10.320;  766.640
1090.045;   13.598;  -12.720;  726.480
1090.589;   11.938;  -13.690;  569.920
1091.133;   13.207;  -10.020;  673.340
1091.676;   12.999;  -12.330;  591.940
1092.220;   12.588;  -14.970;  600.920
1092.764;   14.021;  -12.430;  706.960
1093.307;   13.208;   -9.800;  673.780
1093.851;   11.997;  -14.970;  556.540
1094.395;   13.642;  -15.310;  683.140
1094.938;   12.423;  -10.370;  632.520
1095.482;   12.138;  -11.050;  559.800
1096.025;   13.176;  -11.840;  710.880
1096.568;   13.398;  -12.840;  779.280
1097.112;   10.051;  -14.700;  508.180
1097.655;   12.242;   -8.720;  603.000
1098.198;   10.666;  -13.610;  600.180
1098.741;   11.422;  -13.350;  612.860
1099.285;   12.291;  -11.230;  657.300
1099.828;    9.994;  -11.840;  439.400
1100.371;   11.258;  -10.840;  608.160
1100.914;   11.758;  -14.190;  682.660
1101.457;   11.924;  -11.240;  679.900
1101.999;    9.375;  -11.270;  584.680
1102.542;   11.721;  -11.480;  641.440
1103.085;   10.976;  -11.750;  658.500
1103.628;   11.658;  -11.400;  762.060
1104.170;   10.367;  -10.490;  588.280
1104.713;   11.219;  -10.600;  646.700
1105.256;    9.958;  -14.360;  557.440
1105.798;    8.852;  -13.210;  499.980
1106.341;   12.158;  -10.270;  728.900
1106.883;   10.000;  -12.200;  521.340
1107.425;   10.260;  -13.110;  668.180
1107.968;   10.005;  -12.840;  612.380
1108.510;    9.670;   -6.480;  684.960
1109.052;    8.698;  -13.940;  612.620
1109.594;    9.571;  -13.690;  554.440
1110.136;   10.019;  -11.880;  643.220
1110.679;    8.722;   -9.500;  633.080
1111.221;    9.576;  -14.160;  604.460
1111.763;    8.449;  -13.980;  559.220
1112.304;    8.967;  -13.880;  547.140
1112.846;    8.932;  -12.210;  666.240
1113.388;   11.579;  -11.390;  942.180
1113.930;    8.908;  -14.540;  694.200
1114.472;    8.814;  -12.640;  606.540
1115.013;    6.949;  -11.620;  551.280
1115.555;    7.772;  -13.640;  587.100
1116.097;    6.935;  -15.380;  579.480
1116.638;    8.164;  -12.640;  684.600
1117.180;    8.431;   -9.850;  667.740
1117.721;    7.756;  -13.690;  568.580
1118.262;    8.562;  -12.680;  677.960
1118.804;    8.575;  -12.530;  637.340
1119.345;    7.217;  -11.690;  578.400
1119.886;    8.636;  -13.380;  704.040
1120.427;    6.833;  -14.070;  589.020
1120.969;    6.631;  -13.500;  597.920
1121.510;    5.967;  -11.480;  563.060
1122.051;    6.928;  -12.830;  723.580
1122.592;    6.299;  -14.290;  655.420
1123.133;    5.384;  -12.400;  547.940
1123.673;    7.337;  -10.130;  706.480
1124.214;    6.570;  -12.930;  612.460
1124.755;    7.957;  -14.380;  639.460
1125.296;    6.805;  -14.000;  627.320
1125.836;    7.152;  -10.070;  691.500
1126.377;    5.765;  -12.640;  599.660
1126.918;    7.097;  -12.960;  614.980
1127.458;    5.461;  -13.350;  622.220
1127.999;    5.916;  -10.750;  656.980
1128.539;    6.506;  -12.350;  694.240
1129.079;    5.822;  -14.860;  632.720
1129.620;    5.064;  -13.840;  558.100
1130.160;    4.741;  -12.330;  539.480
1130.700;    6.557;  -14.530;  640.840
1131.240;    6.658;  -12.530;  643.700
1131.781;    5.429;  -14.450;  619.680
1132.321;    5.125;   -9.790;  599.120
1132.861;    4.829;  -14.860;  564.200
1133.401;    4.100;  -14.290;  593.940
1133.941;    5.554;  -11.750;  626.280
1134.481;    4.593;   -9.920;  597.580
1135.020;    4.568;  -12.290;  609.160
1135.560;    5.474;  -11.650;  674.940
1136.100;    3.350;  -16.270;  501.160
1136.640;    3.942;  -10.890;  510.480
1137.179;    4.119;  -14.180;  537.960
1137.719;    3.721;  -16.250;  605.400
1138.258;    4.315;  -14.230;  587.360
1138.798;    4.079;   -9.090;  663.780
1139.337;    3.330;  -15.130;  482.840
1139.877;    4.360;  -13.680;  642.360
1140.416;    6.204;  -11.320;  878.060
1140.955;    3.140;  -10.860;  535.380
1141.494;    4.193;  -12.920;  669.280
1142.034;    2.836;  -13.930;  583.520
1142.573;    4.534;  -11.440;  646.280
1143.112;    3.137;  -12.000;  553.480
1143.651;    3.099;  -13.670;  536.480
1144.190;    4.555;  -12.730;  691.640
1144.729;    3.656;  -14.560;  607.420
1145.267;    3.786;  -11.830;  584.900
1145.806;    3.930;  -12.230;  637.040
1146.345;    2.947;  -14.130;  635.020
1146.884;    2.773;  -11.590;  622.500
1147.422;    2.305;  -12.550;  533.060
1147.961;    4.320;  -11.180;  708.460
1148.500;    3.535;  -11.510;  669.720
1149.038;    3.290;  -11.640;  632.500
1149.577;    3.430;  -10.130;  698.640
1150.115;    1.556;  -13.970;  452.280
1150.653;    2.487;  -14.520;  607.340
1151.192;    3.214;  -12.810;  552.920
1151.730;    2.436;   -9.100;  652.560
1152.268;    2.636;  -12.220;  589.520
1152.806;    2.289;  -14.140;  571.180
1153.344;    1.564;  -12.350;  577.640
1153.882;    2.291;   -8.980;  600.060
1154.421;    0.277;  -15.190;  470.620
1154.958;    1.291;  -15.210;  595.240
1155.496;    2.942;  -12.850;  645.280
1156.034;    1.940;   -9.940;  721.880
1156.572;    2.718;  -13.570;  667.060
1157.110;    1.006;  -14.590;  473.940
1157.647;    2.126;  -13.030;  676.960
1158.185;    0.852;  -12.140;  564.320
1158.723;    0.886;  -14.390;  509.200
1159.260;    1.232;  -14.090;  701.700
1159.798;    1.934;  -11.920;  658.160
1160.335;    0.761;  -11.110;  631.820

