
Integration time [ms]:   3.276
Averaging Nr. [scans]: 1000
Smoothing Nr. [pixels]: 0
Data measured with spectrometer [name]: 7414430SP
Wave   ;Sample   ;Dark     ;Reference
[nm]   ;[counts] ;[counts] ;[counts] 

288.544;  150.951;    7.793;  793.890
289.143;  156.098;    7.462;  681.602
289.742;  155.565;    8.602;  828.814
290.341;  140.136;    1.321;  789.841
290.940;  130.236;   -0.709;  730.702
291.538;  131.227;    0.881;  881.108
292.137;  130.650;    0.122;  792.581
292.736;  134.641;   -1.929;  975.101
293.335;  131.622;   -8.229;  735.086
293.934;  132.174;   -5.279;  781.677
294.532;  129.428;   -1.369; 1031.958
295.131;  116.017;   -7.641;  834.394
295.730;  117.109;   -8.420;  809.588
296.328;  115.693;   -5.611;  783.442
296.927;  116.149;   -5.781;  779.652
297.525;  117.961;   -6.361;  781.236
298.124;  107.548;  -11.382;  654.009
298.722;  111.563;   -7.641;  761.933
299.321;  109.369;   -6.811;  708.597
299.919;  106.794;   -6.991;  751.918
300.518;  104.796;  -10.362;  689.338
301.116;  106.572;   -9.581;  691.381
301.715;  105.625;   -4.891;  730.222
302.313;  104.610;   -8.801;  704.943
302.911;   99.998;   -8.522;  733.830
303.509;  105.971;   -6.171;  925.627
304.108;  103.307;   -7.311;  760.383
304.706;  102.489;   -8.321;  801.664
305.304;   96.413;  -10.222;  796.707
305.902;  102.069;   -6.021;  784.484
306.500;   98.357;   -4.971;  728.200
307.098;   96.383;   -7.061;  746.560
307.696;   95.190;   -8.801;  780.432
308.294;   94.891;   -6.411;  731.359
308.892;   96.878;   -2.901;  759.769
309.490;   93.042;   -5.041;  712.161
310.088;   91.861;   -5.002;  788.444
310.686;   96.074;   -2.041;  821.749
311.284;   91.716;   -2.351;  766.040
311.882;   88.794;   -4.422;  731.225
312.480;   86.504;   -4.192;  697.167
313.078;   86.699;   -1.172;  808.331
313.675;   88.573;   -2.601;  691.600
314.273;   83.491;   -1.312;  797.837
314.871;   82.916;   -3.942;  589.829
315.468;   80.140;   -2.802;  652.090
316.066;   83.057;   -0.701;  694.427
316.664;   76.494;   -4.362;  656.351
317.261;   80.507;   -2.872;  910.128
317.859;   75.608;   -2.022;  768.735
318.456;   76.130;   -0.531;  830.096
319.054;   72.404;   -3.912;  787.828
319.651;   70.516;   -4.752;  759.928
320.249;   69.872;   -2.602;  810.188
320.846;   68.357;   -0.821;  714.286
321.443;   66.114;   -4.642;  832.135
322.041;   63.422;   -5.002;  812.315
322.638;   61.403;   -3.982;  701.456
323.235;   61.837;   -3.411;  665.683
323.833;   58.676;   -7.361;  740.354
324.430;   54.416;   -8.611;  615.900
325.027;   55.427;   -4.061;  876.855
325.624;   55.156;   -4.031;  644.532
326.221;   52.365;   -7.481;  689.717
326.818;   51.605;   -5.281;  818.332
327.415;   54.813;   -7.460;  748.828
328.012;   54.708;   -5.510;  690.585
328.609;   52.794;   -7.880;  731.389
329.206;   51.150;   -8.331;  778.621
329.803;   51.480;   -5.121;  737.841
330.400;   54.381;   -4.510;  704.260
330.997;   56.056;   -6.441;  817.147
331.594;   54.390;   -8.831;  788.185
332.191;   59.886;   -7.621;  728.722
332.787;   61.637;   -4.591;  844.463
333.384;   60.866;   -7.412;  763.093
333.981;   59.468;   -8.293;  815.687
334.578;   61.973;   -7.052;  708.378
335.174;   65.322;   -3.102;  731.469
335.771;   64.814;   -5.943;  836.456
336.367;   61.027;   -7.393;  710.631
336.964;   65.184;   -4.063;  793.266
337.561;   62.824;   -3.813;  731.112
338.157;   58.142;   -4.654;  911.916
338.754;   56.384;   -7.934;  796.589
339.350;   54.534;   -4.414;  722.493
339.946;   56.560;   -4.664;  773.135
340.543;   48.077;   -6.375;  846.136
341.139;   43.161;   -9.815;  720.836
341.735;   40.324;   -4.526;  772.593
342.332;   39.881;   -4.895;  691.472
342.928;   39.932;   -4.295;  795.394
343.524;   33.662;   -5.476;  761.684
344.120;   31.049;   -5.856;  738.562
344.716;   33.781;   -2.155;  723.717
345.313;   31.096;   -6.275;  795.342
345.909;   25.953;   -8.815;  627.336
346.505;   27.776;   -5.305;  740.247
347.101;   29.589;   -2.674;  827.864
347.697;   28.951;   -4.344;  785.398
348.293;   23.181;   -9.975;  627.244
348.889;   24.445;   -5.774;  745.914
349.485;   23.914;   -5.004;  688.205
350.081;   24.470;   -4.704;  772.592
350.676;   18.915;   -6.635;  691.606
351.272;   24.180;   -4.504;  809.530
351.868;   23.322;   -3.914;  780.497
352.464;   20.394;   -9.044;  723.932
353.059;   17.102;   -8.314;  646.017
353.655;   20.644;   -7.024;  777.063
354.251;   22.221;   -5.343;  759.845
354.846;   16.155;   -8.604;  740.646
355.442;   13.894;   -6.945;  753.071
356.038;   15.882;   -7.564;  751.708
356.633;   16.097;   -5.814;  728.594
357.229;   14.696;   -7.364;  724.757
357.824;   12.634;   -8.024;  703.600
358.420;   11.299;   -9.384;  679.726
359.015;   12.260;   -5.104;  695.357
359.610;   12.551;   -6.854;  763.920
360.206;    6.705;  -10.185;  603.240
360.801;    9.781;   -7.054;  646.503
361.396;   11.624;   -5.034;  725.975
361.992;    7.647;   -8.284;  668.220
362.587;    4.970;   -8.625;  670.160
363.182;    7.036;   -7.674;  689.631
363.777;    7.102;   -5.164;  738.242
364.372;    7.367;   -8.604;  737.314
364.967;    4.053;   -9.055;  680.744
365.563;    7.263;   -6.114;  815.567
366.158;    5.471;   -5.814;  685.161
366.753;    5.452;   -7.854;  649.263
367.348;    3.707;   -7.804;  746.056
367.942;    3.385;   -7.954;  697.298
368.537;    3.327;   -4.984;  754.245
369.132;    3.117;   -8.564;  703.428
369.727;   -0.891;   -8.855;  638.079
370.322;    0.344;   -6.245;  580.186
370.917;    0.179;   -6.425;  710.646
371.511;    3.482;   -6.294;  861.834
372.106;   -1.015;   -7.685;  776.964
372.701;   -3.596;   -7.335;  585.988
373.296;    1.666;   -4.564;  863.135
373.890;   -2.246;  -10.235;  647.840
374.485;   -4.635;   -7.885;  691.199
375.079;   -0.995;   -7.324;  738.685
375.674;    0.786;   -3.494;  812.970
376.268;   -4.417;   -8.525;  691.759
376.863;   -9.551;  -10.086;  580.327
377.457;   -3.424;   -7.025;  662.490
378.052;   -5.473;   -3.585;  764.884
378.646;   -6.829;   -7.595;  741.167
379.240;   -6.116;   -8.335;  721.176
379.835;   -5.187;   -5.785;  636.978
380.429;   -7.906;   -4.335;  562.557
381.023;   -7.955;   -6.805;  779.205
381.617;   -9.570;   -9.195;  680.106
382.212;   -6.119;   -6.905;  685.303
382.806;   -5.268;   -3.745;  760.690
383.400;   -9.797;   -7.745;  672.281
383.994;  -10.606;   -9.765;  664.870
384.588;   -6.564;   -6.564;  697.701
385.182;   -5.253;   -5.344;  726.624
385.776;   -7.562;   -8.514;  706.875
386.370;  -10.129;   -9.555;  681.968
386.964;   -9.197;   -8.715;  684.155
387.558;   -7.885;   -6.174;  598.360
388.152;  -10.991;   -8.725;  681.959
388.745;   -8.481;   -7.965;  814.707
389.339;   -7.162;   -5.924;  747.642
389.933;   -6.111;   -5.524;  695.370
390.527;   -7.619;   -7.114;  859.029
391.120;  -13.114;  -10.725;  595.318
391.714;  -10.186;   -8.035;  711.633
392.308;   -8.003;   -3.574;  780.253
392.901;  -11.569;   -7.245;  642.460
393.495;  -12.471;   -9.285;  595.414
394.089;  -10.847;   -5.895;  760.452
394.682;  -11.408;   -4.295;  697.188
395.275;  -12.047;   -9.875;  719.927
395.869;  -12.816;   -8.485;  667.314
396.462;  -11.265;   -7.455;  616.609
397.056;   -8.277;   -5.424;  776.621
397.649;  -12.315;   -6.605;  731.575
398.242;   -9.449;   -8.224;  712.645
398.836;   -8.713;   -7.474;  766.408
399.429;   -9.799;   -7.094;  631.041
400.022;  -13.179;   -9.475;  665.902
400.615;  -11.000;   -7.145;  805.609
401.208;   -8.792;   -7.174;  691.451
401.802;  -11.262;   -5.515;  699.329
402.395;  -12.250;   -9.875;  683.502
402.988;  -13.373;   -8.845;  696.627
403.581;   -9.826;   -8.874;  646.878
404.174;   -7.978;   -5.324;  686.568
404.767;  -10.390;   -9.575;  638.583
405.360;  -13.911;  -10.965;  621.445
405.953;   -7.409;   -8.764;  759.034
406.545;   -7.643;   -7.514;  725.342
407.138;  -11.217;  -10.025;  618.350
407.731;  -10.170;  -10.034;  613.303
408.324;   -5.616;   -9.374;  660.554
408.917;   -7.105;   -6.534;  681.864
409.509;   -9.336;   -8.004;  740.396
410.102;  -10.707;   -9.875;  643.948
410.695;   -4.672;   -8.604;  665.758
411.287;   -5.838;   -6.794;  599.821
411.880;   -7.415;   -9.334;  585.421
412.472;   -9.828;  -10.254;  613.092
413.065;   -6.978;   -6.714;  629.408
413.657;   -4.938;   -7.234;  576.678
414.250;   -5.970;  -10.544;  646.681
414.842;   -6.771;   -9.744;  676.353
415.434;   -4.086;   -6.994;  570.463
416.027;   -0.269;   -5.893;  652.196
416.619;   -2.986;   -7.264;  713.400
417.211;   -2.530;  -10.374;  599.352
417.804;    0.341;   -7.993;  628.499
418.396;   -4.061;   -7.234;  607.643
418.988;   -1.452;   -9.443;  659.238
419.580;   -4.409;  -10.724;  568.276
420.172;   -2.234;  -10.323;  536.196
420.764;    2.287;   -8.793;  672.482
421.356;    0.882;  -11.143;  636.898
421.948;   -0.349;   -8.293;  677.661
422.540;    5.421;   -7.893;  680.027
423.132;    4.103;   -7.082;  600.641
423.724;    1.077;   -8.653;  561.267
424.316;    3.614;  -10.213;  621.345
424.908;    7.326;   -9.762;  591.517
425.500;    7.134;   -5.572;  647.978
426.092;    7.954;   -8.422;  648.268
426.683;    6.715;   -9.283;  684.836
427.275;    9.004;   -7.852;  641.471
427.867;   11.545;   -5.272;  668.948
428.458;   11.613;   -7.682;  732.344
429.050;   10.307;  -10.612;  680.749
429.642;   12.915;   -9.882;  743.124
430.233;   13.089;   -6.962;  569.356
430.825;   14.168;   -6.842;  724.809
431.416;   11.712;   -9.672;  698.241
432.008;   15.380;   -6.552;  651.723
432.599;   16.136;   -6.891;  656.073
433.190;   12.924;  -10.912;  637.670
433.782;   12.884;  -11.172;  590.395
434.373;   19.312;   -6.061;  884.765
434.964;   18.416;   -8.251;  602.920
435.556;   16.489;   -9.722;  634.537
436.147;   19.317;   -9.082;  758.490
436.738;   19.809;   -8.041;  701.099
437.329;   24.487;   -7.341;  721.723
437.920;   16.823;   -8.162;  666.688
438.511;   17.207;  -11.802;  564.526
439.103;   24.150;  -10.191;  623.998
439.694;   24.946;   -7.601;  681.583
440.285;   26.206;   -8.541;  764.432
440.876;   25.447;   -9.751;  845.738
441.466;   24.664;   -9.401;  575.162
442.057;   28.974;   -7.760;  665.814
442.648;   28.110;   -9.971;  746.255
443.239;   26.820;  -11.001;  620.477
443.830;   31.572;   -7.990;  704.958
444.421;   33.758;   -7.910;  655.474
445.011;   30.626;   -8.131;  693.619
445.602;   29.951;   -7.111;  743.126
446.193;   30.967;  -10.920;  488.117
446.783;   35.715;   -6.500;  640.397
447.374;   31.368;   -8.671;  692.759
447.964;   32.147;  -10.781;  713.770
448.555;   40.847;   -9.650;  822.742
449.145;   37.398;   -8.660;  662.853
449.736;   38.492;   -8.990;  803.179
450.326;   37.432;   -9.500;  713.626
450.917;   42.557;   -8.680;  675.324
451.507;   42.304;   -7.520;  600.661
452.097;   42.819;   -8.590;  746.267
452.688;   44.927;  -11.340;  742.160
453.278;   43.719;  -10.100;  566.840
453.868;   48.273;   -6.019;  793.550
454.458;   45.921;   -9.440;  651.141
455.048;   46.198;  -10.560;  711.783
455.639;   48.789;  -11.799;  567.096
456.229;   51.650;   -6.899;  710.694
456.819;   53.373;   -7.389;  751.158
457.409;   53.746;  -11.119;  773.993
457.999;   56.841;   -9.289;  737.505
458.589;   56.950;   -6.139;  686.606
459.179;   56.285;   -8.729;  717.658
459.769;   54.003;   -9.789;  627.099
460.358;   59.576;  -10.259;  797.262
460.948;   59.902;   -7.299;  689.503
461.538;   61.248;  -10.289;  660.677
462.128;   59.008;  -11.269;  664.934
462.717;   65.964;   -9.368;  710.326
463.307;   69.395;   -7.908;  705.846
463.897;   64.386;   -9.599;  656.942
464.486;   64.544;   -9.769;  837.128
465.076;   69.152;   -8.048;  733.776
465.666;   72.713;   -9.358;  652.900
466.255;   69.602;   -7.919;  785.651
466.845;   68.935;  -11.689;  666.749
467.434;   72.375;   -7.818;  725.873
468.023;   73.521;   -7.678;  658.357
468.613;   70.761;  -10.939;  713.946
469.202;   75.034;  -10.118;  646.507
469.791;   79.354;   -9.108;  737.811
470.381;   81.069;   -6.058;  742.813
470.970;   81.299;  -10.428;  711.099
471.559;   81.324;  -10.268;  733.291
472.148;   84.458;   -8.448;  675.737
472.738;   86.765;   -6.917;  765.466
473.327;   86.604;  -11.978;  637.529
473.916;   86.412;  -11.888;  737.446
474.505;   91.221;   -9.437;  751.703
475.094;   93.893;   -6.747;  806.570
475.683;   93.112;   -9.367;  797.699
476.272;   94.525;  -12.637;  730.632
476.861;   97.219;  -10.027;  706.754
477.449;  103.403;   -8.716;  728.487
478.038;   99.047;   -9.577;  692.513
478.627;   99.726;   -9.718;  714.852
479.216;  106.128;   -8.947;  769.441
479.805;  109.183;   -6.256;  783.375
480.393;  108.901;   -7.937; 1008.945
480.982;  107.964;   -7.717;  874.501
481.571;  114.198;   -9.266;  858.333
482.159;  114.670;   -7.636;  705.386
482.748;  115.002;   -9.667;  821.385
483.336;  120.530;  -10.376;  858.209
483.925;  120.745;   -7.147;  774.373
484.513;  126.295;   -7.996;  758.962
485.102;  123.965;  -10.027;  810.965
485.690;  132.944;  -10.446; 1011.050
486.278;  134.845;   -8.446;  979.329
486.867;  135.949;   -6.356;  809.662
487.455;  138.831;   -9.136;  898.229
488.043;  138.660;  -10.646;  748.361
488.631;  148.394;   -7.456; 1005.079
489.220;  152.075;   -6.636;  908.626
489.808;  153.427;  -11.036;  741.415
490.396;  161.639;  -10.246;  914.645
490.984;  166.955;   -8.556;  830.161
491.572;  178.066;   -5.886;  940.315
492.160;  184.118;   -9.486;  919.081
492.748;  197.320;  -10.976;  884.341
493.336;  221.469;   -8.776; 1019.693
493.924;  248.998;   -5.465;  958.077
494.512;  279.162;   -9.986; 1066.638
495.100;  318.328;  -10.636; 1103.280
495.687;  377.877;  -10.885; 1206.373
496.275;  445.336;   -8.126; 1150.796
496.863;  520.368;  -10.586; 1281.171
497.451;  627.753;  -11.926; 1386.805
498.038;  772.415;  -10.885; 1556.729
498.626;  887.077;   -6.315; 1741.407
499.214; 1051.496;   -7.326; 2016.609
499.801; 1264.198;  -11.906; 2220.633
500.389; 1518.091;  -10.466; 2312.494
500.976; 1834.756;   -5.236; 2744.849
501.564; 2295.013;   -8.936; 3148.565
502.151; 2673.427;  -13.176; 3515.999
502.738; 3118.419;  -10.646; 3971.274
503.326; 3553.949;   -9.525; 4403.796
503.913; 3994.160;  -10.856; 5161.749
504.500; 4417.472;  -11.586; 5986.420
505.088; 4828.662;  -10.336; 6381.201
505.675; 5395.213;   -6.355; 6925.547
506.262; 6140.827;   -9.046; 7619.060
506.849; 6942.351;  -10.416; 8733.969
507.436; 7519.425;  -10.305; 9790.121
508.023; 8139.635;   -5.496; 9985.472
508.610; 8365.758;   -7.856;10434.618
509.197; 8999.503;  -10.097;11198.435
509.784;10432.155;  -10.886;12391.194
510.371;11700.038;   -9.315;13603.713
510.958;12513.526;   -9.936;14426.586
511.545;13256.808;   -9.326;15243.775
512.132;14151.778;  -10.075;15945.876
512.719;14716.548;   -7.796;16340.369
513.305;15932.545;  -10.606;18011.766
513.892;16788.146;  -11.486;19754.971
514.479;18050.842;   -9.126;20967.805
515.066;19587.039;   -6.026;22299.793
515.652;21336.848;   -8.466;22908.660
516.239;22649.385;  -10.886;23798.875
516.825;23490.693;  -11.496;25567.275
517.412;24589.365;   -5.796;28154.959
517.998;25511.639;  -10.506;28344.111
518.585;25471.357;  -10.076;27134.219
519.171;25933.191;   -8.315;27268.576
519.758;28001.947;   -8.596;28964.129
520.344;30229.357;   -8.466;30664.494
520.930;29891.301;  -11.006;32550.605
521.516;30974.730;  -10.495;35422.895
522.103;33038.543;   -5.526;38280.004
522.689;33545.648;   -8.746;37835.117
523.275;33069.469;  -11.376;37288.613
523.861;34863.328;  -11.156;37281.395
524.447;36820.480;   -8.135;37846.949
525.033;36625.953;   -7.896;38321.949
525.619;36903.680;  -12.476;38579.285
526.205;38318.027;   -9.516;40622.875
526.791;41239.547;   -6.926;42258.836
527.377;40983.949;   -8.346;42966.902
527.963;42021.430;   -8.717;42018.949
528.549;41459.848;  -11.016;42476.828
529.135;40038.215;   -8.536;41854.852
529.721;38950.086;   -9.666;41237.711
530.306;38227.574;  -10.066;41259.445
530.892;38026.750;  -11.356;41506.047
531.478;39185.711;   -6.596;43559.613
532.063;42830.785;   -8.836;47695.563
532.649;44121.285;  -10.047;50808.324
533.235;44601.215;   -9.746;51787.500
533.820;44713.578;   -6.566;52145.035
534.406;46151.398;  -10.817;51133.488
534.991;46199.688;   -9.416;49996.805
535.576;44433.152;   -9.036;48882.852
536.162;45081.297;   -6.156;46942.285
536.747;46460.910;  -11.607;45711.746
537.333;49322.461;  -11.787;48510.180
537.918;52497.105;  -12.437;50439.891
538.503;52075.148;   -7.196;50863.711
539.088;48390.910;  -10.556;50906.922
539.673;48267.328;   -8.767;52621.965
540.259;49193.512;  -10.026;52368.094
540.844;46275.633;   -7.416;50879.109
541.429;47955.512;   -9.467;52077.777
542.014;50262.703;   -9.527;52716.695
542.599;49360.477;   -9.946;52363.281
543.184;46039.012;   -7.927;53187.137
543.769;46850.781;   -9.297;54697.605
544.354;47172.168;  -10.127;53913.914
544.938;45849.543;   -9.267;49680.164
545.523;47537.750;   -6.506;47386.277
546.108;50349.352;   -9.787;49151.949
546.693;52305.766;  -11.587;51384.637
547.278;52717.277;  -10.986;51853.254
547.862;49675.520;   -8.206;51173.750
548.447;44952.547;  -10.067;51691.395
549.031;44165.453;   -9.637;52456.703
549.616;48926.016;   -9.926;52714.516
550.201;48772.910;   -6.347;52414.598
550.785;49951.547;   -7.917;52355.059
551.370;49061.309;  -10.867;54589.453
551.954;48474.176;   -9.047;58267.348
552.538;49368.270;   -7.827;59062.176
553.123;47884.805;  -10.287;58115.285
553.707;45665.793;  -12.178;56556.285
554.291;47324.629;   -8.717;56201.668
554.876;50819.422;   -7.457;55335.762
555.460;50891.883;  -10.387;54155.703
556.044;50688.262;   -9.618;53721.484
556.628;48353.867;  -11.567;53731.016
557.212;47053.945;   -8.097;54312.531
557.796;45886.773;  -11.077;53797.773
558.380;46060.445;  -11.108;56145.984
558.964;46166.672;   -9.057;57277.930
559.548;47233.711;   -6.977;56459.641
560.132;45335.059;  -11.457;54434.543
560.716;43528.199;  -11.378;54800.617
561.300;44600.547;   -9.577;57606.945
561.884;45777.395;   -7.127;58972.445
562.467;43594.484;   -7.118;57327.570
563.051;42670.348;  -13.358;54962.434
563.635;44337.148;  -10.178;52594.473
564.219;45190.145;   -7.837;50610.410
564.802;45854.156;  -11.398;49551.180
565.386;45248.738;  -12.788;48370.953
565.969;44524.992;   -9.077;48178.871
566.553;43315.133;   -6.207;49957.305
567.136;44329.215;   -8.568;50369.594
567.720;41069.531;  -11.868;49492.004
568.303;39043.641;   -8.268;50616.352
568.887;39162.668;   -8.698;50727.148
569.470;39794.805;   -6.808;51698.379
570.053;38995.125;  -13.188;52122.078
570.637;36319.520;  -12.037;52536.438
571.220;35961.977;   -8.577;51186.098
571.803;37034.105;   -8.498;51032.762
572.386;39193.195;  -10.498;49609.887
572.969;41618.148;   -9.388;48285.926
573.552;40201.359;   -8.338;47624.285
574.135;38702.246;   -8.518;45498.641
574.718;36039.305;  -13.628;41970.434
575.301;35295.691;  -10.893;41447.137
575.884;34552.078;   -8.158;40923.836
576.467;35843.359;  -10.328;45267.723
577.050;37293.070;  -13.058;48175.543
577.633;38297.793;   -9.458;47729.328
578.216;37579.348;   -8.928;47579.793
578.799;36701.086;   -9.358;47820.996
579.381;35562.680;  -11.388;48115.551
579.964;33258.063;  -11.718;47333.766
580.547;35419.660;   -8.588;46668.969
581.129;36480.715;   -8.859;44466.141
581.712;37461.586;  -10.729;44164.922
582.294;37882.719;  -11.118;46477.855
582.877;37840.648;   -5.218;48244.254
583.459;36028.348;   -8.679;47437.895
584.042;33797.227;  -10.709;46943.219
584.624;33581.500;  -11.669;46792.227
585.206;33455.539;   -8.218;46557.250
585.789;33835.164;  -10.569;45793.773
586.371;36192.918;  -11.859;43836.391
586.953;36978.926;  -10.719;42972.492
587.536;37774.273;   -7.198;42487.211
588.118;38275.422;   -8.720;42086.414
588.700;34181.086;  -10.439;43389.930
589.282;33126.914;   -9.198;43646.039
589.864;34347.711;   -9.199;43438.109
590.446;35884.145;  -11.319;43151.926
591.028;35752.902;  -11.159;42781.867
591.610;34270.859;  -11.779;42839.098
592.192;31370.748;   -7.668;42820.402
592.774;29973.301;  -11.949;40724.277
593.356;29049.342;  -12.129;39874.789
593.937;28078.014;  -10.669;39980.648
594.519;30412.160;   -6.509;42069.633
595.101;32469.035;  -10.849;42976.031
595.683;32484.152;  -11.679;44084.441
596.264;33266.262;   -9.049;43478.797
596.846;33083.258;   -8.849;43803.672
597.427;33009.918;   -9.570;42986.934
598.009;34230.730;  -12.620;42832.219
598.591;34423.426;  -10.039;42580.086
599.172;33997.910;  -10.369;43061.805
599.753;34155.008;   -9.140;41691.469
600.335;35550.055;  -11.430;40692.520
600.916;33865.926;   -9.939;39982.422
601.498;31715.871;   -8.479;40318.617
602.079;30209.797;  -10.920;40670.609
602.660;29894.781;  -11.480;41450.898
603.241;31634.053;  -11.699;41137.738
603.823;30356.676;   -9.579;38868.797
604.404;29386.510;  -10.620;38182.785
604.985;31093.350;  -10.450;38078.047
605.566;31267.658;   -9.129;38056.633
606.147;31311.287;   -7.510;37020.418
606.728;32774.379;  -10.660;37883.359
607.309;31216.225;  -11.740;38748.273
607.890;31064.910;   -9.759;38850.230
608.471;30729.609;   -8.250;37457.918
609.051;30076.754;   -9.240;36066.457
609.632;28809.686;  -12.120;35991.074
610.213;28904.457;   -9.110;37402.641
610.794;29661.969;   -8.030;38383.363
611.374;29795.314;   -8.110;40562.387
611.955;30785.514;  -13.560;38533.727
612.536;32017.850;  -11.400;36951.789
613.116;31513.900;   -8.070;37197.891
613.697;31826.951;  -10.830;38411.125
614.277;29986.188;  -11.641;38673.938
614.858;30763.988;  -13.310;37075.863
615.438;30422.303;   -7.460;35092.906
616.019;28272.230;   -7.601;33666.301
616.599;28360.320;  -12.020;34189.023
617.179;29902.313;  -11.780;36952.047
617.760;31004.570;   -8.570;39582.574
618.340;31617.398;  -11.471;38943.977
618.920;32439.271;  -11.170;37594.156
619.500;32646.975;  -11.071;37866.938
620.080;31746.633;   -7.750;37869.043
620.660;32730.525;  -12.711;36868.617
621.241;34584.652;  -10.211;36352.309
621.821;35249.605;  -10.961;35459.520
622.401;34010.902;   -7.720;35207.414
622.980;32816.629;   -8.981;35980.422
623.560;31263.221;   -9.331;37351.328
624.140;29944.689;   -9.850;34388.582
624.720;25204.385;   -7.451;32368.764
625.300;21819.998;   -9.070;32638.629
625.880;25161.225;  -12.601;34599.035
626.459;29323.672;  -11.751;36831.738
627.039;32253.691;   -9.281;38299.098
627.619;32115.410;   -8.801;38289.574
628.198;30627.914;  -12.071;37220.695
628.778;29568.621;   -9.461;37632.563
629.357;30075.404;   -8.491;38003.012
629.937;30411.928;   -9.721;38402.039
630.516;30110.322;   -9.951;37868.801
631.096;29894.275;  -11.731;35760.410
631.675;31849.570;   -8.572;35225.219
632.254;37084.289;  -11.282;35130.289
632.834;36787.664;  -13.322;35794.570
633.413;35101.270;  -10.301;35788.922
633.992;32451.662;   -8.582;34532.863
634.571;32885.434;   -8.352;33590.113
635.151;35442.742;  -11.912;34943.863
635.730;34201.590;  -10.511;35352.523
636.309;31015.809;   -7.731;35366.605
636.888;28369.059;   -9.952;36165.637
637.467;28671.018;  -11.672;37515.902
638.046;30005.023;   -8.901;39288.695
638.625;32881.563;   -7.912;38279.699
639.204;32775.254;  -10.022;37741.598
639.782;31712.479;  -12.252;38364.551
640.361;27998.553;  -10.041;36740.621
640.940;25342.361;  -11.161;34950.082
641.519;26162.490;   -9.701;34137.398
642.097;29155.275;  -11.271;35654.258
642.676;31659.020;   -8.651;35637.957
643.255;32917.516;   -8.711;36567.074
643.833;32232.982;   -9.581;37809.434
644.412;32255.545;  -13.711;37337.293
644.990;31268.281;  -11.811;37018.531
645.569;31090.160;   -9.411;36518.469
646.147;30629.998;  -10.291;36186.430
646.726;30769.971;  -12.401;36267.688
647.304;31679.418;  -10.411;36647.625
647.882;32881.125;   -9.651;39286.742
648.461;34497.805;   -9.631;39157.703
649.039;32981.277;  -11.881;35412.883
649.617;31846.723;   -9.661;34744.918
650.195;30938.879;   -9.301;35403.098
650.773;29655.729;  -10.511;35053.797
651.352;27458.355;  -11.521;33756.816
651.930;25270.307;  -12.211;31868.773
652.508;23749.221;   -9.171;33121.551
653.086;27610.045;   -9.371;33564.793
653.663;30687.307;  -13.161;34054.668
654.241;29217.063;  -13.031;35693.309
654.819;30381.777;   -9.371;36422.906
655.397;30256.678;  -10.511;38213.484
655.975;29903.729;  -10.371;39507.625
656.553;29605.553;  -10.051;39498.223
657.130;28140.184;  -10.061;40395.480
657.708;27527.154;   -9.561;39242.020
658.286;27685.734;  -11.511;38920.020
658.863;28887.539;  -10.261;40202.898
659.441;32306.225;   -7.531;39677.938
660.018;32369.170;   -9.501;40413.355
660.596;30905.309;  -13.301;39931.414
661.173;32262.965;  -11.211;39604.531
661.750;32704.990;   -9.951;39700.070
662.328;31808.408;   -9.390;39292.809
662.905;30962.117;  -11.330;38235.648
663.482;26661.281;   -9.050;36212.305
664.060;24708.549;   -8.240;35944.945
664.637;27671.131;  -10.050;35170.785
665.214;29069.479;  -11.760;34197.523
665.791;30644.662;  -10.530;34549.520
666.368;29784.910;   -9.690;35118.578
666.945;30163.975;   -9.320;36019.418
667.522;31635.352;  -11.860;36048.438
668.099;31482.344;  -10.770;36243.914
668.676;30138.896;   -6.260;35958.875
669.253;28718.920;   -7.000;37384.730
669.830;28872.215;  -10.190;36779.629
670.407;28946.246;   -9.550;35231.289
670.984;28933.627;   -9.260;35544.270
671.560;29750.033;   -9.280;35466.867
672.137;29069.004;  -11.810;34280.863
672.714;30065.510;  -11.490;34632.863
673.290;31255.309;   -7.740;35135.422
673.867;31300.252;  -10.660;36114.480
674.443;31091.025;  -12.230;36152.859
675.020;28986.908;  -10.450;35327.238
675.596;29824.303;   -9.260;35795.176
676.173;30476.553;  -10.780;35430.355
676.749;30089.787;  -13.690;33549.516
677.326;29877.977;  -11.980;32210.012
677.902;29761.328;   -8.630;32068.871
678.478;29271.131;  -10.730;32583.891
679.054;28377.221;  -10.520;32088.928
679.631;28687.398;  -11.920;30978.848
680.207;30088.195;   -7.490;33160.887
680.783;31539.508;   -9.860;35570.363
681.359;30657.893;  -13.380;36125.184
681.935;30458.340;  -12.480;35240.922
682.511;30513.225;   -7.900;34429.961
683.087;31001.822;   -7.710;34463.680
683.663;30197.191;  -11.480;34648.898
684.239;28729.492;  -14.090;34546.457
684.815;27977.750;   -7.560;35586.375
685.390;27969.285;   -9.910;35821.895
685.966;28403.551;  -11.159;35085.871
686.542;30770.910;  -11.169;34198.230
687.118;33375.379;   -5.959;32847.707
687.693;34066.012;  -10.329;32794.027
688.269;33615.063;  -12.059;33072.367
688.844;31714.980;  -10.909;33141.664
689.420;29716.143;   -8.019;33965.742
689.995;27964.428;   -8.399;34655.523
690.571;26426.711;  -10.949;33576.742
691.146;26329.652;   -9.619;32657.219
691.722;26269.742;   -8.999;32526.979
692.297;25892.838;  -11.589;33014.617
692.872;27198.664;  -11.739;34012.254
693.448;27097.432;  -11.059;34237.434
694.023;26135.361;  -10.139;34142.672
694.598;28006.934;   -9.029;34132.031
695.173;28807.063;  -13.319;34205.250
695.748;27761.033;  -10.169;32882.488
696.323;27474.371;   -8.339;32864.906
696.898;27649.039;   -8.169;33170.004
697.473;28074.529;  -12.309;32432.984
698.048;27521.762;  -10.989;31649.303
698.623;27178.793;   -9.329;30778.141
699.198;28580.219;   -9.849;31140.119
699.773;30044.207;  -12.329;31764.299
700.348;28853.252;  -10.389;31780.816
700.922;28704.695;   -9.269;32046.375
701.497;29771.662;   -9.329;32603.574
702.072;30093.133;  -10.789;34799.871
702.646;28630.074;  -10.839;35793.172
703.221;26402.645;   -9.099;35201.590
703.795;28179.646;  -10.939;34764.527
704.370;28632.049;  -12.859;34307.367
704.944;28833.188;  -11.559;33509.887
705.519;29490.904;   -7.939;31388.584
706.093;30682.273;  -10.499;31340.104
706.668;31019.871;  -11.289;32630.281
707.242;29986.756;  -11.509;32728.779
707.816;28822.096;   -9.639;32947.238
708.390;27189.400;  -11.429;33277.855
708.965;27568.426;  -11.869;33834.336
709.539;27759.359;  -11.689;33709.273
710.113;27842.438;  -10.478;33044.313
710.687;27360.313;  -10.228;31953.992
711.261;25791.043;  -13.698;30505.949
711.835;25522.387;  -13.378;30262.369
712.409;25873.699;   -9.698;31254.447
712.983;27891.773;  -11.898;32754.986
713.557;29187.574;  -15.138;34018.824
714.131;29153.717;  -14.098;34579.625
714.704;28304.775;   -9.958;33890.262
715.278;25736.730;  -10.028;33531.102
715.852;24512.229;  -11.148;33601.660
716.425;25560.785;   -9.068;33515.117
716.999;26702.016;  -10.038;33185.555
717.573;27638.303;   -9.798;33905.996
718.146;28701.094;  -12.378;35199.293
718.720;28815.211;  -11.918;35060.551
719.293;28649.729;   -8.088;34973.230
719.867;31549.445;  -10.888;36394.449
720.440;31301.156;  -11.938;36663.008
721.013;29484.025;  -12.818;35102.426
721.587;27949.271;  -10.298;33985.266
722.160;26688.270;  -10.048;33524.965
722.733;25610.682;  -12.108;32987.043
723.306;25856.316;  -10.818;33066.301
723.880;27999.164;   -8.908;33399.500
724.453;30284.896;   -9.878;33468.297
725.026;29719.811;  -11.188;33816.637
725.599;26940.248;  -11.678;32797.996
726.172;26685.330;   -9.618;33187.434
726.745;27585.512;   -8.258;35136.613
727.318;28824.449;  -12.978;35751.730
727.891;29579.828;  -12.148;35890.430
728.463;29079.348;   -8.968;34822.090
729.036;27684.594;  -10.188;32895.086
729.609;28184.891;  -11.788;31823.225
730.182;25538.781;  -11.788;31445.283
730.754;23271.184;  -10.268;32373.223
731.327;23680.268;   -9.998;33676.820
731.900;24111.887;  -12.228;33417.000
732.472;24706.045;  -13.848;31978.498
733.045;26070.418;   -8.698;30368.777
733.617;26145.969;  -10.607;30574.215
734.190;26583.559;  -11.507;31280.975
734.762;24391.367;  -13.647;31674.412
735.334;22504.785;   -9.767;31247.291
735.907;22848.633;   -9.897;29876.211
736.479;23103.244;  -11.637;29808.488
737.051;22724.828;   -9.567;30233.547
737.623;23227.395;   -8.187;31469.086
738.195;23521.941;  -11.187;31784.225
738.768;25453.975;  -12.337;32120.523
739.340;26387.297;  -12.227;32094.342
739.912;25624.285;  -11.057;31312.680
740.484;24278.568;  -10.207;31946.238
741.056;22614.412;  -10.047;32984.059
741.628;23626.412;  -13.627;33897.715
742.199;25764.773;   -7.177;33213.016
742.771;24608.537;  -10.797;31369.113
743.343;22545.773;  -11.997;31865.473
743.915;21628.223;  -12.867;32388.631
744.487;21597.645;   -7.617;31079.568
745.058;21655.348;   -9.557;30570.107
745.630;22245.057;   -9.877;29970.127
746.201;23551.871;  -14.177;29186.766
746.773;24350.889;   -9.237;28805.723
747.344;24168.670;   -9.847;29591.223
747.916;22346.494;  -11.657;31412.201
748.487;22282.129;  -10.587;32194.898
749.059;23589.014;   -8.707;32533.719
749.630;24403.916;  -10.537;32158.518
750.201;23581.316;  -11.687;30855.395
750.773;21899.912;  -11.647;28622.555
751.344;21450.826;   -7.147;28405.732
751.915;22210.336;   -9.757;28461.551
752.486;22408.414;  -12.427;27842.850
753.057;20592.855;  -12.227;27845.008
753.628;19379.014;  -10.417;27728.107
754.199;20229.344;  -11.767;27381.086
754.770;21276.178;  -11.187;25882.203
755.341;21493.541;  -10.507;25886.184
755.912;21675.934;   -9.387;26050.861
756.483;21217.994;  -10.647;26798.779
757.054;19439.021;  -11.837;27048.238
757.625;17962.020;  -12.716;26294.838
758.195;17745.252;   -9.666;26142.076
758.766;17492.738;   -8.656;26392.234
759.337;18007.359;  -12.856;26334.594
759.907;19368.871;  -13.366;27579.652
760.478;20282.510;   -8.576;28352.770
761.048;19786.297;  -10.526;27325.088
761.619;18801.492;  -11.116;26460.428
762.189;18841.568;  -12.136;26029.826
762.760;19904.174;   -9.456;26430.145
763.330;21129.514;   -7.136;26670.902
763.900;20794.959;  -11.786;26603.021
764.471;18441.537;  -11.546;25542.740
765.041;17000.607;   -8.096;24358.459
765.611;16741.482;   -8.876;23991.297
766.181;16967.865;  -12.196;24470.236
766.751;18142.141;  -11.636;24845.975
767.321;18025.826;  -10.156;24533.633
767.891;15945.079;  -11.766;24916.492
768.461;15261.823;  -14.936;24776.771
769.031;15704.512;  -12.356;24757.988
769.601;17389.322;   -7.526;24181.088
770.171;17596.863;  -10.766;23670.387
770.741;16699.607;  -13.176;22960.045
771.311;16693.059;  -10.616;22917.523
771.880;17343.299;   -9.576;23562.941
772.450;17409.744;  -10.336;24216.500
773.020;17336.055;  -13.516;24140.398
773.589;16382.570;  -13.466;24414.857
774.159;15586.821;   -8.686;23858.717
774.729;15199.733;   -9.476;22942.135
775.298;14910.986;  -13.666;22324.033
775.867;14499.354;  -11.716;21140.313
776.437;14661.810;   -9.906;20838.092
777.006;14435.331;  -12.166;20599.510
777.576;14039.017;  -12.356;20508.809
778.145;13984.144;  -11.646;20732.947
778.714;14119.547;   -8.226;21062.465
779.283;13706.320;   -9.556;20949.664
779.853;13185.601;  -14.116;20508.623
780.422;13554.343;  -11.506;20649.082
780.991;13136.393;   -9.556;21527.520
781.560;11849.280;   -9.095;22632.658
782.129;11594.207;  -12.135;23048.277
782.698;11570.202;  -10.865;23438.555
783.267;11215.367;   -9.335;23267.734
783.836;11166.326;  -11.045;22415.133
784.404;12127.286;  -13.865;20443.152
784.973;12798.354;  -13.095;19699.150
785.542;12893.552;  -11.575;19763.828
786.111;12726.088;   -9.705;20341.408
786.679;12261.604;  -12.105;20207.967
787.248;11953.234;  -12.455;19516.465
787.817;11736.718;  -11.535;18900.363
788.385;11405.972;   -9.765;17879.121
788.954;10867.928;  -14.005;17658.301
789.522;10213.278;  -11.955;17788.879
790.090;10553.901;  -10.135;18118.277
790.659;11178.318;  -10.975;18338.736
791.227;10852.326;  -13.375;18508.615
791.795;11235.758;  -12.375;17898.254
792.364;11548.745;  -10.725;17295.133
792.932;11849.007;   -9.715;16822.051
793.500;12140.192;  -12.675;17040.148
794.068;12381.410;  -13.495;17179.787
794.636;12542.785;  -10.885;16664.246
795.204;11847.675;  -11.045;16524.545
795.772;11767.454;  -13.175;17274.564
796.340;11286.918;  -12.445;17891.002
796.908;11049.989;   -9.735;17648.561
797.476;10979.732;   -9.815;17064.080
798.044;10613.090;  -13.985;16672.777
798.612; 9877.278;  -13.115;17023.996
799.180; 9467.261;  -10.185;16561.615
799.747; 9303.673;   -9.055;15962.773
800.315; 8980.101;  -12.385;15296.992
800.883; 8793.747;  -15.035;14801.771
801.450; 9018.895;  -10.365;14534.430
802.018; 9152.218;   -9.855;14173.248
802.585; 9155.062;  -11.905;14029.547
803.153; 9121.176;  -11.585;13836.846
803.720; 8954.911;   -9.095;13567.324
804.287; 8486.366;   -9.135;13360.622
804.855; 7980.174;  -11.604;13681.981
805.422; 7826.128;  -11.794;13536.560
805.989; 7908.542;  -10.734;13355.958
806.556; 8122.162;  -10.444;13747.896
807.124; 8402.260;  -12.764;13987.376
807.691; 8372.228;  -12.964;14038.674
808.258; 8194.448;  -11.134;14120.152
808.825; 7862.114;   -9.854;13860.111
809.392; 7957.553;  -10.504;13268.790
809.959; 7529.125;  -13.054;12680.389
810.526; 7038.818;   -8.294;12427.308
811.093; 6992.738;   -8.394;12030.105
811.659; 7599.229;  -12.304;11653.664
812.226; 8188.222;  -13.944;11637.183
812.793; 7956.465;  -10.484;11611.521
813.360; 7314.359;  -10.144;11885.181
813.926; 6977.870;  -11.684;12770.539
814.493; 6787.520;  -13.644;12677.638
815.060; 6431.181;   -9.724;11974.336
815.626; 6369.194;   -9.854;11594.715
816.193; 6702.719;  -13.254;11579.474
816.759; 6711.357;  -13.204;11666.972
817.325; 6728.965;   -9.434;11325.530
817.892; 7080.515;  -10.134;11105.369
818.458; 7513.997;  -13.474;10843.928
819.024; 7207.603;  -11.854;10714.406
819.591; 6932.667;  -10.244;10469.165
820.157; 6751.700;  -10.704;10235.523
820.723; 6242.796;  -12.324;10847.563
821.289; 5910.761;   -9.444;11040.980
821.855; 5829.485;   -8.374;10357.100
822.421; 5797.449;  -10.234; 9978.918
822.987; 5771.459;  -13.294; 9754.177
823.553; 5399.499;  -10.884;10065.755
824.119; 5191.169;   -8.884;10036.294
824.685; 5337.930;   -6.784;10029.192
825.251; 5488.410;  -12.004;10199.230
825.816; 5445.278;  -11.474; 9820.189
826.382; 5150.863;   -9.174; 9297.248
826.948; 5255.272;   -9.214; 9381.347
827.513; 5630.227;  -10.774; 9450.726
828.079; 5524.202;  -11.924; 9472.444
828.645; 4949.875;  -10.543; 9292.643
829.210; 4749.081;  -10.533; 9065.341
829.776; 4708.276;  -10.753; 9132.620
830.341; 4590.227;  -10.173; 9092.878
830.906; 4731.841;  -10.743; 9078.557
831.472; 5069.242;  -11.113; 8534.535
832.037; 4910.624;  -10.603; 8677.874
832.602; 4426.105;  -13.323; 8628.692
833.167; 4177.304;  -10.823; 8879.031
833.733; 4133.792;  -10.113; 9189.790
834.298; 4260.943;  -13.583; 9052.608
834.863; 4392.346;  -12.703; 8895.087
835.428; 4406.934;  -10.523; 8824.266
835.993; 4259.449;   -6.963; 8845.385
836.558; 4077.876;  -10.763; 8888.563
837.123; 4135.946;   -9.903; 8966.582
837.688; 4372.261;   -9.913; 8617.860
838.253; 4633.760;  -10.283; 8590.699
838.817; 4829.840;  -12.963; 8443.797
839.382; 4757.432;  -14.243; 8799.356
839.947; 4465.404;  -10.733; 8810.595
840.511; 4181.845;   -9.383; 8796.394
841.076; 3808.994;  -12.563; 8347.231
841.641; 3860.204;  -12.953; 8224.330
842.205; 3971.800;   -7.043; 8223.349
842.770; 3987.942;   -8.163; 8622.107
843.334; 4098.522;  -12.503; 8410.386
843.898; 4063.962;  -11.693; 8337.465
844.463; 4058.052;  -10.203; 8506.283
845.027; 3858.570;   -9.533; 8280.962
845.591; 3672.347;  -13.443; 8231.141
846.156; 3676.712;  -13.143; 7969.179
846.720; 3610.277;   -9.433; 7768.278
847.284; 3504.618;  -11.033; 7630.957
847.848; 3367.165;  -10.403; 7472.395
848.412; 3282.270;  -11.553; 7437.394
848.976; 3324.649;   -8.393; 7674.592
849.540; 3236.335;   -8.713; 7836.011
850.104; 3263.861;  -12.463; 7913.669
850.668; 3601.713;  -12.973; 7694.508
851.232; 3778.959;  -10.793; 7756.887
851.796; 3654.820;  -10.662; 7926.545
852.359; 3348.551;  -13.082; 7827.844
852.923; 3170.838;  -12.192; 7641.163
853.487; 3041.221;  -11.912; 7342.501
854.050; 3023.627;  -10.892; 7042.820
854.614; 3144.023;  -13.992; 7151.338
855.177; 3241.109;  -11.732; 7105.077
855.741; 3274.628;   -8.962; 6989.675
856.304; 3176.231;   -9.442; 6596.634
856.868; 3156.696;  -14.192; 6356.272
857.431; 3282.401;  -12.702; 6468.571
857.995; 3413.089;   -9.942; 6373.210
858.558; 3442.727;   -9.112; 6324.448
859.121; 3182.727;  -12.932; 6408.327
859.684; 3003.386;  -13.442; 6347.886
860.247; 3100.625;  -10.632; 6321.264
860.810; 3142.449;  -11.272; 6301.903
861.374; 2910.516;   -9.832; 6607.881
861.937; 2650.271;  -11.762; 6408.200
862.500; 2643.382;   -9.722; 6572.639
863.062; 2780.973;  -10.512; 6387.297
863.625; 2913.677;  -11.232; 6190.836
864.188; 3074.994;  -14.112; 5807.254
864.751; 3168.411;  -11.302; 5682.413
865.314; 3092.435;  -10.112; 5547.492
865.876; 2866.842;  -12.182; 5500.150
866.439; 2818.060;  -10.722; 5415.909
867.002; 2781.486;   -9.252; 5501.567
867.564; 2607.080;   -9.572; 5413.946
868.127; 2407.956;  -13.142; 5160.325
868.689; 2289.278;  -12.902; 5133.183
869.252; 2183.860;   -9.732; 5252.382
869.814; 2076.129;   -9.432; 5297.141
870.377; 2069.817;  -11.552; 5390.919
870.939; 2126.383;   -9.052; 5599.898
871.501; 2201.551;  -10.982; 5248.336
872.063; 2224.717;  -12.292; 4854.235
872.626; 2164.680;  -14.912; 4817.074
873.188; 2152.888;  -13.112; 4987.732
873.750; 2125.665;  -13.442; 4868.651
874.312; 2050.140;   -9.402; 4779.330
874.874; 1976.151;  -11.062; 4866.348
875.436; 1896.880;  -13.931; 4718.887
875.998; 1884.788;   -9.561; 4660.005
876.560; 1908.811;  -11.321; 4462.964
877.122; 1854.578;  -12.221; 4145.042
877.683; 1750.403;  -12.191; 4056.481
878.245; 1667.906;  -12.101; 3950.740
878.807; 1701.964;   -8.971; 4058.958
879.369; 1730.263;  -12.071; 3954.677
879.930; 1646.585;  -14.621; 3941.495
880.492; 1581.890;  -10.311; 4067.014
881.053; 1552.879;  -10.901; 3859.633
881.615; 1458.956;  -14.411; 3776.071
882.176; 1363.980;  -13.761; 3734.750
882.738; 1311.333;   -9.181; 3678.489
883.299; 1287.329;  -11.791; 3405.407
883.860; 1273.881;  -13.121; 3351.106
884.422; 1260.718;  -11.211; 3394.044
884.983; 1222.383;  -10.091; 3166.443
885.544; 1156.684;   -8.461; 3189.802
886.105; 1084.500;  -12.361; 3160.360
886.666; 1020.632;  -14.141; 3093.059
887.227;  961.690;  -11.361; 2941.957
887.788;  902.593;  -11.401; 2974.836
888.349;  836.711;  -13.791; 2721.214
888.910;  829.408;  -13.191; 2696.493
889.471;  832.747;   -9.881; 2560.172
890.032;  816.331;   -9.881; 2558.190
890.593;  788.750;  -10.371; 2567.669
891.153;  761.862;  -13.301; 2460.307
891.714;  718.093;  -11.431; 2372.046
892.275;  683.125;  -11.291; 2309.505
892.835;  651.929;  -11.471; 2382.543
893.396;  603.462;  -11.541; 2295.502
893.956;  547.026;  -11.181; 2162.420
894.517;  506.449;  -11.741; 2125.439
895.077;  497.644;  -11.671; 2086.978
895.638;  499.247;  -11.311; 2126.316
896.198;  475.282;   -9.831; 1838.275
896.758;  434.745;   -8.421; 1892.813
897.319;  404.104;  -12.351; 1792.232
897.879;  388.802;  -13.511; 1762.751
898.439;  364.844;  -12.001; 1661.149
898.999;  339.996;  -10.180; 1781.468
899.559;  330.128;  -12.030; 1703.347
900.119;  325.812;  -15.710; 1537.525
900.679;  321.449;   -8.900; 1638.384
901.239;  308.263;   -8.340; 1527.902
901.799;  297.678;  -13.910; 1456.441
902.359;  292.299;  -13.460; 1357.140
902.919;  285.822;  -11.490; 1331.118
903.479;  273.214;  -12.110; 1317.257
904.038;  254.786;  -11.720; 1262.595
904.598;  239.710;  -13.610; 1152.034
905.158;  236.404;  -11.040; 1240.893
905.717;  229.659;  -10.900; 1233.691
906.277;  219.826;  -15.080; 1217.330
906.836;  209.875;  -13.380; 1222.408
907.396;  201.610;  -10.780; 1193.047
907.955;  194.266;   -8.500; 1182.526
908.515;  189.176;  -12.760; 1099.364
909.074;  182.855;  -11.900; 1092.863
909.633;  177.820;   -8.950; 1069.121
910.192;  173.580;   -8.770; 1196.460
910.752;  167.889;  -12.390; 1029.960
911.311;  164.960;  -13.680; 1009.780
911.870;  161.284;  -12.370;  971.460
912.429;  163.212;  -10.900; 1094.080
912.988;  161.445;  -11.690; 1081.060
913.547;  157.091;  -13.240;  940.380
914.106;  152.902;  -11.990;  999.420
914.665;  149.224;   -9.990;  984.020
915.224;  148.433;  -12.880; 1035.760
915.782;  149.010;  -12.350;  922.560
916.341;  147.977;   -9.110; 1049.840
916.900;  144.290;   -9.270;  925.260
917.458;  142.589;  -13.240;  884.220
918.017;  141.826;  -13.550;  942.600
918.576;  141.661;  -12.320;  904.440
919.134;  139.515;  -11.490;  837.980
919.693;  137.913;  -13.670;  893.060
920.251;  136.386;  -15.470;  876.500
920.809;  135.979;  -11.290;  839.580
921.368;  134.591;  -10.210;  885.360
921.926;  133.930;  -12.140;  842.940
922.484;  132.814;  -13.080;  903.360
923.042;  132.617;  -11.720;  880.340
923.601;  135.430;   -7.480;  998.680
924.159;  133.743;  -11.570;  935.560
924.717;  130.782;  -13.840;  841.080
925.275;  129.994;  -10.640;  903.240
925.833;  129.390;  -11.540;  779.320
926.391;  130.691;  -12.960;  938.380
926.949;  128.662;  -14.130;  857.680
927.506;  128.821;  -11.750;  903.500
928.064;  129.507;  -10.250;  877.580
928.622;  128.068;  -13.030;  880.100
929.180;  128.400;  -13.400;  814.180
929.737;  129.982;  -10.700;  808.540
930.295;  132.454;  -10.070;  928.480
930.853;  134.018;  -11.960;  849.100
931.410;  135.123;  -13.120;  821.120
931.968;  134.494;  -10.770;  940.660
932.525;  134.014;  -10.680;  909.380
933.082;  134.669;  -13.130;  811.440
933.640;  135.097;  -13.210;  925.900
934.197;  134.457;  -11.060;  886.360
934.754;  135.010;   -9.580;  897.780
935.312;  137.543;  -14.000;  863.340
935.869;  141.327;  -10.710; 1012.980
936.426;  141.894;   -9.860;  872.800
936.983;  143.064;   -9.710;  889.020
937.540;  142.901;  -13.990;  838.280
938.097;  141.582;  -14.040;  940.120
938.654;  142.744;  -10.310;  898.860
939.211;  144.491;  -10.560;  952.480
939.768;  147.736;  -13.900;  915.420
940.324;  151.179;  -14.760;  904.200
940.881;  152.525;  -10.370;  878.500
941.438;  153.948;   -8.260; 1021.200
941.995;  149.906;  -12.540;  992.560
942.551;  147.015;  -14.670;  875.620
943.108;  146.507;  -10.450;  937.920
943.664;  148.862;  -10.750;  869.340
944.221;  152.337;  -11.550; 1088.140
944.777;  149.829;  -14.770;  869.680
945.334;  150.007;  -12.820;  884.840
945.890;  151.474;  -10.130;  946.480
946.446;  151.824;  -13.470;  947.020
947.003;  153.210;  -12.120;  964.940
947.559;  156.675;   -9.980; 1063.040
948.115;  155.135;   -9.080; 1026.540
948.671;  154.171;  -10.830;  967.300
949.227;  151.060;  -12.440;  859.560
949.783;  149.507;  -12.910;  858.900
950.339;  150.763;  -10.270;  991.000
950.895;  150.597;  -13.630; 1023.840
951.451;  149.933;  -15.100;  925.280
952.007;  150.155;  -11.330;  998.540
952.563;  148.392;  -10.580;  937.780
953.118;  147.347;  -13.440;  904.940
953.674;  147.395;  -12.710;  935.780
954.230;  146.918;  -10.350;  949.640
954.785;  144.821;   -9.190;  936.640
955.341;  142.910;  -11.200;  998.160
955.897;  141.067;  -16.560;  834.660
956.452;  143.417;  -12.570;  953.840
957.008;  142.507;   -7.970; 1083.640
957.563;  140.324;  -11.940; 1009.540
958.118;  135.242;  -13.450;  877.700
958.674;  136.630;  -12.030;  946.780
959.229;  136.822;   -9.410; 1013.980
959.784;  134.960;  -12.000;  832.400
960.339;  134.128;  -14.780; 1001.280
960.894;  130.598;   -9.860;  963.760
961.449;  126.366;   -9.970;  859.960
962.004;  126.283;  -10.900; 1212.840
962.559;  120.855;  -13.150;  860.140
963.114;  118.946;  -13.740;  742.480
963.669;  118.549;   -9.820;  915.500
964.224;  116.743;  -13.890;  874.340
964.779;  116.338;  -12.600;  828.420
965.334;  116.697;  -10.950; 1017.860
965.888;  115.007;  -11.170;  875.360
966.443;  118.763;  -12.540;  972.380
966.998;  118.257;  -15.780;  819.460
967.552;  118.688;   -9.760;  908.380
968.107;  114.712;   -9.060;  868.300
968.661;  115.863;  -11.950;  922.440
969.216;  115.348;  -12.800;  856.280
969.770;  115.628;  -11.210;  917.200
970.324;  114.962;  -11.610;  923.140
970.879;  110.928;  -11.370;  947.180
971.433;  108.057;  -12.540;  952.720
971.987;  103.387;  -11.320;  895.340
972.541;  100.785;  -10.720;  917.100
973.095;  100.455;   -9.680; 1009.460
973.649;   98.717;  -11.440;  809.480
974.203;   97.896;  -11.210;  829.040
974.757;   97.940;  -10.240;  855.220
975.311;   97.469;  -13.720;  872.600
975.865;   97.853;  -13.770;  881.820
976.419;   95.913;  -11.690;  857.400
976.973;   95.763;   -9.510;  849.620
977.526;   97.577;  -12.620;  949.920
978.080;   96.419;  -12.010;  796.780
978.634;   97.454;  -10.170;  921.320
979.187;   95.067;   -9.020;  905.400
979.741;   92.776;   -9.820; 1018.380
980.294;   88.526;  -14.870;  789.160
980.848;   86.085;  -12.380;  717.220
981.401;   88.375;  -10.350;  816.540
981.955;   90.567;  -13.720;  844.300
982.508;   89.506;  -11.490;  746.340
983.061;   89.505;  -10.000;  915.260
983.615;   85.490;  -11.480;  798.800
984.168;   83.360;  -13.220;  770.080
984.721;   82.360;  -13.960;  880.760
985.274;   81.753;  -10.870;  867.500
985.827;   81.203;   -9.790;  834.220
986.380;   78.190;  -13.120;  721.340
986.933;   77.694;  -12.450;  864.800
987.486;   75.583;  -10.210;  861.920
988.039;   73.714;   -8.430;  863.100
988.591;   72.970;  -10.520;  893.260
989.144;   70.565;  -14.860;  737.260
989.697;   69.747;  -13.080;  758.740
990.250;   70.903;  -10.150;  858.100
990.802;   68.750;  -13.430;  755.860
991.355;   70.547;  -12.750;  974.880
991.907;   68.288;  -12.040;  864.320
992.460;   66.029;  -11.330;  753.760
993.012;   64.793;  -13.610;  749.540
993.565;   63.810;  -13.460;  711.360
994.117;   65.370;   -9.360;  950.780
994.669;   62.042;  -11.300;  701.320
995.221;   60.475;  -13.540;  791.920
995.774;   58.988;  -13.430;  787.580
996.326;   57.577;  -12.520;  740.220
996.878;   57.048;  -10.950;  838.420
997.430;   54.862;  -14.300;  699.860
997.982;   54.728;  -13.760;  750.140
998.534;   53.977;  -11.530;  739.060
999.086;   52.630;  -10.310;  738.220
999.638;   50.993;  -12.530;  661.380
1000.190;   50.061;  -11.840;  699.320
1000.741;   50.753;  -10.260;  742.700
1001.293;   50.233;   -8.860;  686.020
1001.845;   48.226;  -13.700;  676.640
1002.396;   48.570;  -12.100;  743.400
1002.948;   48.350;  -12.760;  737.400
1003.500;   47.011;  -10.380;  723.780
1004.051;   48.196;  -11.900;  907.580
1004.603;   45.584;  -12.250;  791.820
1005.154;   42.299;  -13.210;  608.980
1005.705;   41.423;  -10.950;  723.960
1006.257;   40.654;  -13.880;  707.220
1006.808;   39.824;  -12.840;  685.460
1007.359;   39.014;  -10.570;  763.240
1007.910;   38.757;   -9.620;  646.640
1008.461;   38.072;  -13.630;  732.940
1009.013;   37.168;  -17.200;  588.340
1009.564;   38.783;  -10.200;  793.520
1010.115;   36.534;  -12.570;  597.040
1010.665;   35.824;  -15.150;  602.160
1011.216;   35.879;  -14.480;  667.920
1011.767;   34.976;  -11.340;  697.920
1012.318;   35.547;   -9.780;  736.980
1012.869;   34.556;  -12.380;  679.000
1013.419;   33.823;  -15.560;  603.120
1013.970;   34.832;  -11.010;  666.640
1014.521;   33.714;  -11.610;  620.620
1015.071;   34.202;  -13.450;  670.380
1015.622;   33.826;  -13.870;  635.460
1016.172;   33.305;  -11.610;  596.820
1016.723;   32.997;  -12.120;  614.380
1017.273;   31.981;  -13.620;  604.160
1017.823;   33.102;  -14.140;  650.340
1018.374;   32.433;  -12.800;  611.760
1018.924;   32.172;  -12.340;  716.880
1019.474;   31.796;  -11.410;  718.880
1020.024;   30.712;  -14.770;  657.580
1020.574;   31.871;   -9.780;  726.160
1021.124;   31.693;   -8.560;  673.580
1021.674;   29.551;  -15.190;  559.120
1022.224;   31.145;  -13.530;  708.940
1022.774;   30.205;  -13.280;  668.820
1023.324;   31.499;  -10.690;  753.520
1023.874;   32.333;  -10.240;  875.760
1024.423;   30.188;  -12.540;  613.700
1024.973;   29.746;  -10.010;  610.760
1025.523;   29.072;  -10.550;  620.960
1026.072;   29.000;  -13.560;  606.420
1026.622;   28.205;  -15.120;  675.740
1027.172;   28.968;  -11.260;  715.660
1027.721;   27.995;  -11.410;  601.220
1028.270;   28.908;  -13.530;  663.400
1028.820;   28.438;  -13.680;  638.080
1029.369;   28.284;  -13.520;  612.700
1029.918;   28.528;  -10.980;  649.840
1030.468;   28.077;  -13.530;  564.780
1031.017;   27.656;  -13.170;  634.800
1031.566;   26.821;  -12.200;  608.900
1032.115;   27.410;   -9.960;  694.500
1032.664;   25.916;  -13.210;  596.480
1033.213;   27.380;  -12.500;  735.420
1033.762;   26.124;  -11.910;  635.620
1034.311;   26.431;   -9.640;  677.220
1034.860;   26.663;  -13.310;  691.000
1035.408;   26.271;  -11.830;  722.720
1035.957;   26.977;  -12.000;  719.540
1036.506;   24.954;  -11.690;  530.800
1037.055;   26.990;  -10.990;  844.320
1037.603;   25.524;  -15.120;  664.000
1038.152;   24.301;  -12.450;  534.760
1038.700;   24.814;  -10.560;  585.740
1039.249;   24.463;  -11.080;  681.220
1039.797;   24.734;  -12.540;  633.360
1040.345;   24.628;  -11.920;  705.420
1040.894;   24.793;  -11.410;  625.300
1041.442;   23.762;  -14.320;  632.200
1041.990;   23.319;  -16.240;  559.160
1042.538;   22.598;  -11.680;  536.180
1043.087;   22.559;  -10.760;  570.860
1043.635;   24.020;  -11.850;  670.500
1044.183;   23.042;  -15.480;  586.400
1044.731;   22.153;  -11.770;  576.000
1045.279;   22.368;  -13.090;  674.920
1045.827;   24.237;  -12.440;  892.400
1046.374;   21.536;  -13.840;  515.420
1046.922;   21.300;  -13.220;  590.580
1047.470;   22.782;  -10.230;  691.300
1048.018;   22.237;  -14.590;  647.960
1048.565;   23.398;  -12.050;  708.600
1049.113;   21.190;  -11.650;  557.000
1049.660;   21.526;  -10.510;  629.660
1050.208;   21.576;  -13.310;  675.640
1050.755;   21.027;  -15.900;  606.580
1051.303;   21.756;  -11.430;  686.820
1051.850;   20.980;   -8.480;  635.120
1052.397;   19.165;  -15.010;  473.960
1052.945;   19.943;  -13.960;  617.760
1053.492;   22.227;  -13.150;  741.840
1054.039;   21.872;   -9.630;  720.180
1054.586;   20.052;  -13.680;  557.240
1055.133;   20.744;  -14.570;  693.140
1055.680;   20.378;  -13.820;  646.620
1056.227;   18.965;  -11.730;  542.780
1056.774;   20.405;  -12.480;  794.980
1057.321;   19.053;  -13.930;  523.260
1057.868;   19.168;  -11.690;  651.320
1058.415;   18.840;   -9.520;  651.980
1058.961;   19.839;  -13.160;  678.940
1059.508;   18.784;  -12.920;  643.820
1060.055;   18.790;  -11.920;  581.780
1060.601;   18.727;  -11.500;  624.300
1061.148;   18.729;  -14.330;  616.820
1061.694;   18.016;  -16.870;  592.580
1062.241;   18.195;  -10.330;  596.320
1062.787;   18.082;  -10.620;  663.140
1063.334;   19.305;  -10.110;  808.560
1063.880;   18.811;  -13.400;  668.360
1064.426;   17.975;  -10.680;  706.820
1064.972;   17.232;   -9.920;  601.340
1065.518;   16.084;  -10.980;  566.640
1066.065;   17.576;  -14.890;  624.460
1066.611;   16.714;  -12.870;  598.800
1067.157;   17.822;  -12.950;  641.860
1067.703;   16.987;  -13.540;  668.480
1068.249;   17.064;  -13.540;  605.220
1068.794;   16.808;  -12.600;  626.880
1069.340;   15.918;  -10.620;  578.960
1069.886;   15.636;  -12.830;  590.700
1070.432;   16.248;  -14.870;  541.720
1070.977;   15.205;  -11.980;  601.080
1071.523;   15.451;   -8.200;  573.060
1072.068;   16.005;  -12.330;  582.000
1072.614;   15.625;  -16.370;  527.760
1073.160;   16.886;  -11.100;  687.040
1073.705;   15.169;  -10.480;  572.520
1074.250;   15.083;  -14.520;  559.900
1074.796;   16.420;  -11.460;  655.160
1075.341;   15.292;  -11.950;  664.100
1075.886;   15.291;  -11.460;  594.240
1076.431;   14.654;  -13.770;  649.880
1076.976;   14.498;  -12.680;  639.220
1077.521;   14.318;  -13.170;  583.080
1078.067;   14.054;  -10.860;  579.400
1078.612;   14.537;  -13.920;  661.620
1079.156;   14.139;  -13.880;  601.540
1079.701;   15.222;  -13.120;  693.260
1080.246;   15.329;   -9.940;  696.300
1080.791;   13.799;  -14.740;  625.020
1081.336;   14.208;  -13.750;  659.320
1081.880;   14.211;  -13.400;  649.680
1082.425;   13.237;  -12.220;  573.480
1082.970;   14.340;  -11.610;  717.040
1083.514;   13.164;  -13.580;  597.000
1084.059;   12.262;  -12.810;  586.720
1084.603;   13.091;  -12.320;  565.840
1085.147;   12.686;  -13.190;  645.220
1085.692;   13.789;  -12.480;  716.800
1086.236;   11.525;  -13.020;  503.140
1086.780;   13.721;   -9.190;  751.440
1087.325;   12.772;  -12.480;  654.620
1087.869;   12.341;  -12.450;  610.700
1088.413;   13.295;  -12.240;  705.040
1088.957;   10.653;   -9.020;  543.400
1089.501;   12.864;  -10.320;  766.640
1090.045;   12.917;  -12.720;  726.480
1090.589;   10.028;  -13.690;  569.920
1091.133;   11.804;  -10.020;  673.340
1091.676;   11.585;  -12.330;  591.940
1092.220;   11.017;  -14.970;  600.920
1092.764;   12.777;  -12.430;  706.960
1093.307;   11.899;   -9.800;  673.780
1093.851;   10.971;  -14.970;  556.540
1094.395;   11.265;  -15.310;  683.140
1094.938;   10.857;  -10.370;  632.520
1095.482;   10.700;  -11.050;  559.800
1096.025;   11.368;  -11.840;  710.880
1096.568;   11.736;  -12.840;  779.280
1097.112;    9.333;  -14.700;  508.180
1097.655;   10.802;   -8.720;  603.000
1098.198;    9.253;  -13.610;  600.180
1098.741;    9.948;  -13.350;  612.860
1099.285;   10.482;  -11.230;  657.300
1099.828;    8.355;  -11.840;  439.400
1100.371;    9.427;  -10.840;  608.160
1100.914;    9.942;  -14.190;  682.660
1101.457;    9.786;  -11.240;  679.900
1101.999;    8.229;  -11.270;  584.680
1102.542;    9.690;  -11.480;  641.440
1103.085;    8.895;  -11.750;  658.500
1103.628;    9.373;  -11.400;  762.060
1104.170;    9.232;  -10.490;  588.280
1104.713;    9.636;  -10.600;  646.700
1105.256;    8.569;  -14.360;  557.440
1105.798;    7.721;  -13.210;  499.980
1106.341;    9.411;  -10.270;  728.900
1106.883;    7.521;  -12.200;  521.340
1107.425;    7.990;  -13.110;  668.180
1107.968;    8.376;  -12.840;  612.380
1108.510;    8.724;   -6.480;  684.960
1109.052;    7.614;  -13.940;  612.620
1109.594;    7.667;  -13.690;  554.440
1110.136;    8.342;  -11.880;  643.220
1110.679;    7.208;   -9.500;  633.080
1111.221;    7.595;  -14.160;  604.460
1111.763;    7.329;  -13.980;  559.220
1112.304;    7.208;  -13.880;  547.140
1112.846;    7.235;  -12.210;  666.240
1113.388;   10.212;  -11.390;  942.180
1113.930;    7.413;  -14.540;  694.200
1114.472;    7.111;  -12.640;  606.540
1115.013;    5.620;  -11.620;  551.280
1115.555;    5.715;  -13.640;  587.100
1116.097;    5.675;  -15.380;  579.480
1116.638;    6.694;  -12.640;  684.600
1117.180;    7.189;   -9.850;  667.740
1117.721;    6.648;  -13.690;  568.580
1118.262;    7.238;  -12.680;  677.960
1118.804;    6.439;  -12.530;  637.340
1119.345;    5.530;  -11.690;  578.400
1119.886;    6.970;  -13.380;  704.040
1120.427;    5.180;  -14.070;  589.020
1120.969;    4.993;  -13.500;  597.920
1121.510;    5.204;  -11.480;  563.060
1122.051;    6.457;  -12.830;  723.580
1122.592;    5.361;  -14.290;  655.420
1123.133;    4.327;  -12.400;  547.940
1123.673;    6.196;  -10.130;  706.480
1124.214;    4.845;  -12.930;  612.460
1124.755;    5.877;  -14.380;  639.460
1125.296;    5.698;  -14.000;  627.320
1125.836;    5.744;  -10.070;  691.500
1126.377;    5.225;  -12.640;  599.660
1126.918;    5.407;  -12.960;  614.980
1127.458;    3.995;  -13.350;  622.220
1127.999;    5.035;  -10.750;  656.980
1128.539;    4.875;  -12.350;  694.240
1129.079;    4.533;  -14.860;  632.720
1129.620;    3.972;  -13.840;  558.100
1130.160;    3.569;  -12.330;  539.480
1130.700;    4.371;  -14.530;  640.840
1131.240;    4.911;  -12.530;  643.700
1131.781;    3.619;  -14.450;  619.680
1132.321;    3.832;   -9.790;  599.120
1132.861;    3.296;  -14.860;  564.200
1133.401;    3.327;  -14.290;  593.940
1133.941;    3.564;  -11.750;  626.280
1134.481;    2.991;   -9.920;  597.580
1135.020;    2.042;  -12.290;  609.160
1135.560;    3.696;  -11.650;  674.940
1136.100;    2.799;  -16.270;  501.160
1136.640;    2.699;  -10.890;  510.480
1137.179;    3.019;  -14.180;  537.960
1137.719;    2.926;  -16.250;  605.400
1138.258;    3.715;  -14.230;  587.360
1138.798;    3.618;   -9.090;  663.780
1139.337;    1.778;  -15.130;  482.840
1139.877;    2.783;  -13.680;  642.360
1140.416;    4.465;  -11.320;  878.060
1140.955;    2.743;  -10.860;  535.380
1141.494;    2.482;  -12.920;  669.280
1142.034;    1.905;  -13.930;  583.520
1142.573;    3.075;  -11.440;  646.280
1143.112;    2.610;  -12.000;  553.480
1143.651;    2.035;  -13.670;  536.480
1144.190;    2.684;  -12.730;  691.640
1144.729;    1.846;  -14.560;  607.420
1145.267;    2.125;  -11.830;  584.900
1145.806;    2.979;  -12.230;  637.040
1146.345;    1.272;  -14.130;  635.020
1146.884;    1.610;  -11.590;  622.500
1147.422;    1.055;  -12.550;  533.060
1147.961;    2.719;  -11.180;  708.460
1148.500;    2.398;  -11.510;  669.720
1149.038;    2.480;  -11.640;  632.500
1149.577;    2.322;  -10.130;  698.640
1150.115;   -0.827;  -13.970;  452.280
1150.653;    1.728;  -14.520;  607.340
1151.192;    0.877;  -12.810;  552.920
1151.730;    0.961;   -9.100;  652.560
1152.268;    0.760;  -12.220;  589.520
1152.806;    1.100;  -14.140;  571.180
1153.344;   -0.286;  -12.350;  577.640
1153.882;    1.029;   -8.980;  600.060
1154.421;   -1.155;  -15.190;  470.620
1154.958;    0.161;  -15.210;  595.240
1155.496;    1.357;  -12.850;  645.280
1156.034;    0.868;   -9.940;  721.880
1156.572;    1.761;  -13.570;  667.060
1157.110;   -0.987;  -14.590;  473.940
1157.647;    0.886;  -13.030;  676.960
1158.185;   -0.347;  -12.140;  564.320
1158.723;   -0.728;  -14.390;  509.200
1159.260;    0.229;  -14.090;  701.700
1159.798;    1.468;  -11.920;  658.160
1160.335;   -0.219;  -11.110;  631.820

