
Integration time [ms]:   3.276
Averaging Nr. [scans]: 1000
Smoothing Nr. [pixels]: 0
Data measured with spectrometer [name]: 7414430SP
Wave   ;Sample   ;Dark     ;Reference
[nm]   ;[counts] ;[counts] ;[counts] 

288.544;  152.018;    7.793;  793.890
289.143;  155.863;    7.462;  681.602
289.742;  155.644;    8.602;  828.814
290.341;  141.324;    1.321;  789.841
290.940;  130.761;   -0.709;  730.702
291.538;  132.067;    0.881;  881.108
292.137;  132.090;    0.122;  792.581
292.736;  136.641;   -1.929;  975.101
293.335;  133.904;   -8.229;  735.086
293.934;  133.614;   -5.279;  781.677
294.532;  131.384;   -1.369; 1031.958
295.131;  118.012;   -7.641;  834.394
295.730;  117.636;   -8.420;  809.588
296.328;  116.321;   -5.611;  783.442
296.927;  118.079;   -5.781;  779.652
297.525;  118.103;   -6.361;  781.236
298.124;  109.232;  -11.382;  654.009
298.722;  112.046;   -7.641;  761.933
299.321;  110.161;   -6.811;  708.597
299.919;  108.857;   -6.991;  751.918
300.518;  106.108;  -10.362;  689.338
301.116;  106.835;   -9.581;  691.381
301.715;  106.519;   -4.891;  730.222
302.313;  105.705;   -8.801;  704.943
302.911;  102.111;   -8.522;  733.830
303.509;  106.412;   -6.171;  925.627
304.108;  104.005;   -7.311;  760.383
304.706;  104.077;   -8.321;  801.664
305.304;   97.996;  -10.222;  796.707
305.902;  102.556;   -6.021;  784.484
306.500;   98.893;   -4.971;  728.200
307.098;   98.085;   -7.061;  746.560
307.696;   95.898;   -8.801;  780.432
308.294;   95.845;   -6.411;  731.359
308.892;   98.269;   -2.901;  759.769
309.490;   93.962;   -5.041;  712.161
310.088;   92.428;   -5.002;  788.444
310.686;   96.768;   -2.041;  821.749
311.284;   91.939;   -2.351;  766.040
311.882;   90.044;   -4.422;  731.225
312.480;   87.248;   -4.192;  697.167
313.078;   88.659;   -1.172;  808.331
313.675;   89.203;   -2.601;  691.600
314.273;   84.313;   -1.312;  797.837
314.871;   84.746;   -3.942;  589.829
315.468;   82.078;   -2.802;  652.090
316.066;   84.513;   -0.701;  694.427
316.664;   77.511;   -4.362;  656.351
317.261;   81.421;   -2.872;  910.128
317.859;   76.408;   -2.022;  768.735
318.456;   77.477;   -0.531;  830.096
319.054;   73.481;   -3.912;  787.828
319.651;   72.588;   -4.752;  759.928
320.249;   70.882;   -2.602;  810.188
320.846;   69.277;   -0.821;  714.286
321.443;   66.196;   -4.642;  832.135
322.041;   63.534;   -5.002;  812.315
322.638;   60.996;   -3.982;  701.456
323.235;   62.189;   -3.411;  665.683
323.833;   59.593;   -7.361;  740.354
324.430;   54.745;   -8.611;  615.900
325.027;   55.847;   -4.061;  876.855
325.624;   55.667;   -4.031;  644.532
326.221;   52.436;   -7.481;  689.717
326.818;   52.505;   -5.281;  818.332
327.415;   55.895;   -7.460;  748.828
328.012;   55.839;   -5.510;  690.585
328.609;   53.563;   -7.880;  731.389
329.206;   52.700;   -8.331;  778.621
329.803;   51.823;   -5.121;  737.841
330.400;   54.707;   -4.510;  704.260
330.997;   56.131;   -6.441;  817.147
331.594;   54.689;   -8.831;  788.185
332.191;   60.002;   -7.621;  728.722
332.787;   62.797;   -4.591;  844.463
333.384;   61.203;   -7.412;  763.093
333.981;   60.709;   -8.293;  815.687
334.578;   63.101;   -7.052;  708.378
335.174;   66.176;   -3.102;  731.469
335.771;   65.826;   -5.943;  836.456
336.367;   62.423;   -7.393;  710.631
336.964;   65.470;   -4.063;  793.266
337.561;   63.347;   -3.813;  731.112
338.157;   58.681;   -4.654;  911.916
338.754;   56.799;   -7.934;  796.589
339.350;   55.794;   -4.414;  722.493
339.946;   57.247;   -4.664;  773.135
340.543;   48.886;   -6.375;  846.136
341.139;   44.105;   -9.815;  720.836
341.735;   41.880;   -4.526;  772.593
342.332;   39.410;   -4.895;  691.472
342.928;   40.835;   -4.295;  795.394
343.524;   34.555;   -5.476;  761.684
344.120;   30.141;   -5.856;  738.562
344.716;   34.377;   -2.155;  723.717
345.313;   31.786;   -6.275;  795.342
345.909;   26.415;   -8.815;  627.336
346.505;   28.514;   -5.305;  740.247
347.101;   29.065;   -2.674;  827.864
347.697;   29.873;   -4.344;  785.398
348.293;   23.959;   -9.975;  627.244
348.889;   25.803;   -5.774;  745.914
349.485;   24.171;   -5.004;  688.205
350.081;   25.258;   -4.704;  772.592
350.676;   19.741;   -6.635;  691.606
351.272;   24.497;   -4.504;  809.530
351.868;   23.856;   -3.914;  780.497
352.464;   20.909;   -9.044;  723.932
353.059;   18.034;   -8.314;  646.017
353.655;   21.053;   -7.024;  777.063
354.251;   21.921;   -5.343;  759.845
354.846;   16.119;   -8.604;  740.646
355.442;   14.185;   -6.945;  753.071
356.038;   16.590;   -7.564;  751.708
356.633;   16.408;   -5.814;  728.594
357.229;   14.959;   -7.364;  724.757
357.824;   12.590;   -8.024;  703.600
358.420;   11.631;   -9.384;  679.726
359.015;   11.810;   -5.104;  695.357
359.610;   13.019;   -6.854;  763.920
360.206;    6.979;  -10.185;  603.240
360.801;    9.983;   -7.054;  646.503
361.396;   12.395;   -5.034;  725.975
361.992;    8.046;   -8.284;  668.220
362.587;    5.480;   -8.625;  670.160
363.182;    7.193;   -7.674;  689.631
363.777;    7.782;   -5.164;  738.242
364.372;    7.553;   -8.604;  737.314
364.967;    4.025;   -9.055;  680.744
365.563;    8.079;   -6.114;  815.567
366.158;    4.776;   -5.814;  685.161
366.753;    6.127;   -7.854;  649.263
367.348;    4.169;   -7.804;  746.056
367.942;    3.972;   -7.954;  697.298
368.537;    2.856;   -4.984;  754.245
369.132;    3.247;   -8.564;  703.428
369.727;   -0.722;   -8.855;  638.079
370.322;    0.155;   -6.245;  580.186
370.917;    0.302;   -6.425;  710.646
371.511;    3.525;   -6.294;  861.834
372.106;   -0.058;   -7.685;  776.964
372.701;   -3.521;   -7.335;  585.988
373.296;    2.284;   -4.564;  863.135
373.890;   -2.961;  -10.235;  647.840
374.485;   -4.943;   -7.885;  691.199
375.079;   -0.391;   -7.324;  738.685
375.674;    0.207;   -3.494;  812.970
376.268;   -4.222;   -8.525;  691.759
376.863;   -9.103;  -10.086;  580.327
377.457;   -3.704;   -7.025;  662.490
378.052;   -5.077;   -3.585;  764.884
378.646;   -6.180;   -7.595;  741.167
379.240;   -6.438;   -8.335;  721.176
379.835;   -5.760;   -5.785;  636.978
380.429;   -8.120;   -4.335;  562.557
381.023;   -7.034;   -6.805;  779.205
381.617;   -9.361;   -9.195;  680.106
382.212;   -6.057;   -6.905;  685.303
382.806;   -6.436;   -3.745;  760.690
383.400;   -9.858;   -7.745;  672.281
383.994;  -10.750;   -9.765;  664.870
384.588;   -7.454;   -6.564;  697.701
385.182;   -5.980;   -5.344;  726.624
385.776;   -6.853;   -8.514;  706.875
386.370;  -10.315;   -9.555;  681.968
386.964;   -8.981;   -8.715;  684.155
387.558;   -7.172;   -6.174;  598.360
388.152;  -10.841;   -8.725;  681.959
388.745;   -8.712;   -7.965;  814.707
389.339;   -6.841;   -5.924;  747.642
389.933;   -6.282;   -5.524;  695.370
390.527;   -7.623;   -7.114;  859.029
391.120;  -13.604;  -10.725;  595.318
391.714;  -10.572;   -8.035;  711.633
392.308;   -7.779;   -3.574;  780.253
392.901;  -10.945;   -7.245;  642.460
393.495;  -13.272;   -9.285;  595.414
394.089;  -11.171;   -5.895;  760.452
394.682;  -11.411;   -4.295;  697.188
395.275;  -12.441;   -9.875;  719.927
395.869;  -13.585;   -8.485;  667.314
396.462;  -11.121;   -7.455;  616.609
397.056;   -7.506;   -5.424;  776.621
397.649;  -11.760;   -6.605;  731.575
398.242;   -9.743;   -8.224;  712.645
398.836;   -9.265;   -7.474;  766.408
399.429;  -10.818;   -7.094;  631.041
400.022;  -13.659;   -9.475;  665.902
400.615;  -11.606;   -7.145;  805.609
401.208;   -9.195;   -7.174;  691.451
401.802;  -11.789;   -5.515;  699.329
402.395;  -12.336;   -9.875;  683.502
402.988;  -13.712;   -8.845;  696.627
403.581;  -10.688;   -8.874;  646.878
404.174;   -7.733;   -5.324;  686.568
404.767;  -11.195;   -9.575;  638.583
405.360;  -13.043;  -10.965;  621.445
405.953;   -8.214;   -8.764;  759.034
406.545;   -7.921;   -7.514;  725.342
407.138;  -11.533;  -10.025;  618.350
407.731;  -10.349;  -10.034;  613.303
408.324;   -5.881;   -9.374;  660.554
408.917;   -6.711;   -6.534;  681.864
409.509;   -8.390;   -8.004;  740.396
410.102;  -10.451;   -9.875;  643.948
410.695;   -4.986;   -8.604;  665.758
411.287;   -6.422;   -6.794;  599.821
411.880;   -7.504;   -9.334;  585.421
412.472;   -9.999;  -10.254;  613.092
413.065;   -7.489;   -6.714;  629.408
413.657;   -5.010;   -7.234;  576.678
414.250;   -5.024;  -10.544;  646.681
414.842;   -6.901;   -9.744;  676.353
415.434;   -5.370;   -6.994;  570.463
416.027;    0.267;   -5.893;  652.196
416.619;   -2.442;   -7.264;  713.400
417.211;   -2.751;  -10.374;  599.352
417.804;    0.293;   -7.993;  628.499
418.396;   -3.197;   -7.234;  607.643
418.988;   -1.470;   -9.443;  659.238
419.580;   -4.152;  -10.724;  568.276
420.172;   -2.197;  -10.323;  536.196
420.764;    2.063;   -8.793;  672.482
421.356;    1.396;  -11.143;  636.898
421.948;   -0.371;   -8.293;  677.661
422.540;    4.983;   -7.893;  680.027
423.132;    4.339;   -7.082;  600.641
423.724;    1.050;   -8.653;  561.267
424.316;    3.446;  -10.213;  621.345
424.908;    6.096;   -9.762;  591.517
425.500;    6.863;   -5.572;  647.978
426.092;    7.467;   -8.422;  648.268
426.683;    6.946;   -9.283;  684.836
427.275;    9.059;   -7.852;  641.471
427.867;   11.380;   -5.272;  668.948
428.458;   11.124;   -7.682;  732.344
429.050;   10.425;  -10.612;  680.749
429.642;   11.822;   -9.882;  743.124
430.233;   12.689;   -6.962;  569.356
430.825;   13.849;   -6.842;  724.809
431.416;   11.656;   -9.672;  698.241
432.008;   15.409;   -6.552;  651.723
432.599;   16.661;   -6.891;  656.073
433.190;   12.507;  -10.912;  637.670
433.782;   11.952;  -11.172;  590.395
434.373;   19.883;   -6.061;  884.765
434.964;   18.013;   -8.251;  602.920
435.556;   16.799;   -9.722;  634.537
436.147;   18.883;   -9.082;  758.490
436.738;   19.215;   -8.041;  701.099
437.329;   25.056;   -7.341;  721.723
437.920;   18.003;   -8.162;  666.688
438.511;   17.657;  -11.802;  564.526
439.103;   24.134;  -10.191;  623.998
439.694;   26.117;   -7.601;  681.583
440.285;   26.947;   -8.541;  764.432
440.876;   24.846;   -9.751;  845.738
441.466;   24.434;   -9.401;  575.162
442.057;   29.419;   -7.760;  665.814
442.648;   28.662;   -9.971;  746.255
443.239;   26.802;  -11.001;  620.477
443.830;   32.108;   -7.990;  704.958
444.421;   33.307;   -7.910;  655.474
445.011;   30.202;   -8.131;  693.619
445.602;   30.405;   -7.111;  743.126
446.193;   31.274;  -10.920;  488.117
446.783;   35.896;   -6.500;  640.397
447.374;   31.985;   -8.671;  692.759
447.964;   32.543;  -10.781;  713.770
448.555;   40.160;   -9.650;  822.742
449.145;   36.913;   -8.660;  662.853
449.736;   38.707;   -8.990;  803.179
450.326;   38.135;   -9.500;  713.626
450.917;   43.776;   -8.680;  675.324
451.507;   42.483;   -7.520;  600.661
452.097;   42.765;   -8.590;  746.267
452.688;   44.836;  -11.340;  742.160
453.278;   43.935;  -10.100;  566.840
453.868;   48.654;   -6.019;  793.550
454.458;   45.811;   -9.440;  651.141
455.048;   46.812;  -10.560;  711.783
455.639;   47.918;  -11.799;  567.096
456.229;   51.991;   -6.899;  710.694
456.819;   53.796;   -7.389;  751.158
457.409;   53.759;  -11.119;  773.993
457.999;   56.631;   -9.289;  737.505
458.589;   57.076;   -6.139;  686.606
459.179;   56.777;   -8.729;  717.658
459.769;   54.850;   -9.789;  627.099
460.358;   59.801;  -10.259;  797.262
460.948;   59.652;   -7.299;  689.503
461.538;   61.143;  -10.289;  660.677
462.128;   59.836;  -11.269;  664.934
462.717;   66.546;   -9.368;  710.326
463.307;   69.776;   -7.908;  705.846
463.897;   65.050;   -9.599;  656.942
464.486;   63.678;   -9.769;  837.128
465.076;   68.964;   -8.048;  733.776
465.666;   72.559;   -9.358;  652.900
466.255;   70.551;   -7.919;  785.651
466.845;   69.190;  -11.689;  666.749
467.434;   73.356;   -7.818;  725.873
468.023;   73.610;   -7.678;  658.357
468.613;   71.202;  -10.939;  713.946
469.202;   74.855;  -10.118;  646.507
469.791;   79.730;   -9.108;  737.811
470.381;   81.611;   -6.058;  742.813
470.970;   81.607;  -10.428;  711.099
471.559;   81.136;  -10.268;  733.291
472.148;   84.118;   -8.448;  675.737
472.738;   86.753;   -6.917;  765.466
473.327;   86.686;  -11.978;  637.529
473.916;   86.135;  -11.888;  737.446
474.505;   90.767;   -9.437;  751.703
475.094;   93.648;   -6.747;  806.570
475.683;   93.348;   -9.367;  797.699
476.272;   94.363;  -12.637;  730.632
476.861;   96.651;  -10.027;  706.754
477.449;  103.588;   -8.716;  728.487
478.038;   98.570;   -9.577;  692.513
478.627;   99.690;   -9.718;  714.852
479.216;  106.643;   -8.947;  769.441
479.805;  108.704;   -6.256;  783.375
480.393;  109.487;   -7.937; 1008.945
480.982;  108.217;   -7.717;  874.501
481.571;  114.003;   -9.266;  858.333
482.159;  115.293;   -7.636;  705.386
482.748;  115.117;   -9.667;  821.385
483.336;  119.803;  -10.376;  858.209
483.925;  120.878;   -7.147;  774.373
484.513;  127.657;   -7.996;  758.962
485.102;  124.641;  -10.027;  810.965
485.690;  132.397;  -10.446; 1011.050
486.278;  135.500;   -8.446;  979.329
486.867;  135.803;   -6.356;  809.662
487.455;  137.707;   -9.136;  898.229
488.043;  140.857;  -10.646;  748.361
488.631;  148.393;   -7.456; 1005.079
489.220;  152.947;   -6.636;  908.626
489.808;  153.020;  -11.036;  741.415
490.396;  161.673;  -10.246;  914.645
490.984;  167.902;   -8.556;  830.161
491.572;  178.534;   -5.886;  940.315
492.160;  186.730;   -9.486;  919.081
492.748;  197.954;  -10.976;  884.341
493.336;  224.147;   -8.776; 1019.693
493.924;  252.880;   -5.465;  958.077
494.512;  283.902;   -9.986; 1066.638
495.100;  324.927;  -10.636; 1103.280
495.687;  382.646;  -10.885; 1206.373
496.275;  448.275;   -8.126; 1150.796
496.863;  521.563;  -10.586; 1281.171
497.451;  628.104;  -11.926; 1386.805
498.038;  774.743;  -10.885; 1556.729
498.626;  893.950;   -6.315; 1741.407
499.214; 1049.426;   -7.326; 2016.609
499.801; 1252.139;  -11.906; 2220.633
500.389; 1520.530;  -10.466; 2312.494
500.976; 1858.697;   -5.236; 2744.849
501.564; 2296.714;   -8.936; 3148.565
502.151; 2679.484;  -13.176; 3515.999
502.738; 3169.983;  -10.646; 3971.274
503.326; 3608.305;   -9.525; 4403.796
503.913; 4034.220;  -10.856; 5161.749
504.500; 4375.483;  -11.586; 5986.420
505.088; 4863.102;  -10.336; 6381.201
505.675; 5403.533;   -6.355; 6925.547
506.262; 6089.078;   -9.046; 7619.060
506.849; 6898.162;  -10.416; 8733.969
507.436; 7413.974;  -10.305; 9790.121
508.023; 7987.267;   -5.496; 9985.472
508.610; 8268.081;   -7.856;10434.618
509.197; 8975.411;  -10.097;11198.435
509.784;10423.150;  -10.886;12391.194
510.371;11444.890;   -9.315;13603.713
510.958;12270.426;   -9.936;14426.586
511.545;13165.817;   -9.326;15243.775
512.132;14051.799;  -10.075;15945.876
512.719;14632.746;   -7.796;16340.369
513.305;15580.661;  -10.606;18011.766
513.892;16472.088;  -11.486;19754.971
514.479;18071.910;   -9.126;20967.805
515.066;19703.537;   -6.026;22299.793
515.652;20989.141;   -8.466;22908.660
516.239;22136.135;  -10.886;23798.875
516.825;23209.969;  -11.496;25567.275
517.412;24349.703;   -5.796;28154.959
517.998;25261.834;  -10.506;28344.111
518.585;25321.553;  -10.076;27134.219
519.171;25487.420;   -8.315;27268.576
519.758;26809.689;   -8.596;28964.129
520.344;28882.523;   -8.466;30664.494
520.930;29190.354;  -11.006;32550.605
521.516;30864.711;  -10.495;35422.895
522.103;33580.555;   -5.526;38280.004
522.689;34509.691;   -8.746;37835.117
523.275;34221.906;  -11.376;37288.613
523.861;35223.336;  -11.156;37281.395
524.447;36339.758;   -8.135;37846.949
525.033;35835.559;   -7.896;38321.949
525.619;36261.637;  -12.476;38579.285
526.205;38074.484;   -9.516;40622.875
526.791;40909.488;   -6.926;42258.836
527.377;40767.047;   -8.346;42966.902
527.963;42661.645;   -8.717;42018.949
528.549;41563.582;  -11.016;42476.828
529.135;39857.988;   -8.536;41854.852
529.721;39148.723;   -9.666;41237.711
530.306;38547.520;  -10.066;41259.445
530.892;38744.773;  -11.356;41506.047
531.478;39933.258;   -6.596;43559.613
532.063;42496.188;   -8.836;47695.563
532.649;42984.180;  -10.047;50808.324
533.235;44284.629;   -9.746;51787.500
533.820;45698.555;   -6.566;52145.035
534.406;46617.973;  -10.817;51133.488
534.991;45961.316;   -9.416;49996.805
535.576;44777.148;   -9.036;48882.852
536.162;45194.680;   -6.156;46942.285
536.747;46357.688;  -11.607;45711.746
537.333;49832.684;  -11.787;48510.180
537.918;53280.426;  -12.437;50439.891
538.503;52086.621;   -7.196;50863.711
539.088;48771.449;  -10.556;50906.922
539.673;48773.898;   -8.767;52621.965
540.259;48715.641;  -10.026;52368.094
540.844;45854.727;   -7.416;50879.109
541.429;46501.281;   -9.467;52077.777
542.014;49926.566;   -9.527;52716.695
542.599;49986.270;   -9.946;52363.281
543.184;46623.246;   -7.927;53187.137
543.769;47229.074;   -9.297;54697.605
544.354;47141.676;  -10.127;53913.914
544.938;46305.176;   -9.267;49680.164
545.523;48609.207;   -6.506;47386.277
546.108;51143.734;   -9.787;49151.949
546.693;53320.789;  -11.587;51384.637
547.278;53225.906;  -10.986;51853.254
547.862;49764.668;   -8.206;51173.750
548.447;44805.230;  -10.067;51691.395
549.031;44307.199;   -9.637;52456.703
549.616;49131.055;   -9.926;52714.516
550.201;48370.859;   -6.347;52414.598
550.785;49114.523;   -7.917;52355.059
551.370;48566.313;  -10.867;54589.453
551.954;48505.750;   -9.047;58267.348
552.538;50020.613;   -7.827;59062.176
553.123;48362.449;  -10.287;58115.285
553.707;45863.641;  -12.178;56556.285
554.291;46599.527;   -8.717;56201.668
554.876;48538.895;   -7.457;55335.762
555.460;49093.938;  -10.387;54155.703
556.044;50641.043;   -9.618;53721.484
556.628;48825.250;  -11.567;53731.016
557.212;47457.484;   -8.097;54312.531
557.796;45474.008;  -11.077;53797.773
558.380;45656.258;  -11.108;56145.984
558.964;46889.410;   -9.057;57277.930
559.548;48016.387;   -6.977;56459.641
560.132;45861.254;  -11.457;54434.543
560.716;44416.699;  -11.378;54800.617
561.300;45170.309;   -9.577;57606.945
561.884;46403.387;   -7.127;58972.445
562.467;45163.922;   -7.118;57327.570
563.051;44399.520;  -13.358;54962.434
563.635;44656.586;  -10.178;52594.473
564.219;45255.961;   -7.837;50610.410
564.802;46205.105;  -11.398;49551.180
565.386;46237.902;  -12.788;48370.953
565.969;45711.844;   -9.077;48178.871
566.553;44647.738;   -6.207;49957.305
567.136;44988.520;   -8.568;50369.594
567.720;41278.512;  -11.868;49492.004
568.303;39671.008;   -8.268;50616.352
568.887;39615.617;   -8.698;50727.148
569.470;39850.453;   -6.808;51698.379
570.053;38817.051;  -13.188;52122.078
570.637;37316.195;  -12.037;52536.438
571.220;36852.129;   -8.577;51186.098
571.803;36910.070;   -8.498;51032.762
572.386;38594.496;  -10.498;49609.887
572.969;41444.344;   -9.388;48285.926
573.552;40430.824;   -8.338;47624.285
574.135;39441.422;   -8.518;45498.641
574.718;36658.699;  -13.628;41970.434
575.301;35353.141;  -10.893;41447.137
575.884;34047.578;   -8.158;40923.836
576.467;35181.027;  -10.328;45267.723
577.050;37395.891;  -13.058;48175.543
577.633;39218.703;   -9.458;47729.328
578.216;38208.766;   -8.928;47579.793
578.799;36997.645;   -9.358;47820.996
579.381;35299.004;  -11.388;48115.551
579.964;33399.184;  -11.718;47333.766
580.547;34916.984;   -8.588;46668.969
581.129;35933.859;   -8.859;44466.141
581.712;36649.887;  -10.729;44164.922
582.294;37472.043;  -11.118;46477.855
582.877;37573.676;   -5.218;48244.254
583.459;35537.438;   -8.679;47437.895
584.042;33700.520;  -10.709;46943.219
584.624;34168.895;  -11.669;46792.227
585.206;33801.477;   -8.218;46557.250
585.789;33832.711;  -10.569;45793.773
586.371;36588.430;  -11.859;43836.391
586.953;37550.254;  -10.719;42972.492
587.536;38652.063;   -7.198;42487.211
588.118;38827.477;   -8.720;42086.414
588.700;34641.473;  -10.439;43389.930
589.282;33505.785;   -9.198;43646.039
589.864;34615.695;   -9.199;43438.109
590.446;36184.695;  -11.319;43151.926
591.028;35972.504;  -11.159;42781.867
591.610;34842.707;  -11.779;42839.098
592.192;31828.406;   -7.668;42820.402
592.774;30028.156;  -11.949;40724.277
593.356;28917.854;  -12.129;39874.789
593.937;28444.629;  -10.669;39980.648
594.519;30586.473;   -6.509;42069.633
595.101;32873.098;  -10.849;42976.031
595.683;33154.730;  -11.679;44084.441
596.264;34150.086;   -9.049;43478.797
596.846;33043.973;   -8.849;43803.672
597.427;32433.711;   -9.570;42986.934
598.009;34138.820;  -12.620;42832.219
598.591;34540.836;  -10.039;42580.086
599.172;33738.125;  -10.369;43061.805
599.753;33755.785;   -9.140;41691.469
600.335;35718.441;  -11.430;40692.520
600.916;34344.953;   -9.939;39982.422
601.498;31591.721;   -8.479;40318.617
602.079;30119.939;  -10.920;40670.609
602.660;30015.260;  -11.480;41450.898
603.241;31089.740;  -11.699;41137.738
603.823;29893.063;   -9.579;38868.797
604.404;29657.033;  -10.620;38182.785
604.985;31222.973;  -10.450;38078.047
605.566;30528.598;   -9.129;38056.633
606.147;30483.516;   -7.510;37020.418
606.728;32641.537;  -10.660;37883.359
607.309;31618.156;  -11.740;38748.273
607.890;30830.203;   -9.759;38850.230
608.471;30602.756;   -8.250;37457.918
609.051;30016.018;   -9.240;36066.457
609.632;29003.104;  -12.120;35991.074
610.213;29725.852;   -9.110;37402.641
610.794;30308.291;   -8.030;38383.363
611.374;29696.252;   -8.110;40562.387
611.955;30274.664;  -13.560;38533.727
612.536;31926.305;  -11.400;36951.789
613.116;31300.787;   -8.070;37197.891
613.697;31493.777;  -10.830;38411.125
614.277;29898.014;  -11.641;38673.938
614.858;30823.012;  -13.310;37075.863
615.438;30410.244;   -7.460;35092.906
616.019;27689.357;   -7.601;33666.301
616.599;28072.588;  -12.020;34189.023
617.179;30117.166;  -11.780;36952.047
617.760;30965.094;   -8.570;39582.574
618.340;32043.795;  -11.471;38943.977
618.920;33465.844;  -11.170;37594.156
619.500;33127.445;  -11.071;37866.938
620.080;32209.697;   -7.750;37869.043
620.660;33166.902;  -12.711;36868.617
621.241;34177.637;  -10.211;36352.309
621.821;34278.984;  -10.961;35459.520
622.401;33882.383;   -7.720;35207.414
622.980;33006.820;   -8.981;35980.422
623.560;31400.031;   -9.331;37351.328
624.140;30502.385;   -9.850;34388.582
624.720;25753.777;   -7.451;32368.764
625.300;22075.551;   -9.070;32638.629
625.880;25277.775;  -12.601;34599.035
626.459;29098.141;  -11.751;36831.738
627.039;32099.324;   -9.281;38299.098
627.619;32021.398;   -8.801;38289.574
628.198;30293.242;  -12.071;37220.695
628.778;29556.189;   -9.461;37632.563
629.357;30354.256;   -8.491;38003.012
629.937;30332.855;   -9.721;38402.039
630.516;29808.912;   -9.951;37868.801
631.096;29750.441;  -11.731;35760.410
631.675;32410.889;   -8.572;35225.219
632.254;37586.184;  -11.282;35130.289
632.834;36967.141;  -13.322;35794.570
633.413;35155.492;  -10.301;35788.922
633.992;32175.994;   -8.582;34532.863
634.571;33483.457;   -8.352;33590.113
635.151;36267.695;  -11.912;34943.863
635.730;34431.402;  -10.511;35352.523
636.309;30851.117;   -7.731;35366.605
636.888;28248.270;   -9.952;36165.637
637.467;28850.129;  -11.672;37515.902
638.046;30938.102;   -8.901;39288.695
638.625;34225.191;   -7.912;38279.699
639.204;34088.848;  -10.022;37741.598
639.782;32043.750;  -12.252;38364.551
640.361;28243.182;  -10.041;36740.621
640.940;25344.281;  -11.161;34950.082
641.519;25824.387;   -9.701;34137.398
642.097;28425.986;  -11.271;35654.258
642.676;31344.834;   -8.651;35637.957
643.255;32577.715;   -8.711;36567.074
643.833;31737.627;   -9.581;37809.434
644.412;32077.471;  -13.711;37337.293
644.990;31297.586;  -11.811;37018.531
645.569;31016.238;   -9.411;36518.469
646.147;29990.012;  -10.291;36186.430
646.726;29340.844;  -12.401;36267.688
647.304;30801.479;  -10.411;36647.625
647.882;32698.002;   -9.651;39286.742
648.461;34041.453;   -9.631;39157.703
649.039;32578.156;  -11.881;35412.883
649.617;31916.150;   -9.661;34744.918
650.195;31705.158;   -9.301;35403.098
650.773;30661.447;  -10.511;35053.797
651.352;28156.404;  -11.521;33756.816
651.930;25823.596;  -12.211;31868.773
652.508;24065.488;   -9.171;33121.551
653.086;27860.191;   -9.371;33564.793
653.663;31106.508;  -13.161;34054.668
654.241;29823.174;  -13.031;35693.309
654.819;31305.354;   -9.371;36422.906
655.397;31082.064;  -10.511;38213.484
655.975;30791.000;  -10.371;39507.625
656.553;31090.262;  -10.051;39498.223
657.130;29351.248;  -10.061;40395.480
657.708;28598.830;   -9.561;39242.020
658.286;28507.754;  -11.511;38920.020
658.863;29778.979;  -10.261;40202.898
659.441;32616.590;   -7.531;39677.938
660.018;31841.781;   -9.501;40413.355
660.596;30693.373;  -13.301;39931.414
661.173;32680.650;  -11.211;39604.531
661.750;32923.867;   -9.951;39700.070
662.328;31996.250;   -9.390;39292.809
662.905;31256.627;  -11.330;38235.648
663.482;26846.508;   -9.050;36212.305
664.060;24704.861;   -8.240;35944.945
664.637;27377.268;  -10.050;35170.785
665.214;29424.393;  -11.760;34197.523
665.791;31411.908;  -10.530;34549.520
666.368;30007.930;   -9.690;35118.578
666.945;30263.863;   -9.320;36019.418
667.522;31891.846;  -11.860;36048.438
668.099;32300.975;  -10.770;36243.914
668.676;31502.059;   -6.260;35958.875
669.253;29743.354;   -7.000;37384.730
669.830;29928.707;  -10.190;36779.629
670.407;29648.299;   -9.550;35231.289
670.984;29829.342;   -9.260;35544.270
671.560;30142.482;   -9.280;35466.867
672.137;28898.949;  -11.810;34280.863
672.714;29809.820;  -11.490;34632.863
673.290;30142.652;   -7.740;35135.422
673.867;30222.332;  -10.660;36114.480
674.443;30663.898;  -12.230;36152.859
675.020;28947.104;  -10.450;35327.238
675.596;30002.158;   -9.260;35795.176
676.173;30518.945;  -10.780;35430.355
676.749;29978.814;  -13.690;33549.516
677.326;30202.482;  -11.980;32210.012
677.902;30435.979;   -8.630;32068.871
678.478;29734.232;  -10.730;32583.891
679.054;29353.275;  -10.520;32088.928
679.631;30154.332;  -11.920;30978.848
680.207;31098.221;   -7.490;33160.887
680.783;32346.887;   -9.860;35570.363
681.359;31462.420;  -13.380;36125.184
681.935;30663.066;  -12.480;35240.922
682.511;29680.064;   -7.900;34429.961
683.087;29577.414;   -7.710;34463.680
683.663;29411.559;  -11.480;34648.898
684.239;28612.650;  -14.090;34546.457
684.815;28150.557;   -7.560;35586.375
685.390;28446.156;   -9.910;35821.895
685.966;28928.332;  -11.159;35085.871
686.542;31560.641;  -11.169;34198.230
687.118;33805.375;   -5.959;32847.707
687.693;34063.434;  -10.329;32794.027
688.269;33241.363;  -12.059;33072.367
688.844;30968.025;  -10.909;33141.664
689.420;28902.182;   -8.019;33965.742
689.995;26816.568;   -8.399;34655.523
690.571;25633.949;  -10.949;33576.742
691.146;26089.279;   -9.619;32657.219
691.722;25464.719;   -8.999;32526.979
692.297;25292.162;  -11.589;33014.617
692.872;27212.580;  -11.739;34012.254
693.448;26743.693;  -11.059;34237.434
694.023;25911.430;  -10.139;34142.672
694.598;28113.934;   -9.029;34132.031
695.173;28448.262;  -13.319;34205.250
695.748;27713.736;  -10.169;32882.488
696.323;27431.666;   -8.339;32864.906
696.898;27305.008;   -8.169;33170.004
697.473;27260.857;  -12.309;32432.984
698.048;27113.041;  -10.989;31649.303
698.623;27389.203;   -9.329;30778.141
699.198;29340.195;   -9.849;31140.119
699.773;30345.176;  -12.329;31764.299
700.348;28754.637;  -10.389;31780.816
700.922;28790.799;   -9.269;32046.375
701.497;29383.043;   -9.329;32603.574
702.072;29535.053;  -10.789;34799.871
702.646;28625.129;  -10.839;35793.172
703.221;26511.447;   -9.099;35201.590
703.795;28408.557;  -10.939;34764.527
704.370;28934.686;  -12.859;34307.367
704.944;29390.375;  -11.559;33509.887
705.519;30565.779;   -7.939;31388.584
706.093;31530.736;  -10.499;31340.104
706.668;31564.467;  -11.289;32630.281
707.242;30186.049;  -11.509;32728.779
707.816;28736.266;   -9.639;32947.238
708.390;27414.932;  -11.429;33277.855
708.965;28327.330;  -11.869;33834.336
709.539;28876.873;  -11.689;33709.273
710.113;29233.770;  -10.478;33044.313
710.687;28500.029;  -10.228;31953.992
711.261;26284.086;  -13.698;30505.949
711.835;25962.219;  -13.378;30262.369
712.409;26830.287;   -9.698;31254.447
712.983;28509.246;  -11.898;32754.986
713.557;29501.279;  -15.138;34018.824
714.131;29403.459;  -14.098;34579.625
714.704;28717.689;   -9.958;33890.262
715.278;26282.711;  -10.028;33531.102
715.852;25504.727;  -11.148;33601.660
716.425;26161.535;   -9.068;33515.117
716.999;26675.391;  -10.038;33185.555
717.573;27780.424;   -9.798;33905.996
718.146;29055.416;  -12.378;35199.293
718.720;28678.180;  -11.918;35060.551
719.293;28067.387;   -8.088;34973.230
719.867;30905.582;  -10.888;36394.449
720.440;30886.582;  -11.938;36663.008
721.013;29452.139;  -12.818;35102.426
721.587;28167.139;  -10.298;33985.266
722.160;26438.127;  -10.048;33524.965
722.733;25503.748;  -12.108;32987.043
723.306;26310.924;  -10.818;33066.301
723.880;28481.672;   -8.908;33399.500
724.453;30288.535;   -9.878;33468.297
725.026;29246.539;  -11.188;33816.637
725.599;26485.715;  -11.678;32797.996
726.172;26619.721;   -9.618;33187.434
726.745;27888.154;   -8.258;35136.613
727.318;29548.293;  -12.978;35751.730
727.891;30340.221;  -12.148;35890.430
728.463;30178.326;   -8.968;34822.090
729.036;29015.363;  -10.188;32895.086
729.609;29249.799;  -11.788;31823.225
730.182;25861.869;  -11.788;31445.283
730.754;23439.072;  -10.268;32373.223
731.327;23605.023;   -9.998;33676.820
731.900;23637.107;  -12.228;33417.000
732.472;24901.387;  -13.848;31978.498
733.045;27089.383;   -8.698;30368.777
733.617;27111.006;  -10.607;30574.215
734.190;26701.438;  -11.507;31280.975
734.762;23831.973;  -13.647;31674.412
735.334;22149.381;   -9.767;31247.291
735.907;22703.463;   -9.897;29876.211
736.479;22434.002;  -11.637;29808.488
737.051;22067.516;   -9.567;30233.547
737.623;23532.955;   -8.187;31469.086
738.195;24601.238;  -11.187;31784.225
738.768;26153.570;  -12.337;32120.523
739.340;26148.459;  -12.227;32094.342
739.912;24989.604;  -11.057;31312.680
740.484;23866.162;  -10.207;31946.238
741.056;22798.838;  -10.047;32984.059
741.628;24515.869;  -13.627;33897.715
742.199;26827.602;   -7.177;33213.016
742.771;25191.479;  -10.797;31369.113
743.343;22770.555;  -11.997;31865.473
743.915;21505.650;  -12.867;32388.631
744.487;21638.344;   -7.617;31079.568
745.058;21810.344;   -9.557;30570.107
745.630;22498.203;   -9.877;29970.127
746.201;23570.176;  -14.177;29186.766
746.773;24027.645;   -9.237;28805.723
747.344;23913.373;   -9.847;29591.223
747.916;22547.813;  -11.657;31412.201
748.487;22324.311;  -10.587;32194.898
749.059;23577.918;   -8.707;32533.719
749.630;24696.762;  -10.537;32158.518
750.201;23784.867;  -11.687;30855.395
750.773;21998.914;  -11.647;28622.555
751.344;21935.922;   -7.147;28405.732
751.915;22994.697;   -9.757;28461.551
752.486;22406.596;  -12.427;27842.850
753.057;20103.820;  -12.227;27845.008
753.628;18931.705;  -10.417;27728.107
754.199;20147.414;  -11.767;27381.086
754.770;21313.566;  -11.187;25882.203
755.341;21217.217;  -10.507;25886.184
755.912;21452.330;   -9.387;26050.861
756.483;20916.871;  -10.647;26798.779
757.054;19085.465;  -11.837;27048.238
757.625;17767.912;  -12.716;26294.838
758.195;17443.980;   -9.666;26142.076
758.766;17072.166;   -8.656;26392.234
759.337;17993.086;  -12.856;26334.594
759.907;19880.842;  -13.366;27579.652
760.478;20763.150;   -8.576;28352.770
761.048;20175.184;  -10.526;27325.088
761.619;19366.355;  -11.116;26460.428
762.189;19281.002;  -12.136;26029.826
762.760;20234.471;   -9.456;26430.145
763.330;21419.873;   -7.136;26670.902
763.900;20837.131;  -11.786;26603.021
764.471;18081.096;  -11.546;25542.740
765.041;16743.580;   -8.096;24358.459
765.611;16927.395;   -8.876;23991.297
766.181;17462.672;  -12.196;24470.236
766.751;18327.973;  -11.636;24845.975
767.321;18190.336;  -10.156;24533.633
767.891;16148.301;  -11.766;24916.492
768.461;15466.929;  -14.936;24776.771
769.031;15849.839;  -12.356;24757.988
769.601;17583.754;   -7.526;24181.088
770.171;17773.160;  -10.766;23670.387
770.741;16960.658;  -13.176;22960.045
771.311;17095.270;  -10.616;22917.523
771.880;17459.240;   -9.576;23562.941
772.450;16943.771;  -10.336;24216.500
773.020;16762.602;  -13.516;24140.398
773.589;16349.110;  -13.466;24414.857
774.159;15959.180;   -8.686;23858.717
774.729;15625.682;   -9.476;22942.135
775.298;15175.107;  -13.666;22324.033
775.867;14753.421;  -11.716;21140.313
776.437;14699.088;   -9.906;20838.092
777.006;14324.711;  -12.166;20599.510
777.576;14267.914;  -12.356;20508.809
778.145;14460.765;  -11.646;20732.947
778.714;14359.730;   -8.226;21062.465
779.283;13593.294;   -9.556;20949.664
779.853;13248.810;  -14.116;20508.623
780.422;13709.072;  -11.506;20649.082
780.991;13243.585;   -9.556;21527.520
781.560;12155.621;   -9.095;22632.658
782.129;11965.136;  -12.135;23048.277
782.698;11946.537;  -10.865;23438.555
783.267;11638.126;   -9.335;23267.734
783.836;11592.903;  -11.045;22415.133
784.404;12506.382;  -13.865;20443.152
784.973;12892.830;  -13.095;19699.150
785.542;12741.555;  -11.575;19763.828
786.111;12656.846;   -9.705;20341.408
786.679;12334.174;  -12.105;20207.967
787.248;12111.687;  -12.455;19516.465
787.817;11832.568;  -11.535;18900.363
788.385;11382.716;   -9.765;17879.121
788.954;10773.232;  -14.005;17658.301
789.522;10320.553;  -11.955;17788.879
790.090;10879.623;  -10.135;18118.277
790.659;11262.747;  -10.975;18338.736
791.227;10668.805;  -13.375;18508.615
791.795;11122.604;  -12.375;17898.254
792.364;11498.616;  -10.725;17295.133
792.932;11778.827;   -9.715;16822.051
793.500;11988.735;  -12.675;17040.148
794.068;12263.959;  -13.495;17179.787
794.636;12444.566;  -10.885;16664.246
795.204;11880.481;  -11.045;16524.545
795.772;11836.889;  -13.175;17274.564
796.340;11357.569;  -12.445;17891.002
796.908;11197.105;   -9.735;17648.561
797.476;11222.818;   -9.815;17064.080
798.044;10829.581;  -13.985;16672.777
798.612; 9977.563;  -13.115;17023.996
799.180; 9611.539;  -10.185;16561.615
799.747; 9489.227;   -9.055;15962.773
800.315; 9156.880;  -12.385;15296.992
800.883; 8847.604;  -15.035;14801.771
801.450; 8859.078;  -10.365;14534.430
802.018; 8883.472;   -9.855;14173.248
802.585; 8879.234;  -11.905;14029.547
803.153; 8904.741;  -11.585;13836.846
803.720; 8886.681;   -9.095;13567.324
804.287; 8613.858;   -9.135;13360.622
804.855; 8160.033;  -11.604;13681.981
805.422; 8023.540;  -11.794;13536.560
805.989; 8007.043;  -10.734;13355.958
806.556; 8162.450;  -10.444;13747.896
807.124; 8475.049;  -12.764;13987.376
807.691; 8405.977;  -12.964;14038.674
808.258; 8191.333;  -11.134;14120.152
808.825; 7875.510;   -9.854;13860.111
809.392; 7954.016;  -10.504;13268.790
809.959; 7521.622;  -13.054;12680.389
810.526; 7111.911;   -8.294;12427.308
811.093; 7143.292;   -8.394;12030.105
811.659; 7712.910;  -12.304;11653.664
812.226; 8138.702;  -13.944;11637.183
812.793; 7801.561;  -10.484;11611.521
813.360; 7163.291;  -10.144;11885.181
813.926; 6737.687;  -11.684;12770.539
814.493; 6479.973;  -13.644;12677.638
815.060; 6132.349;   -9.724;11974.336
815.626; 6187.804;   -9.854;11594.715
816.193; 6626.175;  -13.254;11579.474
816.759; 6669.992;  -13.204;11666.972
817.325; 6765.030;   -9.434;11325.530
817.892; 7130.930;  -10.134;11105.369
818.458; 7536.188;  -13.474;10843.928
819.024; 7211.246;  -11.854;10714.406
819.591; 6903.443;  -10.244;10469.165
820.157; 6627.207;  -10.704;10235.523
820.723; 6092.039;  -12.324;10847.563
821.289; 5813.037;   -9.444;11040.980
821.855; 5771.758;   -8.374;10357.100
822.421; 5828.679;  -10.234; 9978.918
822.987; 5791.310;  -13.294; 9754.177
823.553; 5431.204;  -10.884;10065.755
824.119; 5234.268;   -8.884;10036.294
824.685; 5312.101;   -6.784;10029.192
825.251; 5402.718;  -12.004;10199.230
825.816; 5363.238;  -11.474; 9820.189
826.382; 5165.213;   -9.174; 9297.248
826.948; 5360.818;   -9.214; 9381.347
827.513; 5752.534;  -10.774; 9450.726
828.079; 5566.635;  -11.924; 9472.444
828.645; 5001.724;  -10.543; 9292.643
829.210; 4911.898;  -10.533; 9065.341
829.776; 4882.929;  -10.753; 9132.620
830.341; 4745.549;  -10.173; 9092.878
830.906; 4907.552;  -10.743; 9078.557
831.472; 5272.386;  -11.113; 8534.535
832.037; 5080.982;  -10.603; 8677.874
832.602; 4541.170;  -13.323; 8628.692
833.167; 4198.838;  -10.823; 8879.031
833.733; 4128.709;  -10.113; 9189.790
834.298; 4230.414;  -13.583; 9052.608
834.863; 4247.600;  -12.703; 8895.087
835.428; 4213.997;  -10.523; 8824.266
835.993; 4118.264;   -6.963; 8845.385
836.558; 4004.440;  -10.763; 8888.563
837.123; 4123.934;   -9.903; 8966.582
837.688; 4327.526;   -9.913; 8617.860
838.253; 4535.282;  -10.283; 8590.699
838.817; 4753.008;  -12.963; 8443.797
839.382; 4705.775;  -14.243; 8799.356
839.947; 4409.885;  -10.733; 8810.595
840.511; 4111.117;   -9.383; 8796.394
841.076; 3757.240;  -12.563; 8347.231
841.641; 3780.556;  -12.953; 8224.330
842.205; 3834.512;   -7.043; 8223.349
842.770; 3929.168;   -8.163; 8622.107
843.334; 4172.808;  -12.503; 8410.386
843.898; 4173.938;  -11.693; 8337.465
844.463; 4177.514;  -10.203; 8506.283
845.027; 3927.297;   -9.533; 8280.962
845.591; 3718.480;  -13.443; 8231.141
846.156; 3750.617;  -13.143; 7969.179
846.720; 3652.731;   -9.433; 7768.278
847.284; 3529.619;  -11.033; 7630.957
847.848; 3360.762;  -10.403; 7472.395
848.412; 3272.381;  -11.553; 7437.394
848.976; 3326.230;   -8.393; 7674.592
849.540; 3274.917;   -8.713; 7836.011
850.104; 3337.959;  -12.463; 7913.669
850.668; 3663.587;  -12.973; 7694.508
851.232; 3788.665;  -10.793; 7756.887
851.796; 3616.212;  -10.662; 7926.545
852.359; 3311.040;  -13.082; 7827.844
852.923; 3172.847;  -12.192; 7641.163
853.487; 3035.304;  -11.912; 7342.501
854.050; 2981.633;  -10.892; 7042.820
854.614; 3112.160;  -13.992; 7151.338
855.177; 3221.837;  -11.732; 7105.077
855.741; 3268.944;   -8.962; 6989.675
856.304; 3159.498;   -9.442; 6596.634
856.868; 3087.026;  -14.192; 6356.272
857.431; 3188.215;  -12.702; 6468.571
857.995; 3288.741;   -9.942; 6373.210
858.558; 3300.678;   -9.112; 6324.448
859.121; 3050.195;  -12.932; 6408.327
859.684; 2933.646;  -13.442; 6347.886
860.247; 3069.433;  -10.632; 6321.264
860.810; 3066.506;  -11.272; 6301.903
861.374; 2829.591;   -9.832; 6607.881
861.937; 2581.168;  -11.762; 6408.200
862.500; 2553.187;   -9.722; 6572.639
863.062; 2697.048;  -10.512; 6387.297
863.625; 2867.642;  -11.232; 6190.836
864.188; 3030.459;  -14.112; 5807.254
864.751; 3085.210;  -11.302; 5682.413
865.314; 2974.018;  -10.112; 5547.492
865.876; 2787.857;  -12.182; 5500.150
866.439; 2778.082;  -10.722; 5415.909
867.002; 2734.268;   -9.252; 5501.567
867.564; 2526.993;   -9.572; 5413.946
868.127; 2323.751;  -13.142; 5160.325
868.689; 2242.692;  -12.902; 5133.183
869.252; 2173.746;   -9.732; 5252.382
869.814; 2090.228;   -9.432; 5297.141
870.377; 2100.440;  -11.552; 5390.919
870.939; 2165.573;   -9.052; 5599.898
871.501; 2219.728;  -10.982; 5248.336
872.063; 2228.312;  -12.292; 4854.235
872.626; 2188.895;  -14.912; 4817.074
873.188; 2188.792;  -13.112; 4987.732
873.750; 2144.132;  -13.442; 4868.651
874.312; 2050.550;   -9.402; 4779.330
874.874; 1963.239;  -11.062; 4866.348
875.436; 1886.739;  -13.931; 4718.887
875.998; 1881.592;   -9.561; 4660.005
876.560; 1895.975;  -11.321; 4462.964
877.122; 1846.721;  -12.221; 4145.042
877.683; 1755.944;  -12.191; 4056.481
878.245; 1682.130;  -12.101; 3950.740
878.807; 1704.768;   -8.971; 4058.958
879.369; 1715.648;  -12.071; 3954.677
879.930; 1625.992;  -14.621; 3941.495
880.492; 1572.908;  -10.311; 4067.014
881.053; 1543.975;  -10.901; 3859.633
881.615; 1434.120;  -14.411; 3776.071
882.176; 1351.333;  -13.761; 3734.750
882.738; 1318.136;   -9.181; 3678.489
883.299; 1291.572;  -11.791; 3405.407
883.860; 1284.683;  -13.121; 3351.106
884.422; 1291.489;  -11.211; 3394.044
884.983; 1256.863;  -10.091; 3166.443
885.544; 1168.525;   -8.461; 3189.802
886.105; 1089.150;  -12.361; 3160.360
886.666; 1026.111;  -14.141; 3093.059
887.227;  969.821;  -11.361; 2941.957
887.788;  905.114;  -11.401; 2974.836
888.349;  844.487;  -13.791; 2721.214
888.910;  846.405;  -13.191; 2696.493
889.471;  853.028;   -9.881; 2560.172
890.032;  838.562;   -9.881; 2558.190
890.593;  813.867;  -10.371; 2567.669
891.153;  786.134;  -13.301; 2460.307
891.714;  739.551;  -11.431; 2372.046
892.275;  704.812;  -11.291; 2309.505
892.835;  667.453;  -11.471; 2382.543
893.396;  613.711;  -11.541; 2295.502
893.956;  558.710;  -11.181; 2162.420
894.517;  521.291;  -11.741; 2125.439
895.077;  514.292;  -11.671; 2086.978
895.638;  513.837;  -11.311; 2126.316
896.198;  487.179;   -9.831; 1838.275
896.758;  442.795;   -8.421; 1892.813
897.319;  412.279;  -12.351; 1792.232
897.879;  394.455;  -13.511; 1762.751
898.439;  369.454;  -12.001; 1661.149
898.999;  343.775;  -10.180; 1781.468
899.559;  336.663;  -12.030; 1703.347
900.119;  331.921;  -15.710; 1537.525
900.679;  328.778;   -8.900; 1638.384
901.239;  316.746;   -8.340; 1527.902
901.799;  305.478;  -13.910; 1456.441
902.359;  298.712;  -13.460; 1357.140
902.919;  291.763;  -11.490; 1331.118
903.479;  279.667;  -12.110; 1317.257
904.038;  257.057;  -11.720; 1262.595
904.598;  241.901;  -13.610; 1152.034
905.158;  237.542;  -11.040; 1240.893
905.717;  229.865;  -10.900; 1233.691
906.277;  218.951;  -15.080; 1217.330
906.836;  210.459;  -13.380; 1222.408
907.396;  202.608;  -10.780; 1193.047
907.955;  196.203;   -8.500; 1182.526
908.515;  190.342;  -12.760; 1099.364
909.074;  184.189;  -11.900; 1092.863
909.633;  178.519;   -8.950; 1069.121
910.192;  174.241;   -8.770; 1196.460
910.752;  169.480;  -12.390; 1029.960
911.311;  165.635;  -13.680; 1009.780
911.870;  162.881;  -12.370;  971.460
912.429;  163.679;  -10.900; 1094.080
912.988;  162.300;  -11.690; 1081.060
913.547;  156.294;  -13.240;  940.380
914.106;  152.136;  -11.990;  999.420
914.665;  148.507;   -9.990;  984.020
915.224;  149.194;  -12.880; 1035.760
915.782;  148.132;  -12.350;  922.560
916.341;  148.422;   -9.110; 1049.840
916.900;  144.205;   -9.270;  925.260
917.458;  142.576;  -13.240;  884.220
918.017;  141.969;  -13.550;  942.600
918.576;  141.195;  -12.320;  904.440
919.134;  139.990;  -11.490;  837.980
919.693;  137.575;  -13.670;  893.060
920.251;  135.959;  -15.470;  876.500
920.809;  134.904;  -11.290;  839.580
921.368;  134.276;  -10.210;  885.360
921.926;  132.895;  -12.140;  842.940
922.484;  131.436;  -13.080;  903.360
923.042;  131.672;  -11.720;  880.340
923.601;  134.256;   -7.480;  998.680
924.159;  132.650;  -11.570;  935.560
924.717;  130.077;  -13.840;  841.080
925.275;  129.713;  -10.640;  903.240
925.833;  130.043;  -11.540;  779.320
926.391;  129.939;  -12.960;  938.380
926.949;  128.141;  -14.130;  857.680
927.506;  128.712;  -11.750;  903.500
928.064;  128.674;  -10.250;  877.580
928.622;  128.043;  -13.030;  880.100
929.180;  127.451;  -13.400;  814.180
929.737;  128.376;  -10.700;  808.540
930.295;  131.711;  -10.070;  928.480
930.853;  133.382;  -11.960;  849.100
931.410;  134.342;  -13.120;  821.120
931.968;  133.908;  -10.770;  940.660
932.525;  133.748;  -10.680;  909.380
933.082;  133.876;  -13.130;  811.440
933.640;  134.543;  -13.210;  925.900
934.197;  132.050;  -11.060;  886.360
934.754;  133.370;   -9.580;  897.780
935.312;  136.212;  -14.000;  863.340
935.869;  139.539;  -10.710; 1012.980
936.426;  140.238;   -9.860;  872.800
936.983;  142.227;   -9.710;  889.020
937.540;  140.871;  -13.990;  838.280
938.097;  138.735;  -14.040;  940.120
938.654;  140.162;  -10.310;  898.860
939.211;  142.468;  -10.560;  952.480
939.768;  146.539;  -13.900;  915.420
940.324;  150.035;  -14.760;  904.200
940.881;  150.436;  -10.370;  878.500
941.438;  150.989;   -8.260; 1021.200
941.995;  146.994;  -12.540;  992.560
942.551;  144.938;  -14.670;  875.620
943.108;  144.721;  -10.450;  937.920
943.664;  146.156;  -10.750;  869.340
944.221;  150.485;  -11.550; 1088.140
944.777;  148.076;  -14.770;  869.680
945.334;  149.746;  -12.820;  884.840
945.890;  151.487;  -10.130;  946.480
946.446;  151.854;  -13.470;  947.020
947.003;  152.974;  -12.120;  964.940
947.559;  155.991;   -9.980; 1063.040
948.115;  154.519;   -9.080; 1026.540
948.671;  152.242;  -10.830;  967.300
949.227;  149.579;  -12.440;  859.560
949.783;  146.366;  -12.910;  858.900
950.339;  147.587;  -10.270;  991.000
950.895;  148.319;  -13.630; 1023.840
951.451;  147.991;  -15.100;  925.280
952.007;  149.130;  -11.330;  998.540
952.563;  150.511;  -10.580;  937.780
953.118;  149.944;  -13.440;  904.940
953.674;  147.980;  -12.710;  935.780
954.230;  149.137;  -10.350;  949.640
954.785;  146.416;   -9.190;  936.640
955.341;  143.788;  -11.200;  998.160
955.897;  141.794;  -16.560;  834.660
956.452;  143.259;  -12.570;  953.840
957.008;  141.297;   -7.970; 1083.640
957.563;  139.306;  -11.940; 1009.540
958.118;  134.998;  -13.450;  877.700
958.674;  135.612;  -12.030;  946.780
959.229;  137.090;   -9.410; 1013.980
959.784;  134.278;  -12.000;  832.400
960.339;  133.675;  -14.780; 1001.280
960.894;  129.182;   -9.860;  963.760
961.449;  125.958;   -9.970;  859.960
962.004;  126.671;  -10.900; 1212.840
962.559;  121.639;  -13.150;  860.140
963.114;  119.012;  -13.740;  742.480
963.669;  119.145;   -9.820;  915.500
964.224;  117.991;  -13.890;  874.340
964.779;  117.224;  -12.600;  828.420
965.334;  118.017;  -10.950; 1017.860
965.888;  116.770;  -11.170;  875.360
966.443;  119.548;  -12.540;  972.380
966.998;  117.988;  -15.780;  819.460
967.552;  117.626;   -9.760;  908.380
968.107;  114.535;   -9.060;  868.300
968.661;  114.115;  -11.950;  922.440
969.216;  115.481;  -12.800;  856.280
969.770;  115.800;  -11.210;  917.200
970.324;  115.453;  -11.610;  923.140
970.879;  112.019;  -11.370;  947.180
971.433;  108.358;  -12.540;  952.720
971.987;  103.814;  -11.320;  895.340
972.541;  100.883;  -10.720;  917.100
973.095;  100.152;   -9.680; 1009.460
973.649;   98.986;  -11.440;  809.480
974.203;   98.408;  -11.210;  829.040
974.757;   98.695;  -10.240;  855.220
975.311;   98.296;  -13.720;  872.600
975.865;   98.706;  -13.770;  881.820
976.419;   96.300;  -11.690;  857.400
976.973;   96.488;   -9.510;  849.620
977.526;   98.578;  -12.620;  949.920
978.080;   97.113;  -12.010;  796.780
978.634;   99.274;  -10.170;  921.320
979.187;   96.173;   -9.020;  905.400
979.741;   93.538;   -9.820; 1018.380
980.294;   88.893;  -14.870;  789.160
980.848;   87.521;  -12.380;  717.220
981.401;   89.483;  -10.350;  816.540
981.955;   91.949;  -13.720;  844.300
982.508;   90.066;  -11.490;  746.340
983.061;   90.042;  -10.000;  915.260
983.615;   87.150;  -11.480;  798.800
984.168;   84.055;  -13.220;  770.080
984.721;   82.992;  -13.960;  880.760
985.274;   81.686;  -10.870;  867.500
985.827;   81.292;   -9.790;  834.220
986.380;   79.077;  -13.120;  721.340
986.933;   77.331;  -12.450;  864.800
987.486;   75.828;  -10.210;  861.920
988.039;   75.272;   -8.430;  863.100
988.591;   73.031;  -10.520;  893.260
989.144;   71.170;  -14.860;  737.260
989.697;   70.066;  -13.080;  758.740
990.250;   70.887;  -10.150;  858.100
990.802;   70.400;  -13.430;  755.860
991.355;   71.227;  -12.750;  974.880
991.907;   68.717;  -12.040;  864.320
992.460;   66.207;  -11.330;  753.760
993.012;   66.018;  -13.610;  749.540
993.565;   63.743;  -13.460;  711.360
994.117;   66.324;   -9.360;  950.780
994.669;   63.283;  -11.300;  701.320
995.221;   61.647;  -13.540;  791.920
995.774;   58.789;  -13.430;  787.580
996.326;   57.587;  -12.520;  740.220
996.878;   57.246;  -10.950;  838.420
997.430;   55.354;  -14.300;  699.860
997.982;   54.461;  -13.760;  750.140
998.534;   53.549;  -11.530;  739.060
999.086;   52.405;  -10.310;  738.220
999.638;   51.246;  -12.530;  661.380
1000.190;   51.231;  -11.840;  699.320
1000.741;   49.906;  -10.260;  742.700
1001.293;   50.488;   -8.860;  686.020
1001.845;   48.486;  -13.700;  676.640
1002.396;   48.602;  -12.100;  743.400
1002.948;   47.940;  -12.760;  737.400
1003.500;   47.187;  -10.380;  723.780
1004.051;   46.968;  -11.900;  907.580
1004.603;   45.925;  -12.250;  791.820
1005.154;   41.969;  -13.210;  608.980
1005.705;   42.174;  -10.950;  723.960
1006.257;   41.167;  -13.880;  707.220
1006.808;   40.123;  -12.840;  685.460
1007.359;   39.762;  -10.570;  763.240
1007.910;   38.629;   -9.620;  646.640
1008.461;   38.488;  -13.630;  732.940
1009.013;   37.697;  -17.200;  588.340
1009.564;   39.323;  -10.200;  793.520
1010.115;   36.544;  -12.570;  597.040
1010.665;   36.623;  -15.150;  602.160
1011.216;   36.881;  -14.480;  667.920
1011.767;   35.825;  -11.340;  697.920
1012.318;   35.860;   -9.780;  736.980
1012.869;   35.107;  -12.380;  679.000
1013.419;   34.742;  -15.560;  603.120
1013.970;   35.283;  -11.010;  666.640
1014.521;   34.312;  -11.610;  620.620
1015.071;   34.240;  -13.450;  670.380
1015.622;   34.167;  -13.870;  635.460
1016.172;   33.650;  -11.610;  596.820
1016.723;   32.923;  -12.120;  614.380
1017.273;   32.570;  -13.620;  604.160
1017.823;   33.150;  -14.140;  650.340
1018.374;   31.590;  -12.800;  611.760
1018.924;   31.686;  -12.340;  716.880
1019.474;   32.380;  -11.410;  718.880
1020.024;   30.948;  -14.770;  657.580
1020.574;   32.307;   -9.780;  726.160
1021.124;   32.713;   -8.560;  673.580
1021.674;   30.744;  -15.190;  559.120
1022.224;   31.442;  -13.530;  708.940
1022.774;   31.098;  -13.280;  668.820
1023.324;   31.640;  -10.690;  753.520
1023.874;   32.931;  -10.240;  875.760
1024.423;   30.887;  -12.540;  613.700
1024.973;   29.954;  -10.010;  610.760
1025.523;   29.375;  -10.550;  620.960
1026.072;   28.617;  -13.560;  606.420
1026.622;   28.707;  -15.120;  675.740
1027.172;   30.356;  -11.260;  715.660
1027.721;   28.514;  -11.410;  601.220
1028.270;   29.016;  -13.530;  663.400
1028.820;   29.021;  -13.680;  638.080
1029.369;   28.029;  -13.520;  612.700
1029.918;   28.390;  -10.980;  649.840
1030.468;   27.345;  -13.530;  564.780
1031.017;   28.796;  -13.170;  634.800
1031.566;   26.582;  -12.200;  608.900
1032.115;   27.822;   -9.960;  694.500
1032.664;   26.231;  -13.210;  596.480
1033.213;   27.203;  -12.500;  735.420
1033.762;   27.180;  -11.910;  635.620
1034.311;   27.165;   -9.640;  677.220
1034.860;   26.625;  -13.310;  691.000
1035.408;   27.222;  -11.830;  722.720
1035.957;   26.867;  -12.000;  719.540
1036.506;   25.653;  -11.690;  530.800
1037.055;   26.520;  -10.990;  844.320
1037.603;   25.428;  -15.120;  664.000
1038.152;   24.112;  -12.450;  534.760
1038.700;   24.817;  -10.560;  585.740
1039.249;   24.451;  -11.080;  681.220
1039.797;   24.459;  -12.540;  633.360
1040.345;   25.505;  -11.920;  705.420
1040.894;   24.387;  -11.410;  625.300
1041.442;   24.323;  -14.320;  632.200
1041.990;   23.062;  -16.240;  559.160
1042.538;   23.394;  -11.680;  536.180
1043.087;   22.783;  -10.760;  570.860
1043.635;   24.286;  -11.850;  670.500
1044.183;   22.715;  -15.480;  586.400
1044.731;   22.677;  -11.770;  576.000
1045.279;   22.581;  -13.090;  674.920
1045.827;   25.240;  -12.440;  892.400
1046.374;   22.234;  -13.840;  515.420
1046.922;   21.038;  -13.220;  590.580
1047.470;   23.434;  -10.230;  691.300
1048.018;   23.094;  -14.590;  647.960
1048.565;   22.858;  -12.050;  708.600
1049.113;   21.362;  -11.650;  557.000
1049.660;   21.351;  -10.510;  629.660
1050.208;   22.053;  -13.310;  675.640
1050.755;   21.001;  -15.900;  606.580
1051.303;   21.779;  -11.430;  686.820
1051.850;   20.565;   -8.480;  635.120
1052.397;   19.424;  -15.010;  473.960
1052.945;   20.308;  -13.960;  617.760
1053.492;   21.114;  -13.150;  741.840
1054.039;   21.091;   -9.630;  720.180
1054.586;   20.257;  -13.680;  557.240
1055.133;   20.976;  -14.570;  693.140
1055.680;   20.416;  -13.820;  646.620
1056.227;   19.993;  -11.730;  542.780
1056.774;   21.156;  -12.480;  794.980
1057.321;   19.111;  -13.930;  523.260
1057.868;   19.377;  -11.690;  651.320
1058.415;   19.793;   -9.520;  651.980
1058.961;   19.277;  -13.160;  678.940
1059.508;   19.398;  -12.920;  643.820
1060.055;   19.832;  -11.920;  581.780
1060.601;   19.560;  -11.500;  624.300
1061.148;   19.256;  -14.330;  616.820
1061.694;   18.607;  -16.870;  592.580
1062.241;   18.763;  -10.330;  596.320
1062.787;   18.535;  -10.620;  663.140
1063.334;   20.628;  -10.110;  808.560
1063.880;   18.596;  -13.400;  668.360
1064.426;   18.657;  -10.680;  706.820
1064.972;   17.015;   -9.920;  601.340
1065.518;   16.443;  -10.980;  566.640
1066.065;   17.857;  -14.890;  624.460
1066.611;   16.829;  -12.870;  598.800
1067.157;   18.518;  -12.950;  641.860
1067.703;   17.299;  -13.540;  668.480
1068.249;   17.402;  -13.540;  605.220
1068.794;   17.550;  -12.600;  626.880
1069.340;   15.835;  -10.620;  578.960
1069.886;   16.400;  -12.830;  590.700
1070.432;   15.747;  -14.870;  541.720
1070.977;   15.992;  -11.980;  601.080
1071.523;   16.377;   -8.200;  573.060
1072.068;   16.163;  -12.330;  582.000
1072.614;   15.519;  -16.370;  527.760
1073.160;   16.374;  -11.100;  687.040
1073.705;   15.137;  -10.480;  572.520
1074.250;   15.641;  -14.520;  559.900
1074.796;   16.643;  -11.460;  655.160
1075.341;   16.599;  -11.950;  664.100
1075.886;   15.607;  -11.460;  594.240
1076.431;   14.862;  -13.770;  649.880
1076.976;   15.179;  -12.680;  639.220
1077.521;   14.519;  -13.170;  583.080
1078.067;   13.940;  -10.860;  579.400
1078.612;   14.688;  -13.920;  661.620
1079.156;   14.803;  -13.880;  601.540
1079.701;   14.922;  -13.120;  693.260
1080.246;   15.283;   -9.940;  696.300
1080.791;   14.216;  -14.740;  625.020
1081.336;   14.488;  -13.750;  659.320
1081.880;   13.744;  -13.400;  649.680
1082.425;   13.021;  -12.220;  573.480
1082.970;   14.829;  -11.610;  717.040
1083.514;   14.033;  -13.580;  597.000
1084.059;   12.500;  -12.810;  586.720
1084.603;   11.737;  -12.320;  565.840
1085.147;   12.933;  -13.190;  645.220
1085.692;   13.726;  -12.480;  716.800
1086.236;   11.876;  -13.020;  503.140
1086.780;   14.205;   -9.190;  751.440
1087.325;   13.130;  -12.480;  654.620
1087.869;   12.872;  -12.450;  610.700
1088.413;   13.209;  -12.240;  705.040
1088.957;   11.194;   -9.020;  543.400
1089.501;   13.514;  -10.320;  766.640
1090.045;   12.702;  -12.720;  726.480
1090.589;   10.813;  -13.690;  569.920
1091.133;   11.940;  -10.020;  673.340
1091.676;   12.056;  -12.330;  591.940
1092.220;   11.977;  -14.970;  600.920
1092.764;   12.507;  -12.430;  706.960
1093.307;   11.652;   -9.800;  673.780
1093.851;   10.105;  -14.970;  556.540
1094.395;   12.371;  -15.310;  683.140
1094.938;   10.947;  -10.370;  632.520
1095.482;   10.675;  -11.050;  559.800
1096.025;   11.509;  -11.840;  710.880
1096.568;   12.226;  -12.840;  779.280
1097.112;    9.010;  -14.700;  508.180
1097.655;   11.150;   -8.720;  603.000
1098.198;    9.387;  -13.610;  600.180
1098.741;    9.912;  -13.350;  612.860
1099.285;   10.546;  -11.230;  657.300
1099.828;    8.440;  -11.840;  439.400
1100.371;   10.462;  -10.840;  608.160
1100.914;   10.390;  -14.190;  682.660
1101.457;   10.466;  -11.240;  679.900
1101.999;    8.289;  -11.270;  584.680
1102.542;    9.767;  -11.480;  641.440
1103.085;    9.334;  -11.750;  658.500
1103.628;   10.216;  -11.400;  762.060
1104.170;    9.130;  -10.490;  588.280
1104.713;    9.451;  -10.600;  646.700
1105.256;    9.148;  -14.360;  557.440
1105.798;    8.434;  -13.210;  499.980
1106.341;   10.600;  -10.270;  728.900
1106.883;    8.679;  -12.200;  521.340
1107.425;    9.404;  -13.110;  668.180
1107.968;    8.622;  -12.840;  612.380
1108.510;    8.751;   -6.480;  684.960
1109.052;    7.927;  -13.940;  612.620
1109.594;    8.347;  -13.690;  554.440
1110.136;    8.757;  -11.880;  643.220
1110.679;    7.830;   -9.500;  633.080
1111.221;    8.340;  -14.160;  604.460
1111.763;    7.861;  -13.980;  559.220
1112.304;    6.800;  -13.880;  547.140
1112.846;    7.690;  -12.210;  666.240
1113.388;   10.060;  -11.390;  942.180
1113.930;    7.465;  -14.540;  694.200
1114.472;    6.569;  -12.640;  606.540
1115.013;    5.862;  -11.620;  551.280
1115.555;    6.087;  -13.640;  587.100
1116.097;    6.009;  -15.380;  579.480
1116.638;    6.749;  -12.640;  684.600
1117.180;    6.868;   -9.850;  667.740
1117.721;    6.456;  -13.690;  568.580
1118.262;    7.097;  -12.680;  677.960
1118.804;    7.519;  -12.530;  637.340
1119.345;    5.516;  -11.690;  578.400
1119.886;    6.442;  -13.380;  704.040
1120.427;    5.894;  -14.070;  589.020
1120.969;    5.361;  -13.500;  597.920
1121.510;    5.131;  -11.480;  563.060
1122.051;    6.246;  -12.830;  723.580
1122.592;    5.371;  -14.290;  655.420
1123.133;    4.397;  -12.400;  547.940
1123.673;    6.500;  -10.130;  706.480
1124.214;    5.566;  -12.930;  612.460
1124.755;    6.110;  -14.380;  639.460
1125.296;    5.975;  -14.000;  627.320
1125.836;    6.757;  -10.070;  691.500
1126.377;    4.541;  -12.640;  599.660
1126.918;    5.724;  -12.960;  614.980
1127.458;    4.400;  -13.350;  622.220
1127.999;    5.320;  -10.750;  656.980
1128.539;    5.699;  -12.350;  694.240
1129.079;    5.301;  -14.860;  632.720
1129.620;    3.995;  -13.840;  558.100
1130.160;    4.458;  -12.330;  539.480
1130.700;    4.897;  -14.530;  640.840
1131.240;    4.514;  -12.530;  643.700
1131.781;    3.819;  -14.450;  619.680
1132.321;    4.247;   -9.790;  599.120
1132.861;    3.107;  -14.860;  564.200
1133.401;    3.443;  -14.290;  593.940
1133.941;    4.630;  -11.750;  626.280
1134.481;    2.922;   -9.920;  597.580
1135.020;    2.608;  -12.290;  609.160
1135.560;    4.250;  -11.650;  674.940
1136.100;    3.367;  -16.270;  501.160
1136.640;    3.051;  -10.890;  510.480
1137.179;    2.973;  -14.180;  537.960
1137.719;    3.669;  -16.250;  605.400
1138.258;    3.023;  -14.230;  587.360
1138.798;    3.693;   -9.090;  663.780
1139.337;    1.933;  -15.130;  482.840
1139.877;    3.241;  -13.680;  642.360
1140.416;    4.891;  -11.320;  878.060
1140.955;    2.811;  -10.860;  535.380
1141.494;    2.799;  -12.920;  669.280
1142.034;    2.331;  -13.930;  583.520
1142.573;    3.830;  -11.440;  646.280
1143.112;    2.571;  -12.000;  553.480
1143.651;    2.567;  -13.670;  536.480
1144.190;    3.032;  -12.730;  691.640
1144.729;    2.177;  -14.560;  607.420
1145.267;    2.166;  -11.830;  584.900
1145.806;    3.319;  -12.230;  637.040
1146.345;    1.925;  -14.130;  635.020
1146.884;    1.993;  -11.590;  622.500
1147.422;    0.830;  -12.550;  533.060
1147.961;    2.991;  -11.180;  708.460
1148.500;    2.637;  -11.510;  669.720
1149.038;    2.397;  -11.640;  632.500
1149.577;    2.326;  -10.130;  698.640
1150.115;    0.544;  -13.970;  452.280
1150.653;    1.860;  -14.520;  607.340
1151.192;    1.320;  -12.810;  552.920
1151.730;    1.154;   -9.100;  652.560
1152.268;    0.830;  -12.220;  589.520
1152.806;    0.754;  -14.140;  571.180
1153.344;   -0.436;  -12.350;  577.640
1153.882;    1.082;   -8.980;  600.060
1154.421;   -0.405;  -15.190;  470.620
1154.958;    0.174;  -15.210;  595.240
1155.496;    1.294;  -12.850;  645.280
1156.034;    0.870;   -9.940;  721.880
1156.572;    2.020;  -13.570;  667.060
1157.110;   -0.353;  -14.590;  473.940
1157.647;    1.541;  -13.030;  676.960
1158.185;   -0.182;  -12.140;  564.320
1158.723;   -1.209;  -14.390;  509.200
1159.260;    0.811;  -14.090;  701.700
1159.798;    0.570;  -11.920;  658.160
1160.335;   -0.936;  -11.110;  631.820

