source
Integration time [ms]: 3468.598
Averaging Nr. [scans]: 10
Smoothing Nr. [pixels]: 0
Data measured with spectrometer [name]: 7414430SP
Wave   ;Sample   ;Dark     ;Reference
[nm]   ;[counts] ;[counts] ;[counts] 

288.544; 5215.292; 4983.385;    6.613
289.143; 4291.399; 4054.288;   14.216
289.742; 5514.597; 5296.867;   11.816
290.341; 5279.009; 5071.188;   -4.936
290.940; 4846.907; 4633.392;    0.852
291.538; 6092.512; 5870.872;    1.792
292.137; 5397.254; 5171.827;    6.262
292.736; 6980.609; 6773.389;    8.164
293.335; 4950.057; 4733.773;   -6.418
293.934; 5340.412; 5105.711;   -2.904
294.532; 7490.655; 7282.726;   -5.162
295.131; 5967.990; 5726.518;  -10.283
295.730; 5765.131; 5546.961;  -16.141
296.328; 5574.914; 5353.235;  -14.740
296.927; 5504.702; 5314.389;   -8.768
297.525; 5498.876; 5271.474;  -15.255
298.124; 4511.282; 4280.530;  -22.063
298.722; 5373.702; 5165.127;  -14.796
299.321; 4965.152; 4751.758;  -10.466
299.919; 5328.472; 5105.331;  -10.979
300.518; 4874.828; 4674.793;  -12.077
301.116; 4885.825; 4680.521;  -13.509
301.715; 5153.191; 4971.916;  -11.939
302.313; 4993.712; 4778.250;  -15.424
302.911; 5303.424; 5092.749;  -19.833
303.509; 6911.585; 6712.962;   -3.567
304.108; 5452.834; 5252.457;   -9.553
304.706; 5846.256; 5641.515;   -8.582
305.304; 5903.517; 5735.520;  -12.348
305.902; 5653.978; 5445.572;  -14.411
306.500; 5270.960; 5061.710;   -7.194
307.098; 5448.859; 5250.898;   -9.322
307.696; 5778.112; 5572.651;  -19.192
308.294; 5358.716; 5156.146;   -9.736
308.892; 5586.650; 5383.022;  -15.482
309.490; 5126.680; 4946.583;  -14.107
310.088; 5876.765; 5709.054;  -15.862
310.686; 6041.228; 5862.354;  -10.781
311.284; 5680.258; 5498.425;  -14.878
311.882; 5278.608; 5091.407;   -9.948
312.480; 5107.793; 4933.328;  -15.503
313.078; 6130.068; 5942.025;  -17.262
313.675; 5073.660; 4875.110;   -3.694
314.273; 6035.761; 5857.348;  -18.246
314.871; 4200.859; 4039.000;  -15.190
315.468; 4811.224; 4617.749;  -12.633
316.066; 5140.641; 4944.624;   -5.765
316.664; 4829.245; 4640.783;  -14.317
317.261; 6991.639; 6802.427;   -8.677
317.859; 5901.019; 5734.268;  -11.804
318.456; 6382.486; 6212.525;   -3.107
319.054; 6020.859; 5840.912;   -3.062
319.651; 5735.460; 5547.735;   -6.706
320.249; 6255.161; 6109.685;   -5.206
320.846; 5419.175; 5266.352;   -4.679
321.443; 6494.620; 6334.103;   -7.920
322.041; 6354.841; 6195.737;  -14.105
322.638; 5426.685; 5261.052;   -6.263
323.235; 5031.512; 4863.250;   -7.424
323.833; 5739.644; 5567.545;  -14.765
324.430; 4603.059; 4435.237;  -10.550
325.027; 6857.687; 6712.098;   -9.951
325.624; 4779.503; 4616.812;   -3.712
326.221; 5157.997; 4968.497;   -9.368
326.818; 6299.136; 6091.093;   -5.637
327.415; 5564.475; 5355.476;   -6.699
328.012; 5057.645; 4863.679;   -5.713
328.609; 5364.896; 5162.610;   -9.983
329.206; 5848.548; 5645.363;   -7.154
329.803; 5403.248; 5211.901;   -1.682
330.400; 5110.628; 4900.641;   -2.741
330.997; 6043.486; 5817.924;   -4.339
331.594; 5861.853; 5646.983;  -10.278
332.191; 5221.391; 4995.754;   -6.967
332.787; 6207.511; 5969.677;   -0.480
333.384; 5486.932; 5257.662;  -10.333
333.981; 6003.804; 5771.552;  -19.900
334.578; 5026.402; 4783.916;  -19.816
335.174; 5216.113; 4998.339;  -15.844
335.771; 6171.248; 5919.491;  -12.670
336.367; 5141.608; 4916.472;  -21.124
336.964; 5888.358; 5640.552;  -18.226
337.561; 5303.174; 5090.344;  -13.311
338.157; 6891.956; 6657.257;  -19.006
338.754; 5915.674; 5671.309;  -19.418
339.350; 5282.947; 5050.082;  -29.433
339.946; 5626.058; 5393.192;  -16.622
340.543; 6331.909; 6090.361;  -16.744
341.139; 5316.442; 5095.704;  -21.841
341.735; 5811.812; 5610.534;  -25.012
342.332; 5126.212; 4912.607;  -19.156
342.928; 5990.478; 5749.129;  -20.443
343.524; 5794.344; 5588.802;  -14.397
344.120; 5589.457; 5379.784;  -20.654
344.716; 5313.752; 5094.014;   -5.730
345.313; 6044.546; 5839.472;  -10.929
345.909; 4603.187; 4381.842;  -19.843
346.505; 5574.842; 5364.214;  -19.645
347.101; 6277.557; 6056.932;   -9.618
347.697; 5964.742; 5751.302;  -10.305
348.293; 4597.535; 4347.975;  -23.189
348.889; 5614.868; 5446.116;  -18.418
349.485; 5079.823; 4872.965;  -10.476
350.081; 5837.705; 5670.291;  -17.320
350.676; 5207.921; 5000.419;  -21.088
351.272; 6174.041; 5950.016;  -12.821
351.868; 5827.645; 5612.910;  -13.165
352.464; 5398.306; 5204.664;  -12.464
353.059; 4808.398; 4613.287;  -22.547
353.655; 5911.782; 5722.059;   -9.379
354.251; 5725.370; 5519.300;   -8.266
354.846; 5618.045; 5425.623;  -17.705
355.442; 5660.938; 5447.184;   -9.317
356.038; 5661.032; 5455.090;  -11.049
356.633; 5459.470; 5254.163;  -10.006
357.229; 5440.199; 5228.999;  -13.120
357.824; 5320.484; 5095.231;  -15.647
358.420; 5083.823; 4871.454;  -19.204
359.015; 5151.978; 4953.653;  -12.263
359.610; 5821.330; 5623.981;  -16.421
360.206; 4430.262; 4244.451;  -20.074
360.801; 4766.337; 4567.671;  -13.277
361.396; 5477.858; 5273.642;   -5.822
361.992; 5035.884; 4822.082;  -11.247
362.587; 5034.161; 4866.389;  -21.502
363.182; 5185.238; 5012.657;   -7.461
363.777; 5652.894; 5452.306;   -8.719
364.372; 5593.769; 5417.878;  -14.590
364.967; 5162.234; 4998.401;  -15.145
365.563; 6223.811; 6062.795;   -7.192
366.158; 5132.572; 4955.311;   -5.662
366.753; 4849.660; 4656.940;   -8.378
367.348; 5714.354; 5508.222;  -14.990
367.942; 5258.042; 5090.001;   -6.005
368.537; 5752.900; 5566.585;  -11.504
369.132; 5345.309; 5163.560;  -10.576
369.727; 4757.839; 4572.582;  -12.573
370.322; 4408.622; 4212.081;  -11.560
370.917; 5458.221; 5272.619;  -10.388
371.511; 6767.247; 6595.170;   -9.161
372.106; 6054.734; 5869.301;  -10.245
372.701; 4417.263; 4245.487;  -10.158
373.296; 6685.491; 6521.885;   -4.719
373.890; 4979.261; 4797.689;  -11.802
374.485; 5361.616; 5206.901;  -13.500
375.079; 5755.401; 5582.247;   -6.276
375.674; 6339.396; 6178.866;   -0.447
376.268; 5302.718; 5119.886;   -6.916
376.863; 4465.095; 4325.718;  -14.483
377.457; 5118.195; 4959.743;   -6.903
378.052; 5972.812; 5812.932;   -9.844
378.646; 5859.742; 5688.691;  -12.601
379.240; 5640.687; 5483.954;  -14.715
379.835; 4963.097; 4791.252;  -12.331
380.429; 4314.853; 4139.587;   -9.074
381.023; 6161.132; 6023.366;   -1.729
381.617; 5347.354; 5193.600;  -13.714
382.212; 5361.013; 5199.617;   -7.060
382.806; 5990.195; 5856.393;   -2.303
383.400; 5308.481; 5194.861;   -0.815
383.994; 5269.527; 5127.624;   -4.429
384.588; 5538.827; 5394.073;   -6.261
385.182; 5755.202; 5638.881;    0.008
385.776; 5691.590; 5545.624;   -3.247
386.370; 5409.263; 5300.699;   -1.030
386.964; 5454.468; 5324.055;   -1.346
387.558; 4726.107; 4587.712;   -2.020
388.152; 5436.439; 5338.543;   -5.345
388.745; 6604.364; 6478.322;   -2.774
389.339; 5887.771; 5769.749;    3.510
389.933; 5434.318; 5325.146;    5.280
390.527; 7018.752; 6889.151;    2.610
391.120; 4769.573; 4663.248;   -7.914
391.714; 5643.881; 5553.737;   -1.903
392.308; 6302.626; 6199.287;    6.023
392.901; 5176.883; 5082.758;   -4.103
393.495; 4812.601; 4713.759;    3.284
394.089; 6303.737; 6189.122;    8.655
394.682; 5705.107; 5610.813;    2.312
395.275; 5873.964; 5792.710;   -7.402
395.869; 5460.922; 5370.055;   -1.072
396.462; 4996.451; 4932.678;    6.454
397.056; 6286.750; 6202.715;    8.494
397.649; 6009.544; 5922.913;    1.599
398.242; 5844.479; 5768.239;    3.153
398.836; 6292.931; 6167.017;   11.395
399.429; 5082.228; 5014.096;   14.695
400.022; 5467.925; 5395.776;    3.627
400.615; 6699.829; 6618.121;    8.383
401.208; 5588.139; 5498.181;   13.295
401.802; 5793.729; 5681.382;    6.211
402.395; 5645.025; 5596.026;    7.227
402.988; 5726.619; 5664.872;    2.700
403.581; 5193.198; 5136.675;   11.225
404.174; 5549.954; 5480.048;   18.922
404.767; 5150.391; 5071.610;   14.169
405.360; 5131.033; 5064.078;    8.999
405.953; 6236.969; 6154.089;   13.138
406.545; 5977.994; 5915.479;   13.937
407.138; 5040.794; 4989.331;   10.869
407.731; 5009.214; 4971.279;   12.768
408.324; 5389.393; 5308.193;   22.921
408.917; 5637.702; 5555.781;   15.308
409.509; 6102.733; 6066.265;   12.239
410.102; 5368.885; 5291.206;   13.741
410.695; 5450.788; 5394.863;   20.249
411.287; 4919.496; 4872.253;   21.793
411.880; 4776.995; 4750.541;   22.965
412.472; 5014.260; 4994.453;   15.082
413.065; 5258.131; 5211.779;   23.423
413.657; 4727.088; 4700.924;   21.077
414.250; 5281.396; 5250.026;   12.349
414.842; 5553.448; 5521.505;   20.423
415.434; 4714.861; 4676.125;   19.906
416.027; 5270.470; 5250.987;   26.574
416.619; 5895.975; 5860.780;   15.705
417.211; 4852.529; 4856.906;   17.791
417.804; 5128.400; 5078.208;   30.244
418.396; 5017.583; 4972.632;   24.177
418.988; 5395.011; 5394.105;   24.904
419.580; 4633.101; 4639.345;   20.692
420.172; 4425.425; 4422.949;   22.275
420.764; 5472.086; 5436.114;   26.773
421.356; 5252.334; 5234.536;   25.731
421.948; 5516.619; 5520.057;   24.876
422.540; 5542.047; 5486.917;   30.042
423.132; 4877.410; 4874.056;   32.728
423.724; 4542.280; 4547.598;   21.317
424.316; 5102.638; 5074.269;   29.359
424.908; 4841.360; 4818.475;   28.798
425.500; 5305.503; 5270.527;   30.512
426.092; 5263.292; 5262.205;   26.741
426.683; 5664.393; 5674.779;   27.029
427.275; 5225.145; 5220.344;   32.611
427.867; 5397.216; 5381.797;   33.796
428.458; 5977.986; 5979.088;   34.453
429.050; 5564.136; 5560.808;   34.255
429.642; 6060.164; 6064.581;   39.082
430.233; 4496.362; 4497.833;   41.138
430.825; 5981.981; 5978.757;   31.581
431.416; 5692.333; 5693.486;   35.755
432.008; 5231.965; 5234.766;   40.566
432.599; 5249.855; 5254.004;   46.322
433.190; 5155.679; 5165.022;   46.897
433.782; 4544.896; 4558.587;   41.069
434.373; 7154.354; 7136.306;   48.778
434.964; 4813.259; 4799.398;   50.078
435.556; 5084.984; 5104.428;   52.381
436.147; 6132.325; 6134.034;   38.251
436.738; 5645.793; 5644.065;   47.237
437.329; 5780.113; 5767.012;   61.304
437.920; 5286.437; 5283.781;   48.611
438.511; 4455.750; 4484.836;   44.910
439.103; 4941.896; 4948.235;   62.404
439.694; 5420.335; 5438.619;   63.075
440.285; 5933.280; 5937.420;   61.033
440.876; 6853.873; 6875.643;   57.249
441.466; 4514.768; 4531.124;   61.306
442.057; 5236.191; 5215.991;   65.773
442.648; 6001.609; 5976.379;   65.676
443.239; 4922.630; 4920.651;   55.963
443.830; 5623.841; 5610.384;   69.631
444.421; 5137.635; 5137.718;   69.943
445.011; 5491.539; 5510.426;   72.791
445.602; 5879.998; 5907.933;   68.848
446.193; 3729.199; 3709.493;   80.044
446.783; 4895.745; 4895.904;   82.599
447.374; 5425.239; 5405.238;   77.419
447.964; 5685.193; 5641.364;   72.605
448.555; 6485.883; 6454.327;   82.041
449.145; 5171.069; 5148.146;   76.230
449.736; 6334.084; 6313.438;   75.545
450.326; 5589.788; 5572.809;   67.945
450.917; 5211.970; 5214.044;   77.598
451.507; 4628.139; 4629.224;   68.027
452.097; 5859.633; 5859.108;   67.771
452.688; 5743.596; 5714.359;   62.884
453.278; 4164.796; 4175.920;   65.512
453.868; 6259.409; 6226.240;   71.796
454.458; 4991.717; 4998.066;   60.956
455.048; 5516.304; 5505.911;   62.356
455.639; 4273.668; 4270.608;   58.782
456.229; 5407.083; 5442.075;   65.209
456.819; 5735.456; 5737.538;   61.466
457.409; 6003.739; 5988.460;   59.967
457.999; 5617.881; 5608.689;   58.093
458.589; 5130.203; 5144.935;   59.536
459.179; 5487.656; 5490.749;   55.994
459.769; 4703.598; 4700.417;   43.624
460.358; 6082.052; 6079.692;   46.978
460.948; 5194.273; 5199.387;   49.821
461.538; 4908.458; 4915.584;   54.678
462.128; 4971.183; 4979.425;   49.309
462.717; 5286.850; 5271.431;   52.774
463.307; 5286.773; 5279.012;   48.101
463.897; 4856.553; 4840.453;   45.606
464.486; 6456.066; 6435.799;   45.010
465.076; 5501.538; 5508.673;   45.519
465.666; 4734.757; 4710.358;   50.058
466.255; 5919.442; 5932.642;   44.463
466.845; 4834.656; 4845.475;   41.206
467.434; 5397.730; 5385.521;   44.847
468.023; 4733.204; 4736.857;   46.760
468.613; 5300.103; 5274.485;   39.736
469.202; 4668.993; 4667.222;   46.461
469.791; 5376.711; 5351.184;   47.944
470.381; 5365.477; 5350.895;   47.529
470.970; 5164.192; 5136.348;   43.773
471.559; 5380.767; 5390.396;   41.646
472.148; 4760.950; 4762.518;   37.914
472.738; 5491.240; 5495.057;   48.071
473.327; 4460.726; 4456.801;   47.871
473.916; 5317.594; 5287.146;   37.716
474.505; 5411.411; 5393.509;   40.256
475.094; 5886.493; 5865.358;   43.269
475.683; 5721.938; 5701.447;   36.499
476.272; 5169.556; 5158.572;   44.542
476.861; 4938.988; 4900.277;   42.297
477.449; 5055.754; 5016.748;   46.878
478.038; 4739.899; 4744.075;   35.156
478.627; 4951.456; 4943.110;   42.514
479.216; 5351.071; 5325.338;   43.937
479.805; 5417.277; 5371.653;   51.393
480.393; 7336.121; 7300.708;   53.239
480.982; 6249.524; 6238.065;   38.955
481.571; 6043.013; 6005.705;   45.436
482.159; 4650.032; 4618.991;   51.007
482.748; 5665.921; 5641.481;   49.695
483.336; 5903.817; 5872.924;   48.280
483.925; 5034.246; 4993.409;   47.166
484.513; 5005.305; 4970.040;   55.404
485.102; 5397.343; 5368.277;   54.238
485.690; 7038.006; 7009.038;   55.748
486.278; 6772.063; 6745.635;   55.934
486.867; 5266.060; 5215.002;   57.106
487.455; 5972.940; 5939.843;   56.979
488.043; 4666.394; 4629.218;   57.564
488.631; 6751.297; 6732.188;   57.432
489.220; 5903.357; 5888.118;   63.646
489.808; 4445.778; 4399.126;   65.449
490.396; 5827.490; 5816.073;   61.977
490.984; 5024.460; 4951.264;   68.834
491.572; 5863.924; 5823.526;   70.775
492.160; 5537.494; 5484.568;   67.564
492.748; 5122.515; 5103.664;   66.808
493.336; 5965.337; 5918.320;   79.747
493.924; 5092.712; 5054.267;   88.688
494.512; 5866.009; 5817.397;   84.120
495.100; 5706.650; 5691.016;   86.250
495.687; 6088.660; 6014.601;  103.074
496.275; 4924.567; 4878.941;  108.717
496.863; 5148.527; 5065.160;  107.035
497.451; 5069.289; 5034.038;  117.993
498.038; 5330.410; 5313.558;  120.116
498.626; 5139.623; 5086.890;  143.059
499.214; 5519.963; 5471.485;  153.434
499.801; 5368.392; 5322.221;  175.121
500.389; 4397.881; 4364.446;  185.617
500.976; 5608.586; 5544.377;  215.789
501.564; 5407.389; 5330.850;  240.321
502.151; 3885.529; 3852.220;  267.007
502.738; 5069.081; 5027.823;  317.961
503.326; 5182.012; 5129.429;  361.216
503.913; 5443.985; 5378.604;  401.433
504.500; 5544.217; 5530.499;  446.492
505.088; 4744.738; 4710.506;  512.063
505.675; 5198.123; 5123.102;  586.387
506.262; 5158.572; 5085.023;  671.021
506.849; 5262.964; 5209.396;  759.062
507.436; 5972.206; 5891.975;  849.788
508.023; 5239.095; 5196.791;  944.288
508.610; 5814.753; 5784.424; 1020.690
509.197; 5631.011; 5582.570; 1089.052
509.784; 5278.901; 5220.757; 1133.776
510.371; 4409.483; 4366.182; 1165.501
510.958; 5372.433; 5338.453; 1251.735
511.545; 6221.901; 6150.146; 1350.248
512.132; 5284.690; 5223.521; 1525.945
512.719; 4721.786; 4663.104; 1834.933
513.305; 4871.490; 4822.911; 1965.349
513.892; 6123.683; 6074.784; 1963.265
514.479; 5413.257; 5352.118; 2046.446
515.066; 5930.916; 5865.174; 2252.803
515.652; 5404.040; 5316.741; 2567.247
516.239; 5753.423; 5688.453; 2636.919
516.825; 4498.702; 4440.519; 2482.304
517.412; 6602.419; 6569.657; 2427.031
517.998; 5166.127; 5124.672; 2540.463
518.585; 5096.629; 5041.720; 2609.007
519.171; 5406.812; 5357.517; 2842.088
519.758; 4575.430; 4527.980; 3090.703
520.344; 5837.801; 5801.957; 3176.076
520.930; 4714.688; 4660.865; 3295.037
521.516; 5609.325; 5568.661; 3500.959
522.103; 6159.405; 6109.140; 3736.704
522.689; 5141.664; 5046.509; 3971.022
523.275; 5974.557; 5921.020; 4213.778
523.861; 5195.466; 5141.817; 4190.361
524.447; 5981.752; 5895.449; 4070.602
525.033; 6052.405; 5969.365; 4088.892
525.619; 4889.445; 4824.573; 4416.851
526.205; 4579.235; 4522.824; 4836.835
526.791; 5123.624; 5080.638; 4885.903
527.377; 4959.624; 4886.777; 4544.907
527.963; 5413.138; 5357.608; 4321.995
528.549; 5547.031; 5471.029; 4473.979
529.135; 4855.236; 4799.785; 4788.663
529.721; 5371.871; 5289.275; 4888.577
530.306; 7204.332; 7149.079; 4775.779
530.892; 5096.054; 5035.210; 4793.906
531.478; 4981.815; 4910.001; 4956.948
532.063; 4769.416; 4698.426; 5136.936
532.649; 6577.435; 6475.575; 5336.867
533.235; 4756.394; 4710.380; 5748.092
533.820; 6092.546; 6033.095; 6456.875
534.406; 5202.938; 5133.546; 6590.167
534.991; 4828.367; 4744.730; 6179.622
535.576; 5228.114; 5152.528; 6098.691
536.162; 7235.455; 7175.622; 6441.234
536.747; 4545.500; 4500.724; 6816.224
537.333; 4835.392; 4772.972; 6889.752
537.918; 5281.704; 5181.318; 7154.280
538.503; 4962.406; 4867.438; 7150.848
539.088; 5524.001; 5444.059; 7253.308
539.673; 5069.000; 5018.697; 7625.180
540.259; 4925.991; 4832.009; 8226.793
540.844; 4327.806; 4250.265; 8745.092
541.429; 6431.875; 6360.395; 8762.553
542.014; 4502.874; 4420.172; 8871.497
542.599; 5498.515; 5417.014; 8886.008
543.184; 4646.640; 4561.306; 9079.139
543.769; 4944.164; 4844.123; 9076.182
544.354; 5068.775; 4998.507; 8354.081
544.938; 5508.587; 5396.553; 8236.809
545.523; 6404.743; 6326.764; 8222.179
546.108; 5272.958; 5217.730; 8114.082
546.693; 5226.595; 5178.206; 8535.912
547.278; 5258.147; 5181.683; 9238.322
547.862; 5251.263; 5151.523; 9034.405
548.447; 5909.531; 5833.480; 7795.011
549.031; 5077.932; 5019.655; 7485.099
549.616; 5489.098; 5383.887; 7626.308
550.201; 4949.676; 4859.369; 7627.909
550.785; 5704.283; 5618.947; 7859.125
551.370; 4607.744; 4519.063; 7990.654
551.954; 5899.007; 5785.114; 8196.468
552.538; 5755.433; 5663.715; 7959.495
553.123; 4929.763; 4862.699; 7964.826
553.707; 5105.474; 5038.385; 8515.957
554.291; 6140.794; 6054.031; 8724.024
554.876; 5818.625; 5747.388; 8524.211
555.460; 4942.411; 4892.509; 8704.456
556.044; 4924.987; 4828.855; 9141.473
556.628; 5316.866; 5202.608; 9250.197
557.212; 6055.782; 5944.873; 9444.237
557.796; 5180.722; 5082.906; 9379.783
558.380; 5537.452; 5466.216; 9353.658
558.964; 5404.059; 5321.742; 9210.310
559.548; 4590.583; 4477.608; 8475.153
560.132; 5092.688; 4982.252; 7954.084
560.716; 4671.971; 4593.302; 7489.529
561.300; 4640.000; 4507.485; 7211.952
561.884; 5699.198; 5581.377; 7141.313
562.467; 5641.347; 5549.185; 7155.386
563.051; 5299.463; 5185.900; 7323.158
563.635; 5210.355; 5099.010; 7709.114
564.219; 5282.127; 5166.236; 7678.855
564.802; 5663.635; 5563.201; 7376.187
565.386; 5394.912; 5259.096; 7054.372
565.969; 6183.802; 6057.083; 6589.196
566.553; 6775.440; 6654.257; 6279.371
567.136; 6094.362; 5988.439; 5967.930
567.720; 5411.143; 5255.929; 5660.703
568.303; 5595.433; 5455.691; 5648.615
568.887; 5430.939; 5286.245; 5618.443
569.470; 5556.633; 5440.454; 5411.875
570.053; 5840.647; 5667.810; 5149.274
570.637; 4978.952; 4787.553; 5122.798
571.220; 5893.273; 5681.210; 4957.369
571.803; 6850.455; 6635.300; 4933.018
572.386; 5264.173; 5055.450; 4840.973
572.969; 5260.960; 5062.691; 4592.886
573.552; 5409.938; 5157.522; 4348.387
574.135; 4894.554; 4658.188; 4002.290
574.718; 5123.075; 4835.171; 3654.773
575.301; 5126.300; 4821.937; 3502.288
575.884; 5129.525; 4808.703; 3349.803
576.467; 6292.342; 5951.329; 3191.403
577.050; 5824.863; 5439.763; 3062.418
577.633; 6922.904; 6480.844; 3214.200
578.216; 5585.588; 5073.692; 3284.889
578.799; 5628.594; 5071.508; 3189.777
579.381; 7294.245; 6697.000; 3064.502
579.964; 5475.474; 4809.335; 2888.357
580.547; 6134.593; 5371.672; 2905.760
581.129; 7013.288; 6197.255; 2966.849
581.712; 6440.496; 5529.845; 2887.292
582.294; 6277.826; 5301.864; 2771.631
582.877; 7834.054; 6756.813; 2711.602
583.459; 6477.271; 5236.528; 2577.049
584.042; 6505.145; 5150.640; 2454.707
584.624; 6239.690; 4768.103; 2305.893
585.206; 5749.358; 4114.883; 2189.546
585.789; 6777.972; 4948.339; 2112.577
586.371; 7475.275; 5531.035; 2153.065
586.953; 7850.164; 5740.188; 2197.806
587.536; 8430.688; 6109.292; 2105.489
588.118; 7609.424; 5140.732; 1963.911
588.700; 8997.133; 6115.244; 1843.179
589.282; 8876.968; 5567.221; 1813.834
589.864; 9048.799; 5353.828; 1777.620
590.446; 8444.802; 4281.861; 1733.780
591.028; 9853.202; 5306.373; 1676.008
591.610; 9073.680; 4363.441; 1631.649
592.192;10275.254; 5368.327; 1632.362
592.774; 9879.522; 4705.171; 1569.507
593.356;10541.130; 4906.636; 1524.539
593.937;11051.113; 4876.733; 1569.720
594.519;12627.186; 5891.684; 1569.049
595.101;11762.296; 4415.508; 1545.452
595.683;13089.420; 4950.863; 1607.568
596.264;14337.858; 5184.795; 1615.506
596.846;14938.862; 5034.453; 1667.622
597.427;15222.794; 4882.123; 1670.469
598.009;15830.719; 4818.189; 1640.312
598.591;16919.260; 5743.932; 1541.022
599.172;16696.273; 5070.064; 1598.665
599.753;16979.000; 4544.065; 1619.068
600.335;19298.996; 6136.621; 1548.612
600.916;18917.350; 5220.222; 1607.510
601.498;20245.590; 5512.527; 1745.181
602.079;21738.830; 5267.174; 1801.011
602.660;22580.496; 5161.532; 1834.640
603.241;22403.936; 4183.903; 1787.351
603.823;23842.557; 4952.837; 1684.266
604.404;23631.990; 4586.540; 1654.241
604.985;23764.076; 4963.834; 1758.741
605.566;25310.627; 5787.352; 1697.679
606.147;26050.109; 5119.091; 1526.728
606.728;26882.266; 4563.777; 1484.086
607.309;28742.457; 4904.498; 1421.070
607.890;29045.730; 4984.097; 1369.867
608.471;29971.053; 4801.079; 1277.826
609.051;31510.098; 5385.582; 1180.416
609.632;32390.611; 4723.337; 1075.816
610.213;34736.895; 5155.071; 1053.313
610.794;35894.570; 4975.971;  979.442
611.374;37125.270; 5465.109;  917.414
611.955;36467.746; 4470.179;  819.987
612.536;38827.344; 5384.845;  752.627
613.116;40104.543; 4959.033;  690.799
613.697;40433.266; 4885.601;  674.974
614.277;40907.262; 4738.818;  663.846
614.858;40880.547; 4877.575;  665.898
615.438;40091.398; 5227.542;  660.712
616.019;40514.113; 6137.323;  632.732
616.599;38707.945; 4113.567;  551.759
617.179;40139.531; 4594.608;  512.871
617.760;42888.336; 6911.514;  473.655
618.340;41320.711; 5155.940;  440.004
618.920;43524.641; 6328.034;  429.731
619.500;44101.375; 5015.039;  441.361
620.080;44828.957; 4725.700;  425.202
620.660;45750.809; 4711.282;  408.164
621.241;46343.285; 5022.023;  387.161
621.821;46994.684; 5282.726;  378.017
622.401;46588.711; 5863.925;  379.188
622.980;44677.523; 4482.932;  350.019
623.560;44965.352; 5026.484;  336.446
624.140;43386.371; 5298.343;  336.473
624.720;41729.355; 5462.688;  334.974
625.300;41241.895; 4728.110;  325.717
625.880;43338.121; 5147.411;  308.519
626.459;46940.676; 5201.913;  307.117
627.039;47655.352; 4350.832;  290.890
627.619;50429.820; 6638.576;  286.635
628.198;51344.242; 5951.995;  282.535
628.778;52091.957; 5586.238;  285.474
629.357;48868.938; 4542.902;  284.103
629.937;47700.859; 4978.398;  292.178
630.516;49257.180; 6239.056;  290.749
631.096;48413.496; 4804.599;  285.489
631.675;48242.250; 6131.162;  287.022
632.254;46115.758; 4798.861;  286.038
632.834;45888.523; 5153.383;  276.451
633.413;46875.227; 6110.794;  279.447
633.992;46201.801; 5855.117;  264.508
634.571;46391.453; 5609.308;  271.010
635.151;47358.066; 4691.204;  277.338
635.730;47921.691; 5087.243;  289.305
636.309;47209.555; 5521.918;  285.306
636.888;47296.328; 5605.305;  254.051
637.467;44496.398; 4264.982;  230.324
638.046;46469.988; 6252.648;  253.349
638.625;45176.070; 6001.558;  246.866
639.204;44161.484; 5370.055;  240.825
639.782;45406.156; 5208.692;  261.970
640.361;45572.141; 6048.680;  277.780
640.940;44359.906; 4878.755;  270.101
641.519;44430.676; 5450.881;  248.622
642.097;44646.340; 5568.007;  239.843
642.676;44845.707; 5261.282;  244.264
643.255;45223.875; 5050.108;  234.985
643.833;47942.039; 5615.533;  244.406
644.412;47489.906; 4987.809;  244.927
644.990;46921.875; 5280.984;  249.948
645.569;46922.840; 5544.160;  249.569
646.147;46673.105; 5836.085;  243.290
646.726;45098.574; 5366.811;  249.511
647.304;44505.840; 4997.137;  228.032
647.882;41993.008; 4258.813;  214.552
648.461;42527.375; 5371.288;  214.973
649.039;43257.738; 5608.514;  223.394
649.617;42593.406; 5628.339;  261.415
650.195;42241.273; 5371.365;  298.736
650.773;41803.039; 4960.740;  309.557
651.352;41069.105; 4143.216;  297.978
651.930;39254.473; 4130.991;  289.399
652.508;40434.039; 5723.267;  285.620
653.086;40140.508; 5507.692;  272.241
653.663;39068.973; 4796.918;  265.062
654.241;37882.738; 4490.293;  286.083
654.819;38086.305; 4615.369;  286.404
655.397;40138.672; 4690.295;  291.825
655.975;42191.641; 5048.920;  299.145
656.553;43638.504; 6218.846;  288.866
657.130;42404.570; 4657.571;  304.087
657.708;41206.539; 5433.847;  302.908
658.286;40505.906; 5296.923;  294.629
658.863;41591.672; 5324.798;  293.350
659.441;41202.340; 5389.874;  318.671
660.018;39628.004; 5097.750;  333.692
660.596;39331.473; 4200.725;  335.013
661.173;39530.938; 4901.000;  371.534
661.750;38917.203; 4702.626;  365.155
662.328;40048.270; 5587.202;  349.976
662.905;38805.340; 4940.777;  332.997
663.482;38282.906; 5083.353;  321.717
664.060;38593.270; 4771.229;  314.438
664.637;39468.738; 5588.704;  306.259
665.214;39944.305; 5335.729;  314.580
665.791;40000.270; 5032.305;  334.501
666.368;39806.738; 4959.781;  329.222
666.945;40488.504; 5684.906;  342.143
667.522;40325.570; 4717.682;  370.964
668.099;41454.836; 5091.607;  396.885
668.676;41558.203; 5118.883;  391.706
669.253;42216.270; 6240.458;  369.627
669.830;41102.738; 6020.684;  360.348
670.407;40573.703; 5106.160;  344.769
670.984;40990.371; 5086.335;  322.890
671.560;40706.836; 5574.311;  316.910
672.137;39671.703; 4961.736;  322.531
672.714;40274.168; 5467.362;  318.552
673.290;40635.438; 5373.288;  324.473
673.867;41239.203; 4833.513;  340.594
674.443;41550.570; 4531.489;  319.515
675.020;42709.137; 5309.114;  286.336
675.596;41788.305; 5018.040;  247.557
676.173;41179.371; 4451.815;  227.778
676.749;41817.836; 3922.141;  224.399
677.326;43290.004; 4368.667;  230.520
677.902;44038.367; 4774.042;  241.841
678.478;44523.336; 4461.667;  239.762
679.054;48494.703; 7564.293;  248.583
679.631;45319.270; 5430.918;  237.503
680.207;44646.934; 6464.444;  245.924
680.783;42689.902; 4093.020;  224.845
681.359;46303.469; 5083.095;  209.666
681.935;47842.234; 5235.421;  191.687
682.511;47903.602; 5215.347;  210.008
683.087;46106.566; 5486.172;  213.329
683.663;44119.934; 4989.798;  216.850
684.239;43524.703; 4471.173;  229.471
684.815;45832.168; 5717.749;  248.792
685.390;46713.336; 6583.324;  231.813
685.966;44841.301; 5212.300;  221.234
686.542;45546.770; 4601.525;  214.255
687.118;49119.633; 5305.601;  212.276
687.693;50048.902; 5532.626;  233.096
688.269;49670.668; 5006.652;  246.917
688.844;51066.336; 5451.178;  236.938
689.420;50823.199; 5201.003;  242.059
689.995;50945.367; 6343.929;  245.480
690.571;49942.832; 6073.555;  244.701
691.146;48293.500; 4956.180;  251.922
691.722;48840.266; 5407.605;  284.743
692.297;49063.832; 4926.881;  320.664
692.872;50078.301; 4713.607;  313.885
693.448;50375.266; 4582.982;  290.106
694.023;51891.832; 5245.058;  304.327
694.598;54179.898; 5270.083;  319.648
695.173;52827.266; 4924.559;  323.169
695.748;50208.633; 4215.834;  376.389
696.323;50292.199; 5105.660;  397.610
696.898;52138.566; 5950.936;  430.231
697.473;51877.633; 4299.711;  454.952
698.048;55081.199; 4971.887;  478.973
698.623;55329.766; 4452.513;  477.094
699.198;56015.332; 5220.988;  496.915
699.773;55606.398; 4741.614;  490.236
700.348;54225.266; 4612.189;  519.957
700.922;55161.332; 5259.115;  575.678
701.497;56437.500; 5148.090;  621.399
702.072;55976.266; 5743.716;  664.420
702.646;54883.832; 5594.742;  690.541
703.221;53926.000; 5313.967;  748.862
703.795;52548.965; 4632.393;  774.282
704.370;51174.332; 3778.718;  799.803
704.944;52068.199; 4895.394;  875.824
705.519;54002.164; 5308.319;  902.945
706.093;55258.531; 4681.495;  889.266
706.668;56148.496; 5455.021;  903.487
707.242;56755.664; 5654.146;  881.708
707.816;55449.430; 4947.872;  892.329
708.390;54062.199; 5124.697;  970.250
708.965;53752.266; 5301.323;  984.671
709.539;53460.633; 4990.148; 1026.092
710.113;54428.699; 5207.074; 1067.913
710.687;53816.266; 5640.149; 1166.434
711.261;52405.430; 4559.725; 1190.854
711.835;53101.898; 4612.951; 1197.275
712.409;55796.766; 4253.726; 1308.096
712.983;56442.832; 4290.602; 1461.617
713.557;56212.496; 4282.777; 1611.838
714.131;55872.965; 5013.153; 1554.359
714.704;54243.230; 4634.329; 1520.780
715.278;54998.297; 5144.154; 1575.101
715.852;55805.063; 5585.030; 1689.822
716.425;56171.629; 6407.255; 1829.143
716.999;53605.598; 4212.281; 2008.664
717.573;55072.063; 5429.156; 2000.485
718.146;56795.430; 6262.982; 1914.506
718.720;57624.797; 5259.257; 1818.026
719.293;58902.863; 5467.333; 1734.147
719.867;58208.430; 4764.059; 1716.968
720.440;60054.395; 6015.034; 1918.589
721.013;58992.164; 4811.760; 1975.410
721.587;56279.230; 4299.285; 2073.331
722.160;55888.195; 5726.411; 2357.852
722.733;54921.262; 5173.437; 2657.073
723.306;53299.328; 5141.112; 2703.894
723.880;51925.895; 5249.688; 2549.415
724.453;53231.863; 5992.313; 2414.336
725.026;53046.730; 4835.539; 2298.557
725.599;54016.594; 5329.164; 2168.778
726.172;52331.563; 5443.940; 2106.099
726.745;51756.129; 5378.465; 2253.320
727.318;53247.094; 5725.491; 2404.740
727.891;55985.262; 5322.967; 2680.161
728.463;55795.930; 5295.292; 2838.882
729.036;53935.996; 4689.868; 2755.103
729.609;52669.262; 4626.493; 2731.824
730.182;54584.930; 5631.519; 2855.645
730.754;54660.293; 3903.344; 2946.866
731.327;56683.660; 5446.720; 2840.187
731.900;55456.629; 4321.945; 2647.608
732.472;57086.992; 5046.071; 2473.929
733.045;59604.961; 4950.497; 2445.750
733.617;57458.227; 4246.672; 2511.771
734.190;56957.094; 5419.898; 2581.592
734.762;57120.059; 5102.974; 2710.813
735.334;58205.527; 5176.299; 3005.733
735.907;58013.895; 5168.075; 3154.954
736.479;58508.660; 5842.250; 3171.675
737.051;58349.328; 5445.776; 3217.496
737.623;59876.895; 5507.851; 3246.217
738.195;58862.359; 4769.227; 2985.238
738.768;56858.125; 4023.802; 2727.559
739.340;57851.594; 4860.628; 2666.880
739.912;57755.859; 5603.554; 2769.601
740.484;56579.227; 5436.879; 2731.422
741.056;55466.895; 4970.305; 2963.043
741.628;55430.758; 4624.780; 3361.364
742.199;56535.625; 5959.956; 3641.185
742.771;56522.793; 4440.481; 3932.005
743.343;57464.859; 4653.057; 4319.926
743.915;57423.727; 5345.033; 4706.647
744.487;58591.191; 5489.258; 4874.968
745.058;60396.957; 5553.984; 4616.589
745.630;60432.324; 5518.659; 4253.410
746.201;59707.594; 4827.835; 4056.131
746.773;59542.258; 5459.160; 3772.952
747.344;58732.023; 5104.136; 3642.473
747.916;57829.992; 5270.111; 3752.294
748.487;58054.258; 5635.887; 4106.215
749.059;58340.023; 4506.013; 4457.835
749.630;59345.590; 4721.138; 4366.457
750.201;59743.359; 5102.164; 4600.078
750.773;58910.625; 4777.889; 4658.499
751.344;59830.891; 5161.865; 4609.319
751.915;59553.156; 5092.241; 4526.440
752.486;59675.926; 4694.116; 4536.061
753.057;59794.492; 5222.992; 4383.282
753.628;58809.457; 4686.817; 4296.503
754.199;60440.223; 4885.593; 4383.224
754.770;60938.891; 5480.368; 4653.545
755.341;60563.758; 5749.894; 4831.666
755.912;57835.324; 4999.419; 4831.387
756.483;57718.289; 5448.545; 4735.808
757.054;56049.156; 4883.271; 4685.029
757.625;54849.625; 4503.046; 4994.250
758.195;55417.090; 4325.572; 5051.471
758.766;56158.059; 5270.748; 5317.792
759.337;54795.324; 4280.773; 5646.512
759.907;54741.488; 4342.999; 5404.133
760.478;55784.355; 4789.124; 5090.954
761.048;55821.922; 5493.399; 4871.175
761.619;55368.691; 5362.475; 4589.396
762.189;56100.258; 5069.951; 4171.317
762.760;56332.121; 5565.626; 3872.538
763.330;56322.789; 5503.752; 3832.259
763.900;56501.656; 5284.328; 4150.180
764.471;55153.723; 4638.003; 4529.801
765.041;55832.988; 5847.179; 4715.922
765.611;54645.254; 5437.304; 4681.442
766.181;54004.523; 5039.780; 4717.063
766.751;54621.688; 5119.005; 4710.285
767.321;54753.355; 4448.131; 4450.305
767.891;54635.820; 5204.557; 4274.126
768.461;52875.789; 5037.032; 4215.047
769.031;52804.656; 5077.508; 4173.068
769.601;53594.223; 5778.733; 4174.689
770.171;52392.090; 4328.109; 4229.310
770.741;52976.555; 4911.034; 4352.031
771.311;52256.820; 5448.910; 4336.652
771.880;50208.188; 4618.485; 4300.873
772.450;51350.453; 4677.311; 4387.194
773.020;52295.922; 4289.887; 4220.415
773.589;52455.387; 4754.562; 4075.835
774.159;52007.953; 4800.438; 4105.756
774.729;51579.020; 4720.813; 4114.978
775.298;50791.289; 4759.439; 3693.298
775.867;50923.953; 4757.714; 3343.119
776.437;51812.020; 5131.040; 3062.040
777.006;51010.586; 4302.866; 2927.161
777.576;51961.555; 5446.941; 3046.482
778.145;51518.520; 5370.917; 3230.203
778.714;49755.887; 5031.542; 3253.324
779.283;49038.953; 5439.118; 3129.745
779.853;49464.121; 5058.943; 2983.566
780.422;50624.488; 5060.219; 2929.887
780.991;51457.852; 5386.495; 2863.908
781.560;51045.418; 5965.070; 2948.029
782.129;50217.086; 5295.696; 3074.149
782.698;50408.555; 5900.921; 2893.970
783.267;49611.320; 4729.297; 2721.391
783.836;50749.188; 5276.172; 2659.712
784.404;49170.852; 4461.098; 2622.233
784.973;48403.820; 3851.023; 2600.754
785.542;48769.586; 5026.349; 2528.475
786.111;50371.254; 5830.775; 2404.396
786.679;49706.117; 5452.550; 2365.717
787.248;46620.285; 4330.676; 2498.438
787.817;45328.453; 4810.651; 2645.659
788.385;47469.918; 5724.877; 2709.280
788.954;46460.086; 4367.553; 2620.500
789.522;47746.754; 5565.378; 2625.422
790.090;46908.617; 4385.804; 2743.843
790.659;47433.086; 4865.079; 2635.163
791.227;47919.652; 4976.205; 2495.484
791.795;47896.117; 5255.430; 2413.705
792.364;46594.086; 4543.306; 2345.326
792.932;48076.250; 5377.682; 2350.447
793.500;46669.316; 4911.007; 2429.768
794.068;45747.086; 4323.183; 2513.589
794.636;46142.953; 4670.558; 2664.310
795.204;46038.418; 4202.534; 2721.431
795.772;46087.785; 4632.659; 2802.052
796.340;46256.750; 4759.435; 2847.173
796.908;45514.516; 4206.960; 2997.194
797.476;44837.086; 4502.336; 3151.615
798.044;43614.551; 4136.012; 3110.735
798.612;44540.918; 4980.737; 2931.656
799.180;44836.785; 5133.313; 2785.777
799.747;43361.352; 5083.138; 2899.098
800.315;42681.418; 4392.014; 2955.519
800.883;42332.984; 4061.490; 2948.940
801.450;43141.750; 5018.665; 2965.361
802.018;44719.617; 5292.940; 3070.582
802.585;44951.383; 5054.666; 3156.103
803.153;43575.852; 4664.492; 3199.524
803.720;43211.117; 4707.517; 3168.845
804.287;43923.484; 4887.243; 3248.366
804.855;45354.949; 5659.468; 3406.187
805.422;44281.918; 4918.644; 3430.907
805.989;42550.082; 4588.070; 3453.528
806.556;42167.449; 4591.795; 3612.649
807.124;43597.117; 5564.021; 3736.570
807.691;42558.883; 4479.996; 3770.491
808.258;43004.250; 5059.472; 3705.012
808.825;43850.316; 5589.797; 3828.733
809.392;43581.582; 5972.673; 3986.754
809.959;43051.551; 5256.549; 4410.075
810.526;44096.617; 6019.674; 4774.996
811.093;42462.781; 5721.400; 4754.217
811.659;41775.250; 5003.125; 4661.238
812.226;42594.113; 4971.901; 4672.559
812.793;43424.383; 5206.876; 4822.979
813.360;43540.848; 4989.102; 5189.800
813.926;43813.016; 5258.478; 5310.622
814.493;42587.781; 4367.403; 5414.542
815.060;41191.750; 4104.079; 5548.963
815.626;41189.215; 4424.154; 5452.284
816.193;41109.980; 5153.030; 5339.305
816.759;39534.148; 4596.655; 5544.426
817.325;39512.313; 4107.481; 5706.547
817.892;40578.980; 5512.756; 5623.468
818.458;40060.949; 5284.882; 5586.689
819.024;40809.016; 5746.008; 5647.910
819.591;41547.879; 5041.883; 5762.031
820.157;41325.848; 4388.759; 6284.452
820.723;41682.414; 5277.134; 6906.973
821.289;43907.781; 7644.560; 7086.894
821.855;40229.047; 5422.386; 7054.915
822.421;38848.414; 4781.211; 7112.035
822.987;38020.180; 4474.437; 7256.156
823.553;37989.848; 4880.512; 7538.077
824.119;38201.113; 5598.288; 7594.298
824.685;37999.480; 5809.763; 7613.619
825.251;38132.945; 5485.439; 7644.140
825.816;37671.914; 6152.064; 7720.261
826.382;36711.578; 5462.590; 8014.282
826.948;36698.645; 5587.666; 8281.503
827.513;36039.711; 4939.641; 8289.624
828.079;35263.379; 4576.167; 8587.045
828.645;36354.547; 5236.742; 8821.865
829.210;36576.512; 4476.118; 9054.486
829.776;37049.578; 5393.894; 9054.607
830.341;35922.645; 5571.819; 9415.628
830.906;34760.012; 5734.745; 9932.449
831.472;33593.480; 4652.970;10150.271
832.037;34820.246; 5600.096; 9420.391
832.602;34323.211; 4780.071; 8664.912
833.167;34428.078; 5128.247; 8491.933
833.733;34661.945; 5597.522; 8872.854
834.298;33441.613; 4517.298; 9370.575
834.863;34050.977; 5262.974; 9610.695
835.428;33316.547; 5239.899; 9655.616
835.993;33248.711; 5386.875; 9437.838
836.558;33072.777; 5484.250; 9441.459
837.123;34605.543; 6723.426; 9600.979
837.688;33211.512; 5300.852; 9798.301
838.253;32849.977; 5286.427; 9902.921
838.817;32171.844; 4945.703;10339.742
839.382;32707.410; 5909.928;10548.363
839.947;31575.479; 5175.404;10252.484
840.511;32048.844; 6070.330;10040.005
841.076;29781.111; 4079.655;10099.926
841.641;30420.377; 5452.181;10347.347
842.205;29758.145; 5323.656;10817.368
842.770;30362.811; 6296.932;11435.289
843.334;28880.178; 5019.107;12072.409
843.898;28187.543; 4823.783;12635.431
844.463;28957.609; 5928.008;12537.252
845.027;28032.576; 4890.584;12759.673
845.591;27611.744; 5662.259;12821.993
846.156;26567.609; 4826.035;12520.914
846.720;27502.477; 5556.960;12390.436
847.284;27526.143; 5252.386;12956.456
847.848;28061.209; 5441.262;13240.177
848.412;26810.076; 5169.087;13216.998
848.976;26559.742; 6061.613;13014.619
849.540;26374.709; 6527.588;12355.740
850.104;25579.477; 5991.064;12208.761
850.668;23763.242; 4184.590;12106.882
851.232;23866.109; 4307.315;11862.103
851.796;24263.477; 5074.941;11700.523
852.359;24349.842; 5627.167;12375.944
852.923;24698.908; 5804.642;13087.966
853.487;24553.576; 5520.167;13297.187
854.050;22523.143; 3571.143;13851.207
854.614;23286.309; 4908.619;14854.229
855.177;22936.475; 5336.494;15802.149
855.741;22837.143; 5383.170;16603.570
856.304;23343.709; 5697.095;16359.891
856.868;22283.074; 4635.771;14365.512
857.431;22113.041; 5137.597;13361.333
857.995;21458.607; 4962.522;14130.554
858.558;21028.775; 5337.897;14883.175
859.121;21203.041; 5622.773;15754.195
859.684;21032.707; 5279.549;15995.017
860.247;20919.074; 5129.674;15149.537
860.810;20636.842; 4926.800;14640.358
861.374;22176.207; 6596.625;15551.079
861.937;19775.273; 4535.751;16519.801
862.500;19516.541; 4851.626;16796.521
863.062;19069.207; 4611.952;16538.742
863.625;19582.475; 5352.228;16716.764
864.188;19064.441; 4892.903;17055.084
864.751;18327.207; 4850.029;17197.705
865.314;18326.574; 5205.104;17151.625
865.876;18882.641; 5766.130;17783.547
866.439;19216.406; 5567.105;19283.467
867.002;19845.674; 6460.231;20256.389
867.564;18686.141; 5861.807;20485.410
868.127;17632.006; 5149.032;20789.730
868.689;17649.572; 5392.908;21981.951
869.252;17963.939; 5834.233;23803.771
869.814;17130.006; 4718.109;24974.094
870.377;17344.572; 5351.635;24690.314
870.939;19457.139; 7392.760;23963.436
871.501;17173.406; 5303.736;25167.156
872.063;15568.072; 3896.411;26995.477
872.626;15687.839; 4223.787;27443.098
873.188;16317.506; 5324.163;26718.418
873.750;15768.772; 5080.338;26558.840
874.312;15415.438; 4895.864;26701.561
874.874;16347.306; 6199.339;27970.582
875.436;15614.572; 5680.564;29173.402
875.998;15894.738; 6024.940;30376.623
876.560;15341.005; 5691.266;32507.344
877.122;14197.672; 4768.292;34833.066
877.683;14785.339; 5575.017;36458.285
878.245;13713.805; 4897.792;37248.207
878.807;14207.371; 5480.068;36758.027
879.369;13231.038; 4507.444;35223.551
879.930;13318.805; 4623.719;33824.969
880.492;14757.071; 5949.395;34436.492
881.053;13226.538; 4672.570;37745.313
881.615;13075.805; 4868.146;41184.633
882.176;12915.371; 5057.021;42871.555
882.738;13279.138; 5618.397;41693.074
883.299;11492.104; 4152.623;40289.895
883.860;11337.871; 4284.748;39231.215
884.422;12642.737; 5557.724;38264.039
884.983;11602.304; 4626.299;37171.859
885.544;11897.671; 5340.225;35842.379
886.105;11321.637; 5211.150;34810.000
886.666;10783.104; 4913.826;34519.020
887.227;10038.271; 4302.852;33905.641
887.788;11006.837; 5344.127;34502.965
888.349;10024.503; 4439.103;34241.785
888.910;10912.270; 5573.479;33722.203
889.471;10483.637; 5316.104;32539.625
890.032;10121.503; 5162.779;31528.346
890.593;10252.470; 5543.855;32655.068
891.153; 9563.937; 5135.131;33882.289
891.714; 8741.503; 4414.606;33318.711
892.275; 8717.569; 4501.832;31848.930
892.835; 9728.036; 5723.458;30339.752
893.396; 9402.202; 5634.183;30074.973
893.956; 8626.469; 5032.409;30338.393
894.517; 8738.936; 5302.334;30864.113
895.077; 8671.402; 5403.359;29766.734
895.638; 9341.469; 6198.235;26379.557
896.198; 7530.636; 4584.511;24056.277
896.758; 8554.702; 5675.736;22961.898
897.319; 7743.269; 5074.512;21772.020
897.879; 7676.035; 5141.837;20877.539
898.439; 6787.302; 4307.613;19509.461
898.999; 7929.769; 5535.039;17297.582
899.559; 7742.135; 5431.164;14712.002
900.119; 6781.302; 4616.940;12790.224
900.679; 8176.068; 6113.965;11586.744
901.239; 7542.235; 5570.341;10776.465
901.799; 7095.001; 5233.517; 9691.687
902.359; 6459.768; 4687.342; 8725.907
902.919; 6348.334; 4621.167; 8305.728
903.479; 6316.001; 4659.443; 8172.649
904.038; 6050.868; 4449.169; 7913.870
904.598; 5448.534; 3875.344; 7262.291
905.158; 6351.701; 4863.920; 6609.012
905.717; 6540.268; 5072.996; 6236.133
906.277; 6546.434; 5162.421; 5829.054
906.836; 6815.601; 5462.646; 5396.674
907.396; 6700.267; 5392.572; 4964.195
907.955; 6719.434; 5429.648; 4528.917
908.515; 6163.900; 4933.723; 4223.837
909.074; 6193.667; 4988.649; 4023.958
909.633; 6192.934; 5010.174; 4065.379
910.192; 7390.500; 6207.950; 4066.300
910.752; 6116.700; 4959.600; 3971.600
911.311; 5999.400; 4865.850; 3839.600
911.870; 5800.400; 4688.450; 3684.500
912.429; 6894.500; 5783.650; 3635.600
912.988; 6736.400; 5661.550; 3689.800
913.547; 5677.600; 4605.900; 3737.700
914.106; 6306.200; 5258.100; 3740.300
914.665; 6244.600; 5208.000; 3604.600
915.224; 6779.200; 5768.550; 3358.700
915.782; 5855.300; 4839.550; 3188.400
916.341; 6945.800; 5962.050; 3091.400
916.900; 5896.100; 4909.900; 3044.800
917.458; 5676.400; 4651.400; 2888.600
918.017; 6174.500; 5178.650; 2818.900
918.576; 5953.200; 4931.300; 2838.600
919.134; 5337.000; 4303.950; 2880.100
919.693; 5899.700; 4873.500; 2996.300
920.251; 5794.900; 4780.050; 3183.100
920.809; 5477.800; 4494.900; 3247.000
921.368; 5764.300; 4778.200; 3156.600
921.926; 5598.600; 4589.350; 2964.900
922.484; 6108.700; 5097.850; 2846.300
923.042; 5920.900; 4926.600; 2890.400
923.601; 6946.100; 5921.450; 2987.700
924.159; 6420.100; 5421.100; 3049.800
924.717; 5592.600; 4566.750; 3087.000
925.275; 6161.000; 5131.200; 3093.400
925.833; 5136.000; 4094.750; 3182.400
926.391; 6409.700; 5383.850; 3397.900
926.949; 5842.600; 4799.250; 3575.400
927.506; 6232.200; 5168.150; 3713.400
928.064; 5975.100; 4871.550; 3871.300
928.622; 6050.200; 4950.850; 4092.800
929.180; 5491.300; 4394.550; 4499.300
929.737; 5398.100; 4262.150; 4813.200
930.295; 6482.500; 5342.700; 5084.100
930.853; 5759.900; 4611.400; 5185.000
931.410; 5529.600; 4362.650; 5313.100
931.968; 6596.400; 5435.750; 5339.600
932.525; 6221.100; 5058.050; 5399.900
933.082; 5466.400; 4274.850; 5457.500
933.640; 6399.200; 5255.400; 5692.900
934.197; 6070.900; 4870.600; 5821.200
934.754; 6124.500; 4870.050; 5617.900
935.312; 5850.200; 4606.400; 5512.400
935.869; 7166.900; 5887.300; 5582.400
936.426; 5917.800; 4637.950; 5650.100
936.983; 6064.500; 4807.450; 5657.400
937.540; 5631.700; 4325.550; 5564.300
938.097; 6543.300; 5211.850; 5574.000
938.654; 6027.300; 4733.500; 5665.900
939.211; 6506.400; 5207.750; 5931.600
939.768; 6249.600; 4927.300; 6153.600
940.324; 6137.800; 4788.500; 6397.600
940.881; 5930.800; 4588.100; 6454.200
941.438; 7039.900; 5707.300; 6206.900
941.995; 6814.200; 5495.300; 6003.900
942.551; 5698.700; 4355.850; 6228.300
943.108; 6218.600; 4900.450; 6603.500
943.664; 5725.500; 4401.000; 7188.100
944.221; 7542.300; 6214.550; 7579.900
944.777; 5657.600; 4352.050; 7658.100
945.334; 5780.800; 4460.300; 7670.400
945.890; 6291.600; 4974.650; 7525.100
946.446; 6314.800; 5010.250; 7261.500
947.003; 6473.700; 5163.700; 6949.200
947.559; 7244.200; 5954.200; 6773.100
948.115; 6887.800; 5645.200; 6668.400
948.671; 6417.700; 5137.900; 6488.400
949.227; 5449.700; 4193.750; 6236.600
949.783; 5402.200; 4117.050; 6008.900
950.339; 6482.100; 5242.800; 5934.100
950.895; 6834.800; 5574.850; 5933.500
951.451; 5991.700; 4741.800; 6074.700
952.007; 6611.900; 5352.750; 6066.400
952.563; 6020.300; 4791.800; 5884.100
953.118; 5857.400; 4613.750; 5733.800
953.674; 6189.700; 4922.500; 5734.300
954.230; 6205.000; 4959.300; 6039.700
954.785; 6184.700; 4916.850; 6383.500
955.341; 6691.300; 5416.850; 6568.200
955.897; 5367.300; 4133.300; 6488.600
956.452; 6380.600; 5157.200; 6239.200
957.008; 7546.000; 6357.800; 5954.600
957.563; 6892.100; 5679.400; 5816.700
958.118; 5767.100; 4559.100; 5828.200
958.674; 6294.800; 5078.700; 5717.400
959.229; 6974.500; 5788.900; 5506.800
959.784; 5490.000; 4272.350; 5292.200
960.339; 6957.800; 5738.950; 5101.900
960.894; 6606.600; 5417.000; 5093.200
961.449; 5690.700; 4517.750; 5227.900
962.004; 8716.600; 7532.950; 5349.300
962.559; 5751.400; 4597.600; 5514.900
963.114; 4766.700; 3622.400; 5717.300
963.669; 6155.900; 5023.250; 5841.400
964.224; 5881.000; 4740.150; 5805.900
964.779; 5491.300; 4358.550; 5723.400
965.334; 6885.300; 5790.050; 5779.500
965.888; 5833.600; 4670.950; 5948.500
966.443; 6668.900; 5528.700; 6344.200
966.998; 5283.300; 4132.900; 6666.300
967.552; 6080.200; 4962.650; 6710.100
968.107; 5766.700; 4647.700; 6593.500
968.661; 6231.900; 5145.450; 6344.100
969.216; 5695.700; 4608.150; 6062.400
969.770; 6209.800; 5152.800; 5785.500
970.324; 6242.100; 5182.700; 5426.800
970.879; 6499.400; 5463.500; 5016.800
971.433; 6535.800; 5521.200; 4904.500
971.987; 6081.700; 5071.450; 4991.000
972.541; 6262.000; 5259.650; 4978.500
973.095; 6968.900; 6011.200; 4832.000
973.649; 5324.500; 4331.800; 4767.900
974.203; 5512.400; 4502.500; 4881.200
974.757; 5714.400; 4730.300; 4969.500
975.311; 5932.600; 4921.050; 4953.000
975.865; 5960.500; 4997.600; 4884.300
976.419; 5797.600; 4821.850; 4739.800
976.973; 5689.000; 4742.950; 4698.100
977.526; 6593.200; 5635.700; 4631.100
978.080; 5247.600; 4325.400; 4621.600
978.634; 6266.800; 5383.250; 4650.200
979.187; 6182.400; 5267.150; 4669.200
979.741; 7154.000; 6253.100; 4658.000
980.294; 5251.600; 4361.800; 4579.100
980.848; 4637.000; 3796.150; 4452.800
981.401; 5533.100; 4698.600; 4271.900
981.955; 5798.500; 4978.100; 4087.800
982.508; 4969.400; 4129.250; 3973.900
983.061; 6444.900; 5614.150; 3928.600
983.615; 5379.000; 4550.500; 3851.200
984.168; 5164.000; 4374.550; 3734.800
984.721; 6083.400; 5297.850; 3628.300
985.274; 5974.900; 5179.000; 3564.300
985.827; 5709.400; 4956.350; 3558.100
986.380; 4784.000; 4019.650; 3559.900
986.933; 5955.100; 5235.600; 3688.700
987.486; 5968.900; 5250.250; 3778.500
988.039; 5923.900; 5211.400; 3559.900
988.591; 6283.000; 5577.650; 3219.300
989.144; 4959.600; 4254.600; 2902.900
989.697; 5210.300; 4526.200; 2722.600
990.250; 6069.000; 5416.950; 2618.000
990.802; 5203.200; 4538.700; 2523.900
991.355; 7152.600; 6484.450; 2436.500
991.907; 6220.600; 5581.450; 2412.200
992.460; 5288.600; 4678.450; 2387.900
993.012; 5289.400; 4678.000; 2365.800
993.565; 4990.900; 4384.000; 2311.100
994.117; 6958.300; 6381.400; 2308.700
994.669; 4948.600; 4400.700; 2249.300
995.221; 5786.400; 5229.250; 2158.100
995.774; 5650.900; 5121.500; 2085.600
996.326; 5315.800; 4758.800; 2068.100
996.878; 6213.100; 5677.700; 1975.300
997.430; 5045.500; 4524.900; 1929.500
997.982; 5492.200; 4971.100; 1861.900
998.534; 5429.800; 4937.900; 1830.200
999.086; 5416.400; 4910.300; 1823.200
999.638; 4720.500; 4255.000; 1815.000
1000.190; 5148.900; 4652.250; 1796.600
1000.741; 5501.900; 5014.250; 1738.800
1001.293; 5021.900; 4532.050; 1666.200
1001.845; 5015.200; 4533.200; 1566.500
1002.396; 5568.200; 5081.800; 1471.900
1002.948; 5530.800; 5048.700; 1398.000
1003.500; 5407.300; 4960.550; 1356.500
1004.051; 7059.000; 6624.850; 1294.200
1004.603; 6097.600; 5643.750; 1190.000
1005.154; 4544.800; 4166.050; 1063.900
1005.705; 5495.100; 5158.700;  968.300
1006.257; 5418.300; 5060.350;  889.800
1006.808; 5275.400; 4926.700;  801.500
1007.359; 5978.700; 5655.450;  716.400
1007.910; 4966.000; 4671.000;  639.100
1008.461; 5748.600; 5443.300;  561.600
1009.013; 4485.100; 4188.250;  500.400
1009.564; 6238.600; 5967.100;  476.100
1010.115; 4586.200; 4299.100;  431.600
1010.665; 4685.900; 4390.700;  409.300
1011.216; 5192.500; 4940.700;  399.700
1011.767; 5428.500; 5164.100;  388.100
1012.318; 5648.500; 5392.150;  381.400
1012.869; 5236.700; 4966.150;  375.400
1013.419; 4645.400; 4378.150;  357.600
1013.970; 5228.500; 4961.350;  358.300
1014.521; 4810.900; 4524.950;  344.100
1015.071; 5269.900; 5015.950;  322.800
1015.622; 4948.100; 4668.650;  320.600
1016.172; 4629.200; 4392.750;  301.700
1016.723; 4778.600; 4524.350;  289.800
1017.273; 4734.100; 4471.700;  287.600
1017.823; 5070.500; 4817.050;  278.700
1018.374; 4794.500; 4549.200;  274.400
1018.924; 5650.800; 5442.750;  283.200
1019.474; 5603.000; 5356.750;  278.500
1020.024; 5134.100; 4888.650;  274.700
1020.574; 5723.800; 5503.500;  272.700
1021.124; 5305.000; 5080.200;  278.400
1021.674; 4366.000; 4124.300;  269.200
1022.224; 5631.000; 5407.900;  267.800
1022.774; 5254.600; 5009.550;  258.100
1023.324; 6013.900; 5784.100;  260.000
1023.874; 7080.700; 6859.800;  260.700
1024.423; 4794.600; 4580.650;  252.700
1024.973; 4709.200; 4470.350;  234.700
1025.523; 4872.100; 4626.050;  226.500
1026.072; 4781.000; 4538.100;  225.500
1026.622; 5337.800; 5114.600;  210.100
1027.172; 5659.100; 5425.100;  213.000
1027.721; 4707.600; 4495.400;  207.700
1028.270; 5295.900; 5086.500;  205.400
1028.820; 5092.100; 4850.200;  201.000
1029.369; 4850.600; 4637.950;  201.000
1029.918; 5097.700; 4862.500;  198.400
1030.468; 4434.900; 4243.350;  199.200
1031.017; 5043.500; 4836.350;  192.600
1031.566; 4823.700; 4617.600;  197.400
1032.115; 5543.800; 5331.750;  188.300
1032.664; 4741.800; 4559.450;  193.700
1033.213; 5884.600; 5668.250;  191.900
1033.762; 5052.500; 4830.250;  184.500
1034.311; 5410.600; 5191.500;  194.300
1034.860; 5482.000; 5284.950;  192.300
1035.408; 5822.300; 5610.700;  182.600
1035.957; 5712.900; 5522.400;  173.900
1036.506; 4155.200; 3960.200;  185.200
1037.055; 6808.500; 6586.050;  182.500
1037.603; 5293.200; 5103.350;  167.600
1038.152; 4186.400; 3968.450;  168.200
1038.700; 4597.600; 4427.150;  169.600
1039.249; 5410.800; 5226.650;  164.300
1039.797; 5078.200; 4872.500;  169.600
1040.345; 5632.100; 5424.800;  167.100
1040.894; 4998.200; 4813.700;  164.400
1041.442; 5079.400; 4877.550;  158.300
1041.990; 4448.400; 4262.300;  160.000
1042.538; 4243.400; 4042.350;  156.800
1043.087; 4484.500; 4310.800;  146.600
1043.635; 5424.000; 5260.000;  162.400
1044.183; 4696.100; 4514.800;  156.300
1044.731; 4588.500; 4406.500;  158.100
1045.279; 5420.100; 5219.050;  154.500
1045.827; 7257.700; 7077.300;  146.200
1046.374; 4048.600; 3856.850;  154.000
1046.922; 4683.200; 4528.700;  149.000
1047.470; 5585.800; 5396.150;  154.900
1048.018; 5271.700; 5076.000;  148.400
1048.565; 5763.400; 5586.050;  146.300
1049.113; 4401.400; 4219.750;  156.100
1049.660; 5016.700; 4830.250;  154.300
1050.208; 5429.000; 5232.150;  149.400
1050.755; 4860.900; 4685.600;  157.500
1051.303; 5571.800; 5350.000;  157.700
1051.850; 5059.400; 4900.250;  152.800
1052.397; 3748.100; 3583.350;  146.300
1052.945; 4958.600; 4763.250;  149.500
1053.492; 6026.400; 5860.450;  149.300
1054.039; 5848.300; 5671.700;  163.100
1054.586; 4471.400; 4260.150;  150.400
1055.133; 5662.900; 5451.250;  153.500
1055.680; 5170.000; 5019.000;  155.600
1056.227; 4302.300; 4119.750;  148.700
1056.774; 6452.800; 6272.800;  151.500
1057.321; 4185.100; 3982.050;  143.700
1057.868; 5212.000; 5038.200;  145.300
1058.415; 5266.700; 5095.550;  153.500
1058.961; 5464.500; 5280.150;  149.900
1059.508; 5192.100; 4988.750;  147.300
1060.055; 4710.100; 4525.850;  151.000
1060.601; 4972.600; 4812.050;  148.700
1061.148; 5088.000; 4856.200;  153.800
1061.694; 4776.600; 4607.750;  150.500
1062.241; 4798.600; 4618.400;  149.100
1062.787; 5400.300; 5206.850;  153.000
1063.334; 6544.500; 6355.650;  153.200
1063.880; 5436.200; 5266.000;  148.400
1064.426; 5729.800; 5564.350;  149.200
1064.972; 4821.800; 4656.350;  156.400
1065.518; 4581.200; 4387.200;  144.700
1066.065; 5104.400; 4927.450;  139.400
1066.611; 4861.000; 4690.100;  139.300
1067.157; 5195.700; 5020.700;  138.400
1067.703; 5466.700; 5278.700;  142.700
1068.249; 4800.700; 4640.100;  136.700
1068.794; 5085.500; 4906.750;  139.400
1069.340; 4657.300; 4496.450;  142.700
1069.886; 4794.900; 4653.350;  135.600
1070.432; 4322.700; 4171.150;  133.400
1070.977; 4887.200; 4721.800;  138.200
1071.523; 4563.500; 4393.350;  132.400
1072.068; 4678.800; 4498.200;  132.700
1072.614; 4192.100; 4055.600;  127.000
1073.160; 5639.100; 5477.150;  131.300
1073.705; 4685.900; 4497.900;  135.700
1074.250; 4547.200; 4390.750;  133.000
1074.796; 5352.500; 5194.350;  138.000
1075.341; 5381.100; 5229.600;  137.300
1075.886; 4757.000; 4626.400;  134.300
1076.431; 5348.300; 5204.900;  138.200
1076.976; 5262.900; 5083.800;  132.200
1077.521; 4706.800; 4562.800;  138.900
1078.067; 4699.000; 4576.800;  128.600
1078.612; 5438.200; 5274.850;  138.900
1079.156; 4891.500; 4743.400;  128.900
1079.701; 5660.900; 5527.550;  129.700
1080.246; 5706.700; 5543.800;  128.600
1080.791; 5158.800; 4994.550;  122.600
1081.336; 5361.200; 5231.150;  122.000
1081.880; 5305.000; 5190.550;  123.900
1082.425; 4647.200; 4490.500;  120.600
1082.970; 5856.700; 5734.950;  124.500
1083.514; 4861.000; 4696.700;  112.000
1084.059; 4784.700; 4624.650;  120.700
1084.603; 4627.700; 4479.200;  116.000
1085.147; 5311.800; 5167.200;  116.300
1085.692; 5926.300; 5753.400;  108.200
1086.236; 4091.300; 3966.450;  114.600
1086.780; 6209.800; 6044.500;  118.900
1087.325; 5388.600; 5225.500;  120.400
1087.869; 5023.200; 4879.850;  110.500
1088.413; 5762.600; 5615.250;  114.000
1088.957; 4369.800; 4238.200;  114.300
1089.501; 6348.400; 6206.000;  114.600
1090.045; 5984.300; 5864.600;  114.200
1090.589; 4631.300; 4492.250;  105.500
1091.133; 5515.500; 5377.300;  111.800
1091.676; 4775.700; 4649.250;  110.900
1092.220; 4932.300; 4787.250;  110.100
1092.764; 5787.500; 5672.550;  108.100
1093.307; 5515.100; 5364.100;  109.900
1093.851; 4552.300; 4422.150;  107.500
1094.395; 5643.200; 5493.850;   96.200
1094.938; 5185.900; 5062.000;   99.300
1095.482; 4580.600; 4436.550;   97.700
1096.025; 5843.100; 5711.450;   84.900
1096.568; 6369.600; 6229.550;   88.500
1097.112; 4089.600; 3972.400;   95.700
1097.655; 4853.800; 4744.650;   97.300
1098.198; 4918.200; 4778.850;   92.600
1098.741; 5065.400; 4922.400;   91.800
1099.285; 5379.300; 5240.200;   88.000
1099.828; 3581.100; 3448.600;   91.700
1100.371; 5018.000; 4888.250;   89.900
1100.914; 5668.200; 5508.500;   91.500
1101.457; 5612.800; 5443.850;   88.100
1101.999; 4757.900; 4632.250;   86.400
1102.542; 5255.300; 5117.750;   90.800
1103.085; 5456.300; 5320.700;   95.400
1103.628; 6352.200; 6206.250;   97.700
1104.170; 4783.800; 4684.400;   84.000
1104.713; 5320.000; 5195.850;   93.900
1105.256; 4544.400; 4419.550;   93.000
1105.798; 4110.800; 3988.600;   85.600
1106.341; 6017.300; 5905.300;   87.100
1106.883; 4289.000; 4161.400;   85.200
1107.425; 5538.300; 5414.900;   85.000
1107.968; 5123.900; 4974.500;   84.300
1108.510; 5656.300; 5540.350;   88.200
1109.052; 5088.600; 4988.450;   86.600
1109.594; 4627.100; 4484.800;   79.400
1110.136; 5326.600; 5221.300;   81.700
1110.679; 5180.200; 5066.900;   75.500
1111.221; 5010.300; 4895.250;   88.500
1111.763; 4579.100; 4453.050;   87.700
1112.304; 4490.800; 4373.350;   89.700
1112.846; 5535.300; 5377.400;   81.900
1113.388; 7877.900; 7765.850;   86.400
1113.930; 5756.900; 5628.400;   84.700
1114.472; 5030.500; 4929.350;   78.900
1115.013; 4527.700; 4415.050;   78.100
1115.555; 4875.300; 4761.800;   84.900
1116.097; 4756.300; 4628.450;   79.200
1116.638; 5701.500; 5576.850;   83.700
1117.180; 5456.000; 5357.600;   85.500
1117.721; 4763.800; 4643.900;   78.800
1118.262; 5645.100; 5513.150;   77.400
1118.804; 5269.600; 5150.350;   81.400
1119.345; 4827.300; 4708.600;   77.800
1119.886; 5868.200; 5730.300;   81.200
1120.427; 4855.100; 4749.450;   77.200
1120.969; 4975.300; 4855.250;   75.200
1121.510; 4696.200; 4565.100;   80.900
1122.051; 6000.700; 5882.950;   77.300
1122.592; 5475.600; 5362.150;   73.300
1123.133; 4518.400; 4406.450;   90.100
1123.673; 5891.500; 5780.650;   75.000
1124.214; 5082.400; 4988.450;   80.600
1124.755; 5370.200; 5239.150;   78.000
1125.296; 5172.400; 5071.700;   77.500
1125.836; 5749.900; 5614.350;   80.400
1126.377; 4991.800; 4888.950;   75.600
1126.918; 5118.000; 4990.000;   78.900
1127.458; 5191.600; 5057.400;   78.000
1127.999; 5477.000; 5356.800;   76.100
1128.539; 5764.600; 5660.000;   81.400
1129.079; 5272.500; 5167.400;   77.400
1129.620; 4647.100; 4531.750;   68.000
1130.160; 4489.200; 4398.900;   77.500
1130.700; 5341.400; 5217.650;   76.300
1131.240; 5359.500; 5245.000;   66.800
1131.781; 5185.300; 5091.350;   70.600
1132.321; 5011.700; 4912.100;   77.200
1132.861; 4670.200; 4544.850;   70.400
1133.401; 4989.600; 4886.600;   68.700
1133.941; 5232.200; 5117.700;   68.500
1134.481; 5025.900; 4933.900;   75.900
1135.020; 5044.200; 4968.550;   66.600
1135.560; 5594.600; 5473.300;   68.100
1136.100; 4174.800; 4069.400;   64.900
1136.640; 4271.800; 4176.500;   72.500
1137.179; 4427.100; 4350.650;   69.700
1137.719; 5063.700; 4954.400;   68.400
1138.258; 4912.000; 4803.500;   67.000
1138.798; 5489.600; 5416.400;   69.600
1139.337; 4022.900; 3922.550;   64.000
1139.877; 5358.600; 5230.350;   64.500
1140.416; 7290.200; 7166.500;   74.900
1140.955; 4420.300; 4333.400;   67.200
1141.494; 5613.700; 5532.550;   69.900
1142.034; 4883.800; 4767.300;   59.100
1142.573; 5407.500; 5287.550;   65.900
1143.112; 4607.200; 4512.350;   70.600
1143.651; 4493.300; 4385.950;   67.100
1144.190; 5792.500; 5703.450;   56.700
1144.729; 5065.500; 4955.750;   61.800
1145.267; 4859.100; 4736.950;   62.500
1145.806; 5340.100; 5220.900;   68.500
1146.345; 5363.500; 5257.750;   58.300
1146.884; 5244.600; 5145.950;   63.100
1147.422; 4447.800; 4340.300;   54.800
1147.961; 5962.900; 5848.100;   67.600
1148.500; 5607.400; 5498.250;   64.700
1149.038; 5348.900; 5233.850;   61.000
1149.577; 5878.500; 5777.000;   65.100
1150.115; 3754.600; 3681.900;   58.100
1150.653; 5090.900; 5012.650;   60.500
1151.192; 4665.600; 4567.250;   56.600
1151.730; 5512.200; 5413.950;   62.300
1152.268; 4900.000; 4812.600;   55.500
1152.806; 4801.600; 4734.050;   58.200
1153.344; 4819.300; 4732.600;   55.000
1153.882; 5011.800; 4902.000;   64.200
1154.421; 3898.200; 3841.450;   60.300
1154.958; 5030.500; 4952.800;   58.100
1155.496; 5418.100; 5328.650;   55.800
1156.034; 6044.000; 5973.800;   61.000
1156.572; 5602.500; 5493.900;   56.200
1157.110; 3959.400; 3856.400;   53.200
1157.647; 5672.600; 5588.750;   57.400
1158.185; 4767.400; 4685.000;   55.500
1158.723; 4276.100; 4210.500;   58.000
1159.260; 5836.100; 5779.700;   53.700
1159.798; 5548.600; 5442.950;   51.700
1160.335; 5327.600; 5227.600;   59.600

