source_2
Integration time [ms]: 3468.598
Averaging Nr. [scans]: 10
Smoothing Nr. [pixels]: 0
Data measured with spectrometer [name]: 7414430SP
Wave   ;Sample   ;Dark     ;Reference
[nm]   ;[counts] ;[counts] ;[counts] 

288.544; 5177.075; 4983.385;    6.613
289.143; 4262.099; 4054.288;   14.216
289.742; 5530.800; 5296.867;   11.816
290.341; 5295.858; 5071.188;   -4.936
290.940; 4840.530; 4633.392;    0.852
291.538; 6125.639; 5870.872;    1.792
292.137; 5394.747; 5171.827;    6.262
292.736; 6988.658; 6773.389;    8.164
293.335; 4971.625; 4733.773;   -6.418
293.934; 5342.465; 5105.711;   -2.904
294.532; 7553.490; 7282.726;   -5.162
295.131; 5944.650; 5726.518;  -10.283
295.730; 5751.775; 5546.961;  -16.141
296.328; 5571.680; 5353.235;  -14.740
296.927; 5501.701; 5314.389;   -8.768
297.525; 5520.936; 5271.474;  -15.255
298.124; 4513.731; 4280.530;  -22.063
298.722; 5382.318; 5165.127;  -14.796
299.321; 4959.914; 4751.758;  -10.466
299.919; 5322.680; 5105.331;  -10.979
300.518; 4855.091; 4674.793;  -12.077
301.116; 4859.884; 4680.521;  -13.509
301.715; 5185.985; 4971.916;  -11.939
302.313; 5006.334; 4778.250;  -15.424
302.911; 5292.128; 5092.749;  -19.833
303.509; 6907.105; 6712.962;   -3.567
304.108; 5477.046; 5252.457;   -9.553
304.706; 5850.358; 5641.515;   -8.582
305.304; 5931.476; 5735.520;  -12.348
305.902; 5646.571; 5445.572;  -14.411
306.500; 5274.629; 5061.710;   -7.194
307.098; 5448.847; 5250.898;   -9.322
307.696; 5810.441; 5572.651;  -19.192
308.294; 5340.405; 5156.146;   -9.736
308.892; 5577.560; 5383.022;  -15.482
309.490; 5178.396; 4946.583;  -14.107
310.088; 5912.536; 5709.054;  -15.862
310.686; 6089.565; 5862.354;  -10.781
311.284; 5709.983; 5498.425;  -14.878
311.882; 5310.278; 5091.407;   -9.948
312.480; 5113.918; 4933.328;  -15.503
313.078; 6138.935; 5942.025;  -17.262
313.675; 5047.529; 4875.110;   -3.694
314.273; 6031.190; 5857.348;  -18.246
314.871; 4207.255; 4039.000;  -15.190
315.468; 4805.028; 4617.749;  -12.633
316.066; 5128.716; 4944.624;   -5.765
316.664; 4827.477; 4640.783;  -14.317
317.261; 7008.289; 6802.427;   -8.677
317.859; 5913.912; 5734.268;  -11.804
318.456; 6424.594; 6212.525;   -3.107
319.054; 6036.737; 5840.912;   -3.062
319.651; 5737.401; 5547.735;   -6.706
320.249; 6314.701; 6109.685;   -5.206
320.846; 5437.179; 5266.352;   -4.679
321.443; 6515.058; 6334.103;   -7.920
322.041; 6379.706; 6195.737;  -14.105
322.638; 5451.130; 5261.052;   -6.263
323.235; 5029.034; 4863.250;   -7.424
323.833; 5744.016; 5567.545;  -14.765
324.430; 4612.666; 4435.237;  -10.550
325.027; 6894.558; 6712.098;   -9.951
325.624; 4815.564; 4616.812;   -3.712
326.221; 5173.002; 4968.497;   -9.368
326.818; 6281.200; 6091.093;   -5.637
327.415; 5561.400; 5355.476;   -6.699
328.012; 5083.954; 4863.679;   -5.713
328.609; 5355.749; 5162.610;   -9.983
329.206; 5874.042; 5645.363;   -7.154
329.803; 5420.361; 5211.901;   -1.682
330.400; 5122.176; 4900.641;   -2.741
330.997; 6070.287; 5817.924;   -4.339
331.594; 5869.485; 5646.983;  -10.278
332.191; 5224.303; 4995.754;   -6.967
332.787; 6237.170; 5969.677;   -0.480
333.384; 5512.826; 5257.662;  -10.333
333.981; 5983.641; 5771.552;  -19.900
334.578; 5047.887; 4783.916;  -19.816
335.174; 5224.002; 4998.339;  -15.844
335.771; 6149.537; 5919.491;  -12.670
336.367; 5176.783; 4916.472;  -21.124
336.964; 5888.271; 5640.552;  -18.226
337.561; 5356.920; 5090.344;  -13.311
338.157; 6907.750; 6657.257;  -19.006
338.754; 5933.218; 5671.309;  -19.418
339.350; 5272.371; 5050.082;  -29.433
339.946; 5646.896; 5393.192;  -16.622
340.543; 6346.852; 6090.361;  -16.744
341.139; 5316.969; 5095.704;  -21.841
341.735; 5832.659; 5610.534;  -25.012
342.332; 5129.623; 4912.607;  -19.156
342.928; 5978.660; 5749.129;  -20.443
343.524; 5814.805; 5588.802;  -14.397
344.120; 5579.337; 5379.784;  -20.654
344.716; 5322.995; 5094.014;   -5.730
345.313; 6069.696; 5839.472;  -10.929
345.909; 4587.658; 4381.842;  -19.843
346.505; 5572.043; 5364.214;  -19.645
347.101; 6265.322; 6056.932;   -9.618
347.697; 5957.254; 5751.302;  -10.305
348.293; 4561.609; 4347.975;  -23.189
348.889; 5639.219; 5446.116;  -18.418
349.485; 5073.241; 4872.965;  -10.476
350.081; 5829.910; 5670.291;  -17.320
350.676; 5201.313; 5000.419;  -21.088
351.272; 6168.800; 5950.016;  -12.821
351.868; 5804.664; 5612.910;  -13.165
352.464; 5394.673; 5204.664;  -12.464
353.059; 4799.429; 4613.287;  -22.547
353.655; 5940.726; 5722.059;   -9.379
354.251; 5741.657; 5519.300;   -8.266
354.846; 5623.453; 5425.623;  -17.705
355.442; 5677.327; 5447.184;   -9.317
356.038; 5643.021; 5455.090;  -11.049
356.633; 5478.747; 5254.163;  -10.006
357.229; 5436.911; 5228.999;  -13.120
357.824; 5307.933; 5095.231;  -15.647
358.420; 5071.959; 4871.454;  -19.204
359.015; 5129.981; 4953.653;  -12.263
359.610; 5832.003; 5623.981;  -16.421
360.206; 4445.157; 4244.451;  -20.074
360.801; 4751.237; 4567.671;  -13.277
361.396; 5479.996; 5273.642;   -5.822
361.992; 5007.033; 4822.082;  -11.247
362.587; 5056.475; 4866.389;  -21.502
363.182; 5185.591; 5012.657;   -7.461
363.777; 5652.413; 5452.306;   -8.719
364.372; 5623.301; 5417.878;  -14.590
364.967; 5178.946; 4998.401;  -15.145
365.563; 6239.190; 6062.795;   -7.192
366.158; 5155.282; 4955.311;   -5.662
366.753; 4880.832; 4656.940;   -8.378
367.348; 5704.904; 5508.222;  -14.990
367.942; 5253.154; 5090.001;   -6.005
368.537; 5738.165; 5566.585;  -11.504
369.132; 5392.044; 5163.560;  -10.576
369.727; 4776.362; 4572.582;  -12.573
370.322; 4386.595; 4212.081;  -11.560
370.917; 5478.813; 5272.619;  -10.388
371.511; 6780.989; 6595.170;   -9.161
372.106; 6058.045; 5869.301;  -10.245
372.701; 4464.810; 4245.487;  -10.158
373.296; 6682.713; 6521.885;   -4.719
373.890; 4966.575; 4797.689;  -11.802
374.485; 5372.186; 5206.901;  -13.500
375.079; 5780.247; 5582.247;   -6.276
375.674; 6365.230; 6178.866;   -0.447
376.268; 5306.232; 5119.886;   -6.916
376.863; 4480.845; 4325.718;  -14.483
377.457; 5138.266; 4959.743;   -6.903
378.052; 5997.951; 5812.932;   -9.844
378.646; 5851.080; 5688.691;  -12.601
379.240; 5657.140; 5483.954;  -14.715
379.835; 4960.684; 4791.252;  -12.331
380.429; 4331.559; 4139.587;   -9.074
381.023; 6128.800; 6023.366;   -1.729
381.617; 5345.448; 5193.600;  -13.714
382.212; 5380.997; 5199.617;   -7.060
382.806; 5984.066; 5856.393;   -2.303
383.400; 5347.641; 5194.861;   -0.815
383.994; 5307.201; 5127.624;   -4.429
384.588; 5559.693; 5394.073;   -6.261
385.182; 5809.792; 5638.881;    0.008
385.776; 5679.231; 5545.624;   -3.247
386.370; 5464.192; 5300.699;   -1.030
386.964; 5452.637; 5324.055;   -1.346
387.558; 4756.209; 4587.712;   -2.020
388.152; 5462.644; 5338.543;   -5.345
388.745; 6612.956; 6478.322;   -2.774
389.339; 5922.300; 5769.749;    3.510
389.933; 5458.106; 5325.146;    5.280
390.527; 7000.505; 6889.151;    2.610
391.120; 4776.243; 4663.248;   -7.914
391.714; 5660.570; 5553.737;   -1.903
392.308; 6355.040; 6199.287;    6.023
392.901; 5196.569; 5082.758;   -4.103
393.495; 4821.436; 4713.759;    3.284
394.089; 6297.745; 6189.122;    8.655
394.682; 5717.316; 5610.813;    2.312
395.275; 5912.274; 5792.710;   -7.402
395.869; 5501.867; 5370.055;   -1.072
396.462; 5024.741; 4932.678;    6.454
397.056; 6303.852; 6202.715;    8.494
397.649; 6057.179; 5922.913;    1.599
398.242; 5847.034; 5768.239;    3.153
398.836; 6279.357; 6167.017;   11.395
399.429; 5060.558; 5014.096;   14.695
400.022; 5459.266; 5395.776;    3.627
400.615; 6705.729; 6618.121;    8.383
401.208; 5610.155; 5498.181;   13.295
401.802; 5785.911; 5681.382;    6.211
402.395; 5661.666; 5596.026;    7.227
402.988; 5731.585; 5664.872;    2.700
403.581; 5215.947; 5136.675;   11.225
404.174; 5552.633; 5480.048;   18.922
404.767; 5159.785; 5071.610;   14.169
405.360; 5129.182; 5064.078;    8.999
405.953; 6261.183; 6154.089;   13.138
406.545; 5956.776; 5915.479;   13.937
407.138; 5069.684; 4989.331;   10.869
407.731; 5018.279; 4971.279;   12.768
408.324; 5392.323; 5308.193;   22.921
408.917; 5640.292; 5555.781;   15.308
409.509; 6147.992; 6066.265;   12.239
410.102; 5334.804; 5291.206;   13.741
410.695; 5454.707; 5394.863;   20.249
411.287; 4931.240; 4872.253;   21.793
411.880; 4794.158; 4750.541;   22.965
412.472; 5041.621; 4994.453;   15.082
413.065; 5229.139; 5211.779;   23.423
413.657; 4732.888; 4700.924;   21.077
414.250; 5295.304; 5250.026;   12.349
414.842; 5576.435; 5521.505;   20.423
415.434; 4732.777; 4676.125;   19.906
416.027; 5331.567; 5250.987;   26.574
416.619; 5909.774; 5860.780;   15.705
417.211; 4904.732; 4856.906;   17.791
417.804; 5116.378; 5078.208;   30.244
418.396; 4998.490; 4972.632;   24.177
418.988; 5422.265; 5394.105;   24.904
419.580; 4667.639; 4639.345;   20.692
420.172; 4446.979; 4422.949;   22.275
420.764; 5482.763; 5436.114;   26.773
421.356; 5261.841; 5234.536;   25.731
421.948; 5555.581; 5520.057;   24.876
422.540; 5552.065; 5486.917;   30.042
423.132; 4907.221; 4874.056;   32.728
423.724; 4581.201; 4547.598;   21.317
424.316; 5115.922; 5074.269;   29.359
424.908; 4856.126; 4818.475;   28.798
425.500; 5292.569; 5270.527;   30.512
426.092; 5289.054; 5262.205;   26.741
426.683; 5691.726; 5674.779;   27.029
427.275; 5235.759; 5220.344;   32.611
427.867; 5407.512; 5381.797;   33.796
428.458; 5996.784; 5979.088;   34.453
429.050; 5583.797; 5560.808;   34.255
429.642; 6079.771; 6064.581;   39.082
430.233; 4499.736; 4497.833;   41.138
430.825; 5985.367; 5978.757;   31.581
431.416; 5731.397; 5693.486;   35.755
432.008; 5261.717; 5234.766;   40.566
432.599; 5284.284; 5254.004;   46.322
433.190; 5194.521; 5165.022;   46.897
433.782; 4579.936; 4558.587;   41.069
434.373; 7179.049; 7136.306;   48.778
434.964; 4819.647; 4799.398;   50.078
435.556; 5114.267; 5104.428;   52.381
436.147; 6133.174; 6134.034;   38.251
436.738; 5645.229; 5644.065;   47.237
437.329; 5790.216; 5767.012;   61.304
437.920; 5276.561; 5283.781;   48.611
438.511; 4463.157; 4484.836;   44.910
439.103; 4963.820; 4948.235;   62.404
439.694; 5455.128; 5438.619;   63.075
440.285; 5966.006; 5937.420;   61.033
440.876; 6878.462; 6875.643;   57.249
441.466; 4538.727; 4531.124;   61.306
442.057; 5251.614; 5215.991;   65.773
442.648; 6027.035; 5976.379;   65.676
443.239; 4919.801; 4920.651;   55.963
443.830; 5617.491; 5610.384;   69.631
444.421; 5151.420; 5137.718;   69.943
445.011; 5483.281; 5510.426;   72.791
445.602; 5923.456; 5907.933;   68.848
446.193; 3730.630; 3709.493;   80.044
446.783; 4930.082; 4895.904;   82.599
447.374; 5396.263; 5405.238;   77.419
447.964; 5654.821; 5641.364;   72.605
448.555; 6460.108; 6454.327;   82.041
449.145; 5178.983; 5148.146;   76.230
449.736; 6344.933; 6313.438;   75.545
450.326; 5578.033; 5572.809;   67.945
450.917; 5222.076; 5214.044;   77.598
451.507; 4637.565; 4629.224;   68.027
452.097; 5882.803; 5859.108;   67.771
452.688; 5745.641; 5714.359;   62.884
453.278; 4175.623; 4175.920;   65.512
453.868; 6269.866; 6226.240;   71.796
454.458; 5026.153; 4998.066;   60.956
455.048; 5494.457; 5505.911;   62.356
455.639; 4271.622; 4270.608;   58.782
456.229; 5466.101; 5442.075;   65.209
456.819; 5778.271; 5737.538;   61.466
457.409; 6013.276; 5988.460;   59.967
457.999; 5632.047; 5608.689;   58.093
458.589; 5154.078; 5144.935;   59.536
459.179; 5510.854; 5490.749;   55.994
459.769; 4701.851; 4700.417;   43.624
460.358; 6094.201; 6079.692;   46.978
460.948; 5212.731; 5199.387;   49.821
461.538; 4941.699; 4915.584;   54.678
462.128; 5011.601; 4979.425;   49.309
462.717; 5291.176; 5271.431;   52.774
463.307; 5294.452; 5279.012;   48.101
463.897; 4869.383; 4840.453;   45.606
464.486; 6453.205; 6435.799;   45.010
465.076; 5520.415; 5508.673;   45.519
465.666; 4761.820; 4710.358;   50.058
466.255; 5934.549; 5932.642;   44.463
466.845; 4826.182; 4845.475;   41.206
467.434; 5399.599; 5385.521;   44.847
468.023; 4737.333; 4736.857;   46.760
468.613; 5280.578; 5274.485;   39.736
469.202; 4685.736; 4667.222;   46.461
469.791; 5356.078; 5351.184;   47.944
470.381; 5380.833; 5350.895;   47.529
470.970; 5143.165; 5136.348;   43.773
471.559; 5394.689; 5390.396;   41.646
472.148; 4790.786; 4762.518;   37.914
472.738; 5539.753; 5495.057;   48.071
473.327; 4461.156; 4456.801;   47.871
473.916; 5325.500; 5287.146;   37.716
474.505; 5394.407; 5393.509;   40.256
475.094; 5887.739; 5865.358;   43.269
475.683; 5745.235; 5701.447;   36.499
476.272; 5153.867; 5158.572;   44.542
476.861; 4957.923; 4900.277;   42.297
477.449; 5073.452; 5016.748;   46.878
478.038; 4770.109; 4744.075;   35.156
478.627; 4951.985; 4943.110;   42.514
479.216; 5346.938; 5325.338;   43.937
479.805; 5434.800; 5371.653;   51.393
480.393; 7352.050; 7300.708;   53.239
480.982; 6236.503; 6238.065;   38.955
481.571; 6054.027; 6005.705;   45.436
482.159; 4665.040; 4618.991;   51.007
482.748; 5673.814; 5641.481;   49.695
483.336; 5922.461; 5872.924;   48.280
483.925; 5013.526; 4993.409;   47.166
484.513; 5014.021; 4970.040;   55.404
485.102; 5419.845; 5368.277;   54.238
485.690; 7038.856; 7009.038;   55.748
486.278; 6775.514; 6745.635;   55.934
486.867; 5280.933; 5215.002;   57.106
487.455; 5971.956; 5939.843;   56.979
488.043; 4661.014; 4629.218;   57.564
488.631; 6802.405; 6732.188;   57.432
489.220; 5953.644; 5888.118;   63.646
489.808; 4474.563; 4399.126;   65.449
490.396; 5853.343; 5816.073;   61.977
490.984; 4997.614; 4951.264;   68.834
491.572; 5863.834; 5823.526;   70.775
492.160; 5522.914; 5484.568;   67.564
492.748; 5140.144; 5103.664;   66.808
493.336; 5958.049; 5918.320;   79.747
493.924; 5134.465; 5054.267;   88.688
494.512; 5861.574; 5817.397;   84.120
495.100; 5734.971; 5691.016;   86.250
495.687; 6075.025; 6014.601;  103.074
496.275; 4916.359; 4878.941;  108.717
496.863; 5123.823; 5065.160;  107.035
497.451; 5080.397; 5034.038;  117.993
498.038; 5347.548; 5313.558;  120.116
498.626; 5150.881; 5086.890;  143.059
499.214; 5515.114; 5471.485;  153.434
499.801; 5374.978; 5322.221;  175.121
500.389; 4413.155; 4364.446;  185.617
500.976; 5617.672; 5544.377;  215.789
501.564; 5401.779; 5330.850;  240.321
502.151; 3915.240; 3852.220;  267.007
502.738; 5067.091; 5027.823;  317.961
503.326; 5210.047; 5129.429;  361.216
503.913; 5434.208; 5378.604;  401.433
504.500; 5591.290; 5530.499;  446.492
505.088; 4779.702; 4710.506;  512.063
505.675; 5192.462; 5123.102;  586.387
506.262; 5165.283; 5085.023;  671.021
506.849; 5270.296; 5209.396;  759.062
507.436; 5976.367; 5891.975;  849.788
508.023; 5247.970; 5196.791;  944.288
508.610; 5822.980; 5784.424; 1020.690
509.197; 5611.281; 5582.570; 1089.052
509.784; 5318.940; 5220.757; 1133.776
510.371; 4448.801; 4366.182; 1165.501
510.958; 5393.122; 5338.453; 1251.735
511.545; 6205.658; 6150.146; 1350.248
512.132; 5279.135; 5223.521; 1525.945
512.719; 4735.508; 4663.104; 1834.933
513.305; 4875.561; 4822.911; 1965.349
513.892; 6140.017; 6074.784; 1963.265
514.479; 5403.244; 5352.118; 2046.446
515.066; 5926.618; 5865.174; 2252.803
515.652; 5392.748; 5316.741; 2567.247
516.239; 5734.070; 5688.453; 2636.919
516.825; 4495.722; 4440.519; 2482.304
517.412; 6623.600; 6569.657; 2427.031
517.998; 5199.205; 5124.672; 2540.463
518.585; 5107.740; 5041.720; 2609.007
519.171; 5431.166; 5357.517; 2842.088
519.758; 4583.814; 4527.980; 3090.703
520.344; 5873.840; 5801.957; 3176.076
520.930; 4728.333; 4660.865; 3295.037
521.516; 5651.980; 5568.661; 3500.959
522.103; 6172.721; 6109.140; 3736.704
522.689; 5130.685; 5046.509; 3971.022
523.275; 6011.251; 5921.020; 4213.778
523.861; 5213.595; 5141.817; 4190.361
524.447; 5991.009; 5895.449; 4070.602
525.033; 6050.792; 5969.365; 4088.892
525.619; 4912.072; 4824.573; 4416.851
526.205; 4580.621; 4522.824; 4836.835
526.791; 5149.116; 5080.638; 4885.903
527.377; 4971.042; 4886.777; 4544.907
527.963; 5432.610; 5357.608; 4321.995
528.549; 5526.458; 5471.029; 4473.979
529.135; 4863.703; 4799.785; 4788.663
529.721; 5382.048; 5289.275; 4888.577
530.306; 7232.158; 7149.079; 4775.779
530.892; 5119.534; 5035.210; 4793.906
531.478; 4991.654; 4910.001; 4956.948
532.063; 4769.926; 4698.426; 5136.936
532.649; 6552.829; 6475.575; 5336.867
533.235; 4775.896; 4710.380; 5748.092
533.820; 6112.028; 6033.095; 6456.875
534.406; 5212.028; 5133.546; 6590.167
534.991; 4846.984; 4744.730; 6179.622
535.576; 5224.190; 5152.528; 6098.691
536.162; 7277.416; 7175.622; 6441.234
536.747; 4572.702; 4500.724; 6816.224
537.333; 4874.986; 4772.972; 6889.752
537.918; 5268.165; 5181.318; 7154.280
538.503; 4955.457; 4867.438; 7150.848
539.088; 5546.748; 5444.059; 7253.308
539.673; 5100.766; 5018.697; 7625.180
540.259; 4912.896; 4832.009; 8226.793
540.844; 4327.292; 4250.265; 8745.092
541.429; 6444.690; 6360.395; 8762.553
542.014; 4495.226; 4420.172; 8871.497
542.599; 5509.644; 5417.014; 8886.008
543.184; 4649.645; 4561.306; 9079.139
543.769; 4947.175; 4844.123; 9076.182
544.354; 5095.072; 4998.507; 8354.081
544.938; 5489.851; 5396.553; 8236.809
545.523; 6416.655; 6326.764; 8222.179
546.108; 5281.976; 5217.730; 8114.082
546.693; 5250.975; 5178.206; 8535.912
547.278; 5247.990; 5181.683; 9238.322
547.862; 5264.232; 5151.523; 9034.405
548.447; 5898.666; 5833.480; 7795.011
549.031; 5087.637; 5019.655; 7485.099
549.616; 5471.948; 5383.887; 7626.308
550.201; 4941.454; 4859.369; 7627.909
550.785; 5726.106; 5618.947; 7859.125
551.370; 4632.198; 4519.063; 7990.654
551.954; 5910.436; 5785.114; 8196.468
552.538; 5790.911; 5663.715; 7959.495
553.123; 4960.211; 4862.699; 7964.826
553.707; 5120.216; 5038.385; 8515.957
554.291; 6170.403; 6054.031; 8724.024
554.876; 5841.567; 5747.388; 8524.211
555.460; 4967.307; 4892.509; 8704.456
556.044; 4942.366; 4828.855; 9141.473
556.628; 5309.828; 5202.608; 9250.197
557.212; 6045.234; 5944.873; 9444.237
557.796; 5189.286; 5082.906; 9379.783
558.380; 5590.622; 5466.216; 9353.658
558.964; 5407.158; 5321.742; 9210.310
559.548; 4567.788; 4477.608; 8475.153
560.132; 5079.494; 4982.252; 7954.084
560.716; 4693.035; 4593.302; 7489.529
561.300; 4625.984; 4507.485; 7211.952
561.884; 5723.174; 5581.377; 7141.313
562.467; 5650.105; 5549.185; 7155.386
563.051; 5312.719; 5185.900; 7323.158
563.635; 5239.685; 5099.010; 7709.114
564.219; 5302.302; 5166.236; 7678.855
564.802; 5684.008; 5563.201; 7376.187
565.386; 5396.360; 5259.096; 7054.372
565.969; 6178.619; 6057.083; 6589.196
566.553; 6785.753; 6654.257; 6279.371
567.136; 6107.237; 5988.439; 5967.930
567.720; 5429.060; 5255.929; 5660.703
568.303; 5603.190; 5455.691; 5648.615
568.887; 5448.671; 5286.245; 5618.443
569.470; 5578.880; 5440.454; 5411.875
570.053; 5824.977; 5667.810; 5149.274
570.637; 4958.332; 4787.553; 5122.798
571.220; 5886.644; 5681.210; 4957.369
571.803; 6831.710; 6635.300; 4933.018
572.386; 5275.070; 5055.450; 4840.973
572.969; 5264.001; 5062.691; 4592.886
573.552; 5435.707; 5157.522; 4348.387
574.135; 4909.028; 4658.188; 4002.290
574.718; 5138.270; 4835.171; 3654.773
575.301; 5133.467; 4821.937; 3502.288
575.884; 5128.664; 4808.703; 3349.803
576.467; 6304.260; 5951.329; 3191.403
577.050; 5833.408; 5439.763; 3062.418
577.633; 6952.944; 6480.844; 3214.200
578.216; 5615.120; 5073.692; 3284.889
578.799; 5646.990; 5071.508; 3189.777
579.381; 7350.059; 6697.000; 3064.502
579.964; 5502.816; 4809.335; 2888.357
580.547; 6116.336; 5371.672; 2905.760
581.129; 7012.410; 6197.255; 2966.849
581.712; 6423.943; 5529.845; 2887.292
582.294; 6330.346; 5301.864; 2771.631
582.877; 7923.357; 6756.813; 2711.602
583.459; 6522.914; 5236.528; 2577.049
584.042; 6562.585; 5150.640; 2454.707
584.624; 6266.745; 4768.103; 2305.893
585.206; 5832.592; 4114.883; 2189.546
585.789; 6859.496; 4948.339; 2112.577
586.371; 7528.867; 5531.035; 2153.065
586.953; 7861.380; 5740.188; 2197.806
587.536; 8445.620; 6109.292; 2105.489
588.118; 7682.215; 5140.732; 1963.911
588.700; 9103.806; 6115.244; 1843.179
589.282; 8971.961; 5567.221; 1813.834
589.864; 9151.725; 5353.828; 1777.620
590.446; 8546.014; 4281.861; 1733.780
591.028;10021.796; 5306.373; 1676.008
591.610; 9268.012; 4363.441; 1631.649
592.192;10398.646; 5368.327; 1632.362
592.774; 9966.190; 4705.171; 1569.507
593.356;10695.596; 4906.636; 1524.539
593.937;11150.021; 4876.733; 1569.720
594.519;12645.210; 5891.684; 1569.049
595.101;11815.934; 4415.508; 1545.452
595.683;13110.581; 4950.863; 1607.568
596.264;14302.581; 5184.795; 1615.506
596.846;14805.034; 5034.453; 1667.622
597.427;15218.487; 4882.123; 1670.469
598.009;15925.117; 4818.189; 1640.312
598.591;17291.734; 5743.932; 1541.022
599.172;17135.768; 5070.064; 1598.665
599.753;17336.586; 4544.065; 1619.068
600.335;19426.223; 6136.621; 1548.612
600.916;18936.510; 5220.222; 1607.510
601.498;20313.016; 5512.527; 1745.181
602.079;21784.914; 5267.174; 1801.011
602.660;22783.904; 5161.532; 1834.640
603.241;22589.023; 4183.903; 1787.351
603.823;23852.672; 4952.837; 1684.266
604.404;23780.707; 4586.540; 1654.241
604.985;24187.510; 4963.834; 1758.741
605.566;25671.906; 5787.352; 1697.679
606.147;26421.674; 5119.091; 1526.728
606.728;27344.549; 4563.777; 1484.086
607.309;28801.996; 4904.498; 1421.070
607.890;29048.178; 4984.097; 1369.867
608.471;29784.262; 4801.079; 1277.826
609.051;31149.848; 5385.582; 1180.416
609.632;32469.045; 4723.337; 1075.816
610.213;35375.324; 5155.071; 1053.313
610.794;36531.813; 4975.971;  979.442
611.374;37523.328; 5465.109;  917.414
611.955;36827.652; 4470.179;  819.987
612.536;39607.664; 5384.845;  752.627
613.116;40845.082; 4959.033;  690.799
613.697;40775.121; 4885.601;  674.974
614.277;40592.039; 4738.818;  663.846
614.858;39937.980; 4877.575;  665.898
615.438;39331.922; 5227.542;  660.712
616.019;39730.898; 6137.323;  632.732
616.599;38076.273; 4113.567;  551.759
617.179;40498.602; 4594.608;  512.871
617.760;43973.047; 6911.514;  473.655
618.340;42312.016; 5155.940;  440.004
618.920;44138.691; 6328.034;  429.731
619.500;44607.289; 5015.039;  441.361
620.080;44475.902; 4725.700;  425.202
620.660;44906.605; 4711.282;  408.164
621.241;46020.988; 5022.023;  387.161
621.821;47366.250; 5282.726;  378.017
622.401;47046.762; 5863.925;  379.188
622.980;44733.465; 4482.932;  350.019
623.560;45050.043; 5026.484;  336.446
624.140;43709.918; 5298.343;  336.473
624.720;41804.223; 5462.688;  334.974
625.300;40892.449; 4728.110;  325.717
625.880;42122.969; 5147.411;  308.519
626.459;44748.852; 5201.913;  307.117
627.039;45584.977; 4350.832;  290.890
627.619;49424.922; 6638.576;  286.635
628.198;50123.215; 5951.995;  282.535
628.778;51153.023; 5586.238;  285.474
629.357;48407.410; 4542.902;  284.103
629.937;47541.148; 4978.398;  292.178
630.516;49075.059; 6239.056;  290.749
631.096;48161.465; 4804.599;  285.489
631.675;48531.387; 6131.162;  287.022
632.254;46846.438; 4798.861;  286.038
632.834;45967.676; 5153.383;  276.451
633.413;46412.750; 6110.794;  279.447
633.992;45755.844; 5855.117;  264.508
634.571;45945.355; 5609.308;  271.010
635.151;46992.734; 4691.204;  277.338
635.730;47391.820; 5087.243;  289.305
636.309;47163.832; 5521.918;  285.306
636.888;46921.273; 5605.305;  254.051
637.467;43944.098; 4264.982;  230.324
638.046;45598.859; 6252.648;  253.349
638.625;44668.715; 6001.558;  246.866
639.204;43933.703; 5370.055;  240.825
639.782;45515.945; 5208.692;  261.970
640.361;45436.156; 6048.680;  277.780
640.940;44077.422; 4878.755;  270.101
641.519;43707.184; 5450.881;  248.622
642.097;44517.043; 5568.007;  239.843
642.676;44914.809; 5261.282;  244.264
643.255;44885.570; 5050.108;  234.985
643.833;47430.730; 5615.533;  244.406
644.412;47270.293; 4987.809;  244.927
644.990;47225.156; 5280.984;  249.948
645.569;46994.020; 5544.160;  249.569
646.147;46687.180; 5836.085;  243.290
646.726;44858.145; 5366.811;  249.511
647.304;44056.105; 4997.137;  228.032
647.882;41306.367; 4258.813;  214.552
648.461;41351.930; 5371.288;  214.973
649.039;42382.191; 5608.514;  223.394
649.617;42048.453; 5628.339;  261.415
650.195;42091.219; 5371.365;  298.736
650.773;41907.578; 4960.740;  309.557
651.352;41155.543; 4143.216;  297.978
651.930;39681.902; 4130.991;  289.399
652.508;40972.066; 5723.267;  285.620
653.086;40096.027; 5507.692;  272.241
653.663;38669.492; 4796.918;  265.062
654.241;38135.953; 4490.293;  286.083
654.819;39357.914; 4615.369;  286.404
655.397;41007.977; 4690.295;  291.825
655.975;42334.742; 5048.920;  299.145
656.553;43785.801; 6218.846;  288.866
657.130;42426.766; 4657.571;  304.087
657.708;41320.227; 5433.847;  302.908
658.286;40701.289; 5296.923;  294.629
658.863;41653.051; 5324.798;  293.350
659.441;41425.313; 5389.874;  318.671
660.018;39619.578; 5097.750;  333.692
660.596;38447.238; 4200.725;  335.013
661.173;38915.203; 4901.000;  371.534
661.750;38492.465; 4702.626;  365.155
662.328;39907.227; 5587.202;  349.976
662.905;38286.590; 4940.777;  332.997
663.482;37477.250; 5083.353;  321.717
664.060;37826.715; 4771.229;  314.438
664.637;38635.676; 5588.704;  306.259
665.214;39505.438; 5335.729;  314.580
665.791;39819.398; 5032.305;  334.501
666.368;39416.063; 4959.781;  329.222
666.945;40464.324; 5684.906;  342.143
667.522;40271.488; 4717.682;  370.964
668.099;40925.648; 5091.607;  396.885
668.676;40725.910; 5118.883;  391.706
669.253;41530.375; 6240.458;  369.627
669.830;40434.637; 6020.684;  360.348
670.407;40268.297; 5106.160;  344.769
670.984;40870.063; 5086.335;  322.890
671.560;40842.223; 5574.311;  316.910
672.137;39630.785; 4961.736;  322.531
672.714;40011.949; 5467.362;  318.552
673.290;40368.609; 5373.288;  324.473
673.867;40876.273; 4833.513;  340.594
674.443;41250.234; 4531.489;  319.515
675.020;41723.695; 5309.114;  286.336
675.596;40430.660; 5018.040;  247.557
676.173;39933.621; 4451.815;  227.778
676.749;40503.684; 3922.141;  224.399
677.326;41794.645; 4368.667;  230.520
677.902;43241.309; 4774.042;  241.841
678.478;44567.371; 4461.667;  239.762
679.054;48345.035; 7564.293;  248.583
679.631;44770.297; 5430.918;  237.503
680.207;44688.059; 6464.444;  245.924
680.783;42450.922; 4093.020;  224.845
681.359;45432.684; 5083.095;  209.666
681.935;47022.547; 5235.421;  191.687
682.511;46968.809; 5215.347;  210.008
683.087;45877.168; 5486.172;  213.329
683.663;44419.031; 4989.798;  216.850
684.239;43882.895; 4471.173;  229.471
684.815;46374.957; 5717.749;  248.792
685.390;47060.320; 6583.324;  231.813
685.966;44916.980; 5212.300;  221.234
686.542;45315.242; 4601.525;  214.255
687.118;48328.406; 5305.601;  212.276
687.693;49135.969; 5532.626;  233.096
688.269;48620.430; 5006.652;  246.917
688.844;49292.191; 5451.178;  236.938
689.420;48137.156; 5201.003;  242.059
689.995;47834.719; 6343.929;  245.480
690.571;47166.980; 6073.555;  244.701
691.146;46878.543; 4956.180;  251.922
691.722;48507.004; 5407.605;  284.743
692.297;48886.367; 4926.881;  320.664
692.872;49708.027; 4713.607;  313.885
693.448;49972.191; 4582.982;  290.106
694.023;51876.254; 5245.058;  304.327
694.598;53709.316; 5270.083;  319.648
695.173;52123.680; 4924.559;  323.169
695.748;49646.039; 4215.834;  376.389
696.323;50081.602; 5105.660;  397.610
696.898;51628.766; 5950.936;  430.231
697.473;50776.027; 4299.711;  454.952
698.048;53819.891; 4971.887;  478.973
698.623;54619.254; 4452.513;  477.094
699.198;55166.016; 5220.988;  496.915
699.773;54526.777; 4741.614;  490.236
700.348;53308.039; 4612.189;  519.957
700.922;54937.203; 5259.115;  575.678
701.497;55859.363; 5148.090;  621.399
702.072;55374.328; 5743.716;  664.420
702.646;54426.391; 5594.742;  690.541
703.221;53446.250; 5313.967;  748.862
703.795;52354.813; 4632.393;  774.282
704.370;50864.676; 3778.718;  799.803
704.944;51651.938; 4895.394;  875.824
705.519;54017.000; 5308.319;  902.945
706.093;55004.063; 4681.495;  889.266
706.668;55304.523; 5455.021;  903.487
707.242;55755.488; 5654.146;  881.708
707.816;54745.051; 4947.872;  892.329
708.390;54113.910; 5124.697;  970.250
708.965;53935.574; 5301.323;  984.671
709.539;53863.535; 4990.148; 1026.092
710.113;54551.199; 5207.074; 1067.913
710.687;53758.461; 5640.149; 1166.434
711.261;51801.223; 4559.725; 1190.854
711.835;52758.484; 4612.951; 1197.275
712.409;54749.547; 4253.726; 1308.096
712.983;54891.012; 4290.602; 1461.617
713.557;54869.973; 4282.777; 1611.838
714.131;54353.934; 5013.153; 1554.359
714.704;52652.797; 4634.329; 1520.780
715.278;54150.262; 5144.154; 1575.101
715.852;55533.324; 5585.030; 1689.822
716.425;56817.684; 6407.255; 1829.143
716.999;54019.848; 4212.281; 2008.664
717.573;54353.809; 5429.156; 2000.485
718.146;55206.473; 6262.982; 1914.506
718.720;56397.234; 5259.257; 1818.026
719.293;58131.996; 5467.333; 1734.147
719.867;57078.660; 4764.059; 1716.968
720.440;58440.723; 6015.034; 1918.589
721.013;57204.484; 4811.760; 1975.410
721.587;55335.547; 4299.285; 2073.331
722.160;55221.508; 5726.411; 2357.852
722.733;54237.672; 5173.437; 2657.073
723.306;52503.633; 5141.112; 2703.894
723.880;51538.793; 5249.688; 2549.415
724.453;53518.559; 5992.313; 2414.336
725.026;52663.121; 4835.539; 2298.557
725.599;53146.980; 5329.164; 2168.778
726.172;52256.445; 5443.940; 2106.099
726.745;52072.305; 5378.465; 2253.320
727.318;53457.867; 5725.491; 2404.740
727.891;55087.133; 5322.967; 2680.161
728.463;54471.594; 5295.292; 2838.882
729.036;52205.055; 4689.868; 2755.103
729.609;52089.719; 4626.493; 2731.824
730.182;54517.180; 5631.519; 2855.645
730.754;54302.043; 3903.344; 2946.866
731.327;55687.004; 5446.720; 2840.187
731.900;54372.766; 4321.945; 2647.608
732.472;56096.930; 5046.071; 2473.929
733.045;58561.191; 4950.497; 2445.750
733.617;57649.355; 4246.672; 2511.771
734.190;57935.516; 5419.898; 2581.592
734.762;57953.379; 5102.974; 2710.813
735.334;58116.141; 5176.299; 3005.733
735.907;58270.402; 5168.075; 3154.954
736.479;59583.965; 5842.250; 3171.675
737.051;58791.328; 5445.776; 3217.496
737.623;58998.492; 5507.851; 3246.217
738.195;57583.352; 4769.227; 2985.238
738.768;55765.215; 4023.802; 2727.559
739.340;56740.879; 4860.628; 2666.880
739.912;56160.941; 5603.554; 2769.601
740.484;54830.504; 5436.879; 2731.422
741.056;54589.863; 4970.305; 2963.043
741.628;55140.727; 4624.780; 3361.364
742.199;56130.488; 5959.956; 3641.185
742.771;55622.250; 4440.481; 3932.005
743.343;56853.016; 4653.057; 4319.926
743.915;57310.477; 5345.033; 4706.647
744.487;58701.137; 5489.258; 4874.968
745.058;60014.801; 5553.984; 4616.589
745.630;59541.262; 5518.659; 4253.410
746.201;58763.824; 4827.835; 4056.131
746.773;58486.789; 5459.160; 3772.952
747.344;57678.551; 5104.136; 3642.473
747.916;57175.914; 5270.111; 3752.294
748.487;58288.375; 5635.887; 4106.215
749.059;57832.836; 4506.013; 4457.835
749.630;58085.199; 4721.138; 4366.457
750.201;59463.063; 5102.164; 4600.078
750.773;58274.523; 4777.889; 4658.499
751.344;58330.586; 5161.865; 4609.319
751.915;57718.250; 5092.241; 4526.440
752.486;57461.813; 4694.116; 4536.061
753.057;58034.273; 5222.992; 4383.282
753.628;58910.336; 4686.817; 4296.503
754.199;59945.297; 4885.593; 4383.224
754.770;60922.059; 5480.368; 4653.545
755.341;60312.422; 5749.894; 4831.666
755.912;58017.285; 4999.419; 4831.387
756.483;58330.148; 5448.545; 4735.808
757.054;56534.809; 4883.271; 4685.029
757.625;54609.473; 4503.046; 4994.250
758.195;55808.633; 4325.572; 5051.471
758.766;57591.898; 5270.748; 5317.792
759.337;56344.160; 4280.773; 5646.512
759.907;55555.020; 4342.999; 5404.133
760.478;56395.984; 4789.124; 5090.954
761.048;56842.246; 5493.399; 4871.175
761.619;56629.707; 5362.475; 4589.396
762.189;56540.070; 5069.951; 4171.317
762.760;55961.832; 5565.626; 3872.538
763.330;55604.797; 5503.752; 3832.259
763.900;54897.258; 5284.328; 4150.180
764.471;53370.020; 4638.003; 4529.801
765.041;53937.480; 5847.179; 4715.922
765.611;53219.844; 5437.304; 4681.442
766.181;53160.406; 5039.780; 4717.063
766.751;54106.168; 5119.005; 4710.285
767.321;53848.430; 4448.131; 4450.305
767.891;53652.293; 5204.557; 4274.126
768.461;53047.555; 5037.032; 4215.047
769.031;52557.219; 5077.508; 4173.068
769.601;53502.281; 5778.733; 4174.689
770.171;52859.645; 4328.109; 4229.310
770.741;52778.105; 4911.034; 4352.031
771.311;52570.867; 5448.910; 4336.652
771.880;51278.832; 4618.485; 4300.873
772.450;52056.094; 4677.311; 4387.194
773.020;52226.555; 4289.887; 4220.415
773.589;52195.516; 4754.562; 4075.835
774.159;51498.680; 4800.438; 4105.756
774.729;51193.641; 4720.813; 4114.978
775.298;51509.703; 4759.439; 3693.298
775.867;50868.766; 4757.714; 3343.119
776.437;51348.828; 5131.040; 3062.040
777.006;50790.191; 4302.866; 2927.161
777.576;50768.254; 5446.941; 3046.482
778.145;50115.914; 5370.917; 3230.203
778.714;48664.477; 5031.542; 3253.324
779.283;48673.742; 5439.118; 3129.745
779.853;49669.203; 5058.943; 2983.566
780.422;50047.066; 5060.219; 2929.887
780.991;50637.926; 5386.495; 2863.908
781.560;50854.488; 5965.070; 2948.029
782.129;50197.652; 5295.696; 3074.149
782.698;49860.914; 5900.921; 2893.970
783.267;48568.875; 4729.297; 2721.391
783.836;48963.539; 5276.172; 2659.712
784.404;48562.902; 4461.098; 2622.233
784.973;47704.063; 3851.023; 2600.754
785.542;48290.125; 5026.349; 2528.475
786.111;50126.090; 5830.775; 2404.396
786.679;49678.551; 5452.550; 2365.717
787.248;45820.215; 4330.676; 2498.438
787.817;44938.273; 4810.651; 2645.659
788.385;46683.336; 5724.877; 2709.280
788.954;46095.199; 4367.553; 2620.500
789.522;46726.063; 5565.378; 2625.422
790.090;45710.824; 4385.804; 2743.843
790.659;46386.188; 4865.079; 2635.163
791.227;46437.750; 4976.205; 2495.484
791.795;47494.711; 5255.430; 2413.705
792.364;46519.273; 4543.306; 2345.326
792.932;46822.535; 5377.682; 2350.447
793.500;45611.098; 4911.007; 2429.768
794.068;44500.563; 4323.183; 2513.589
794.636;45183.023; 4670.558; 2664.310
795.204;45372.984; 4202.534; 2721.431
795.772;45212.348; 4632.659; 2802.052
796.340;44290.609; 4759.435; 2847.173
796.908;43311.273; 4206.960; 2997.194
797.476;43411.035; 4502.336; 3151.615
798.044;43543.598; 4136.012; 3110.735
798.612;44845.758; 4980.737; 2931.656
799.180;44825.223; 5133.313; 2785.777
799.747;43704.785; 5083.138; 2899.098
800.315;42394.246; 4392.014; 2955.519
800.883;41953.609; 4061.490; 2948.940
801.450;42254.371; 5018.665; 2965.361
802.018;43224.332; 5292.940; 3070.582
802.585;42940.598; 5054.666; 3156.103
803.153;42546.656; 4664.492; 3199.524
803.720;43018.320; 4707.517; 3168.845
804.287;44245.082; 4887.243; 3248.366
804.855;45725.844; 5659.468; 3406.187
805.422;44498.309; 4918.644; 3430.907
805.989;42730.070; 4588.070; 3453.528
806.556;42485.730; 4591.795; 3612.649
807.124;42908.695; 5564.021; 3736.570
807.691;42096.059; 4479.996; 3770.491
808.258;42776.117; 5059.472; 3705.012
808.825;42791.082; 5589.797; 3828.733
809.392;42373.945; 5972.673; 3986.754
809.959;41616.707; 5256.549; 4410.075
810.526;42186.566; 6019.674; 4774.996
811.093;41196.430; 5721.400; 4754.217
811.659;40692.691; 5003.125; 4661.238
812.226;41292.457; 4971.901; 4672.559
812.793;41088.918; 5206.876; 4822.979
813.360;40972.379; 4989.102; 5189.800
813.926;42137.742; 5258.478; 5310.622
814.493;41694.605; 4367.403; 5414.542
815.060;41009.469; 4104.079; 5548.963
815.626;41406.730; 4424.154; 5452.284
816.193;41259.793; 5153.030; 5339.305
816.759;39037.652; 4596.655; 5544.426
817.325;37637.316; 4107.481; 5706.547
817.892;39625.078; 5512.756; 5623.468
818.458;39455.039; 5284.882; 5586.689
819.024;39849.504; 5746.008; 5647.910
819.591;40168.965; 5041.883; 5762.031
820.157;39665.527; 4388.759; 6284.452
820.723;39905.488; 5277.134; 6906.973
821.289;42032.051; 7644.560; 7086.894
821.855;39758.715; 5422.386; 7054.915
822.421;38529.176; 4781.211; 7112.035
822.987;38029.641; 4474.437; 7256.156
823.553;38050.801; 4880.512; 7538.077
824.119;38128.863; 5598.288; 7594.298
824.685;37092.926; 5809.763; 7613.619
825.251;36720.090; 5485.439; 7644.140
825.816;37450.051; 6152.064; 7720.261
826.382;36759.215; 5462.590; 8014.282
826.948;36501.176; 5587.666; 8281.503
827.513;35650.340; 4939.641; 8289.624
828.079;34830.801; 4576.167; 8587.045
828.645;36225.563; 5236.742; 8821.865
829.210;35761.727; 4476.118; 9054.486
829.776;35892.086; 5393.894; 9054.607
830.341;35254.949; 5571.819; 9415.628
830.906;34250.012; 5734.745; 9932.449
831.472;32930.773; 4652.970;10150.271
832.037;35014.637; 5600.096; 9420.391
832.602;34849.000; 4780.071; 8664.912
833.167;34672.461; 5128.247; 8491.933
833.733;34549.125; 5597.522; 8872.854
834.298;32587.986; 4517.298; 9370.575
834.863;32278.449; 5262.974; 9610.695
835.428;31782.510; 5239.899; 9655.616
835.993;32207.373; 5386.875; 9437.838
836.558;32944.137; 5484.250; 9441.459
837.123;35053.496; 6723.426; 9600.979
837.688;33653.660; 5300.852; 9798.301
838.253;33116.922; 5286.427; 9902.921
838.817;32222.584; 4945.703;10339.742
839.382;32561.746; 5909.928;10548.363
839.947;31593.910; 5175.404;10252.484
840.511;31791.771; 6070.330;10040.005
841.076;28764.734; 4079.655;10099.926
841.641;29591.297; 5452.181;10347.347
842.205;29226.559; 5323.656;10817.368
842.770;29703.021; 6296.932;11435.289
843.334;28316.883; 5019.107;12072.409
843.898;27920.646; 4823.783;12635.431
844.463;28656.408; 5928.008;12537.252
845.027;27656.070; 4890.584;12759.673
845.591;27901.533; 5662.259;12821.993
846.156;26758.895; 4826.035;12520.914
846.720;27528.156; 5556.960;12390.436
847.284;27187.320; 5252.386;12956.456
847.848;27080.682; 5441.262;13240.177
848.412;26034.244; 5169.087;13216.998
848.976;25804.707; 6061.613;13014.619
849.540;25402.568; 6527.588;12355.740
850.104;25103.230; 5991.064;12208.761
850.668;23835.693; 4184.590;12106.882
851.232;23770.955; 4307.315;11862.103
851.796;23945.918; 5074.941;11700.523
852.359;24300.580; 5627.167;12375.944
852.923;24533.543; 5804.642;13087.966
853.487;24652.904; 5520.167;13297.187
854.050;22340.068; 3571.143;13851.207
854.614;23407.830; 4908.619;14854.229
855.177;23443.293; 5336.494;15802.149
855.741;23489.354; 5383.170;16603.570
856.304;23643.217; 5697.095;16359.891
856.868;22078.078; 4635.771;14365.512
857.431;22265.641; 5137.597;13361.333
857.995;21354.703; 4962.522;14130.554
858.558;20867.666; 5337.897;14883.175
859.121;20926.828; 5622.773;15754.195
859.684;20556.891; 5279.549;15995.017
860.247;20716.652; 5129.674;15149.537
860.810;20434.115; 4926.800;14640.358
861.374;21816.777; 6596.625;15551.079
861.937;19396.039; 4535.751;16519.801
862.500;19673.303; 4851.626;16796.521
863.062;19109.664; 4611.952;16538.742
863.625;19594.428; 5352.228;16716.764
864.188;18962.889; 4892.903;17055.084
864.751;18695.252; 4850.029;17197.705
865.314;18855.914; 5205.104;17151.625
865.876;19182.676; 5766.130;17783.547
866.439;18860.939; 5567.105;19283.467
867.002;19611.102; 6460.231;20256.389
867.564;18814.164; 5861.807;20485.410
868.127;17915.225; 5149.032;20789.730
868.689;17874.488; 5392.908;21981.951
869.252;17912.850; 5834.233;23803.771
869.814;16698.113; 4718.109;24974.094
870.377;17412.475; 5351.635;24690.314
870.939;19358.338; 7392.760;23963.436
871.501;16992.100; 5303.736;25167.156
872.063;15549.062; 3896.411;26995.477
872.626;15678.824; 4223.787;27443.098
873.188;16682.287; 5324.163;26718.418
873.750;16089.449; 5080.338;26558.840
874.312;15610.711; 4895.864;26701.561
874.874;16797.074; 6199.339;27970.582
875.436;15754.735; 5680.564;29173.402
875.998;15972.598; 6024.940;30376.623
876.560;15425.360; 5691.266;32507.344
877.122;14439.123; 4768.292;34833.066
877.683;14770.186; 5575.017;36458.285
878.245;13738.647; 4897.792;37248.207
878.807;14285.310; 5480.068;36758.027
879.369;13439.372; 4507.444;35223.551
879.930;13500.834; 4623.719;33824.969
880.492;14690.797; 5949.395;34436.492
881.053;13025.259; 4672.570;37745.313
881.615;12908.922; 4868.146;41184.633
882.176;12839.084; 5057.021;42871.555
882.738;13216.546; 5618.397;41693.074
883.299;11449.208; 4152.623;40289.895
883.860;11348.871; 4284.748;39231.215
884.422;12488.633; 5557.724;38264.039
884.983;11322.695; 4626.299;37171.859
885.544;11648.357; 5340.225;35842.379
886.105;11172.720; 5211.150;34810.000
886.666;10595.582; 4913.826;34519.020
887.227; 9768.245; 4302.852;33905.641
887.788;10819.307; 5344.127;34502.965
888.349; 9794.069; 4439.103;34241.785
888.910;10829.832; 5573.479;33722.203
889.471;10469.694; 5316.104;32539.625
890.032;10116.256; 5162.779;31528.346
890.593;10329.719; 5543.855;32655.068
891.153; 9742.181; 5135.131;33882.289
891.714; 8764.743; 4414.606;33318.711
892.275; 8626.105; 4501.832;31848.930
892.835; 9651.568; 5723.458;30339.752
893.396; 9371.931; 5634.183;30074.973
893.956; 8622.293; 5032.409;30338.393
894.517; 8705.455; 5302.334;30864.113
895.077; 8585.018; 5403.359;29766.734
895.638; 9273.380; 6198.235;26379.557
896.198; 7505.042; 4584.511;24056.277
896.758; 8440.104; 5675.736;22961.898
897.319; 7709.267; 5074.512;21772.020
897.879; 7642.229; 5141.837;20877.539
898.439; 6765.191; 4307.613;19509.461
898.999; 7902.753; 5535.039;17297.582
899.559; 7712.716; 5431.164;14712.002
900.119; 6796.378; 4616.940;12790.224
900.679; 8181.041; 6113.965;11586.744
901.239; 7514.303; 5570.341;10776.465
901.799; 7154.465; 5233.517; 9691.687
902.359; 6514.627; 4687.342; 8725.907
902.919; 6365.090; 4621.167; 8305.728
903.479; 6405.052; 4659.443; 8172.649
904.038; 6103.214; 4449.169; 7913.870
904.598; 5460.477; 3875.344; 7262.291
905.158; 6400.239; 4863.920; 6609.012
905.717; 6561.401; 5072.996; 6236.133
906.277; 6596.964; 5162.421; 5829.054
906.836; 6825.226; 5462.646; 5396.674
907.396; 6689.588; 5392.572; 4964.195
907.955; 6718.551; 5429.648; 4528.917
908.515; 6177.013; 4933.723; 4223.837
909.074; 6234.075; 4988.649; 4023.958
909.633; 6230.238; 5010.174; 4065.379
910.192; 7433.700; 6207.950; 4066.300
910.752; 6162.600; 4959.600; 3971.600
911.311; 6008.000; 4865.850; 3839.600
911.870; 5813.800; 4688.450; 3684.500
912.429; 6896.700; 5783.650; 3635.600
912.988; 6769.000; 5661.550; 3689.800
913.547; 5707.300; 4605.900; 3737.700
914.106; 6305.800; 5258.100; 3740.300
914.665; 6260.100; 5208.000; 3604.600
915.224; 6804.700; 5768.550; 3358.700
915.782; 5862.500; 4839.550; 3188.400
916.341; 6958.300; 5962.050; 3091.400
916.900; 5921.300; 4909.900; 3044.800
917.458; 5660.900; 4651.400; 2888.600
918.017; 6196.300; 5178.650; 2818.900
918.576; 5920.000; 4931.300; 2838.600
919.134; 5314.500; 4303.950; 2880.100
919.693; 5874.100; 4873.500; 2996.300
920.251; 5787.900; 4780.050; 3183.100
920.809; 5478.700; 4494.900; 3247.000
921.368; 5803.600; 4778.200; 3156.600
921.926; 5592.800; 4589.350; 2964.900
922.484; 6117.800; 5097.850; 2846.300
923.042; 5920.800; 4926.600; 2890.400
923.601; 6950.200; 5921.450; 2987.700
924.159; 6433.300; 5421.100; 3049.800
924.717; 5617.300; 4566.750; 3087.000
925.275; 6152.200; 5131.200; 3093.400
925.833; 5139.500; 4094.750; 3182.400
926.391; 6405.100; 5383.850; 3397.900
926.949; 5835.500; 4799.250; 3575.400
927.506; 6219.600; 5168.150; 3713.400
928.064; 5941.900; 4871.550; 3871.300
928.622; 6055.000; 4950.850; 4092.800
929.180; 5486.400; 4394.550; 4499.300
929.737; 5408.200; 4262.150; 4813.200
930.295; 6483.000; 5342.700; 5084.100
930.853; 5757.100; 4611.400; 5185.000
931.410; 5515.400; 4362.650; 5313.100
931.968; 6579.200; 5435.750; 5339.600
932.525; 6217.700; 5058.050; 5399.900
933.082; 5473.000; 4274.850; 5457.500
933.640; 6451.300; 5255.400; 5692.900
934.197; 6061.300; 4870.600; 5821.200
934.754; 6077.700; 4870.050; 5617.900
935.312; 5837.600; 4606.400; 5512.400
935.869; 7119.600; 5887.300; 5582.400
936.426; 5895.900; 4637.950; 5650.100
936.983; 6028.500; 4807.450; 5657.400
937.540; 5589.800; 4325.550; 5564.300
938.097; 6536.200; 5211.850; 5574.000
938.654; 6041.200; 4733.500; 5665.900
939.211; 6504.100; 5207.750; 5931.600
939.768; 6231.100; 4927.300; 6153.600
940.324; 6085.600; 4788.500; 6397.600
940.881; 5867.700; 4588.100; 6454.200
941.438; 7036.600; 5707.300; 6206.900
941.995; 6827.900; 5495.300; 6003.900
942.551; 5681.200; 4355.850; 6228.300
943.108; 6219.300; 4900.450; 6603.500
943.664; 5714.200; 4401.000; 7188.100
944.221; 7504.000; 6214.550; 7579.900
944.777; 5629.400; 4352.050; 7658.100
945.334; 5763.800; 4460.300; 7670.400
945.890; 6294.900; 4974.650; 7525.100
946.446; 6294.000; 5010.250; 7261.500
947.003; 6425.900; 5163.700; 6949.200
947.559; 7219.500; 5954.200; 6773.100
948.115; 6889.500; 5645.200; 6668.400
948.671; 6424.200; 5137.900; 6488.400
949.227; 5475.700; 4193.750; 6236.600
949.783; 5356.800; 4117.050; 6008.900
950.339; 6507.700; 5242.800; 5934.100
950.895; 6801.900; 5574.850; 5933.500
951.451; 5972.500; 4741.800; 6074.700
952.007; 6595.700; 5352.750; 6066.400
952.563; 6028.200; 4791.800; 5884.100
953.118; 5844.800; 4613.750; 5733.800
953.674; 6178.700; 4922.500; 5734.300
954.230; 6167.700; 4959.300; 6039.700
954.785; 6153.100; 4916.850; 6383.500
955.341; 6618.500; 5416.850; 6568.200
955.897; 5334.900; 4133.300; 6488.600
956.452; 6349.200; 5157.200; 6239.200
957.008; 7539.100; 6357.800; 5954.600
957.563; 6883.800; 5679.400; 5816.700
958.118; 5774.500; 4559.100; 5828.200
958.674; 6270.200; 5078.700; 5717.400
959.229; 6976.100; 5788.900; 5506.800
959.784; 5470.600; 4272.350; 5292.200
960.339; 6893.100; 5738.950; 5101.900
960.894; 6578.300; 5417.000; 5093.200
961.449; 5645.000; 4517.750; 5227.900
962.004; 8716.700; 7532.950; 5349.300
962.559; 5743.500; 4597.600; 5514.900
963.114; 4768.600; 3622.400; 5717.300
963.669; 6160.300; 5023.250; 5841.400
964.224; 5871.800; 4740.150; 5805.900
964.779; 5514.500; 4358.550; 5723.400
965.334; 6941.500; 5790.050; 5779.500
965.888; 5807.400; 4670.950; 5948.500
966.443; 6651.700; 5528.700; 6344.200
966.998; 5270.700; 4132.900; 6666.300
967.552; 6091.600; 4962.650; 6710.100
968.107; 5768.600; 4647.700; 6593.500
968.661; 6230.700; 5145.450; 6344.100
969.216; 5704.200; 4608.150; 6062.400
969.770; 6206.300; 5152.800; 5785.500
970.324; 6215.900; 5182.700; 5426.800
970.879; 6506.500; 5463.500; 5016.800
971.433; 6534.300; 5521.200; 4904.500
971.987; 6065.900; 5071.450; 4991.000
972.541; 6268.500; 5259.650; 4978.500
973.095; 6987.200; 6011.200; 4832.000
973.649; 5304.600; 4331.800; 4767.900
974.203; 5469.200; 4502.500; 4881.200
974.757; 5692.600; 4730.300; 4969.500
975.311; 5915.400; 4921.050; 4953.000
975.865; 5955.200; 4997.600; 4884.300
976.419; 5797.900; 4821.850; 4739.800
976.973; 5712.100; 4742.950; 4698.100
977.526; 6561.800; 5635.700; 4631.100
978.080; 5252.600; 4325.400; 4621.600
978.634; 6274.800; 5383.250; 4650.200
979.187; 6161.600; 5267.150; 4669.200
979.741; 7148.400; 6253.100; 4658.000
980.294; 5258.300; 4361.800; 4579.100
980.848; 4646.600; 3796.150; 4452.800
981.401; 5540.400; 4698.600; 4271.900
981.955; 5823.700; 4978.100; 4087.800
982.508; 4953.000; 4129.250; 3973.900
983.061; 6409.300; 5614.150; 3928.600
983.615; 5340.400; 4550.500; 3851.200
984.168; 5143.200; 4374.550; 3734.800
984.721; 6083.600; 5297.850; 3628.300
985.274; 5960.700; 5179.000; 3564.300
985.827; 5717.500; 4956.350; 3558.100
986.380; 4758.700; 4019.650; 3559.900
986.933; 5970.000; 5235.600; 3688.700
987.486; 5974.200; 5250.250; 3778.500
988.039; 5896.000; 5211.400; 3559.900
988.591; 6282.900; 5577.650; 3219.300
989.144; 4954.900; 4254.600; 2902.900
989.697; 5232.000; 4526.200; 2722.600
990.250; 6090.700; 5416.950; 2618.000
990.802; 5212.900; 4538.700; 2523.900
991.355; 7144.600; 6484.450; 2436.500
991.907; 6202.550; 5581.450; 2412.200
992.460; 5260.500; 4678.450; 2387.900
993.012; 5289.200; 4678.000; 2365.800
993.565; 4991.600; 4384.000; 2311.100
994.117; 6962.000; 6381.400; 2308.700
994.669; 4967.800; 4400.700; 2249.300
995.221; 5790.100; 5229.250; 2158.100
995.774; 5686.100; 5121.500; 2085.600
996.326; 5320.800; 4758.800; 2068.100
996.878; 6225.500; 5677.700; 1975.300
997.430; 5058.700; 4524.900; 1929.500
997.982; 5493.700; 4971.100; 1861.900
998.534; 5439.500; 4937.900; 1830.200
999.086; 5411.700; 4910.300; 1823.200
999.638; 4748.700; 4255.000; 1815.000
1000.190; 5143.300; 4652.250; 1796.600
1000.741; 5512.700; 5014.250; 1738.800
1001.293; 4997.900; 4532.050; 1666.200
1001.845; 4987.800; 4533.200; 1566.500
1002.396; 5575.800; 5081.800; 1471.900
1002.948; 5498.200; 5048.700; 1398.000
1003.500; 5431.600; 4960.550; 1356.500
1004.051; 7070.500; 6624.850; 1294.200
1004.603; 6063.800; 5643.750; 1190.000
1005.154; 4532.400; 4166.050; 1063.900
1005.705; 5518.800; 5158.700;  968.300
1006.257; 5403.300; 5060.350;  889.800
1006.808; 5282.600; 4926.700;  801.500
1007.359; 5997.100; 5655.450;  716.400
1007.910; 4994.900; 4671.000;  639.100
1008.461; 5753.600; 5443.300;  561.600
1009.013; 4507.600; 4188.250;  500.400
1009.564; 6262.400; 5967.100;  476.100
1010.115; 4585.100; 4299.100;  431.600
1010.665; 4677.600; 4390.700;  409.300
1011.216; 5225.600; 4940.700;  399.700
1011.767; 5424.600; 5164.100;  388.100
1012.318; 5684.800; 5392.150;  381.400
1012.869; 5245.600; 4966.150;  375.400
1013.419; 4661.200; 4378.150;  357.600
1013.970; 5228.500; 4961.350;  358.300
1014.521; 4767.700; 4524.950;  344.100
1015.071; 5297.700; 5015.950;  322.800
1015.622; 4946.200; 4668.650;  320.600
1016.172; 4656.700; 4392.750;  301.700
1016.723; 4779.000; 4524.350;  289.800
1017.273; 4723.200; 4471.700;  287.600
1017.823; 5090.300; 4817.050;  278.700
1018.374; 4782.900; 4549.200;  274.400
1018.924; 5690.800; 5442.750;  283.200
1019.474; 5618.900; 5356.750;  278.500
1020.024; 5152.000; 4888.650;  274.700
1020.574; 5746.800; 5503.500;  272.700
1021.124; 5334.300; 5080.200;  278.400
1021.674; 4359.900; 4124.300;  269.200
1022.224; 5649.100; 5407.900;  267.800
1022.774; 5231.400; 5009.550;  258.100
1023.324; 6028.400; 5784.100;  260.000
1023.874; 7098.500; 6859.800;  260.700
1024.423; 4810.000; 4580.650;  252.700
1024.973; 4713.000; 4470.350;  234.700
1025.523; 4886.800; 4626.050;  226.500
1026.072; 4768.300; 4538.100;  225.500
1026.622; 5356.300; 5114.600;  210.100
1027.172; 5666.700; 5425.100;  213.000
1027.721; 4708.100; 4495.400;  207.700
1028.270; 5331.200; 5086.500;  205.400
1028.820; 5070.500; 4850.200;  201.000
1029.369; 4874.200; 4637.950;  201.000
1029.918; 5102.800; 4862.500;  198.400
1030.468; 4403.300; 4243.350;  199.200
1031.017; 5036.200; 4836.350;  192.600
1031.566; 4836.000; 4617.600;  197.400
1032.115; 5541.300; 5331.750;  188.300
1032.664; 4776.800; 4559.450;  193.700
1033.213; 5897.200; 5668.250;  191.900
1033.762; 5045.500; 4830.250;  184.500
1034.311; 5414.100; 5191.500;  194.300
1034.860; 5482.900; 5284.950;  192.300
1035.408; 5843.700; 5610.700;  182.600
1035.957; 5729.800; 5522.400;  173.900
1036.506; 4159.600; 3960.200;  185.200
1037.055; 6809.200; 6586.050;  182.500
1037.603; 5314.900; 5103.350;  167.600
1038.152; 4167.100; 3968.450;  168.200
1038.700; 4624.300; 4427.150;  169.600
1039.249; 5433.300; 5226.650;  164.300
1039.797; 5067.200; 4872.500;  169.600
1040.345; 5633.500; 5424.800;  167.100
1040.894; 5002.400; 4813.700;  164.400
1041.442; 5102.100; 4877.550;  158.300
1041.990; 4471.000; 4262.300;  160.000
1042.538; 4262.400; 4042.350;  156.800
1043.087; 4505.600; 4310.800;  146.600
1043.635; 5433.200; 5260.000;  162.400
1044.183; 4717.000; 4514.800;  156.300
1044.731; 4569.800; 4406.500;  158.100
1045.279; 5411.400; 5219.050;  154.500
1045.827; 7267.200; 7077.300;  146.200
1046.374; 4044.900; 3856.850;  154.000
1046.922; 4701.500; 4528.700;  149.000
1047.470; 5580.400; 5396.150;  154.900
1048.018; 5272.100; 5076.000;  148.400
1048.565; 5786.900; 5586.050;  146.300
1049.113; 4434.700; 4219.750;  156.100
1049.660; 5022.100; 4830.250;  154.300
1050.208; 5429.300; 5232.150;  149.400
1050.755; 4874.300; 4685.600;  157.500
1051.303; 5565.200; 5350.000;  157.700
1051.850; 5086.700; 4900.250;  152.800
1052.397; 3745.400; 3583.350;  146.300
1052.945; 4963.300; 4763.250;  149.500
1053.492; 6029.500; 5860.450;  149.300
1054.039; 5848.100; 5671.700;  163.100
1054.586; 4487.200; 4260.150;  150.400
1055.133; 5637.100; 5451.250;  153.500
1055.680; 5194.000; 5019.000;  155.600
1056.227; 4318.600; 4119.750;  148.700
1056.774; 6473.800; 6272.800;  151.500
1057.321; 4187.000; 3982.050;  143.700
1057.868; 5239.400; 5038.200;  145.300
1058.415; 5274.700; 5095.550;  153.500
1058.961; 5473.100; 5280.150;  149.900
1059.508; 5190.800; 4988.750;  147.300
1060.055; 4694.600; 4525.850;  151.000
1060.601; 5008.200; 4812.050;  148.700
1061.148; 5060.500; 4856.200;  153.800
1061.694; 4811.200; 4607.750;  150.500
1062.241; 4827.200; 4618.400;  149.100
1062.787; 5401.800; 5206.850;  153.000
1063.334; 6545.300; 6355.650;  153.200
1063.880; 5481.000; 5266.000;  148.400
1064.426; 5753.900; 5564.350;  149.200
1064.972; 4837.500; 4656.350;  156.400
1065.518; 4552.400; 4387.200;  144.700
1066.065; 5104.300; 4927.450;  139.400
1066.611; 4860.700; 4690.100;  139.300
1067.157; 5196.200; 5020.700;  138.400
1067.703; 5485.700; 5278.700;  142.700
1068.249; 4844.400; 4640.100;  136.700
1068.794; 5077.100; 4906.750;  139.400
1069.340; 4674.000; 4496.450;  142.700
1069.886; 4816.200; 4653.350;  135.600
1070.432; 4334.500; 4171.150;  133.400
1070.977; 4901.700; 4721.800;  138.200
1071.523; 4552.600; 4393.350;  132.400
1072.068; 4666.900; 4498.200;  132.700
1072.614; 4227.500; 4055.600;  127.000
1073.160; 5646.100; 5477.150;  131.300
1073.705; 4680.600; 4497.900;  135.700
1074.250; 4549.400; 4390.750;  133.000
1074.796; 5351.100; 5194.350;  138.000
1075.341; 5404.900; 5229.600;  137.300
1075.886; 4771.400; 4626.400;  134.300
1076.431; 5327.500; 5204.900;  138.200
1076.976; 5252.800; 5083.800;  132.200
1077.521; 4721.400; 4562.800;  138.900
1078.067; 4717.600; 4576.800;  128.600
1078.612; 5427.000; 5274.850;  138.900
1079.156; 4927.600; 4743.400;  128.900
1079.701; 5703.800; 5527.550;  129.700
1080.246; 5692.100; 5543.800;  128.600
1080.791; 5168.100; 4994.550;  122.600
1081.336; 5388.900; 5231.150;  122.000
1081.880; 5351.400; 5190.550;  123.900
1082.425; 4643.600; 4490.500;  120.600
1082.970; 5909.500; 5734.950;  124.500
1083.514; 4872.600; 4696.700;  112.000
1084.059; 4781.000; 4624.650;  120.700
1084.603; 4629.200; 4479.200;  116.000
1085.147; 5317.700; 5167.200;  116.300
1085.692; 5903.300; 5753.400;  108.200
1086.236; 4123.100; 3966.450;  114.600
1086.780; 6220.800; 6044.500;  118.900
1087.325; 5394.300; 5225.500;  120.400
1087.869; 5035.400; 4879.850;  110.500
1088.413; 5758.400; 5615.250;  114.000
1088.957; 4385.700; 4238.200;  114.300
1089.501; 6346.600; 6206.000;  114.600
1090.045; 6010.100; 5864.600;  114.200
1090.589; 4664.200; 4492.250;  105.500
1091.133; 5496.400; 5377.300;  111.800
1091.676; 4787.200; 4649.250;  110.900
1092.220; 4931.500; 4787.250;  110.100
1092.764; 5811.900; 5672.550;  108.100
1093.307; 5526.100; 5364.100;  109.900
1093.851; 4549.300; 4422.150;  107.500
1094.395; 5658.100; 5493.850;   96.200
1094.938; 5196.200; 5062.000;   99.300
1095.482; 4590.400; 4436.550;   97.700
1096.025; 5857.600; 5711.450;   84.900
1096.568; 6382.500; 6229.550;   88.500
1097.112; 4111.500; 3972.400;   95.700
1097.655; 4875.300; 4744.650;   97.300
1098.198; 4895.700; 4778.850;   92.600
1098.741; 5087.300; 4922.400;   91.800
1099.285; 5376.800; 5240.200;   88.000
1099.828; 3589.900; 3448.600;   91.700
1100.371; 5020.200; 4888.250;   89.900
1100.914; 5657.600; 5508.500;   91.500
1101.457; 5603.600; 5443.850;   88.100
1101.999; 4772.300; 4632.250;   86.400
1102.542; 5266.700; 5117.750;   90.800
1103.085; 5449.800; 5320.700;   95.400
1103.628; 6319.900; 6206.250;   97.700
1104.170; 4791.700; 4684.400;   84.000
1104.713; 5320.100; 5195.850;   93.900
1105.256; 4567.900; 4419.550;   93.000
1105.798; 4102.200; 3988.600;   85.600
1106.341; 6022.800; 5905.300;   87.100
1106.883; 4305.500; 4161.400;   85.200
1107.425; 5560.500; 5414.900;   85.000
1107.968; 5119.100; 4974.500;   84.300
1108.510; 5678.900; 5540.350;   88.200
1109.052; 5113.900; 4988.450;   86.600
1109.594; 4622.300; 4484.800;   79.400
1110.136; 5346.200; 5221.300;   81.700
1110.679; 5171.200; 5066.900;   75.500
1111.221; 4992.900; 4895.250;   88.500
1111.763; 4581.200; 4453.050;   87.700
1112.304; 4529.700; 4373.350;   89.700
1112.846; 5539.600; 5377.400;   81.900
1113.388; 7876.300; 7765.850;   86.400
1113.930; 5766.100; 5628.400;   84.700
1114.472; 5044.300; 4929.350;   78.900
1115.013; 4553.000; 4415.050;   78.100
1115.555; 4897.000; 4761.800;   84.900
1116.097; 4752.200; 4628.450;   79.200
1116.638; 5707.100; 5576.850;   83.700
1117.180; 5472.000; 5357.600;   85.500
1117.721; 4756.900; 4643.900;   78.800
1118.262; 5649.300; 5513.150;   77.400
1118.804; 5275.200; 5150.350;   81.400
1119.345; 4826.300; 4708.600;   77.800
1119.886; 5862.300; 5730.300;   81.200
1120.427; 4884.000; 4749.450;   77.200
1120.969; 4978.200; 4855.250;   75.200
1121.510; 4681.200; 4565.100;   80.900
1122.051; 6042.900; 5882.950;   77.300
1122.592; 5478.900; 5362.150;   73.300
1123.133; 4539.600; 4406.450;   90.100
1123.673; 5901.400; 5780.650;   75.000
1124.214; 5091.900; 4988.450;   80.600
1124.755; 5372.900; 5239.150;   78.000
1125.296; 5182.500; 5071.700;   77.500
1125.836; 5757.800; 5614.350;   80.400
1126.377; 4981.500; 4888.950;   75.600
1126.918; 5118.900; 4990.000;   78.900
1127.458; 5184.100; 5057.400;   78.000
1127.999; 5476.100; 5356.800;   76.100
1128.539; 5791.500; 5660.000;   81.400
1129.079; 5320.200; 5167.400;   77.400
1129.620; 4655.500; 4531.750;   68.000
1130.160; 4497.000; 4398.900;   77.500
1130.700; 5326.200; 5217.650;   76.300
1131.240; 5373.000; 5245.000;   66.800
1131.781; 5205.200; 5091.350;   70.600
1132.321; 5044.000; 4912.100;   77.200
1132.861; 4648.100; 4544.850;   70.400
1133.401; 5003.500; 4886.600;   68.700
1133.941; 5250.100; 5117.700;   68.500
1134.481; 5064.700; 4933.900;   75.900
1135.020; 5075.400; 4968.550;   66.600
1135.560; 5589.900; 5473.300;   68.100
1136.100; 4171.600; 4069.400;   64.900
1136.640; 4266.500; 4176.500;   72.500
1137.179; 4462.900; 4350.650;   69.700
1137.719; 5085.500; 4954.400;   68.400
1138.258; 4901.200; 4803.500;   67.000
1138.798; 5515.200; 5416.400;   69.600
1139.337; 4043.300; 3922.550;   64.000
1139.877; 5351.800; 5230.350;   64.500
1140.416; 7302.200; 7166.500;   74.900
1140.955; 4423.500; 4333.400;   67.200
1141.494; 5642.600; 5532.550;   69.900
1142.034; 4892.300; 4767.300;   59.100
1142.573; 5404.000; 5287.550;   65.900
1143.112; 4633.300; 4512.350;   70.600
1143.651; 4487.200; 4385.950;   67.100
1144.190; 5791.800; 5703.450;   56.700
1144.729; 5069.900; 4955.750;   61.800
1145.267; 4854.500; 4736.950;   62.500
1145.806; 5340.500; 5220.900;   68.500
1146.345; 5360.000; 5257.750;   58.300
1146.884; 5266.900; 5145.950;   63.100
1147.422; 4449.400; 4340.300;   54.800
1147.961; 5964.900; 5848.100;   67.600
1148.500; 5624.900; 5498.250;   64.700
1149.038; 5309.800; 5233.850;   61.000
1149.577; 5882.300; 5777.000;   65.100
1150.115; 3780.100; 3681.900;   58.100
1150.653; 5100.700; 5012.650;   60.500
1151.192; 4680.000; 4567.250;   56.600
1151.730; 5514.600; 5413.950;   62.300
1152.268; 4912.400; 4812.600;   55.500
1152.806; 4820.000; 4734.050;   58.200
1153.344; 4812.800; 4732.600;   55.000
1153.882; 5005.100; 4902.000;   64.200
1154.421; 3926.900; 3841.450;   60.300
1154.958; 5040.900; 4952.800;   58.100
1155.496; 5416.500; 5328.650;   55.800
1156.034; 6051.000; 5973.800;   61.000
1156.572; 5598.000; 5493.900;   56.200
1157.110; 3946.500; 3856.400;   53.200
1157.647; 5673.300; 5588.750;   57.400
1158.185; 4762.100; 4685.000;   55.500
1158.723; 4291.200; 4210.500;   58.000
1159.260; 5854.700; 5779.700;   53.700
1159.798; 5543.300; 5442.950;   51.700
1160.335; 5324.200; 5227.600;   59.600

