
Integration time [ms]:   3.276
Averaging Nr. [scans]: 1000
Smoothing Nr. [pixels]: 0
Data measured with spectrometer [name]: 7414430SP
Wave   ;Sample   ;Dark     ;Reference
[nm]   ;[counts] ;[counts] ;[counts] 

288.544;  150.214;    7.793;  793.890
289.143;  154.214;    7.462;  681.602
289.742;  154.729;    8.602;  828.814
290.341;  139.516;    1.321;  789.841
290.940;  129.393;   -0.709;  730.702
291.538;  129.260;    0.881;  881.108
292.137;  129.004;    0.122;  792.581
292.736;  134.253;   -1.929;  975.101
293.335;  131.691;   -8.229;  735.086
293.934;  130.747;   -5.279;  781.677
294.532;  129.519;   -1.369; 1031.958
295.131;  115.750;   -7.641;  834.394
295.730;  115.998;   -8.420;  809.588
296.328;  114.341;   -5.611;  783.442
296.927;  115.104;   -5.781;  779.652
297.525;  116.414;   -6.361;  781.236
298.124;  107.048;  -11.382;  654.009
298.722;  110.484;   -7.641;  761.933
299.321;  107.149;   -6.811;  708.597
299.919;  106.849;   -6.991;  751.918
300.518;  103.355;  -10.362;  689.338
301.116;  104.571;   -9.581;  691.381
301.715;  104.601;   -4.891;  730.222
302.313;  103.991;   -8.801;  704.943
302.911;   99.187;   -8.522;  733.830
303.509;  103.988;   -6.171;  925.627
304.108;  101.232;   -7.311;  760.383
304.706;  101.271;   -8.321;  801.664
305.304;   96.160;  -10.222;  796.707
305.902;  100.711;   -6.021;  784.484
306.500;   96.241;   -4.971;  728.200
307.098;   95.197;   -7.061;  746.560
307.696;   93.629;   -8.801;  780.432
308.294;   93.383;   -6.411;  731.359
308.892;   95.214;   -2.901;  759.769
309.490;   92.089;   -5.041;  712.161
310.088;   90.630;   -5.002;  788.444
310.686;   94.497;   -2.041;  821.749
311.284;   90.798;   -2.351;  766.040
311.882;   88.337;   -4.422;  731.225
312.480;   85.972;   -4.192;  697.167
313.078;   87.035;   -1.172;  808.331
313.675;   86.651;   -2.601;  691.600
314.273;   82.158;   -1.312;  797.837
314.871;   82.141;   -3.942;  589.829
315.468;   79.720;   -2.802;  652.090
316.066;   82.229;   -0.701;  694.427
316.664;   75.088;   -4.362;  656.351
317.261;   80.020;   -2.872;  910.128
317.859;   75.005;   -2.022;  768.735
318.456;   75.300;   -0.531;  830.096
319.054;   71.704;   -3.912;  787.828
319.651;   71.151;   -4.752;  759.928
320.249;   68.845;   -2.602;  810.188
320.846;   66.667;   -0.821;  714.286
321.443;   64.438;   -4.642;  832.135
322.041;   61.721;   -5.002;  812.315
322.638;   59.374;   -3.982;  701.456
323.235;   60.607;   -3.411;  665.683
323.833;   57.456;   -7.361;  740.354
324.430;   52.996;   -8.611;  615.900
325.027;   53.926;   -4.061;  876.855
325.624;   52.754;   -4.031;  644.532
326.221;   51.124;   -7.481;  689.717
326.818;   50.464;   -5.281;  818.332
327.415;   53.604;   -7.460;  748.828
328.012;   52.275;   -5.510;  690.585
328.609;   51.140;   -7.880;  731.389
329.206;   49.913;   -8.331;  778.621
329.803;   49.537;   -5.121;  737.841
330.400;   51.936;   -4.510;  704.260
330.997;   54.014;   -6.441;  817.147
331.594;   52.395;   -8.831;  788.185
332.191;   58.240;   -7.621;  728.722
332.787;   60.282;   -4.591;  844.463
333.384;   58.068;   -7.412;  763.093
333.981;   57.493;   -8.293;  815.687
334.578;   60.674;   -7.052;  708.378
335.174;   62.943;   -3.102;  731.469
335.771;   62.342;   -5.943;  836.456
336.367;   59.667;   -7.393;  710.631
336.964;   63.193;   -4.063;  793.266
337.561;   61.136;   -3.813;  731.112
338.157;   56.651;   -4.654;  911.916
338.754;   55.273;   -7.934;  796.589
339.350;   52.157;   -4.414;  722.493
339.946;   54.541;   -4.664;  773.135
340.543;   47.101;   -6.375;  846.136
341.139;   42.173;   -9.815;  720.836
341.735;   39.409;   -4.526;  772.593
342.332;   37.621;   -4.895;  691.472
342.928;   38.046;   -4.295;  795.394
343.524;   32.478;   -5.476;  761.684
344.120;   28.140;   -5.856;  738.562
344.716;   31.460;   -2.155;  723.717
345.313;   29.703;   -6.275;  795.342
345.909;   24.557;   -8.815;  627.336
346.505;   25.903;   -5.305;  740.247
347.101;   26.118;   -2.674;  827.864
347.697;   27.584;   -4.344;  785.398
348.293;   22.776;   -9.975;  627.244
348.889;   22.493;   -5.774;  745.914
349.485;   22.307;   -5.004;  688.205
350.081;   21.977;   -4.704;  772.592
350.676;   17.896;   -6.635;  691.606
351.272;   22.297;   -4.504;  809.530
351.868;   21.573;   -3.914;  780.497
352.464;   18.596;   -9.044;  723.932
353.059;   15.279;   -8.314;  646.017
353.655;   18.828;   -7.024;  777.063
354.251;   19.392;   -5.343;  759.845
354.846;   14.269;   -8.604;  740.646
355.442;   12.112;   -6.945;  753.071
356.038;   13.594;   -7.564;  751.708
356.633;   13.669;   -5.814;  728.594
357.229;   11.562;   -7.364;  724.757
357.824;    9.870;   -8.024;  703.600
358.420;    8.940;   -9.384;  679.726
359.015;    9.362;   -5.104;  695.357
359.610;   10.731;   -6.854;  763.920
360.206;    5.593;  -10.185;  603.240
360.801;    7.527;   -7.054;  646.503
361.396;    9.329;   -5.034;  725.975
361.992;    4.898;   -8.284;  668.220
362.587;    2.092;   -8.625;  670.160
363.182;    3.980;   -7.674;  689.631
363.777;    5.365;   -5.164;  738.242
364.372;    4.727;   -8.604;  737.314
364.967;    0.961;   -9.055;  680.744
365.563;    4.888;   -6.114;  815.567
366.158;    2.394;   -5.814;  685.161
366.753;    3.219;   -7.854;  649.263
367.348;    1.594;   -7.804;  746.056
367.942;    1.165;   -7.954;  697.298
368.537;   -0.231;   -4.984;  754.245
369.132;    0.411;   -8.564;  703.428
369.727;   -3.107;   -8.855;  638.079
370.322;   -1.665;   -6.245;  580.186
370.917;   -2.542;   -6.425;  710.646
371.511;    0.206;   -6.294;  861.834
372.106;   -2.446;   -7.685;  776.964
372.701;   -6.229;   -7.335;  585.988
373.296;   -0.824;   -4.564;  863.135
373.890;   -5.082;  -10.235;  647.840
374.485;   -6.940;   -7.885;  691.199
375.079;   -3.802;   -7.324;  738.685
375.674;   -2.735;   -3.494;  812.970
376.268;   -6.738;   -8.525;  691.759
376.863;  -12.564;  -10.086;  580.327
377.457;   -6.788;   -7.025;  662.490
378.052;   -8.104;   -3.585;  764.884
378.646;   -8.838;   -7.595;  741.167
379.240;   -9.231;   -8.335;  721.176
379.835;   -8.052;   -5.785;  636.978
380.429;  -11.538;   -4.335;  562.557
381.023;  -10.534;   -6.805;  779.205
381.617;  -12.150;   -9.195;  680.106
382.212;   -9.441;   -6.905;  685.303
382.806;   -8.858;   -3.745;  760.690
383.400;  -12.426;   -7.745;  672.281
383.994;  -13.571;   -9.765;  664.870
384.588;   -9.995;   -6.564;  697.701
385.182;   -8.846;   -5.344;  726.624
385.776;   -9.932;   -8.514;  706.875
386.370;  -12.977;   -9.555;  681.968
386.964;  -11.741;   -8.715;  684.155
387.558;  -10.507;   -6.174;  598.360
388.152;  -13.540;   -8.725;  681.959
388.745;  -11.582;   -7.965;  814.707
389.339;   -9.782;   -5.924;  747.642
389.933;  -10.223;   -5.524;  695.370
390.527;  -11.107;   -7.114;  859.029
391.120;  -16.645;  -10.725;  595.318
391.714;  -13.810;   -8.035;  711.633
392.308;  -10.974;   -3.574;  780.253
392.901;  -14.296;   -7.245;  642.460
393.495;  -16.202;   -9.285;  595.414
394.089;  -13.966;   -5.895;  760.452
394.682;  -14.637;   -4.295;  697.188
395.275;  -15.335;   -9.875;  719.927
395.869;  -16.190;   -8.485;  667.314
396.462;  -14.820;   -7.455;  616.609
397.056;  -11.026;   -5.424;  776.621
397.649;  -16.581;   -6.605;  731.575
398.242;  -12.921;   -8.224;  712.645
398.836;  -12.332;   -7.474;  766.408
399.429;  -13.279;   -7.094;  631.041
400.022;  -17.551;   -9.475;  665.902
400.615;  -13.613;   -7.145;  805.609
401.208;  -12.538;   -7.174;  691.451
401.802;  -15.138;   -5.515;  699.329
402.395;  -16.344;   -9.875;  683.502
402.988;  -16.981;   -8.845;  696.627
403.581;  -13.764;   -8.874;  646.878
404.174;  -11.507;   -5.324;  686.568
404.767;  -14.217;   -9.575;  638.583
405.360;  -16.754;  -10.965;  621.445
405.953;  -11.611;   -8.764;  759.034
406.545;  -11.248;   -7.514;  725.342
407.138;  -15.281;  -10.025;  618.350
407.731;  -13.696;  -10.034;  613.303
408.324;  -10.140;   -9.374;  660.554
408.917;  -11.151;   -6.534;  681.864
409.509;  -12.412;   -8.004;  740.396
410.102;  -14.031;   -9.875;  643.948
410.695;   -8.526;   -8.604;  665.758
411.287;  -10.173;   -6.794;  599.821
411.880;  -10.799;   -9.334;  585.421
412.472;  -13.393;  -10.254;  613.092
413.065;  -10.861;   -6.714;  629.408
413.657;   -9.731;   -7.234;  576.678
414.250;   -9.322;  -10.544;  646.681
414.842;  -10.042;   -9.744;  676.353
415.434;   -9.100;   -6.994;  570.463
416.027;   -4.340;   -5.893;  652.196
416.619;   -6.776;   -7.264;  713.400
417.211;   -6.539;  -10.374;  599.352
417.804;   -3.678;   -7.993;  628.499
418.396;   -8.144;   -7.234;  607.643
418.988;   -5.130;   -9.443;  659.238
419.580;   -8.270;  -10.724;  568.276
420.172;   -6.547;  -10.323;  536.196
420.764;   -2.300;   -8.793;  672.482
421.356;   -3.449;  -11.143;  636.898
421.948;   -3.604;   -8.293;  677.661
422.540;    0.526;   -7.893;  680.027
423.132;   -0.763;   -7.082;  600.641
423.724;   -2.413;   -8.653;  561.267
424.316;   -0.824;  -10.213;  621.345
424.908;    2.344;   -9.762;  591.517
425.500;    2.598;   -5.572;  647.978
426.092;    3.591;   -8.422;  648.268
426.683;    2.232;   -9.283;  684.836
427.275;    4.839;   -7.852;  641.471
427.867;    6.830;   -5.272;  668.948
428.458;    7.138;   -7.682;  732.344
429.050;    6.115;  -10.612;  680.749
429.642;    7.962;   -9.882;  743.124
430.233;    8.371;   -6.962;  569.356
430.825;    9.141;   -6.842;  724.809
431.416;    7.172;   -9.672;  698.241
432.008;   11.277;   -6.552;  651.723
432.599;   10.604;   -6.891;  656.073
433.190;    8.246;  -10.912;  637.670
433.782;    7.695;  -11.172;  590.395
434.373;   14.723;   -6.061;  884.765
434.964;   13.537;   -8.251;  602.920
435.556;   11.702;   -9.722;  634.537
436.147;   14.210;   -9.082;  758.490
436.738;   13.945;   -8.041;  701.099
437.329;   19.168;   -7.341;  721.723
437.920;   12.059;   -8.162;  666.688
438.511;   12.308;  -11.802;  564.526
439.103;   19.207;  -10.191;  623.998
439.694;   20.120;   -7.601;  681.583
440.285;   21.336;   -8.541;  764.432
440.876;   20.258;   -9.751;  845.738
441.466;   18.692;   -9.401;  575.162
442.057;   23.829;   -7.760;  665.814
442.648;   23.190;   -9.971;  746.255
443.239;   21.345;  -11.001;  620.477
443.830;   26.224;   -7.990;  704.958
444.421;   28.057;   -7.910;  655.474
445.011;   23.921;   -8.131;  693.619
445.602;   24.582;   -7.111;  743.126
446.193;   25.837;  -10.920;  488.117
446.783;   30.004;   -6.500;  640.397
447.374;   25.927;   -8.671;  692.759
447.964;   27.004;  -10.781;  713.770
448.555;   34.328;   -9.650;  822.742
449.145;   31.354;   -8.660;  662.853
449.736;   31.815;   -8.990;  803.179
450.326;   33.415;   -9.500;  713.626
450.917;   37.255;   -8.680;  675.324
451.507;   36.158;   -7.520;  600.661
452.097;   36.665;   -8.590;  746.267
452.688;   37.690;  -11.340;  742.160
453.278;   37.606;  -10.100;  566.840
453.868;   41.714;   -6.019;  793.550
454.458;   40.509;   -9.440;  651.141
455.048;   40.368;  -10.560;  711.783
455.639;   42.248;  -11.799;  567.096
456.229;   45.714;   -6.899;  710.694
456.819;   47.061;   -7.389;  751.158
457.409;   47.733;  -11.119;  773.993
457.999;   49.829;   -9.289;  737.505
458.589;   50.095;   -6.139;  686.606
459.179;   49.383;   -8.729;  717.658
459.769;   48.378;   -9.789;  627.099
460.358;   53.028;  -10.259;  797.262
460.948;   52.571;   -7.299;  689.503
461.538;   54.446;  -10.289;  660.677
462.128;   52.781;  -11.269;  664.934
462.717;   59.058;   -9.368;  710.326
463.307;   61.701;   -7.908;  705.846
463.897;   57.443;   -9.599;  656.942
464.486;   56.851;   -9.769;  837.128
465.076;   61.656;   -8.048;  733.776
465.666;   64.791;   -9.358;  652.900
466.255;   62.241;   -7.919;  785.651
466.845;   62.133;  -11.689;  666.749
467.434;   65.130;   -7.818;  725.873
468.023;   65.796;   -7.678;  658.357
468.613;   63.273;  -10.939;  713.946
469.202;   67.926;  -10.118;  646.507
469.791;   71.721;   -9.108;  737.811
470.381;   72.787;   -6.058;  742.813
470.970;   73.453;  -10.428;  711.099
471.559;   72.969;  -10.268;  733.291
472.148;   76.282;   -8.448;  675.737
472.738;   78.436;   -6.917;  765.466
473.327;   77.980;  -11.978;  637.529
473.916;   77.986;  -11.888;  737.446
474.505;   82.840;   -9.437;  751.703
475.094;   85.125;   -6.747;  806.570
475.683;   84.723;   -9.367;  797.699
476.272;   86.148;  -12.637;  730.632
476.861;   88.065;  -10.027;  706.754
477.449;   94.756;   -8.716;  728.487
478.038;   89.347;   -9.577;  692.513
478.627;   90.282;   -9.718;  714.852
479.216;   96.034;   -8.947;  769.441
479.805;   99.602;   -6.256;  783.375
480.393;   99.408;   -7.937; 1008.945
480.982;   98.506;   -7.717;  874.501
481.571;  104.447;   -9.266;  858.333
482.159;  104.319;   -7.636;  705.386
482.748;  105.305;   -9.667;  821.385
483.336;  110.031;  -10.376;  858.209
483.925;  110.253;   -7.147;  774.373
484.513;  116.772;   -7.996;  758.962
485.102;  112.705;  -10.027;  810.965
485.690;  122.448;  -10.446; 1011.050
486.278;  124.058;   -8.446;  979.329
486.867;  124.561;   -6.356;  809.662
487.455;  125.292;   -9.136;  898.229
488.043;  128.824;  -10.646;  748.361
488.631;  137.568;   -7.456; 1005.079
489.220;  139.884;   -6.636;  908.626
489.808;  139.794;  -11.036;  741.415
490.396;  148.335;  -10.246;  914.645
490.984;  153.894;   -8.556;  830.161
491.572;  163.721;   -5.886;  940.315
492.160;  168.800;   -9.486;  919.081
492.748;  180.418;  -10.976;  884.341
493.336;  202.984;   -8.776; 1019.693
493.924;  228.501;   -5.465;  958.077
494.512;  255.343;   -9.986; 1066.638
495.100;  291.156;  -10.636; 1103.280
495.687;  344.740;  -10.885; 1206.373
496.275;  406.810;   -8.126; 1150.796
496.863;  475.173;  -10.586; 1281.171
497.451;  574.095;  -11.926; 1386.805
498.038;  701.385;  -10.885; 1556.729
498.626;  803.962;   -6.315; 1741.407
499.214;  950.234;   -7.326; 2016.609
499.801; 1146.312;  -11.906; 2220.633
500.389; 1375.368;  -10.466; 2312.494
500.976; 1667.481;   -5.236; 2744.849
501.564; 2086.670;   -8.936; 3148.565
502.151; 2439.824;  -13.176; 3515.999
502.738; 2858.068;  -10.646; 3971.274
503.326; 3226.171;   -9.525; 4403.796
503.913; 3610.431;  -10.856; 5161.749
504.500; 3977.627;  -11.586; 5986.420
505.088; 4360.156;  -10.336; 6381.201
505.675; 4871.695;   -6.355; 6925.547
506.262; 5549.978;   -9.046; 7619.060
506.849; 6261.583;  -10.416; 8733.969
507.436; 6796.537;  -10.305; 9790.121
508.023; 7371.645;   -5.496; 9985.472
508.610; 7573.827;   -7.856;10434.618
509.197; 8137.021;  -10.097;11198.435
509.784; 9423.354;  -10.886;12391.194
510.371;10530.262;   -9.315;13603.713
510.958;11294.271;   -9.936;14426.586
511.545;11989.980;   -9.326;15243.775
512.132;12786.928;  -10.075;15945.876
512.719;13399.028;   -7.796;16340.369
513.305;14523.870;  -10.606;18011.766
513.892;15280.551;  -11.486;19754.971
514.479;16417.383;   -9.126;20967.805
515.066;17732.506;   -6.026;22299.793
515.652;19129.631;   -8.466;22908.660
516.239;20427.980;  -10.886;23798.875
516.825;21413.328;  -11.496;25567.275
517.412;22551.934;   -5.796;28154.959
517.998;23267.213;  -10.506;28344.111
518.585;23201.365;  -10.076;27134.219
519.171;23746.754;   -8.315;27268.576
519.758;25647.363;   -8.596;28964.129
520.344;27558.791;   -8.466;30664.494
520.930;27209.086;  -11.006;32550.605
521.516;28392.010;  -10.495;35422.895
522.103;30441.174;   -5.526;38280.004
522.689;31153.674;   -8.746;37835.117
523.275;30522.910;  -11.376;37288.613
523.861;31749.738;  -11.156;37281.395
524.447;33469.828;   -8.135;37846.949
525.033;33435.113;   -7.896;38321.949
525.619;33703.652;  -12.476;38579.285
526.205;34978.430;   -9.516;40622.875
526.791;37629.789;   -6.926;42258.836
527.377;37587.777;   -8.346;42966.902
527.963;38840.418;   -8.717;42018.949
528.549;37975.379;  -11.016;42476.828
529.135;36604.816;   -8.536;41854.852
529.721;35561.742;   -9.666;41237.711
530.306;35023.727;  -10.066;41259.445
530.892;34909.199;  -11.356;41506.047
531.478;36060.805;   -6.596;43559.613
532.063;39223.688;   -8.836;47695.563
532.649;40109.637;  -10.047;50808.324
533.235;40729.379;   -9.746;51787.500
533.820;41319.813;   -6.566;52145.035
534.406;42601.813;  -10.817;51133.488
534.991;42457.242;   -9.416;49996.805
535.576;40939.594;   -9.036;48882.852
536.162;41680.527;   -6.156;46942.285
536.747;42954.723;  -11.607;45711.746
537.333;46052.973;  -11.787;48510.180
537.918;48907.602;  -12.437;50439.891
538.503;47981.156;   -7.196;50863.711
539.088;44742.012;  -10.556;50906.922
539.673;44735.473;   -8.767;52621.965
540.259;45142.648;  -10.026;52368.094
540.844;42577.543;   -7.416;50879.109
541.429;44079.309;   -9.467;52077.777
542.014;46407.570;   -9.527;52716.695
542.599;45678.324;   -9.946;52363.281
543.184;42840.352;   -7.927;53187.137
543.769;44041.578;   -9.297;54697.605
544.354;44048.469;  -10.127;53913.914
544.938;42670.926;   -9.267;49680.164
545.523;44257.445;   -6.506;47386.277
546.108;46909.480;   -9.787;49151.949
546.693;48908.301;  -11.587;51384.637
547.278;49036.063;  -10.986;51853.254
547.862;46064.328;   -8.206;51173.750
548.447;41689.836;  -10.067;51691.395
549.031;41092.180;   -9.637;52456.703
549.616;45761.855;   -9.926;52714.516
550.201;45270.574;   -6.347;52414.598
550.785;46516.285;   -7.917;52355.059
551.370;45798.211;  -10.867;54589.453
551.954;45400.629;   -9.047;58267.348
552.538;45976.777;   -7.827;59062.176
553.123;44392.539;  -10.287;58115.285
553.707;42554.207;  -12.178;56556.285
554.291;44090.402;   -8.717;56201.668
554.876;46869.512;   -7.457;55335.762
555.460;46917.227;  -10.387;54155.703
556.044;47310.387;   -9.618;53721.484
556.628;45395.586;  -11.567;53731.016
557.212;44129.883;   -8.097;54312.531
557.796;42726.117;  -11.077;53797.773
558.380;42779.586;  -11.108;56145.984
558.964;43137.000;   -9.057;57277.930
559.548;44041.461;   -6.977;56459.641
560.132;42279.285;  -11.457;54434.543
560.716;40991.539;  -11.378;54800.617
561.300;42243.227;   -9.577;57606.945
561.884;43332.035;   -7.127;58972.445
562.467;41445.953;   -7.118;57327.570
563.051;40416.766;  -13.358;54962.434
563.635;41692.316;  -10.178;52594.473
564.219;42457.574;   -7.837;50610.410
564.802;43178.285;  -11.398;49551.180
565.386;42854.926;  -12.788;48370.953
565.969;42314.801;   -9.077;48178.871
566.553;41348.930;   -6.207;49957.305
567.136;42057.160;   -8.568;50369.594
567.720;38700.734;  -11.868;49492.004
568.303;36715.059;   -8.268;50616.352
568.887;36677.195;   -8.698;50727.148
569.470;37209.582;   -6.808;51698.379
570.053;36302.934;  -13.188;52122.078
570.637;34131.199;  -12.037;52536.438
571.220;33681.293;   -8.577;51186.098
571.803;34424.918;   -8.498;51032.762
572.386;36732.672;  -10.498;49609.887
572.969;39143.082;   -9.388;48285.926
573.552;37607.305;   -8.338;47624.285
574.135;36203.406;   -8.518;45498.641
574.718;33685.160;  -13.628;41970.434
575.301;32864.016;  -10.893;41447.137
575.884;32042.873;   -8.158;40923.836
576.467;33036.734;  -10.328;45267.723
577.050;34584.160;  -13.058;48175.543
577.633;35763.707;   -9.458;47729.328
578.216;34974.813;   -8.928;47579.793
578.799;34010.949;   -9.358;47820.996
579.381;32751.311;  -11.388;48115.551
579.964;30626.521;  -11.718;47333.766
580.547;32229.592;   -8.588;46668.969
581.129;33435.523;   -8.859;44466.141
581.712;34592.941;  -10.729;44164.922
582.294;35126.699;  -11.118;46477.855
582.877;35123.820;   -5.218;48244.254
583.459;33284.008;   -8.679;47437.895
584.042;31027.104;  -10.709;46943.219
584.624;30814.898;  -11.669;46792.227
585.206;30290.172;   -8.218;46557.250
585.789;30178.670;  -10.569;45793.773
586.371;31361.148;  -11.859;43836.391
586.953;29907.496;  -10.719;42972.492
587.536;28378.582;   -7.198;42487.211
588.118;28627.264;   -8.720;42086.414
588.700;28630.215;  -10.439;43389.930
589.282;30598.818;   -9.198;43646.039
589.864;32963.211;   -9.199;43438.109
590.446;34526.316;  -11.319;43151.926
591.028;34279.277;  -11.159;42781.867
591.610;33027.723;  -11.779;42839.098
592.192;30450.691;   -7.668;42820.402
592.774;29109.541;  -11.949;40724.277
593.356;28172.586;  -12.129;39874.789
593.937;27363.871;  -10.669;39980.648
594.519;29612.049;   -6.509;42069.633
595.101;31503.674;  -10.849;42976.031
595.683;31528.225;  -11.679;44084.441
596.264;32472.799;   -9.049;43478.797
596.846;32038.643;   -8.849;43803.672
597.427;31795.500;   -9.570;42986.934
598.009;33009.910;  -12.620;42832.219
598.591;33405.375;  -10.039;42580.086
599.172;32962.113;  -10.369;43061.805
599.753;33135.758;   -9.140;41691.469
600.335;34402.293;  -11.430;40692.520
600.916;32629.191;   -9.939;39982.422
601.498;30508.680;   -8.479;40318.617
602.079;29049.723;  -10.920;40670.609
602.660;28916.607;  -11.480;41450.898
603.241;30540.957;  -11.699;41137.738
603.823;29248.625;   -9.579;38868.797
604.404;28789.219;  -10.620;38182.785
604.985;30501.744;  -10.450;38078.047
605.566;30327.008;   -9.129;38056.633
606.147;30353.090;   -7.510;37020.418
606.728;31847.223;  -10.660;37883.359
607.309;30417.898;  -11.740;38748.273
607.890;30098.506;   -9.759;38850.230
608.471;29758.381;   -8.250;37457.918
609.051;29132.865;   -9.240;36066.457
609.632;27908.467;  -12.120;35991.074
610.213;28189.480;   -9.110;37402.641
610.794;29025.279;   -8.030;38383.363
611.374;29022.445;   -8.110;40562.387
611.955;29751.428;  -13.560;38533.727
612.536;31052.504;  -11.400;36951.789
613.116;30844.658;   -8.070;37197.891
613.697;31006.145;  -10.830;38411.125
614.277;29130.525;  -11.641;38673.938
614.858;29947.939;  -13.310;37075.863
615.438;29543.813;   -7.460;35092.906
616.019;27102.033;   -7.601;33666.301
616.599;27326.619;  -12.020;34189.023
617.179;28967.480;  -11.780;36952.047
617.760;30054.867;   -8.570;39582.574
618.340;30885.803;  -11.471;38943.977
618.920;31843.799;  -11.170;37594.156
619.500;32018.844;  -11.071;37866.938
620.080;31303.340;   -7.750;37869.043
620.660;32382.941;  -12.711;36868.617
621.241;34052.930;  -10.211;36352.309
621.821;34351.039;  -10.961;35459.520
622.401;33178.000;   -7.720;35207.414
622.980;32202.852;   -8.981;35980.422
623.560;30766.457;   -9.331;37351.328
624.140;29526.732;   -9.850;34388.582
624.720;24613.092;   -7.451;32368.764
625.300;21213.748;   -9.070;32638.629
625.880;24614.559;  -12.601;34599.035
626.459;28692.516;  -11.751;36831.738
627.039;31651.197;   -9.281;38299.098
627.619;31586.520;   -8.801;38289.574
628.198;29965.664;  -12.071;37220.695
628.778;28899.027;   -9.461;37632.563
629.357;29599.881;   -8.491;38003.012
629.937;29763.660;   -9.721;38402.039
630.516;29339.338;   -9.951;37868.801
631.096;29017.344;  -11.731;35760.410
631.675;31506.219;   -8.572;35225.219
632.254;36600.461;  -11.282;35130.289
632.834;35991.090;  -13.322;35794.570
633.413;34152.566;  -10.301;35788.922
633.992;31529.084;   -8.582;34532.863
634.571;32244.500;   -8.352;33590.113
635.151;34838.344;  -11.912;34943.863
635.730;33423.262;  -10.511;35352.523
636.309;30136.924;   -7.731;35366.605
636.888;27745.539;   -9.952;36165.637
637.467;28424.867;  -11.672;37515.902
638.046;29963.633;   -8.901;39288.695
638.625;32872.734;   -7.912;38279.699
639.204;32619.492;  -10.022;37741.598
639.782;31454.432;  -12.252;38364.551
640.361;27662.561;  -10.041;36740.621
640.940;24997.715;  -11.161;34950.082
641.519;25744.311;   -9.701;34137.398
642.097;28570.699;  -11.271;35654.258
642.676;31323.533;   -8.651;35637.957
643.255;32264.719;   -8.711;36567.074
643.833;31475.250;   -9.581;37809.434
644.412;31564.039;  -13.711;37337.293
644.990;30626.219;  -11.811;37018.531
645.569;30648.936;   -9.411;36518.469
646.147;30168.496;  -10.291;36186.430
646.726;29994.096;  -12.401;36267.688
647.304;30800.133;  -10.411;36647.625
647.882;32390.189;   -9.651;39286.742
648.461;34116.133;   -9.631;39157.703
649.039;32380.654;  -11.881;35412.883
649.617;31256.020;   -9.661;34744.918
650.195;30622.238;   -9.301;35403.098
650.773;29277.775;  -10.511;35053.797
651.352;27119.035;  -11.521;33756.816
651.930;24934.541;  -12.211;31868.773
652.508;23290.189;   -9.171;33121.551
653.086;27094.563;   -9.371;33564.793
653.663;29968.197;  -13.161;34054.668
654.241;28832.922;  -13.031;35693.309
654.819;30417.619;   -9.371;36422.906
655.397;30382.947;  -10.511;38213.484
655.975;29868.891;  -10.371;39507.625
656.553;29401.842;  -10.051;39498.223
657.130;27944.199;  -10.061;40395.480
657.708;27482.715;   -9.561;39242.020
658.286;27676.117;  -11.511;38920.020
658.863;28793.676;  -10.261;40202.898
659.441;32134.582;   -7.531;39677.938
660.018;32072.910;   -9.501;40413.355
660.596;30602.676;  -13.301;39931.414
661.173;32165.518;  -11.211;39604.531
661.750;32550.125;   -9.951;39700.070
662.328;31751.137;   -9.390;39292.809
662.905;30849.723;  -11.330;38235.648
663.482;26313.297;   -9.050;36212.305
664.060;24421.158;   -8.240;35944.945
664.637;27410.906;  -10.050;35170.785
665.214;28943.162;  -11.760;34197.523
665.791;30421.840;  -10.530;34549.520
666.368;29385.219;   -9.690;35118.578
666.945;29918.682;   -9.320;36019.418
667.522;31411.379;  -11.860;36048.438
668.099;31238.959;  -10.770;36243.914
668.676;30019.441;   -6.260;35958.875
669.253;28677.281;   -7.000;37384.730
669.830;29135.248;  -10.190;36779.629
670.407;29103.742;   -9.550;35231.289
670.984;29087.396;   -9.260;35544.270
671.560;29698.676;   -9.280;35466.867
672.137;28813.947;  -11.810;34280.863
672.714;29715.525;  -11.490;34632.863
673.290;30735.199;   -7.740;35135.422
673.867;30901.039;  -10.660;36114.480
674.443;30662.559;  -12.230;36152.859
675.020;28575.031;  -10.450;35327.238
675.596;29683.635;   -9.260;35795.176
676.173;30345.924;  -10.780;35430.355
676.749;30000.822;  -13.690;33549.516
677.326;29863.426;  -11.980;32210.012
677.902;29895.484;   -8.630;32068.871
678.478;29227.949;  -10.730;32583.891
679.054;28391.951;  -10.520;32088.928
679.631;28727.883;  -11.920;30978.848
680.207;30108.254;   -7.490;33160.887
680.783;31573.293;   -9.860;35570.363
681.359;30742.832;  -13.380;36125.184
681.935;30533.268;  -12.480;35240.922
682.511;30376.967;   -7.900;34429.961
683.087;30782.061;   -7.710;34463.680
683.663;30151.309;  -11.480;34648.898
684.239;28558.771;  -14.090;34546.457
684.815;27819.273;   -7.560;35586.375
685.390;28065.338;   -9.910;35821.895
685.966;28549.410;  -11.159;35085.871
686.542;31051.863;  -11.169;34198.230
687.118;33387.305;   -5.959;32847.707
687.693;33713.211;  -10.329;32794.027
688.269;33338.387;  -12.059;33072.367
688.844;31424.971;  -10.909;33141.664
689.420;29371.881;   -8.019;33965.742
689.995;27479.793;   -8.399;34655.523
690.571;26138.152;  -10.949;33576.742
691.146;26251.842;   -9.619;32657.219
691.722;25976.576;   -8.999;32526.979
692.297;25909.928;  -11.589;33014.617
692.872;27453.168;  -11.739;34012.254
693.448;27153.445;  -11.059;34237.434
694.023;26288.691;  -10.139;34142.672
694.598;28338.156;   -9.029;34132.031
695.173;28868.123;  -13.319;34205.250
695.748;27865.756;  -10.169;32882.488
696.323;27640.361;   -8.339;32864.906
696.898;27885.916;   -8.169;33170.004
697.473;28120.799;  -12.309;32432.984
698.048;27480.469;  -10.989;31649.303
698.623;27247.297;   -9.329;30778.141
699.198;28880.324;   -9.849;31140.119
699.773;30119.207;  -12.329;31764.299
700.348;28811.467;  -10.389;31780.816
700.922;28698.971;   -9.269;32046.375
701.497;29534.789;   -9.329;32603.574
702.072;29673.547;  -10.789;34799.871
702.646;28406.188;  -10.839;35793.172
703.221;26417.283;   -9.099;35201.590
703.795;28342.104;  -10.939;34764.527
704.370;28767.826;  -12.859;34307.367
704.944;28969.547;  -11.559;33509.887
705.519;29707.256;   -7.939;31388.584
706.093;30982.420;  -10.499;31340.104
706.668;31245.301;  -11.289;32630.281
707.242;30208.438;  -11.509;32728.779
707.816;28938.693;   -9.639;32947.238
708.390;27385.643;  -11.429;33277.855
708.965;27882.535;  -11.869;33834.336
709.539;28021.742;  -11.689;33709.273
710.113;28174.246;  -10.478;33044.313
710.687;27628.010;  -10.228;31953.992
711.261;25966.928;  -13.698;30505.949
711.835;25840.404;  -13.378;30262.369
712.409;26471.779;   -9.698;31254.447
712.983;28553.645;  -11.898;32754.986
713.557;29749.232;  -15.138;34018.824
714.131;29437.518;  -14.098;34579.625
714.704;28488.451;   -9.958;33890.262
715.278;26115.127;  -10.028;33531.102
715.852;24982.703;  -11.148;33601.660
716.425;25989.643;   -9.068;33515.117
716.999;27087.180;  -10.038;33185.555
717.573;28096.521;   -9.798;33905.996
718.146;29051.504;  -12.378;35199.293
718.720;29000.311;  -11.918;35060.551
719.293;28661.424;   -8.088;34973.230
719.867;31555.057;  -10.888;36394.449
720.440;31244.213;  -11.938;36663.008
721.013;29392.266;  -12.818;35102.426
721.587;27952.266;  -10.298;33985.266
722.160;26824.033;  -10.048;33524.965
722.733;25840.928;  -12.108;32987.043
723.306;26211.063;  -10.818;33066.301
723.880;28314.641;   -8.908;33399.500
724.453;30322.398;   -9.878;33468.297
725.026;29565.773;  -11.188;33816.637
725.599;26959.328;  -11.678;32797.996
726.172;27089.217;   -9.618;33187.434
726.745;28175.865;   -8.258;35136.613
727.318;29537.920;  -12.978;35751.730
727.891;30082.936;  -12.148;35890.430
728.463;29472.068;   -8.968;34822.090
729.036;28161.813;  -10.188;32895.086
729.609;28691.277;  -11.788;31823.225
730.182;25898.732;  -11.788;31445.283
730.754;23551.688;  -10.268;32373.223
731.327;23897.072;   -9.998;33676.820
731.900;24372.537;  -12.228;33417.000
732.472;25354.586;  -13.848;31978.498
733.045;26921.658;   -8.698;30368.777
733.617;26840.320;  -10.607;30574.215
734.190;26916.623;  -11.507;31280.975
734.762;24387.072;  -13.647;31674.412
735.334;22548.219;   -9.767;31247.291
735.907;23024.000;   -9.897;29876.211
736.479;23234.734;  -11.637;29808.488
737.051;22902.041;   -9.567;30233.547
737.623;23533.539;   -8.187;31469.086
738.195;24053.979;  -11.187;31784.225
738.768;26172.338;  -12.337;32120.523
739.340;26785.750;  -12.227;32094.342
739.912;25759.727;  -11.057;31312.680
740.484;24356.119;  -10.207;31946.238
741.056;22882.137;  -10.047;32984.059
741.628;24213.652;  -13.627;33897.715
742.199;26494.641;   -7.177;33213.016
742.771;25151.840;  -10.797;31369.113
743.343;23031.094;  -11.997;31865.473
743.915;22140.025;  -12.867;32388.631
744.487;22132.463;   -7.617;31079.568
745.058;22132.941;   -9.557;30570.107
745.630;22616.027;   -9.877;29970.127
746.201;23679.408;  -14.177;29186.766
746.773;24350.229;   -9.237;28805.723
747.344;24226.768;   -9.847;29591.223
747.916;22626.100;  -11.657;31412.201
748.487;22716.242;  -10.587;32194.898
749.059;23983.096;   -8.707;32533.719
749.630;24811.137;  -10.537;32158.518
750.201;23958.445;  -11.687;30855.395
750.773;22141.713;  -11.647;28622.555
751.344;21856.971;   -7.147;28405.732
751.915;22806.570;   -9.757;28461.551
752.486;22806.809;  -12.427;27842.850
753.057;20811.252;  -12.227;27845.008
753.628;19640.643;  -10.417;27728.107
754.199;20604.676;  -11.767;27381.086
754.770;21598.605;  -11.187;25882.203
755.341;21756.787;  -10.507;25886.184
755.912;21895.854;   -9.387;26050.861
756.483;21448.414;  -10.647;26798.779
757.054;19617.846;  -11.837;27048.238
757.625;18173.939;  -12.716;26294.838
758.195;17996.742;   -9.666;26142.076
758.766;17789.697;   -8.656;26392.234
759.337;18422.660;  -12.856;26334.594
759.907;19922.240;  -13.366;27579.652
760.478;20784.070;   -8.576;28352.770
761.048;20146.633;  -10.526;27325.088
761.619;19190.635;  -11.116;26460.428
762.189;19329.322;  -12.136;26029.826
762.760;20454.248;   -9.456;26430.145
763.330;21622.096;   -7.136;26670.902
763.900;21182.305;  -11.786;26603.021
764.471;18635.094;  -11.546;25542.740
765.041;17129.303;   -8.096;24358.459
765.611;17003.695;   -8.876;23991.297
766.181;17414.506;  -12.196;24470.236
766.751;18582.078;  -11.636;24845.975
767.321;18340.125;  -10.156;24533.633
767.891;16275.064;  -11.766;24916.492
768.461;15699.751;  -14.936;24776.771
769.031;16228.437;  -12.356;24757.988
769.601;17829.156;   -7.526;24181.088
770.171;17868.471;  -10.766;23670.387
770.741;17106.941;  -13.176;22960.045
771.311;17298.441;  -10.616;22917.523
771.880;17822.898;   -9.576;23562.941
772.450;17655.531;  -10.336;24216.500
773.020;17588.680;  -13.516;24140.398
773.589;16744.902;  -13.466;24414.857
774.159;16024.377;   -8.686;23858.717
774.729;15674.251;   -9.476;22942.135
775.298;15312.680;  -13.666;22324.033
775.867;14866.636;  -11.716;21140.313
776.437;14970.753;   -9.906;20838.092
777.006;14761.274;  -12.166;20599.510
777.576;14489.538;  -12.356;20508.809
778.145;14525.614;  -11.646;20732.947
778.714;14526.372;   -8.226;21062.465
779.283;13947.492;   -9.556;20949.664
779.853;13426.746;  -14.116;20508.623
780.422;13876.306;  -11.506;20649.082
780.991;13476.043;   -9.556;21527.520
781.560;12225.433;   -9.095;22632.658
782.129;11982.253;  -12.135;23048.277
782.698;11972.455;  -10.865;23438.555
783.267;11580.738;   -9.335;23267.734
783.836;11495.288;  -11.045;22415.133
784.404;12483.195;  -13.865;20443.152
784.973;13131.498;  -13.095;19699.150
785.542;13225.483;  -11.575;19763.828
786.111;13128.200;   -9.705;20341.408
786.679;12575.797;  -12.105;20207.967
787.248;12230.612;  -12.455;19516.465
787.817;12030.699;  -11.535;18900.363
788.385;11654.019;   -9.765;17879.121
788.954;11120.595;  -14.005;17658.301
789.522;10542.021;  -11.955;17788.879
790.090;10999.450;  -10.135;18118.277
790.659;11560.101;  -10.975;18338.736
791.227;11111.064;  -13.375;18508.615
791.795;11491.615;  -12.375;17898.254
792.364;11804.490;  -10.725;17295.133
792.932;12104.496;   -9.715;16822.051
793.500;12385.996;  -12.675;17040.148
794.068;12703.095;  -13.495;17179.787
794.636;12860.337;  -10.885;16664.246
795.204;12192.079;  -11.045;16524.545
795.772;12212.914;  -13.175;17274.564
796.340;11713.600;  -12.445;17891.002
796.908;11467.588;   -9.735;17648.561
797.476;11375.990;   -9.815;17064.080
798.044;10981.217;  -13.985;16672.777
798.612;10229.943;  -13.115;17023.996
799.180; 9805.883;  -10.185;16561.615
799.747; 9649.742;   -9.055;15962.773
800.315; 9375.886;  -12.385;15296.992
800.883; 9128.016;  -15.035;14801.771
801.450; 9267.936;  -10.365;14534.430
802.018; 9378.602;   -9.855;14173.248
802.585; 9407.117;  -11.905;14029.547
803.153; 9414.929;  -11.585;13836.846
803.720; 9245.998;   -9.095;13567.324
804.287; 8744.801;   -9.135;13360.622
804.855; 8267.143;  -11.604;13681.981
805.422; 8172.456;  -11.794;13536.560
805.989; 8252.776;  -10.734;13355.958
806.556; 8468.513;  -10.444;13747.896
807.124; 8750.743;  -12.764;13987.376
807.691; 8697.818;  -12.964;14038.674
808.258; 8496.410;  -11.134;14120.152
808.825; 8099.659;   -9.854;13860.111
809.392; 8192.236;  -10.504;13268.790
809.959; 7766.292;  -13.054;12680.389
810.526; 7288.867;   -8.294;12427.308
811.093; 7287.165;   -8.394;12030.105
811.659; 7885.431;  -12.304;11653.664
812.226; 8422.934;  -13.944;11637.183
812.793; 8120.531;  -10.484;11611.521
813.360; 7461.155;  -10.144;11885.181
813.926; 7151.191;  -11.684;12770.539
814.493; 6971.752;  -13.644;12677.638
815.060; 6595.514;   -9.724;11974.336
815.626; 6574.012;   -9.854;11594.715
816.193; 6955.833;  -13.254;11579.474
816.759; 6963.679;  -13.204;11666.972
817.325; 6998.505;   -9.434;11325.530
817.892; 7365.508;  -10.134;11105.369
818.458; 7800.503;  -13.474;10843.928
819.024; 7422.845;  -11.854;10714.406
819.591; 7129.121;  -10.244;10469.165
820.157; 6931.575;  -10.704;10235.523
820.723; 6416.378;  -12.324;10847.563
821.289; 6107.208;   -9.444;11040.980
821.855; 6001.987;   -8.374;10357.100
822.421; 5905.086;  -10.234; 9978.918
822.987; 5828.464;  -13.294; 9754.177
823.553; 5478.082;  -10.884;10065.755
824.119; 5309.659;   -8.884;10036.294
824.685; 5475.325;   -6.784;10029.192
825.251; 5627.283;  -12.004;10199.230
825.816; 5604.658;  -11.474; 9820.189
826.382; 5351.688;   -9.174; 9297.248
826.948; 5519.303;   -9.214; 9381.347
827.513; 5905.957;  -10.774; 9450.726
828.079; 5732.960;  -11.924; 9472.444
828.645; 5140.345;  -10.543; 9292.643
829.210; 4980.969;  -10.533; 9065.341
829.776; 4949.968;  -10.753; 9132.620
830.341; 4821.087;  -10.173; 9092.878
830.906; 4979.854;  -10.743; 9078.557
831.472; 5326.787;  -11.113; 8534.535
832.037; 5121.581;  -10.603; 8677.874
832.602; 4597.332;  -13.323; 8628.692
833.167; 4348.687;  -10.823; 8879.031
833.733; 4291.341;  -10.113; 9189.790
834.298; 4418.677;  -13.583; 9052.608
834.863; 4508.982;  -12.703; 8895.087
835.428; 4494.212;  -10.523; 8824.266
835.993; 4336.896;   -6.963; 8845.385
836.558; 4160.981;  -10.763; 8888.563
837.123; 4259.604;   -9.903; 8966.582
837.688; 4531.852;   -9.913; 8617.860
838.253; 4797.127;  -10.283; 8590.699
838.817; 4989.320;  -12.963; 8443.797
839.382; 4915.571;  -14.243; 8799.356
839.947; 4605.321;  -10.733; 8810.595
840.511; 4301.736;   -9.383; 8796.394
841.076; 3921.664;  -12.563; 8347.231
841.641; 3982.192;  -12.953; 8224.330
842.205; 4083.043;   -7.043; 8223.349
842.770; 4127.278;   -8.163; 8622.107
843.334; 4277.538;  -12.503; 8410.386
843.898; 4237.272;  -11.693; 8337.465
844.463; 4240.764;  -10.203; 8506.283
845.027; 4033.668;   -9.533; 8280.962
845.591; 3848.129;  -13.443; 8231.141
846.156; 3841.214;  -13.143; 7969.179
846.720; 3749.935;   -9.433; 7768.278
847.284; 3636.307;  -11.033; 7630.957
847.848; 3497.599;  -10.403; 7472.395
848.412; 3400.430;  -11.553; 7437.394
848.976; 3441.677;   -8.393; 7674.592
849.540; 3364.167;   -8.713; 7836.011
850.104; 3428.055;  -12.463; 7913.669
850.668; 3784.738;  -12.973; 7694.508
851.232; 3935.184;  -10.793; 7756.887
851.796; 3796.256;  -10.662; 7926.545
852.359; 3484.042;  -13.082; 7827.844
852.923; 3314.280;  -12.192; 7641.163
853.487; 3160.830;  -11.912; 7342.501
854.050; 3139.047;  -10.892; 7042.820
854.614; 3272.698;  -13.992; 7151.338
855.177; 3374.250;  -11.732; 7105.077
855.741; 3411.752;   -8.962; 6989.675
856.304; 3319.070;   -9.442; 6596.634
856.868; 3294.104;  -14.192; 6356.272
857.431; 3404.611;  -12.702; 6468.571
857.995; 3528.998;   -9.942; 6373.210
858.558; 3551.242;   -9.112; 6324.448
859.121; 3290.042;  -12.932; 6408.327
859.684; 3132.955;  -13.442; 6347.886
860.247; 3231.975;  -10.632; 6321.264
860.810; 3250.832;  -11.272; 6301.903
861.374; 3008.714;   -9.832; 6607.881
861.937; 2747.622;  -11.762; 6408.200
862.500; 2745.230;   -9.722; 6572.639
863.062; 2901.990;  -10.512; 6387.297
863.625; 3056.763;  -11.232; 6190.836
864.188; 3224.390;  -14.112; 5807.254
864.751; 3306.778;  -11.302; 5682.413
865.314; 3213.340;  -10.112; 5547.492
865.876; 2987.367;  -12.182; 5500.150
866.439; 2951.371;  -10.722; 5415.909
867.002; 2909.262;   -9.252; 5501.567
867.564; 2715.857;   -9.572; 5413.946
868.127; 2496.799;  -13.142; 5160.325
868.689; 2376.543;  -12.902; 5133.183
869.252; 2260.426;   -9.732; 5252.382
869.814; 2151.103;   -9.432; 5297.141
870.377; 2157.943;  -11.552; 5390.919
870.939; 2232.744;   -9.052; 5599.898
871.501; 2305.392;  -10.982; 5248.336
872.063; 2313.288;  -12.292; 4854.235
872.626; 2254.329;  -14.912; 4817.074
873.188; 2257.370;  -13.112; 4987.732
873.750; 2233.140;  -13.442; 4868.651
874.312; 2145.563;   -9.402; 4779.330
874.874; 2057.923;  -11.062; 4866.348
875.436; 1974.489;  -13.931; 4718.887
875.998; 1969.385;   -9.561; 4660.005
876.560; 1993.343;  -11.321; 4462.964
877.122; 1936.277;  -12.221; 4145.042
877.683; 1831.063;  -12.191; 4056.481
878.245; 1753.130;  -12.101; 3950.740
878.807; 1793.173;   -8.971; 4058.958
879.369; 1823.467;  -12.071; 3954.677
879.930; 1735.461;  -14.621; 3941.495
880.492; 1668.280;  -10.311; 4067.014
881.053; 1627.230;  -10.901; 3859.633
881.615; 1515.746;  -14.411; 3776.071
882.176; 1416.110;  -13.761; 3734.750
882.738; 1367.057;   -9.181; 3678.489
883.299; 1344.972;  -11.791; 3405.407
883.860; 1339.859;  -13.121; 3351.106
884.422; 1330.666;  -11.211; 3394.044
884.983; 1283.335;  -10.091; 3166.443
885.544; 1207.922;   -8.461; 3189.802
886.105; 1131.465;  -12.361; 3160.360
886.666; 1064.696;  -14.141; 3093.059
887.227; 1003.646;  -11.361; 2941.957
887.788;  941.626;  -11.401; 2974.836
888.349;  877.086;  -13.791; 2721.214
888.910;  870.289;  -13.191; 2696.493
889.471;  875.362;   -9.881; 2560.172
890.032;  854.126;   -9.881; 2558.190
890.593;  826.608;  -10.371; 2567.669
891.153;  803.237;  -13.301; 2460.307
891.714;  755.448;  -11.431; 2372.046
892.275;  715.470;  -11.291; 2309.505
892.835;  678.739;  -11.471; 2382.543
893.396;  626.564;  -11.541; 2295.502
893.956;  566.476;  -11.181; 2162.420
894.517;  526.268;  -11.741; 2125.439
895.077;  519.242;  -11.671; 2086.978
895.638;  522.387;  -11.311; 2126.316
896.198;  495.525;   -9.831; 1838.275
896.758;  451.208;   -8.421; 1892.813
897.319;  420.313;  -12.351; 1792.232
897.879;  405.457;  -13.511; 1762.751
898.439;  380.082;  -12.001; 1661.149
898.999;  354.441;  -10.180; 1781.468
899.559;  344.278;  -12.030; 1703.347
900.119;  338.108;  -15.710; 1537.525
900.679;  334.468;   -8.900; 1638.384
901.239;  318.974;   -8.340; 1527.902
901.799;  309.855;  -13.910; 1456.441
902.359;  303.520;  -13.460; 1357.140
902.919;  298.122;  -11.490; 1331.118
903.479;  285.102;  -12.110; 1317.257
904.038;  264.576;  -11.720; 1262.595
904.598;  248.789;  -13.610; 1152.034
905.158;  244.567;  -11.040; 1240.893
905.717;  238.158;  -10.900; 1233.691
906.277;  227.907;  -15.080; 1217.330
906.836;  217.175;  -13.380; 1222.408
907.396;  207.517;  -10.780; 1193.047
907.955;  200.500;   -8.500; 1182.526
908.515;  194.957;  -12.760; 1099.364
909.074;  189.651;  -11.900; 1092.863
909.633;  183.085;   -8.950; 1069.121
910.192;  178.850;   -8.770; 1196.460
910.752;  173.258;  -12.390; 1029.960
911.311;  169.083;  -13.680; 1009.780
911.870;  166.377;  -12.370;  971.460
912.429;  167.728;  -10.900; 1094.080
912.988;  166.317;  -11.690; 1081.060
913.547;  162.220;  -13.240;  940.380
914.106;  157.607;  -11.990;  999.420
914.665;  153.718;   -9.990;  984.020
915.224;  153.925;  -12.880; 1035.760
915.782;  154.303;  -12.350;  922.560
916.341;  153.176;   -9.110; 1049.840
916.900;  147.965;   -9.270;  925.260
917.458;  146.434;  -13.240;  884.220
918.017;  146.616;  -13.550;  942.600
918.576;  146.626;  -12.320;  904.440
919.134;  143.356;  -11.490;  837.980
919.693;  142.555;  -13.670;  893.060
920.251;  140.239;  -15.470;  876.500
920.809;  139.408;  -11.290;  839.580
921.368;  138.503;  -10.210;  885.360
921.926;  138.399;  -12.140;  842.940
922.484;  137.577;  -13.080;  903.360
923.042;  136.994;  -11.720;  880.340
923.601;  138.605;   -7.480;  998.680
924.159;  137.835;  -11.570;  935.560
924.717;  134.442;  -13.840;  841.080
925.275;  134.016;  -10.640;  903.240
925.833;  132.569;  -11.540;  779.320
926.391;  134.033;  -12.960;  938.380
926.949;  133.621;  -14.130;  857.680
927.506;  134.153;  -11.750;  903.500
928.064;  133.836;  -10.250;  877.580
928.622;  133.684;  -13.030;  880.100
929.180;  132.522;  -13.400;  814.180
929.737;  133.467;  -10.700;  808.540
930.295;  137.134;  -10.070;  928.480
930.853;  139.403;  -11.960;  849.100
931.410;  140.026;  -13.120;  821.120
931.968;  139.507;  -10.770;  940.660
932.525;  139.505;  -10.680;  909.380
933.082;  139.780;  -13.130;  811.440
933.640;  140.974;  -13.210;  925.900
934.197;  138.904;  -11.060;  886.360
934.754;  139.337;   -9.580;  897.780
935.312;  142.707;  -14.000;  863.340
935.869;  147.214;  -10.710; 1012.980
936.426;  147.764;   -9.860;  872.800
936.983;  148.494;   -9.710;  889.020
937.540;  148.987;  -13.990;  838.280
938.097;  147.966;  -14.040;  940.120
938.654;  146.907;  -10.310;  898.860
939.211;  150.021;  -10.560;  952.480
939.768;  153.754;  -13.900;  915.420
940.324;  157.639;  -14.760;  904.200
940.881;  158.479;  -10.370;  878.500
941.438;  158.845;   -8.260; 1021.200
941.995;  155.431;  -12.540;  992.560
942.551;  153.278;  -14.670;  875.620
943.108;  153.119;  -10.450;  937.920
943.664;  154.889;  -10.750;  869.340
944.221;  158.811;  -11.550; 1088.140
944.777;  156.322;  -14.770;  869.680
945.334;  156.648;  -12.820;  884.840
945.890;  158.555;  -10.130;  946.480
946.446;  158.657;  -13.470;  947.020
947.003;  161.141;  -12.120;  964.940
947.559;  164.071;   -9.980; 1063.040
948.115;  163.528;   -9.080; 1026.540
948.671;  160.513;  -10.830;  967.300
949.227;  159.151;  -12.440;  859.560
949.783;  157.229;  -12.910;  858.900
950.339;  157.800;  -10.270;  991.000
950.895;  158.985;  -13.630; 1023.840
951.451;  158.586;  -15.100;  925.280
952.007;  158.320;  -11.330;  998.540
952.563;  157.790;  -10.580;  937.780
953.118;  156.330;  -13.440;  904.940
953.674;  156.407;  -12.710;  935.780
954.230;  154.744;  -10.350;  949.640
954.785;  152.523;   -9.190;  936.640
955.341;  150.672;  -11.200;  998.160
955.897;  149.478;  -16.560;  834.660
956.452;  152.003;  -12.570;  953.840
957.008;  150.393;   -7.970; 1083.640
957.563;  148.631;  -11.940; 1009.540
958.118;  143.418;  -13.450;  877.700
958.674;  143.875;  -12.030;  946.780
959.229;  145.061;   -9.410; 1013.980
959.784;  143.728;  -12.000;  832.400
960.339;  143.845;  -14.780; 1001.280
960.894;  139.020;   -9.860;  963.760
961.449;  135.110;   -9.970;  859.960
962.004;  135.479;  -10.900; 1212.840
962.559;  129.867;  -13.150;  860.140
963.114;  127.336;  -13.740;  742.480
963.669;  126.773;   -9.820;  915.500
964.224;  125.392;  -13.890;  874.340
964.779;  124.557;  -12.600;  828.420
965.334;  125.470;  -10.950; 1017.860
965.888;  124.295;  -11.170;  875.360
966.443;  128.192;  -12.540;  972.380
966.998;  128.381;  -15.780;  819.460
967.552;  127.987;   -9.760;  908.380
968.107;  123.678;   -9.060;  868.300
968.661;  125.146;  -11.950;  922.440
969.216;  126.315;  -12.800;  856.280
969.770;  126.133;  -11.210;  917.200
970.324;  124.217;  -11.610;  923.140
970.879;  121.274;  -11.370;  947.180
971.433;  117.324;  -12.540;  952.720
971.987;  112.082;  -11.320;  895.340
972.541;  108.232;  -10.720;  917.100
973.095;  107.611;   -9.680; 1009.460
973.649;  106.860;  -11.440;  809.480
974.203;  106.076;  -11.210;  829.040
974.757;  106.827;  -10.240;  855.220
975.311;  107.958;  -13.720;  872.600
975.865;  106.248;  -13.770;  881.820
976.419;  100.679;  -11.690;  857.400
976.973;   94.251;   -9.510;  849.620
977.526;   88.247;  -12.620;  949.920
978.080;   79.941;  -12.010;  796.780
978.634;   78.517;  -10.170;  921.320
979.187;   76.293;   -9.020;  905.400
979.741;   77.890;   -9.820; 1018.380
980.294;   76.960;  -14.870;  789.160
980.848;   77.237;  -12.380;  717.220
981.401;   79.104;  -10.350;  816.540
981.955;   82.547;  -13.720;  844.300
982.508;   82.031;  -11.490;  746.340
983.061;   83.347;  -10.000;  915.260
983.615;   79.951;  -11.480;  798.800
984.168;   79.313;  -13.220;  770.080
984.721;   78.736;  -13.960;  880.760
985.274;   78.639;  -10.870;  867.500
985.827;   78.062;   -9.790;  834.220
986.380;   76.362;  -13.120;  721.340
986.933;   76.624;  -12.450;  864.800
987.486;   74.452;  -10.210;  861.920
988.039;   73.358;   -8.430;  863.100
988.591;   72.072;  -10.520;  893.260
989.144;   70.283;  -14.860;  737.260
989.697;   69.081;  -13.080;  758.740
990.250;   70.270;  -10.150;  858.100
990.802;   69.020;  -13.430;  755.860
991.355;   70.510;  -12.750;  974.880
991.907;   68.252;  -12.040;  864.320
992.460;   65.993;  -11.330;  753.760
993.012;   65.876;  -13.610;  749.540
993.565;   64.686;  -13.460;  711.360
994.117;   66.821;   -9.360;  950.780
994.669;   62.360;  -11.300;  701.320
995.221;   59.959;  -13.540;  791.920
995.774;   57.056;  -13.430;  787.580
996.326;   56.032;  -12.520;  740.220
996.878;   56.645;  -10.950;  838.420
997.430;   55.094;  -14.300;  699.860
997.982;   54.699;  -13.760;  750.140
998.534;   53.988;  -11.530;  739.060
999.086;   52.893;  -10.310;  738.220
999.638;   51.152;  -12.530;  661.380
1000.190;   51.282;  -11.840;  699.320
1000.741;   51.236;  -10.260;  742.700
1001.293;   50.055;   -8.860;  686.020
1001.845;   49.089;  -13.700;  676.640
1002.396;   49.536;  -12.100;  743.400
1002.948;   49.335;  -12.760;  737.400
1003.500;   47.005;  -10.380;  723.780
1004.051;   48.703;  -11.900;  907.580
1004.603;   46.947;  -12.250;  791.820
1005.154;   42.628;  -13.210;  608.980
1005.705;   42.141;  -10.950;  723.960
1006.257;   41.104;  -13.880;  707.220
1006.808;   41.610;  -12.840;  685.460
1007.359;   40.667;  -10.570;  763.240
1007.910;   39.663;   -9.620;  646.640
1008.461;   38.934;  -13.630;  732.940
1009.013;   38.644;  -17.200;  588.340
1009.564;   39.686;  -10.200;  793.520
1010.115;   37.219;  -12.570;  597.040
1010.665;   37.651;  -15.150;  602.160
1011.216;   37.203;  -14.480;  667.920
1011.767;   36.683;  -11.340;  697.920
1012.318;   36.450;   -9.780;  736.980
1012.869;   35.113;  -12.380;  679.000
1013.419;   35.063;  -15.560;  603.120
1013.970;   35.251;  -11.010;  666.640
1014.521;   34.412;  -11.610;  620.620
1015.071;   35.420;  -13.450;  670.380
1015.622;   35.086;  -13.870;  635.460
1016.172;   33.981;  -11.610;  596.820
1016.723;   33.446;  -12.120;  614.380
1017.273;   33.235;  -13.620;  604.160
1017.823;   33.730;  -14.140;  650.340
1018.374;   33.161;  -12.800;  611.760
1018.924;   32.536;  -12.340;  716.880
1019.474;   32.598;  -11.410;  718.880
1020.024;   32.167;  -14.770;  657.580
1020.574;   32.678;   -9.780;  726.160
1021.124;   31.499;   -8.560;  673.580
1021.674;   30.553;  -15.190;  559.120
1022.224;   32.917;  -13.530;  708.940
1022.774;   31.765;  -13.280;  668.820
1023.324;   32.121;  -10.690;  753.520
1023.874;   32.852;  -10.240;  875.760
1024.423;   31.227;  -12.540;  613.700
1024.973;   29.972;  -10.010;  610.760
1025.523;   28.904;  -10.550;  620.960
1026.072;   29.363;  -13.560;  606.420
1026.622;   29.569;  -15.120;  675.740
1027.172;   30.207;  -11.260;  715.660
1027.721;   28.381;  -11.410;  601.220
1028.270;   29.977;  -13.530;  663.400
1028.820;   29.184;  -13.680;  638.080
1029.369;   29.431;  -13.520;  612.700
1029.918;   28.861;  -10.980;  649.840
1030.468;   27.985;  -13.530;  564.780
1031.017;   29.081;  -13.170;  634.800
1031.566;   27.126;  -12.200;  608.900
1032.115;   27.956;   -9.960;  694.500
1032.664;   27.058;  -13.210;  596.480
1033.213;   28.325;  -12.500;  735.420
1033.762;   27.402;  -11.910;  635.620
1034.311;   26.763;   -9.640;  677.220
1034.860;   27.264;  -13.310;  691.000
1035.408;   27.676;  -11.830;  722.720
1035.957;   27.767;  -12.000;  719.540
1036.506;   25.118;  -11.690;  530.800
1037.055;   27.617;  -10.990;  844.320
1037.603;   26.418;  -15.120;  664.000
1038.152;   24.170;  -12.450;  534.760
1038.700;   25.109;  -10.560;  585.740
1039.249;   24.993;  -11.080;  681.220
1039.797;   25.794;  -12.540;  633.360
1040.345;   25.020;  -11.920;  705.420
1040.894;   24.195;  -11.410;  625.300
1041.442;   24.550;  -14.320;  632.200
1041.990;   23.562;  -16.240;  559.160
1042.538;   23.603;  -11.680;  536.180
1043.087;   23.832;  -10.760;  570.860
1043.635;   24.469;  -11.850;  670.500
1044.183;   23.433;  -15.480;  586.400
1044.731;   23.073;  -11.770;  576.000
1045.279;   22.953;  -13.090;  674.920
1045.827;   24.588;  -12.440;  892.400
1046.374;   22.619;  -13.840;  515.420
1046.922;   22.209;  -13.220;  590.580
1047.470;   22.774;  -10.230;  691.300
1048.018;   23.302;  -14.590;  647.960
1048.565;   24.004;  -12.050;  708.600
1049.113;   22.017;  -11.650;  557.000
1049.660;   20.973;  -10.510;  629.660
1050.208;   22.262;  -13.310;  675.640
1050.755;   21.212;  -15.900;  606.580
1051.303;   22.439;  -11.430;  686.820
1051.850;   20.950;   -8.480;  635.120
1052.397;   19.487;  -15.010;  473.960
1052.945;   20.976;  -13.960;  617.760
1053.492;   21.534;  -13.150;  741.840
1054.039;   21.428;   -9.630;  720.180
1054.586;   19.726;  -13.680;  557.240
1055.133;   21.402;  -14.570;  693.140
1055.680;   21.035;  -13.820;  646.620
1056.227;   19.834;  -11.730;  542.780
1056.774;   21.493;  -12.480;  794.980
1057.321;   19.474;  -13.930;  523.260
1057.868;   20.347;  -11.690;  651.320
1058.415;   19.064;   -9.520;  651.980
1058.961;   19.170;  -13.160;  678.940
1059.508;   20.068;  -12.920;  643.820
1060.055;   19.803;  -11.920;  581.780
1060.601;   19.453;  -11.500;  624.300
1061.148;   19.543;  -14.330;  616.820
1061.694;   18.595;  -16.870;  592.580
1062.241;   18.956;  -10.330;  596.320
1062.787;   18.845;  -10.620;  663.140
1063.334;   20.384;  -10.110;  808.560
1063.880;   18.828;  -13.400;  668.360
1064.426;   18.569;  -10.680;  706.820
1064.972;   17.633;   -9.920;  601.340
1065.518;   16.992;  -10.980;  566.640
1066.065;   18.687;  -14.890;  624.460
1066.611;   17.334;  -12.870;  598.800
1067.157;   18.100;  -12.950;  641.860
1067.703;   16.707;  -13.540;  668.480
1068.249;   17.400;  -13.540;  605.220
1068.794;   17.793;  -12.600;  626.880
1069.340;   16.687;  -10.620;  578.960
1069.886;   16.331;  -12.830;  590.700
1070.432;   16.123;  -14.870;  541.720
1070.977;   15.640;  -11.980;  601.080
1071.523;   16.029;   -8.200;  573.060
1072.068;   16.575;  -12.330;  582.000
1072.614;   15.993;  -16.370;  527.760
1073.160;   17.005;  -11.100;  687.040
1073.705;   15.346;  -10.480;  572.520
1074.250;   15.529;  -14.520;  559.900
1074.796;   17.232;  -11.460;  655.160
1075.341;   16.205;  -11.950;  664.100
1075.886;   15.136;  -11.460;  594.240
1076.431;   15.066;  -13.770;  649.880
1076.976;   15.633;  -12.680;  639.220
1077.521;   14.868;  -13.170;  583.080
1078.067;   13.634;  -10.860;  579.400
1078.612;   14.973;  -13.920;  661.620
1079.156;   15.538;  -13.880;  601.540
1079.701;   14.738;  -13.120;  693.260
1080.246;   14.622;   -9.940;  696.300
1080.791;   14.281;  -14.740;  625.020
1081.336;   15.214;  -13.750;  659.320
1081.880;   15.125;  -13.400;  649.680
1082.425;   12.814;  -12.220;  573.480
1082.970;   14.901;  -11.610;  717.040
1083.514;   13.810;  -13.580;  597.000
1084.059;   13.052;  -12.810;  586.720
1084.603;   13.153;  -12.320;  565.840
1085.147;   12.960;  -13.190;  645.220
1085.692;   14.817;  -12.480;  716.800
1086.236;   12.410;  -13.020;  503.140
1086.780;   13.775;   -9.190;  751.440
1087.325;   13.981;  -12.480;  654.620
1087.869;   13.075;  -12.450;  610.700
1088.413;   13.704;  -12.240;  705.040
1088.957;   11.642;   -9.020;  543.400
1089.501;   13.494;  -10.320;  766.640
1090.045;   12.876;  -12.720;  726.480
1090.589;   10.630;  -13.690;  569.920
1091.133;   12.138;  -10.020;  673.340
1091.676;   11.758;  -12.330;  591.940
1092.220;   12.449;  -14.970;  600.920
1092.764;   12.771;  -12.430;  706.960
1093.307;   12.398;   -9.800;  673.780
1093.851;   10.357;  -14.970;  556.540
1094.395;   11.767;  -15.310;  683.140
1094.938;   11.053;  -10.370;  632.520
1095.482;   10.979;  -11.050;  559.800
1096.025;   11.744;  -11.840;  710.880
1096.568;   12.158;  -12.840;  779.280
1097.112;    9.794;  -14.700;  508.180
1097.655;   11.059;   -8.720;  603.000
1098.198;   10.159;  -13.610;  600.180
1098.741;   10.281;  -13.350;  612.860
1099.285;   11.960;  -11.230;  657.300
1099.828;    8.269;  -11.840;  439.400
1100.371;   10.153;  -10.840;  608.160
1100.914;    9.653;  -14.190;  682.660
1101.457;   10.525;  -11.240;  679.900
1101.999;    8.984;  -11.270;  584.680
1102.542;   10.030;  -11.480;  641.440
1103.085;    9.904;  -11.750;  658.500
1103.628;   10.480;  -11.400;  762.060
1104.170;    8.845;  -10.490;  588.280
1104.713;    9.157;  -10.600;  646.700
1105.256;    9.114;  -14.360;  557.440
1105.798;    8.338;  -13.210;  499.980
1106.341;    9.698;  -10.270;  728.900
1106.883;    8.763;  -12.200;  521.340
1107.425;    8.596;  -13.110;  668.180
1107.968;    8.207;  -12.840;  612.380
1108.510;    8.651;   -6.480;  684.960
1109.052;    7.871;  -13.940;  612.620
1109.594;    8.317;  -13.690;  554.440
1110.136;    8.333;  -11.880;  643.220
1110.679;    7.473;   -9.500;  633.080
1111.221;    8.137;  -14.160;  604.460
1111.763;    7.490;  -13.980;  559.220
1112.304;    7.406;  -13.880;  547.140
1112.846;    8.283;  -12.210;  666.240
1113.388;   10.182;  -11.390;  942.180
1113.930;    7.757;  -14.540;  694.200
1114.472;    7.261;  -12.640;  606.540
1115.013;    5.665;  -11.620;  551.280
1115.555;    6.368;  -13.640;  587.100
1116.097;    5.815;  -15.380;  579.480
1116.638;    6.985;  -12.640;  684.600
1117.180;    7.934;   -9.850;  667.740
1117.721;    6.481;  -13.690;  568.580
1118.262;    7.747;  -12.680;  677.960
1118.804;    7.617;  -12.530;  637.340
1119.345;    5.856;  -11.690;  578.400
1119.886;    7.137;  -13.380;  704.040
1120.427;    6.666;  -14.070;  589.020
1120.969;    5.895;  -13.500;  597.920
1121.510;    4.478;  -11.480;  563.060
1122.051;    5.922;  -12.830;  723.580
1122.592;    5.778;  -14.290;  655.420
1123.133;    4.140;  -12.400;  547.940
1123.673;    5.983;  -10.130;  706.480
1124.214;    5.117;  -12.930;  612.460
1124.755;    6.230;  -14.380;  639.460
1125.296;    5.728;  -14.000;  627.320
1125.836;    5.457;  -10.070;  691.500
1126.377;    4.682;  -12.640;  599.660
1126.918;    5.479;  -12.960;  614.980
1127.458;    4.965;  -13.350;  622.220
1127.999;    4.908;  -10.750;  656.980
1128.539;    5.388;  -12.350;  694.240
1129.079;    5.316;  -14.860;  632.720
1129.620;    4.330;  -13.840;  558.100
1130.160;    3.292;  -12.330;  539.480
1130.700;    4.637;  -14.530;  640.840
1131.240;    5.515;  -12.530;  643.700
1131.781;    3.966;  -14.450;  619.680
1132.321;    3.463;   -9.790;  599.120
1132.861;    2.771;  -14.860;  564.200
1133.401;    3.649;  -14.290;  593.940
1133.941;    4.018;  -11.750;  626.280
1134.481;    3.145;   -9.920;  597.580
1135.020;    3.010;  -12.290;  609.160
1135.560;    4.425;  -11.650;  674.940
1136.100;    3.429;  -16.270;  501.160
1136.640;    3.216;  -10.890;  510.480
1137.179;    2.451;  -14.180;  537.960
1137.719;    3.058;  -16.250;  605.400
1138.258;    3.146;  -14.230;  587.360
1138.798;    3.587;   -9.090;  663.780
1139.337;    1.712;  -15.130;  482.840
1139.877;    3.778;  -13.680;  642.360
1140.416;    4.933;  -11.320;  878.060
1140.955;    2.307;  -10.860;  535.380
1141.494;    2.870;  -12.920;  669.280
1142.034;    2.674;  -13.930;  583.520
1142.573;    3.521;  -11.440;  646.280
1143.112;    2.289;  -12.000;  553.480
1143.651;    2.170;  -13.670;  536.480
1144.190;    4.188;  -12.730;  691.640
1144.729;    2.354;  -14.560;  607.420
1145.267;    2.389;  -11.830;  584.900
1145.806;    2.765;  -12.230;  637.040
1146.345;    1.936;  -14.130;  635.020
1146.884;    1.683;  -11.590;  622.500
1147.422;    0.375;  -12.550;  533.060
1147.961;    3.342;  -11.180;  708.460
1148.500;    1.976;  -11.510;  669.720
1149.038;    2.998;  -11.640;  632.500
1149.577;    2.535;  -10.130;  698.640
1150.115;   -0.298;  -13.970;  452.280
1150.653;    2.048;  -14.520;  607.340
1151.192;    1.268;  -12.810;  552.920
1151.730;    1.248;   -9.100;  652.560
1152.268;    0.274;  -12.220;  589.520
1152.806;    1.337;  -14.140;  571.180
1153.344;   -0.004;  -12.350;  577.640
1153.882;    1.251;   -8.980;  600.060
1154.421;   -0.120;  -15.190;  470.620
1154.958;    0.193;  -15.210;  595.240
1155.496;    1.618;  -12.850;  645.280
1156.034;    0.653;   -9.940;  721.880
1156.572;    2.071;  -13.570;  667.060
1157.110;   -0.207;  -14.590;  473.940
1157.647;    1.681;  -13.030;  676.960
1158.185;   -0.656;  -12.140;  564.320
1158.723;   -1.094;  -14.390;  509.200
1159.260;    0.970;  -14.090;  701.700
1159.798;    0.058;  -11.920;  658.160
1160.335;    0.021;  -11.110;  631.820

