
Integration time [ms]:   3.276
Averaging Nr. [scans]: 1000
Smoothing Nr. [pixels]: 0
Data measured with spectrometer [name]: 7414430SP
Wave   ;Sample   ;Dark     ;Reference
[nm]   ;[counts] ;[counts] ;[counts] 

288.544;  148.367;    7.793;  793.890
289.143;  152.785;    7.462;  681.602
289.742;  153.421;    8.602;  828.814
290.341;  138.858;    1.321;  789.841
290.940;  128.187;   -0.709;  730.702
291.538;  128.739;    0.881;  881.108
292.137;  129.185;    0.122;  792.581
292.736;  134.602;   -1.929;  975.101
293.335;  129.510;   -8.229;  735.086
293.934;  129.939;   -5.279;  781.677
294.532;  128.381;   -1.369; 1031.958
295.131;  114.891;   -7.641;  834.394
295.730;  114.137;   -8.420;  809.588
296.328;  114.111;   -5.611;  783.442
296.927;  114.862;   -5.781;  779.652
297.525;  115.744;   -6.361;  781.236
298.124;  105.749;  -11.382;  654.009
298.722;  109.137;   -7.641;  761.933
299.321;  107.232;   -6.811;  708.597
299.919;  105.220;   -6.991;  751.918
300.518;  102.047;  -10.362;  689.338
301.116;  103.913;   -9.581;  691.381
301.715;  104.673;   -4.891;  730.222
302.313;  103.071;   -8.801;  704.943
302.911;   98.534;   -8.522;  733.830
303.509;  103.982;   -6.171;  925.627
304.108;  101.852;   -7.311;  760.383
304.706;  100.637;   -8.321;  801.664
305.304;   94.413;  -10.222;  796.707
305.902;  100.456;   -6.021;  784.484
306.500;   97.010;   -4.971;  728.200
307.098;   94.919;   -7.061;  746.560
307.696;   92.550;   -8.801;  780.432
308.294;   92.833;   -6.411;  731.359
308.892;   95.302;   -2.901;  759.769
309.490;   91.816;   -5.041;  712.161
310.088;   89.511;   -5.002;  788.444
310.686;   94.205;   -2.041;  821.749
311.284;   89.566;   -2.351;  766.040
311.882;   87.941;   -4.422;  731.225
312.480;   84.299;   -4.192;  697.167
313.078;   85.257;   -1.172;  808.331
313.675;   86.554;   -2.601;  691.600
314.273;   82.276;   -1.312;  797.837
314.871;   80.309;   -3.942;  589.829
315.468;   78.693;   -2.802;  652.090
316.066;   82.010;   -0.701;  694.427
316.664;   75.236;   -4.362;  656.351
317.261;   79.046;   -2.872;  910.128
317.859;   74.499;   -2.022;  768.735
318.456;   75.321;   -0.531;  830.096
319.054;   70.666;   -3.912;  787.828
319.651;   69.736;   -4.752;  759.928
320.249;   68.592;   -2.602;  810.188
320.846;   66.214;   -0.821;  714.286
321.443;   64.358;   -4.642;  832.135
322.041;   60.713;   -5.002;  812.315
322.638;   57.607;   -3.982;  701.456
323.235;   60.488;   -3.411;  665.683
323.833;   57.532;   -7.361;  740.354
324.430;   52.043;   -8.611;  615.900
325.027;   53.819;   -4.061;  876.855
325.624;   53.736;   -4.031;  644.532
326.221;   50.685;   -7.481;  689.717
326.818;   49.505;   -5.281;  818.332
327.415;   53.100;   -7.460;  748.828
328.012;   53.096;   -5.510;  690.585
328.609;   51.002;   -7.880;  731.389
329.206;   48.586;   -8.331;  778.621
329.803;   49.414;   -5.121;  737.841
330.400;   52.817;   -4.510;  704.260
330.997;   53.978;   -6.441;  817.147
331.594;   51.753;   -8.831;  788.185
332.191;   56.744;   -7.621;  728.722
332.787;   60.097;   -4.591;  844.463
333.384;   58.046;   -7.412;  763.093
333.981;   57.441;   -8.293;  815.687
334.578;   60.637;   -7.052;  708.378
335.174;   63.139;   -3.102;  731.469
335.771;   63.235;   -5.943;  836.456
336.367;   59.592;   -7.393;  710.631
336.964;   63.056;   -4.063;  793.266
337.561;   61.404;   -3.813;  731.112
338.157;   57.545;   -4.654;  911.916
338.754;   54.328;   -7.934;  796.589
339.350;   53.368;   -4.414;  722.493
339.946;   55.134;   -4.664;  773.135
340.543;   46.702;   -6.375;  846.136
341.139;   41.524;   -9.815;  720.836
341.735;   39.521;   -4.526;  772.593
342.332;   38.036;   -4.895;  691.472
342.928;   38.183;   -4.295;  795.394
343.524;   32.437;   -5.476;  761.684
344.120;   28.434;   -5.856;  738.562
344.716;   31.795;   -2.155;  723.717
345.313;   30.224;   -6.275;  795.342
345.909;   24.119;   -8.815;  627.336
346.505;   25.863;   -5.305;  740.247
347.101;   27.351;   -2.674;  827.864
347.697;   27.318;   -4.344;  785.398
348.293;   21.558;   -9.975;  627.244
348.889;   22.120;   -5.774;  745.914
349.485;   21.660;   -5.004;  688.205
350.081;   22.144;   -4.704;  772.592
350.676;   17.407;   -6.635;  691.606
351.272;   21.487;   -4.504;  809.530
351.868;   21.457;   -3.914;  780.497
352.464;   19.164;   -9.044;  723.932
353.059;   15.293;   -8.314;  646.017
353.655;   18.525;   -7.024;  777.063
354.251;   19.120;   -5.343;  759.845
354.846;   14.572;   -8.604;  740.646
355.442;   12.107;   -6.945;  753.071
356.038;   13.534;   -7.564;  751.708
356.633;   14.523;   -5.814;  728.594
357.229;   11.555;   -7.364;  724.757
357.824;    9.746;   -8.024;  703.600
358.420;    9.571;   -9.384;  679.726
359.015;    9.129;   -5.104;  695.357
359.610;   10.692;   -6.854;  763.920
360.206;    4.745;  -10.185;  603.240
360.801;    7.654;   -7.054;  646.503
361.396;   10.167;   -5.034;  725.975
361.992;    5.727;   -8.284;  668.220
362.587;    2.559;   -8.625;  670.160
363.182;    5.223;   -7.674;  689.631
363.777;    5.533;   -5.164;  738.242
364.372;    5.088;   -8.604;  737.314
364.967;    1.235;   -9.055;  680.744
365.563;    5.444;   -6.114;  815.567
366.158;    2.962;   -5.814;  685.161
366.753;    3.736;   -7.854;  649.263
367.348;    1.249;   -7.804;  746.056
367.942;    1.021;   -7.954;  697.298
368.537;    0.341;   -4.984;  754.245
369.132;    0.842;   -8.564;  703.428
369.727;   -3.209;   -8.855;  638.079
370.322;   -1.578;   -6.245;  580.186
370.917;   -2.033;   -6.425;  710.646
371.511;    0.359;   -6.294;  861.834
372.106;   -3.428;   -7.685;  776.964
372.701;   -6.225;   -7.335;  585.988
373.296;   -0.844;   -4.564;  863.135
373.890;   -5.252;  -10.235;  647.840
374.485;   -7.932;   -7.885;  691.199
375.079;   -3.718;   -7.324;  738.685
375.674;   -2.111;   -3.494;  812.970
376.268;   -6.631;   -8.525;  691.759
376.863;  -12.542;  -10.086;  580.327
377.457;   -6.586;   -7.025;  662.490
378.052;   -8.005;   -3.585;  764.884
378.646;   -8.902;   -7.595;  741.167
379.240;   -9.901;   -8.335;  721.176
379.835;   -8.713;   -5.785;  636.978
380.429;  -10.254;   -4.335;  562.557
381.023;  -10.401;   -6.805;  779.205
381.617;  -12.971;   -9.195;  680.106
382.212;   -9.524;   -6.905;  685.303
382.806;   -8.035;   -3.745;  760.690
383.400;  -12.069;   -7.745;  672.281
383.994;  -13.777;   -9.765;  664.870
384.588;  -10.323;   -6.564;  697.701
385.182;   -7.816;   -5.344;  726.624
385.776;  -10.384;   -8.514;  706.875
386.370;  -13.213;   -9.555;  681.968
386.964;  -12.210;   -8.715;  684.155
387.558;  -10.296;   -6.174;  598.360
388.152;  -14.019;   -8.725;  681.959
388.745;  -12.097;   -7.965;  814.707
389.339;  -10.655;   -5.924;  747.642
389.933;   -8.830;   -5.524;  695.370
390.527;  -10.096;   -7.114;  859.029
391.120;  -16.934;  -10.725;  595.318
391.714;  -14.113;   -8.035;  711.633
392.308;  -10.690;   -3.574;  780.253
392.901;  -13.685;   -7.245;  642.460
393.495;  -16.800;   -9.285;  595.414
394.089;  -13.801;   -5.895;  760.452
394.682;  -14.275;   -4.295;  697.188
395.275;  -15.024;   -9.875;  719.927
395.869;  -16.569;   -8.485;  667.314
396.462;  -14.804;   -7.455;  616.609
397.056;  -10.083;   -5.424;  776.621
397.649;  -15.329;   -6.605;  731.575
398.242;  -13.253;   -8.224;  712.645
398.836;  -12.656;   -7.474;  766.408
399.429;  -13.364;   -7.094;  631.041
400.022;  -16.761;   -9.475;  665.902
400.615;  -14.312;   -7.145;  805.609
401.208;  -12.902;   -7.174;  691.451
401.802;  -14.560;   -5.515;  699.329
402.395;  -16.002;   -9.875;  683.502
402.988;  -17.330;   -8.845;  696.627
403.581;  -13.558;   -8.874;  646.878
404.174;  -11.616;   -5.324;  686.568
404.767;  -14.177;   -9.575;  638.583
405.360;  -16.535;  -10.965;  621.445
405.953;  -11.286;   -8.764;  759.034
406.545;  -11.049;   -7.514;  725.342
407.138;  -15.333;  -10.025;  618.350
407.731;  -14.094;  -10.034;  613.303
408.324;   -9.496;   -9.374;  660.554
408.917;  -11.513;   -6.534;  681.864
409.509;  -12.970;   -8.004;  740.396
410.102;  -15.071;   -9.875;  643.948
410.695;   -8.464;   -8.604;  665.758
411.287;  -10.099;   -6.794;  599.821
411.880;  -10.621;   -9.334;  585.421
412.472;  -14.167;  -10.254;  613.092
413.065;  -10.697;   -6.714;  629.408
413.657;   -8.562;   -7.234;  576.678
414.250;   -8.979;  -10.544;  646.681
414.842;  -10.082;   -9.744;  676.353
415.434;   -8.626;   -6.994;  570.463
416.027;   -4.305;   -5.893;  652.196
416.619;   -6.462;   -7.264;  713.400
417.211;   -7.040;  -10.374;  599.352
417.804;   -3.582;   -7.993;  628.499
418.396;   -7.668;   -7.234;  607.643
418.988;   -5.414;   -9.443;  659.238
419.580;   -8.743;  -10.724;  568.276
420.172;   -6.992;  -10.323;  536.196
420.764;   -1.242;   -8.793;  672.482
421.356;   -4.067;  -11.143;  636.898
421.948;   -4.229;   -8.293;  677.661
422.540;    1.346;   -7.893;  680.027
423.132;   -0.153;   -7.082;  600.641
423.724;   -2.795;   -8.653;  561.267
424.316;   -1.602;  -10.213;  621.345
424.908;    2.006;   -9.762;  591.517
425.500;    2.359;   -5.572;  647.978
426.092;    3.491;   -8.422;  648.268
426.683;    1.914;   -9.283;  684.836
427.275;    4.624;   -7.852;  641.471
427.867;    6.805;   -5.272;  668.948
428.458;    7.355;   -7.682;  732.344
429.050;    4.951;  -10.612;  680.749
429.642;    7.495;   -9.882;  743.124
430.233;    8.215;   -6.962;  569.356
430.825;    9.997;   -6.842;  724.809
431.416;    6.248;   -9.672;  698.241
432.008;   10.577;   -6.552;  651.723
432.599;   10.449;   -6.891;  656.073
433.190;    8.571;  -10.912;  637.670
433.782;    6.807;  -11.172;  590.395
434.373;   14.999;   -6.061;  884.765
434.964;   13.172;   -8.251;  602.920
435.556;   10.732;   -9.722;  634.537
436.147;   13.910;   -9.082;  758.490
436.738;   14.716;   -8.041;  701.099
437.329;   18.918;   -7.341;  721.723
437.920;   12.462;   -8.162;  666.688
438.511;   12.146;  -11.802;  564.526
439.103;   19.076;  -10.191;  623.998
439.694;   19.982;   -7.601;  681.583
440.285;   21.509;   -8.541;  764.432
440.876;   19.271;   -9.751;  845.738
441.466;   18.487;   -9.401;  575.162
442.057;   23.307;   -7.760;  665.814
442.648;   22.769;   -9.971;  746.255
443.239;   20.304;  -11.001;  620.477
443.830;   26.792;   -7.990;  704.958
444.421;   27.781;   -7.910;  655.474
445.011;   23.959;   -8.131;  693.619
445.602;   23.825;   -7.111;  743.126
446.193;   26.249;  -10.920;  488.117
446.783;   29.656;   -6.500;  640.397
447.374;   25.678;   -8.671;  692.759
447.964;   25.864;  -10.781;  713.770
448.555;   34.955;   -9.650;  822.742
449.145;   30.849;   -8.660;  662.853
449.736;   31.831;   -8.990;  803.179
450.326;   31.436;   -9.500;  713.626
450.917;   36.525;   -8.680;  675.324
451.507;   35.914;   -7.520;  600.661
452.097;   36.835;   -8.590;  746.267
452.688;   37.469;  -11.340;  742.160
453.278;   36.639;  -10.100;  566.840
453.868;   41.661;   -6.019;  793.550
454.458;   39.562;   -9.440;  651.141
455.048;   39.593;  -10.560;  711.783
455.639;   41.232;  -11.799;  567.096
456.229;   45.283;   -6.899;  710.694
456.819;   47.715;   -7.389;  751.158
457.409;   47.051;  -11.119;  773.993
457.999;   50.605;   -9.289;  737.505
458.589;   49.694;   -6.139;  686.606
459.179;   49.874;   -8.729;  717.658
459.769;   47.244;   -9.789;  627.099
460.358;   52.844;  -10.259;  797.262
460.948;   52.406;   -7.299;  689.503
461.538;   53.898;  -10.289;  660.677
462.128;   51.517;  -11.269;  664.934
462.717;   58.180;   -9.368;  710.326
463.307;   61.822;   -7.908;  705.846
463.897;   57.939;   -9.599;  656.942
464.486;   56.303;   -9.769;  837.128
465.076;   60.973;   -8.048;  733.776
465.666;   64.664;   -9.358;  652.900
466.255;   61.730;   -7.919;  785.651
466.845;   60.370;  -11.689;  666.749
467.434;   64.396;   -7.818;  725.873
468.023;   65.899;   -7.678;  658.357
468.613;   63.268;  -10.939;  713.946
469.202;   67.090;  -10.118;  646.507
469.791;   71.387;   -9.108;  737.811
470.381;   73.424;   -6.058;  742.813
470.970;   72.621;  -10.428;  711.099
471.559;   71.860;  -10.268;  733.291
472.148;   76.023;   -8.448;  675.737
472.738;   77.865;   -6.917;  765.466
473.327;   78.066;  -11.978;  637.529
473.916;   77.071;  -11.888;  737.446
474.505;   82.036;   -9.437;  751.703
475.094;   84.457;   -6.747;  806.570
475.683;   83.977;   -9.367;  797.699
476.272;   84.405;  -12.637;  730.632
476.861;   87.869;  -10.027;  706.754
477.449;   94.172;   -8.716;  728.487
478.038;   88.490;   -9.577;  692.513
478.627;   89.245;   -9.718;  714.852
479.216;   95.572;   -8.947;  769.441
479.805;   99.094;   -6.256;  783.375
480.393;   98.641;   -7.937; 1008.945
480.982;   97.729;   -7.717;  874.501
481.571;  104.284;   -9.266;  858.333
482.159;  104.872;   -7.636;  705.386
482.748;  104.085;   -9.667;  821.385
483.336;  108.207;  -10.376;  858.209
483.925;  109.695;   -7.147;  774.373
484.513;  116.002;   -7.996;  758.962
485.102;  112.105;  -10.027;  810.965
485.690;  121.131;  -10.446; 1011.050
486.278;  122.955;   -8.446;  979.329
486.867;  124.255;   -6.356;  809.662
487.455;  125.972;   -9.136;  898.229
488.043;  126.111;  -10.646;  748.361
488.631;  136.085;   -7.456; 1005.079
489.220;  138.993;   -6.636;  908.626
489.808;  139.547;  -11.036;  741.415
490.396;  147.445;  -10.246;  914.645
490.984;  153.168;   -8.556;  830.161
491.572;  164.045;   -5.886;  940.315
492.160;  169.089;   -9.486;  919.081
492.748;  180.657;  -10.976;  884.341
493.336;  204.364;   -8.776; 1019.693
493.924;  230.302;   -5.465;  958.077
494.512;  258.487;   -9.986; 1066.638
495.100;  294.111;  -10.636; 1103.280
495.687;  347.333;  -10.885; 1206.373
496.275;  409.089;   -8.126; 1150.796
496.863;  473.901;  -10.586; 1281.171
497.451;  569.407;  -11.926; 1386.805
498.038;  702.999;  -10.885; 1556.729
498.626;  807.991;   -6.315; 1741.407
499.214;  950.229;   -7.326; 2016.609
499.801; 1129.396;  -11.906; 2220.633
500.389; 1370.914;  -10.466; 2312.494
500.976; 1668.713;   -5.236; 2744.849
501.564; 2082.796;   -8.936; 3148.565
502.151; 2430.391;  -13.176; 3515.999
502.738; 2844.159;  -10.646; 3971.274
503.326; 3217.304;   -9.525; 4403.796
503.913; 3579.306;  -10.856; 5161.749
504.500; 3892.930;  -11.586; 5986.420
505.088; 4305.791;  -10.336; 6381.201
505.675; 4810.436;   -6.355; 6925.547
506.262; 5424.615;   -9.046; 7619.060
506.849; 6099.220;  -10.416; 8733.969
507.436; 6572.860;  -10.305; 9790.121
508.023; 7138.789;   -5.496; 9985.472
508.610; 7373.403;   -7.856;10434.618
509.197; 8000.453;  -10.097;11198.435
509.784; 9316.883;  -10.886;12391.194
510.371;10320.176;   -9.315;13603.713
510.958;11009.257;   -9.936;14426.586
511.545;11715.680;   -9.326;15243.775
512.132;12578.327;  -10.075;15945.876
512.719;13099.718;   -7.796;16340.369
513.305;13981.458;  -10.606;18011.766
513.892;14621.670;  -11.486;19754.971
514.479;15872.530;   -9.126;20967.805
515.066;17434.822;   -6.026;22299.793
515.652;18645.713;   -8.466;22908.660
516.239;19730.082;  -10.886;23798.875
516.825;20732.275;  -11.496;25567.275
517.412;21582.391;   -5.796;28154.959
517.998;22363.008;  -10.506;28344.111
518.585;22599.518;  -10.076;27134.219
519.171;22985.920;   -8.315;27268.576
519.758;24096.932;   -8.596;28964.129
520.344;25970.992;   -8.466;30664.494
520.930;26277.695;  -11.006;32550.605
521.516;27415.117;  -10.495;35422.895
522.103;29669.881;   -5.526;38280.004
522.689;30356.328;   -8.746;37835.117
523.275;30089.518;  -11.376;37288.613
523.861;31280.693;  -11.156;37281.395
524.447;32365.342;   -8.135;37846.949
525.033;31544.254;   -7.896;38321.949
525.619;31354.045;  -12.476;38579.285
526.205;32460.805;   -9.516;40622.875
526.791;34395.746;   -6.926;42258.836
527.377;32830.941;   -8.346;42966.902
527.963;32360.875;   -8.717;42018.949
528.549;32065.691;  -11.016;42476.828
529.135;33341.867;   -8.536;41854.852
529.721;35002.621;   -9.666;41237.711
530.306;35515.094;  -10.066;41259.445
530.892;35642.191;  -11.356;41506.047
531.478;36973.824;   -6.596;43559.613
532.063;39431.387;   -8.836;47695.563
532.649;39962.168;  -10.047;50808.324
533.235;40707.320;   -9.746;51787.500
533.820;41308.617;   -6.566;52145.035
534.406;42307.969;  -10.817;51133.488
534.991;41916.152;   -9.416;49996.805
535.576;40339.168;   -9.036;48882.852
536.162;40532.348;   -6.156;46942.285
536.747;40920.559;  -11.607;45711.746
537.333;42885.516;  -11.787;48510.180
537.918;44169.027;  -12.437;50439.891
538.503;40729.148;   -7.196;50863.711
539.088;36472.559;  -10.556;50906.922
539.673;37404.141;   -8.767;52621.965
540.259;39897.613;  -10.026;52368.094
540.844;40292.949;   -7.416;50879.109
541.429;43259.574;   -9.467;52077.777
542.014;47480.914;   -9.527;52716.695
542.599;47751.855;   -9.946;52363.281
543.184;45037.457;   -7.927;53187.137
543.769;46104.750;   -9.297;54697.605
544.354;45713.895;  -10.127;53913.914
544.938;44581.484;   -9.267;49680.164
545.523;46686.797;   -6.506;47386.277
546.108;49089.059;   -9.787;49151.949
546.693;51137.605;  -11.587;51384.637
547.278;50980.645;  -10.986;51853.254
547.862;47959.930;   -8.206;51173.750
548.447;43525.781;  -10.067;51691.395
549.031;42661.102;   -9.637;52456.703
549.616;47279.648;   -9.926;52714.516
550.201;46767.984;   -6.347;52414.598
550.785;47659.082;   -7.917;52355.059
551.370;46876.809;  -10.867;54589.453
551.954;46545.512;   -9.047;58267.348
552.538;47792.223;   -7.827;59062.176
553.123;46094.141;  -10.287;58115.285
553.707;43490.461;  -12.178;56556.285
554.291;44133.063;   -8.717;56201.668
554.876;46204.113;   -7.457;55335.762
555.460;46869.031;  -10.387;54155.703
556.044;48688.211;   -9.618;53721.484
556.628;47030.145;  -11.567;53731.016
557.212;45708.344;   -8.097;54312.531
557.796;43651.754;  -11.077;53797.773
558.380;43931.422;  -11.108;56145.984
558.964;44730.906;   -9.057;57277.930
559.548;45832.078;   -6.977;56459.641
560.132;43690.590;  -11.457;54434.543
560.716;42301.035;  -11.378;54800.617
561.300;43136.590;   -9.577;57606.945
561.884;44119.246;   -7.127;58972.445
562.467;42643.566;   -7.118;57327.570
563.051;42344.691;  -13.358;54962.434
563.635;43234.672;  -10.178;52594.473
564.219;43268.816;   -7.837;50610.410
564.802;43802.613;  -11.398;49551.180
565.386;44060.406;  -12.788;48370.953
565.969;43947.992;   -9.077;48178.871
566.553;42518.648;   -6.207;49957.305
567.136;42917.742;   -8.568;50369.594
567.720;39509.258;  -11.868;49492.004
568.303;37578.664;   -8.268;50616.352
568.887;37428.773;   -8.698;50727.148
569.470;37711.285;   -6.808;51698.379
570.053;37046.402;  -13.188;52122.078
570.637;35453.027;  -12.037;52536.438
571.220;34892.598;   -8.577;51186.098
571.803;35232.859;   -8.498;51032.762
572.386;37188.297;  -10.498;49609.887
572.969;39731.055;   -9.388;48285.926
573.552;38284.828;   -8.338;47624.285
574.135;37078.762;   -8.518;45498.641
574.718;34743.738;  -13.628;41970.434
575.301;33706.898;  -10.893;41447.137
575.884;32670.057;   -8.158;40923.836
576.467;33709.391;  -10.328;45267.723
577.050;35411.609;  -13.058;48175.543
577.633;37191.715;   -9.458;47729.328
578.216;36302.762;   -8.928;47579.793
578.799;35155.012;   -9.358;47820.996
579.381;34065.422;  -11.388;48115.551
579.964;32258.484;  -11.718;47333.766
580.547;33721.723;   -8.588;46668.969
581.129;34559.102;   -8.859;44466.141
581.712;35186.832;  -10.729;44164.922
582.294;35960.816;  -11.118;46477.855
582.877;36116.309;   -5.218;48244.254
583.459;34069.020;   -8.679;47437.895
584.042;32202.852;  -10.709;46943.219
584.624;32399.684;  -11.669;46792.227
585.206;31885.857;   -8.218;46557.250
585.789;31888.480;  -10.569;45793.773
586.371;34626.316;  -11.859;43836.391
586.953;35669.605;  -10.719;42972.492
587.536;36536.840;   -7.198;42487.211
588.118;36899.332;   -8.720;42086.414
588.700;33203.500;  -10.439;43389.930
589.282;32163.736;   -9.198;43646.039
589.864;32733.904;   -9.199;43438.109
590.446;33886.559;  -11.319;43151.926
591.028;34033.984;  -11.159;42781.867
591.610;32995.941;  -11.779;42839.098
592.192;30086.393;   -7.668;42820.402
592.774;28536.834;  -11.949;40724.277
593.356;27467.957;  -12.129;39874.789
593.937;26814.906;  -10.669;39980.648
594.519;28688.145;   -6.509;42069.633
595.101;30893.020;  -10.849;42976.031
595.683;31161.041;  -11.679;44084.441
596.264;32113.969;   -9.049;43478.797
596.846;31599.738;   -8.849;43803.672
597.427;31192.771;   -9.570;42986.934
598.009;32807.793;  -12.620;42832.219
598.591;33263.219;  -10.039;42580.086
599.172;32513.303;  -10.369;43061.805
599.753;32535.498;   -9.140;41691.469
600.335;33988.668;  -11.430;40692.520
600.916;32488.414;   -9.939;39982.422
601.498;30077.527;   -8.479;40318.617
602.079;28693.018;  -10.920;40670.609
602.660;28448.867;  -11.480;41450.898
603.241;29894.711;  -11.699;41137.738
603.823;28846.295;   -9.579;38868.797
604.404;28262.264;  -10.620;38182.785
604.985;29729.025;  -10.450;38078.047
605.566;29461.279;   -9.129;38056.633
606.147;29443.082;   -7.510;37020.418
606.728;31442.670;  -10.660;37883.359
607.309;30446.523;  -11.740;38748.273
607.890;29777.221;   -9.759;38850.230
608.471;29249.012;   -8.250;37457.918
609.051;28617.969;   -9.240;36066.457
609.632;27586.129;  -12.120;35991.074
610.213;28260.770;   -9.110;37402.641
610.794;29091.480;   -8.030;38383.363
611.374;28427.205;   -8.110;40562.387
611.955;28796.787;  -13.560;38533.727
612.536;30375.020;  -11.400;36951.789
613.116;29955.818;   -8.070;37197.891
613.697;30326.338;  -10.830;38411.125
614.277;28706.809;  -11.641;38673.938
614.858;29641.830;  -13.310;37075.863
615.438;29101.551;   -7.460;35092.906
616.019;26536.264;   -7.601;33666.301
616.599;27056.340;  -12.020;34189.023
617.179;29055.924;  -11.780;36952.047
617.760;29873.715;   -8.570;39582.574
618.340;30907.803;  -11.471;38943.977
618.920;32443.512;  -11.170;37594.156
619.500;32186.816;  -11.071;37866.938
620.080;31186.533;   -7.750;37869.043
620.660;32038.479;  -12.711;36868.617
621.241;33211.633;  -10.211;36352.309
621.821;33455.898;  -10.961;35459.520
622.401;32822.973;   -7.720;35207.414
622.980;31906.764;   -8.981;35980.422
623.560;30478.051;   -9.331;37351.328
624.140;29463.037;   -9.850;34388.582
624.720;24766.643;   -7.451;32368.764
625.300;21168.844;   -9.070;32638.629
625.880;24382.213;  -12.601;34599.035
626.459;28128.293;  -11.751;36831.738
627.039;31157.902;   -9.281;38299.098
627.619;31414.648;   -8.801;38289.574
628.198;29798.383;  -12.071;37220.695
628.778;28893.967;   -9.461;37632.563
629.357;29520.000;   -8.491;38003.012
629.937;29436.133;   -9.721;38402.039
630.516;28834.639;   -9.951;37868.801
631.096;28821.141;  -11.731;35760.410
631.675;31167.914;   -8.572;35225.219
632.254;36459.313;  -11.282;35130.289
632.834;35969.418;  -13.322;35794.570
633.413;34116.371;  -10.301;35788.922
633.992;31529.377;   -8.582;34532.863
634.571;32454.975;   -8.352;33590.113
635.151;35404.523;  -11.912;34943.863
635.730;33980.031;  -10.511;35352.523
636.309;30381.658;   -7.731;35366.605
636.888;27615.039;   -9.952;36165.637
637.467;28105.281;  -11.672;37515.902
638.046;29933.930;   -8.901;39288.695
638.625;32845.250;   -7.912;38279.699
639.204;32762.855;  -10.022;37741.598
639.782;31264.705;  -12.252;38364.551
640.361;27802.189;  -10.041;36740.621
640.940;24922.354;  -11.161;34950.082
641.519;25281.301;   -9.701;34137.398
642.097;27692.486;  -11.271;35654.258
642.676;30782.734;   -8.651;35637.957
643.255;31851.178;   -8.711;36567.074
643.833;30984.639;   -9.581;37809.434
644.412;31207.090;  -13.711;37337.293
644.990;30426.586;  -11.811;37018.531
645.569;29998.637;   -9.411;36518.469
646.147;29196.811;  -10.291;36186.430
646.726;28892.658;  -12.401;36267.688
647.304;30084.438;  -10.411;36647.625
647.882;31904.656;   -9.651;39286.742
648.461;33662.695;   -9.631;39157.703
649.039;32140.064;  -11.881;35412.883
649.617;31356.168;   -9.661;34744.918
650.195;30937.215;   -9.301;35403.098
650.773;29865.771;  -10.511;35053.797
651.352;27167.121;  -11.521;33756.816
651.930;24718.803;  -12.211;31868.773
652.508;23263.621;   -9.171;33121.551
653.086;27130.797;   -9.371;33564.793
653.663;30199.469;  -13.161;34054.668
654.241;28906.336;  -13.031;35693.309
654.819;30298.586;   -9.371;36422.906
655.397;30245.648;  -10.511;38213.484
655.975;29946.021;  -10.371;39507.625
656.553;30170.012;  -10.051;39498.223
657.130;28550.930;  -10.061;40395.480
657.708;27594.664;   -9.561;39242.020
658.286;27724.068;  -11.511;38920.020
658.863;29025.379;  -10.261;40202.898
659.441;31799.488;   -7.531;39677.938
660.018;31316.941;   -9.501;40413.355
660.596;30157.504;  -13.301;39931.414
661.173;31980.643;  -11.211;39604.531
661.750;32197.447;   -9.951;39700.070
662.328;31036.184;   -9.390;39292.809
662.905;30248.188;  -11.330;38235.648
663.482;26189.348;   -9.050;36212.305
664.060;24108.193;   -8.240;35944.945
664.637;26710.867;  -10.050;35170.785
665.214;28483.436;  -11.760;34197.523
665.791;30461.600;  -10.530;34549.520
666.368;29433.684;   -9.690;35118.578
666.945;29699.068;   -9.320;36019.418
667.522;31266.199;  -11.860;36048.438
668.099;31344.389;  -10.770;36243.914
668.676;30491.367;   -6.260;35958.875
669.253;28915.621;   -7.000;37384.730
669.830;29308.285;  -10.190;36779.629
670.407;29118.857;   -9.550;35231.289
670.984;29010.932;   -9.260;35544.270
671.560;29703.393;   -9.280;35466.867
672.137;28634.082;  -11.810;34280.863
672.714;29247.844;  -11.490;34632.863
673.290;29860.324;   -7.740;35135.422
673.867;29806.412;  -10.660;36114.480
674.443;30256.674;  -12.230;36152.859
675.020;28770.061;  -10.450;35327.238
675.596;29486.971;   -9.260;35795.176
676.173;29934.570;  -10.780;35430.355
676.749;29609.807;  -13.690;33549.516
677.326;29724.910;  -11.980;32210.012
677.902;29856.484;   -8.630;32068.871
678.478;29038.635;  -10.730;32583.891
679.054;28328.266;  -10.520;32088.928
679.631;29055.973;  -11.920;30978.848
680.207;30329.756;   -7.490;33160.887
680.783;31776.699;   -9.860;35570.363
681.359;31043.246;  -13.380;36125.184
681.935;30329.035;  -12.480;35240.922
682.511;29470.633;   -7.900;34429.961
683.087;29416.850;   -7.710;34463.680
683.663;28930.438;  -11.480;34648.898
684.239;28096.277;  -14.090;34546.457
684.815;27746.285;   -7.560;35586.375
685.390;28054.146;   -9.910;35821.895
685.966;28574.885;  -11.159;35085.871
686.542;31249.045;  -11.169;34198.230
687.118;33361.297;   -5.959;32847.707
687.693;33678.070;  -10.329;32794.027
688.269;33037.844;  -12.059;33072.367
688.844;31153.916;  -10.909;33141.664
689.420;29232.199;   -8.019;33965.742
689.995;27016.465;   -8.399;34655.523
690.571;25667.920;  -10.949;33576.742
691.146;26090.941;   -9.619;32657.219
691.722;25646.082;   -8.999;32526.979
692.297;25148.818;  -11.589;33014.617
692.872;26985.443;  -11.739;34012.254
693.448;26661.854;  -11.059;34237.434
694.023;25784.059;  -10.139;34142.672
694.598;27871.740;   -9.029;34132.031
695.173;28482.689;  -13.319;34205.250
695.748;27868.420;  -10.169;32882.488
696.323;27890.084;   -8.339;32864.906
696.898;27988.400;   -8.169;33170.004
697.473;27786.762;  -12.309;32432.984
698.048;27362.672;  -10.989;31649.303
698.623;27418.367;   -9.329;30778.141
699.198;29077.809;   -9.849;31140.119
699.773;30146.711;  -12.329;31764.299
700.348;28726.824;  -10.389;31780.816
700.922;28760.676;   -9.269;32046.375
701.497;29335.078;   -9.329;32603.574
702.072;29577.982;  -10.789;34799.871
702.646;28564.879;  -10.839;35793.172
703.221;26179.992;   -9.099;35201.590
703.795;28279.398;  -10.939;34764.527
704.370;28963.469;  -12.859;34307.367
704.944;29125.631;  -11.559;33509.887
705.519;30087.510;   -7.939;31388.584
706.093;31294.520;  -10.499;31340.104
706.668;31841.104;  -11.289;32630.281
707.242;30355.172;  -11.509;32728.779
707.816;28592.842;   -9.639;32947.238
708.390;27186.406;  -11.429;33277.855
708.965;27947.674;  -11.869;33834.336
709.539;28213.574;  -11.689;33709.273
710.113;28629.674;  -10.478;33044.313
710.687;28382.619;  -10.228;31953.992
711.261;26580.295;  -13.698;30505.949
711.835;26172.770;  -13.378;30262.369
712.409;26760.596;   -9.698;31254.447
712.983;28507.053;  -11.898;32754.986
713.557;29636.805;  -15.138;34018.824
714.131;29320.553;  -14.098;34579.625
714.704;28401.096;   -9.958;33890.262
715.278;25954.734;  -10.028;33531.102
715.852;25044.205;  -11.148;33601.660
716.425;25900.061;   -9.068;33515.117
716.999;26565.820;  -10.038;33185.555
717.573;27606.039;   -9.798;33905.996
718.146;29043.725;  -12.378;35199.293
718.720;28930.861;  -11.918;35060.551
719.293;28259.164;   -8.088;34973.230
719.867;31144.377;  -10.888;36394.449
720.440;31193.113;  -11.938;36663.008
721.013;29529.957;  -12.818;35102.426
721.587;28085.295;  -10.298;33985.266
722.160;26664.361;  -10.048;33524.965
722.733;25709.520;  -12.108;32987.043
723.306;26262.230;  -10.818;33066.301
723.880;28248.980;   -8.908;33399.500
724.453;30016.686;   -9.878;33468.297
725.026;28987.141;  -11.188;33816.637
725.599;26337.105;  -11.678;32797.996
726.172;26563.053;   -9.618;33187.434
726.745;27822.867;   -8.258;35136.613
727.318;29340.137;  -12.978;35751.730
727.891;30283.273;  -12.148;35890.430
728.463;30212.533;   -8.968;34822.090
729.036;29109.168;  -10.188;32895.086
729.609;29390.480;  -11.788;31823.225
730.182;26268.354;  -11.788;31445.283
730.754;23716.158;  -10.268;32373.223
731.327;23708.885;   -9.998;33676.820
731.900;23719.994;  -12.228;33417.000
732.472;24978.105;  -13.848;31978.498
733.045;27158.783;   -8.698;30368.777
733.617;27136.107;  -10.607;30574.215
734.190;26808.699;  -11.507;31280.975
734.762;24205.980;  -13.647;31674.412
735.334;22467.184;   -9.767;31247.291
735.907;22740.279;   -9.897;29876.211
736.479;22736.094;  -11.637;29808.488
737.051;22480.100;   -9.567;30233.547
737.623;23701.959;   -8.187;31469.086
738.195;24544.525;  -11.187;31784.225
738.768;26347.521;  -12.337;32120.523
739.340;26563.090;  -12.227;32094.342
739.912;25426.453;  -11.057;31312.680
740.484;24222.221;  -10.207;31946.238
741.056;22979.885;  -10.047;32984.059
741.628;24618.391;  -13.627;33897.715
742.199;26923.107;   -7.177;33213.016
742.771;25250.408;  -10.797;31369.113
743.343;22872.740;  -11.997;31865.473
743.915;21752.576;  -12.867;32388.631
744.487;21939.391;   -7.617;31079.568
745.058;22184.281;   -9.557;30570.107
745.630;22907.287;   -9.877;29970.127
746.201;23992.164;  -14.177;29186.766
746.773;24345.324;   -9.237;28805.723
747.344;24157.672;   -9.847;29591.223
747.916;22518.193;  -11.657;31412.201
748.487;22287.461;  -10.587;32194.898
749.059;23436.021;   -8.707;32533.719
749.630;24402.596;  -10.537;32158.518
750.201;23403.393;  -11.687;30855.395
750.773;21561.447;  -11.647;28622.555
751.344;21525.424;   -7.147;28405.732
751.915;22593.072;   -9.757;28461.551
752.486;22292.561;  -12.427;27842.850
753.057;20083.045;  -12.227;27845.008
753.628;18876.197;  -10.417;27728.107
754.199;20005.943;  -11.767;27381.086
754.770;21218.186;  -11.187;25882.203
755.341;21260.414;  -10.507;25886.184
755.912;21428.219;   -9.387;26050.861
756.483;20767.344;  -10.647;26798.779
757.054;18969.486;  -11.837;27048.238
757.625;17749.736;  -12.716;26294.838
758.195;17572.672;   -9.666;26142.076
758.766;17213.221;   -8.656;26392.234
759.337;17930.041;  -12.856;26334.594
759.907;19715.527;  -13.366;27579.652
760.478;20616.807;   -8.576;28352.770
761.048;20070.662;  -10.526;27325.088
761.619;19256.813;  -11.116;26460.428
762.189;19170.992;  -12.136;26029.826
762.760;19982.225;   -9.456;26430.145
763.330;21279.254;   -7.136;26670.902
763.900;20864.969;  -11.786;26603.021
764.471;18221.441;  -11.546;25542.740
765.041;16949.922;   -8.096;24358.459
765.611;17038.520;   -8.876;23991.297
766.181;17459.141;  -12.196;24470.236
766.751;18271.521;  -11.636;24845.975
767.321;18285.959;  -10.156;24533.633
767.891;16471.229;  -11.766;24916.492
768.461;15830.877;  -14.936;24776.771
769.031;16257.124;  -12.356;24757.988
769.601;17922.414;   -7.526;24181.088
770.171;17938.143;  -10.766;23670.387
770.741;16883.408;  -13.176;22960.045
771.311;16998.381;  -10.616;22917.523
771.880;17463.666;   -9.576;23562.941
772.450;16964.348;  -10.336;24216.500
773.020;16822.477;  -13.516;24140.398
773.589;16484.525;  -13.466;24414.857
774.159;16017.063;   -8.686;23858.717
774.729;15521.217;   -9.476;22942.135
775.298;15074.585;  -13.666;22324.033
775.867;14702.165;  -11.716;21140.313
776.437;14807.991;   -9.906;20838.092
777.006;14506.595;  -12.166;20599.510
777.576;14446.792;  -12.356;20508.809
778.145;14559.634;  -11.646;20732.947
778.714;14441.754;   -8.226;21062.465
779.283;13637.528;   -9.556;20949.664
779.853;13118.145;  -14.116;20508.623
780.422;13480.817;  -11.506;20649.082
780.991;13067.332;   -9.556;21527.520
781.560;12000.038;   -9.095;22632.658
782.129;11811.441;  -12.135;23048.277
782.698;11857.137;  -10.865;23438.555
783.267;11524.892;   -9.335;23267.734
783.836;11449.303;  -11.045;22415.133
784.404;12465.562;  -13.865;20443.152
784.973;12995.199;  -13.095;19699.150
785.542;12829.952;  -11.575;19763.828
786.111;12655.996;   -9.705;20341.408
786.679;12261.457;  -12.105;20207.967
787.248;12056.693;  -12.455;19516.465
787.817;11898.868;  -11.535;18900.363
788.385;11520.969;   -9.765;17879.121
788.954;10968.434;  -14.005;17658.301
789.522;10441.282;  -11.955;17788.879
790.090;10975.081;  -10.135;18118.277
790.659;11461.821;  -10.975;18338.736
791.227;10856.527;  -13.375;18508.615
791.795;11199.405;  -12.375;17898.254
792.364;11621.932;  -10.725;17295.133
792.932;12031.824;   -9.715;16822.051
793.500;12253.690;  -12.675;17040.148
794.068;12432.011;  -13.495;17179.787
794.636;12557.535;  -10.885;16664.246
795.204;12018.756;  -11.045;16524.545
795.772;12083.921;  -13.175;17274.564
796.340;11636.663;  -12.445;17891.002
796.908;11450.380;   -9.735;17648.561
797.476;11401.785;   -9.815;17064.080
798.044;10984.848;  -13.985;16672.777
798.612;10178.267;  -13.115;17023.996
799.180; 9842.285;  -10.185;16561.615
799.747; 9730.445;   -9.055;15962.773
800.315; 9397.771;  -12.385;15296.992
800.883; 9098.369;  -15.035;14801.771
801.450; 9140.413;  -10.365;14534.430
802.018; 9203.750;   -9.855;14173.248
802.585; 9268.018;  -11.905;14029.547
803.153; 9303.761;  -11.585;13836.846
803.720; 9172.403;   -9.095;13567.324
804.287; 8843.213;   -9.135;13360.622
804.855; 8418.266;  -11.604;13681.981
805.422; 8241.771;  -11.794;13536.560
805.989; 8231.056;  -10.734;13355.958
806.556; 8378.104;  -10.444;13747.896
807.124; 8644.926;  -12.764;13987.376
807.691; 8579.468;  -12.964;14038.674
808.258; 8400.466;  -11.134;14120.152
808.825; 8126.910;   -9.854;13860.111
809.392; 8217.049;  -10.504;13268.790
809.959; 7696.495;  -13.054;12680.389
810.526; 7246.628;   -8.294;12427.308
811.093; 7297.385;   -8.394;12030.105
811.659; 7941.390;  -12.304;11653.664
812.226; 8434.729;  -13.944;11637.183
812.793; 8119.307;  -10.484;11611.521
813.360; 7469.629;  -10.144;11885.181
813.926; 7097.399;  -11.684;12770.539
814.493; 6837.705;  -13.644;12677.638
815.060; 6464.001;   -9.724;11974.336
815.626; 6478.622;   -9.854;11594.715
816.193; 6877.477;  -13.254;11579.474
816.759; 6923.678;  -13.204;11666.972
817.325; 7009.621;   -9.434;11325.530
817.892; 7330.808;  -10.134;11105.369
818.458; 7735.582;  -13.474;10843.928
819.024; 7421.573;  -11.854;10714.406
819.591; 7075.339;  -10.244;10469.165
820.157; 6832.169;  -10.704;10235.523
820.723; 6290.848;  -12.324;10847.563
821.289; 5971.366;   -9.444;11040.980
821.855; 5919.571;   -8.374;10357.100
822.421; 5955.912;  -10.234; 9978.918
822.987; 5924.795;  -13.294; 9754.177
823.553; 5602.356;  -10.884;10065.755
824.119; 5412.123;   -8.884;10036.294
824.685; 5520.889;   -6.784;10029.192
825.251; 5617.540;  -12.004;10199.230
825.816; 5536.224;  -11.474; 9820.189
826.382; 5260.091;   -9.174; 9297.248
826.948; 5428.422;   -9.214; 9381.347
827.513; 5868.724;  -10.774; 9450.726
828.079; 5734.679;  -11.924; 9472.444
828.645; 5146.933;  -10.543; 9292.643
829.210; 5008.436;  -10.533; 9065.341
829.776; 4999.635;  -10.753; 9132.620
830.341; 4859.375;  -10.173; 9092.878
830.906; 4995.618;  -10.743; 9078.557
831.472; 5373.883;  -11.113; 8534.535
832.037; 5189.122;  -10.603; 8677.874
832.602; 4657.039;  -13.323; 8628.692
833.167; 4347.763;  -10.823; 8879.031
833.733; 4274.163;  -10.113; 9189.790
834.298; 4384.499;  -13.583; 9052.608
834.863; 4437.757;  -12.703; 8895.087
835.428; 4401.744;  -10.523; 8824.266
835.993; 4288.735;   -6.963; 8845.385
836.558; 4155.925;  -10.763; 8888.563
837.123; 4262.586;   -9.903; 8966.582
837.688; 4469.302;   -9.913; 8617.860
838.253; 4671.180;  -10.283; 8590.699
838.817; 4868.162;  -12.963; 8443.797
839.382; 4814.876;  -14.243; 8799.356
839.947; 4502.800;  -10.733; 8810.595
840.511; 4195.007;   -9.383; 8796.394
841.076; 3828.734;  -12.563; 8347.231
841.641; 3864.981;  -12.953; 8224.330
842.205; 3961.654;   -7.043; 8223.349
842.770; 4036.226;   -8.163; 8622.107
843.334; 4226.148;  -12.503; 8410.386
843.898; 4214.271;  -11.693; 8337.465
844.463; 4270.092;  -10.203; 8506.283
845.027; 4061.810;   -9.533; 8280.962
845.591; 3855.394;  -13.443; 8231.141
846.156; 3868.953;  -13.143; 7969.179
846.720; 3734.263;   -9.433; 7768.278
847.284; 3599.075;  -11.033; 7630.957
847.848; 3434.970;  -10.403; 7472.395
848.412; 3343.750;  -11.553; 7437.394
848.976; 3394.446;   -8.393; 7674.592
849.540; 3333.912;   -8.713; 7836.011
850.104; 3404.200;  -12.463; 7913.669
850.668; 3762.098;  -12.973; 7694.508
851.232; 3905.849;  -10.793; 7756.887
851.796; 3729.428;  -10.662; 7926.545
852.359; 3415.000;  -13.082; 7827.844
852.923; 3238.169;  -12.192; 7641.163
853.487; 3053.013;  -11.912; 7342.501
854.050; 2983.188;  -10.892; 7042.820
854.614; 3124.742;  -13.992; 7151.338
855.177; 3244.026;  -11.732; 7105.077
855.741; 3304.181;   -8.962; 6989.675
856.304; 3214.780;   -9.442; 6596.634
856.868; 3140.877;  -14.192; 6356.272
857.431; 3242.223;  -12.702; 6468.571
857.995; 3361.053;   -9.942; 6373.210
858.558; 3373.727;   -9.112; 6324.448
859.121; 3114.238;  -12.932; 6408.327
859.684; 2974.078;  -13.442; 6347.886
860.247; 3095.990;  -10.632; 6321.264
860.810; 3107.475;  -11.272; 6301.903
861.374; 2879.963;   -9.832; 6607.881
861.937; 2621.168;  -11.762; 6408.200
862.500; 2589.351;   -9.722; 6572.639
863.062; 2749.527;  -10.512; 6387.297
863.625; 2935.157;  -11.232; 6190.836
864.188; 3102.500;  -14.112; 5807.254
864.751; 3151.282;  -11.302; 5682.413
865.314; 3040.607;  -10.112; 5547.492
865.876; 2850.248;  -12.182; 5500.150
866.439; 2840.765;  -10.722; 5415.909
867.002; 2820.275;   -9.252; 5501.567
867.564; 2618.087;   -9.572; 5413.946
868.127; 2404.778;  -13.142; 5160.325
868.689; 2306.245;  -12.902; 5133.183
869.252; 2238.310;   -9.732; 5252.382
869.814; 2154.845;   -9.432; 5297.141
870.377; 2173.127;  -11.552; 5390.919
870.939; 2248.158;   -9.052; 5599.898
871.501; 2313.152;  -10.982; 5248.336
872.063; 2318.422;  -12.292; 4854.235
872.626; 2273.392;  -14.912; 4817.074
873.188; 2281.071;  -13.112; 4987.732
873.750; 2246.113;  -13.442; 4868.651
874.312; 2143.071;   -9.402; 4779.330
874.874; 2052.111;  -11.062; 4866.348
875.436; 1976.993;  -13.931; 4718.887
875.998; 1986.289;   -9.561; 4660.005
876.560; 2019.045;  -11.321; 4462.964
877.122; 1966.575;  -12.221; 4145.042
877.683; 1863.506;  -12.191; 4056.481
878.245; 1775.321;  -12.101; 3950.740
878.807; 1803.168;   -8.971; 4058.958
879.369; 1828.966;  -12.071; 3954.677
879.930; 1778.561;  -14.621; 3941.495
880.492; 1803.819;  -10.311; 4067.014
881.053; 1880.805;  -10.901; 3859.633
881.615; 1747.992;  -14.411; 3776.071
882.176; 1476.317;  -13.761; 3734.750
882.738; 1165.072;   -9.181; 3678.489
883.299;  920.610;  -11.791; 3405.407
883.860;  813.474;  -13.121; 3351.106
884.422;  822.216;  -11.211; 3394.044
884.983;  853.328;  -10.091; 3166.443
885.544;  861.193;   -8.461; 3189.802
886.105;  866.197;  -12.361; 3160.360
886.666;  860.997;  -14.141; 3093.059
887.227;  844.843;  -11.361; 2941.957
887.788;  811.147;  -11.401; 2974.836
888.349;  771.412;  -13.791; 2721.214
888.910;  778.490;  -13.191; 2696.493
889.471;  796.270;   -9.881; 2560.172
890.032;  792.130;   -9.881; 2558.190
890.593;  773.717;  -10.371; 2567.669
891.153;  750.757;  -13.301; 2460.307
891.714;  710.386;  -11.431; 2372.046
892.275;  682.176;  -11.291; 2309.505
892.835;  652.817;  -11.471; 2382.543
893.396;  603.532;  -11.541; 2295.502
893.956;  549.436;  -11.181; 2162.420
894.517;  513.854;  -11.741; 2125.439
895.077;  506.373;  -11.671; 2086.978
895.638;  507.512;  -11.311; 2126.316
896.198;  479.866;   -9.831; 1838.275
896.758;  440.039;   -8.421; 1892.813
897.319;  408.371;  -12.351; 1792.232
897.879;  393.677;  -13.511; 1762.751
898.439;  369.717;  -12.001; 1661.149
898.999;  345.184;  -10.180; 1781.468
899.559;  336.417;  -12.030; 1703.347
900.119;  332.645;  -15.710; 1537.525
900.679;  330.629;   -8.900; 1638.384
901.239;  317.243;   -8.340; 1527.902
901.799;  306.426;  -13.910; 1456.441
902.359;  300.909;  -13.460; 1357.140
902.919;  294.428;  -11.490; 1331.118
903.479;  281.312;  -12.110; 1317.257
904.038;  259.346;  -11.720; 1262.595
904.598;  243.737;  -13.610; 1152.034
905.158;  239.841;  -11.040; 1240.893
905.717;  233.413;  -10.900; 1233.691
906.277;  222.243;  -15.080; 1217.330
906.836;  214.739;  -13.380; 1222.408
907.396;  206.239;  -10.780; 1193.047
907.955;  199.941;   -8.500; 1182.526
908.515;  193.473;  -12.760; 1099.364
909.074;  187.219;  -11.900; 1092.863
909.633;  180.058;   -8.950; 1069.121
910.192;  174.317;   -8.770; 1196.460
910.752;  167.960;  -12.390; 1029.960
911.311;  162.429;  -13.680; 1009.780
911.870;  158.550;  -12.370;  971.460
912.429;  158.716;  -10.900; 1094.080
912.988;  159.841;  -11.690; 1081.060
913.547;  155.350;  -13.240;  940.380
914.106;  151.292;  -11.990;  999.420
914.665;  148.812;   -9.990;  984.020
915.224;  148.041;  -12.880; 1035.760
915.782;  147.992;  -12.350;  922.560
916.341;  147.799;   -9.110; 1049.840
916.900;  144.625;   -9.270;  925.260
917.458;  142.577;  -13.240;  884.220
918.017;  141.469;  -13.550;  942.600
918.576;  141.590;  -12.320;  904.440
919.134;  139.586;  -11.490;  837.980
919.693;  137.460;  -13.670;  893.060
920.251;  136.613;  -15.470;  876.500
920.809;  134.880;  -11.290;  839.580
921.368;  134.974;  -10.210;  885.360
921.926;  133.355;  -12.140;  842.940
922.484;  131.730;  -13.080;  903.360
923.042;  132.825;  -11.720;  880.340
923.601;  135.160;   -7.480;  998.680
924.159;  133.332;  -11.570;  935.560
924.717;  130.721;  -13.840;  841.080
925.275;  130.663;  -10.640;  903.240
925.833;  130.093;  -11.540;  779.320
926.391;  130.067;  -12.960;  938.380
926.949;  129.368;  -14.130;  857.680
927.506;  130.352;  -11.750;  903.500
928.064;  130.001;  -10.250;  877.580
928.622;  128.880;  -13.030;  880.100
929.180;  128.107;  -13.400;  814.180
929.737;  129.690;  -10.700;  808.540
930.295;  132.949;  -10.070;  928.480
930.853;  134.506;  -11.960;  849.100
931.410;  134.572;  -13.120;  821.120
931.968;  134.896;  -10.770;  940.660
932.525;  133.968;  -10.680;  909.380
933.082;  134.323;  -13.130;  811.440
933.640;  136.233;  -13.210;  925.900
934.197;  134.253;  -11.060;  886.360
934.754;  134.873;   -9.580;  897.780
935.312;  136.682;  -14.000;  863.340
935.869;  140.984;  -10.710; 1012.980
936.426;  142.165;   -9.860;  872.800
936.983;  142.633;   -9.710;  889.020
937.540;  141.658;  -13.990;  838.280
938.097;  141.414;  -14.040;  940.120
938.654;  142.389;  -10.310;  898.860
939.211;  144.532;  -10.560;  952.480
939.768;  148.514;  -13.900;  915.420
940.324;  151.387;  -14.760;  904.200
940.881;  151.077;  -10.370;  878.500
941.438;  152.548;   -8.260; 1021.200
941.995;  148.498;  -12.540;  992.560
942.551;  145.928;  -14.670;  875.620
943.108;  146.552;  -10.450;  937.920
943.664;  148.801;  -10.750;  869.340
944.221;  150.688;  -11.550; 1088.140
944.777;  149.359;  -14.770;  869.680
945.334;  149.562;  -12.820;  884.840
945.890;  152.166;  -10.130;  946.480
946.446;  152.360;  -13.470;  947.020
947.003;  154.049;  -12.120;  964.940
947.559;  156.430;   -9.980; 1063.040
948.115;  155.554;   -9.080; 1026.540
948.671;  153.157;  -10.830;  967.300
949.227;  149.862;  -12.440;  859.560
949.783;  149.125;  -12.910;  858.900
950.339;  149.220;  -10.270;  991.000
950.895;  149.563;  -13.630; 1023.840
951.451;  148.739;  -15.100;  925.280
952.007;  150.675;  -11.330;  998.540
952.563;  151.253;  -10.580;  937.780
953.118;  150.090;  -13.440;  904.940
953.674;  150.193;  -12.710;  935.780
954.230;  149.972;  -10.350;  949.640
954.785;  147.488;   -9.190;  936.640
955.341;  145.055;  -11.200;  998.160
955.897;  142.714;  -16.560;  834.660
956.452;  144.031;  -12.570;  953.840
957.008;  143.154;   -7.970; 1083.640
957.563;  141.078;  -11.940; 1009.540
958.118;  136.463;  -13.450;  877.700
958.674;  137.542;  -12.030;  946.780
959.229;  137.852;   -9.410; 1013.980
959.784;  135.957;  -12.000;  832.400
960.339;  134.867;  -14.780; 1001.280
960.894;  132.033;   -9.860;  963.760
961.449;  127.919;   -9.970;  859.960
962.004;  128.244;  -10.900; 1212.840
962.559;  123.164;  -13.150;  860.140
963.114;  120.610;  -13.740;  742.480
963.669;  121.015;   -9.820;  915.500
964.224;  119.064;  -13.890;  874.340
964.779;  118.611;  -12.600;  828.420
965.334;  119.820;  -10.950; 1017.860
965.888;  118.841;  -11.170;  875.360
966.443;  120.798;  -12.540;  972.380
966.998;  120.147;  -15.780;  819.460
967.552;  120.157;   -9.760;  908.380
968.107;  116.267;   -9.060;  868.300
968.661;  116.662;  -11.950;  922.440
969.216;  117.260;  -12.800;  856.280
969.770;  118.419;  -11.210;  917.200
970.324;  116.739;  -11.610;  923.140
970.879;  114.093;  -11.370;  947.180
971.433;  110.905;  -12.540;  952.720
971.987;  106.229;  -11.320;  895.340
972.541;  103.178;  -10.720;  917.100
973.095;  102.572;   -9.680; 1009.460
973.649;  100.839;  -11.440;  809.480
974.203;  100.162;  -11.210;  829.040
974.757;  100.040;  -10.240;  855.220
975.311;  100.194;  -13.720;  872.600
975.865;   98.962;  -13.770;  881.820
976.419;   97.773;  -11.690;  857.400
976.973;   97.920;   -9.510;  849.620
977.526;  100.102;  -12.620;  949.920
978.080;   99.010;  -12.010;  796.780
978.634;  100.444;  -10.170;  921.320
979.187;   98.638;   -9.020;  905.400
979.741;   95.059;   -9.820; 1018.380
980.294;   90.766;  -14.870;  789.160
980.848;   88.866;  -12.380;  717.220
981.401;   90.144;  -10.350;  816.540
981.955;   92.399;  -13.720;  844.300
982.508;   92.012;  -11.490;  746.340
983.061;   91.554;  -10.000;  915.260
983.615;   87.577;  -11.480;  798.800
984.168;   83.889;  -13.220;  770.080
984.721;   83.832;  -13.960;  880.760
985.274;   83.878;  -10.870;  867.500
985.827;   81.771;   -9.790;  834.220
986.380;   78.909;  -13.120;  721.340
986.933;   79.145;  -12.450;  864.800
987.486;   77.348;  -10.210;  861.920
988.039;   76.461;   -8.430;  863.100
988.591;   73.604;  -10.520;  893.260
989.144;   71.535;  -14.860;  737.260
989.697;   71.199;  -13.080;  758.740
990.250;   72.364;  -10.150;  858.100
990.802;   70.647;  -13.430;  755.860
991.355;   71.787;  -12.750;  974.880
991.907;   69.507;  -12.040;  864.320
992.460;   67.227;  -11.330;  753.760
993.012;   66.403;  -13.610;  749.540
993.565;   64.876;  -13.460;  711.360
994.117;   67.724;   -9.360;  950.780
994.669;   63.351;  -11.300;  701.320
995.221;   60.933;  -13.540;  791.920
995.774;   59.945;  -13.430;  787.580
996.326;   57.972;  -12.520;  740.220
996.878;   58.139;  -10.950;  838.420
997.430;   56.210;  -14.300;  699.860
997.982;   55.093;  -13.760;  750.140
998.534;   54.286;  -11.530;  739.060
999.086;   52.930;  -10.310;  738.220
999.638;   51.630;  -12.530;  661.380
1000.190;   50.703;  -11.840;  699.320
1000.741;   51.292;  -10.260;  742.700
1001.293;   50.780;   -8.860;  686.020
1001.845;   48.327;  -13.700;  676.640
1002.396;   49.391;  -12.100;  743.400
1002.948;   49.037;  -12.760;  737.400
1003.500;   46.889;  -10.380;  723.780
1004.051;   47.785;  -11.900;  907.580
1004.603;   45.501;  -12.250;  791.820
1005.154;   42.711;  -13.210;  608.980
1005.705;   41.635;  -10.950;  723.960
1006.257;   40.626;  -13.880;  707.220
1006.808;   40.071;  -12.840;  685.460
1007.359;   40.314;  -10.570;  763.240
1007.910;   39.170;   -9.620;  646.640
1008.461;   38.380;  -13.630;  732.940
1009.013;   37.197;  -17.200;  588.340
1009.564;   38.808;  -10.200;  793.520
1010.115;   36.744;  -12.570;  597.040
1010.665;   35.792;  -15.150;  602.160
1011.216;   36.719;  -14.480;  667.920
1011.767;   36.460;  -11.340;  697.920
1012.318;   36.400;   -9.780;  736.980
1012.869;   34.685;  -12.380;  679.000
1013.419;   34.423;  -15.560;  603.120
1013.970;   34.787;  -11.010;  666.640
1014.521;   33.924;  -11.610;  620.620
1015.071;   34.318;  -13.450;  670.380
1015.622;   33.517;  -13.870;  635.460
1016.172;   33.757;  -11.610;  596.820
1016.723;   33.129;  -12.120;  614.380
1017.273;   32.511;  -13.620;  604.160
1017.823;   32.709;  -14.140;  650.340
1018.374;   32.422;  -12.800;  611.760
1018.924;   32.711;  -12.340;  716.880
1019.474;   31.800;  -11.410;  718.880
1020.024;   31.257;  -14.770;  657.580
1020.574;   31.798;   -9.780;  726.160
1021.124;   32.130;   -8.560;  673.580
1021.674;   30.905;  -15.190;  559.120
1022.224;   32.123;  -13.530;  708.940
1022.774;   31.096;  -13.280;  668.820
1023.324;   31.344;  -10.690;  753.520
1023.874;   32.805;  -10.240;  875.760
1024.423;   30.439;  -12.540;  613.700
1024.973;   30.361;  -10.010;  610.760
1025.523;   29.676;  -10.550;  620.960
1026.072;   28.782;  -13.560;  606.420
1026.622;   28.444;  -15.120;  675.740
1027.172;   29.932;  -11.260;  715.660
1027.721;   28.837;  -11.410;  601.220
1028.270;   28.982;  -13.530;  663.400
1028.820;   28.610;  -13.680;  638.080
1029.369;   28.797;  -13.520;  612.700
1029.918;   28.877;  -10.980;  649.840
1030.468;   27.634;  -13.530;  564.780
1031.017;   28.377;  -13.170;  634.800
1031.566;   27.204;  -12.200;  608.900
1032.115;   27.472;   -9.960;  694.500
1032.664;   25.934;  -13.210;  596.480
1033.213;   28.049;  -12.500;  735.420
1033.762;   27.363;  -11.910;  635.620
1034.311;   26.686;   -9.640;  677.220
1034.860;   26.579;  -13.310;  691.000
1035.408;   27.394;  -11.830;  722.720
1035.957;   27.523;  -12.000;  719.540
1036.506;   25.450;  -11.690;  530.800
1037.055;   27.078;  -10.990;  844.320
1037.603;   26.026;  -15.120;  664.000
1038.152;   24.176;  -12.450;  534.760
1038.700;   24.960;  -10.560;  585.740
1039.249;   24.373;  -11.080;  681.220
1039.797;   24.790;  -12.540;  633.360
1040.345;   24.205;  -11.920;  705.420
1040.894;   24.523;  -11.410;  625.300
1041.442;   24.245;  -14.320;  632.200
1041.990;   23.184;  -16.240;  559.160
1042.538;   23.559;  -11.680;  536.180
1043.087;   22.545;  -10.760;  570.860
1043.635;   24.008;  -11.850;  670.500
1044.183;   22.701;  -15.480;  586.400
1044.731;   23.136;  -11.770;  576.000
1045.279;   22.560;  -13.090;  674.920
1045.827;   24.664;  -12.440;  892.400
1046.374;   22.197;  -13.840;  515.420
1046.922;   22.041;  -13.220;  590.580
1047.470;   23.162;  -10.230;  691.300
1048.018;   22.196;  -14.590;  647.960
1048.565;   22.780;  -12.050;  708.600
1049.113;   21.759;  -11.650;  557.000
1049.660;   21.802;  -10.510;  629.660
1050.208;   21.637;  -13.310;  675.640
1050.755;   20.599;  -15.900;  606.580
1051.303;   22.158;  -11.430;  686.820
1051.850;   20.803;   -8.480;  635.120
1052.397;   19.394;  -15.010;  473.960
1052.945;   20.203;  -13.960;  617.760
1053.492;   22.144;  -13.150;  741.840
1054.039;   21.254;   -9.630;  720.180
1054.586;   19.643;  -13.680;  557.240
1055.133;   20.823;  -14.570;  693.140
1055.680;   20.539;  -13.820;  646.620
1056.227;   19.187;  -11.730;  542.780
1056.774;   20.204;  -12.480;  794.980
1057.321;   19.083;  -13.930;  523.260
1057.868;   19.672;  -11.690;  651.320
1058.415;   19.442;   -9.520;  651.980
1058.961;   19.064;  -13.160;  678.940
1059.508;   19.115;  -12.920;  643.820
1060.055;   19.074;  -11.920;  581.780
1060.601;   19.366;  -11.500;  624.300
1061.148;   18.840;  -14.330;  616.820
1061.694;   17.685;  -16.870;  592.580
1062.241;   18.312;  -10.330;  596.320
1062.787;   18.223;  -10.620;  663.140
1063.334;   19.673;  -10.110;  808.560
1063.880;   18.731;  -13.400;  668.360
1064.426;   18.492;  -10.680;  706.820
1064.972;   17.180;   -9.920;  601.340
1065.518;   16.380;  -10.980;  566.640
1066.065;   17.827;  -14.890;  624.460
1066.611;   17.665;  -12.870;  598.800
1067.157;   18.086;  -12.950;  641.860
1067.703;   17.092;  -13.540;  668.480
1068.249;   17.727;  -13.540;  605.220
1068.794;   17.136;  -12.600;  626.880
1069.340;   16.215;  -10.620;  578.960
1069.886;   16.580;  -12.830;  590.700
1070.432;   15.369;  -14.870;  541.720
1070.977;   16.258;  -11.980;  601.080
1071.523;   16.092;   -8.200;  573.060
1072.068;   16.015;  -12.330;  582.000
1072.614;   15.759;  -16.370;  527.760
1073.160;   16.846;  -11.100;  687.040
1073.705;   14.996;  -10.480;  572.520
1074.250;   15.045;  -14.520;  559.900
1074.796;   16.214;  -11.460;  655.160
1075.341;   16.105;  -11.950;  664.100
1075.886;   15.650;  -11.460;  594.240
1076.431;   14.730;  -13.770;  649.880
1076.976;   15.072;  -12.680;  639.220
1077.521;   14.720;  -13.170;  583.080
1078.067;   13.660;  -10.860;  579.400
1078.612;   14.460;  -13.920;  661.620
1079.156;   14.569;  -13.880;  601.540
1079.701;   15.380;  -13.120;  693.260
1080.246;   14.845;   -9.940;  696.300
1080.791;   13.997;  -14.740;  625.020
1081.336;   14.804;  -13.750;  659.320
1081.880;   14.548;  -13.400;  649.680
1082.425;   13.296;  -12.220;  573.480
1082.970;   14.514;  -11.610;  717.040
1083.514;   13.653;  -13.580;  597.000
1084.059;   12.417;  -12.810;  586.720
1084.603;   13.010;  -12.320;  565.840
1085.147;   12.941;  -13.190;  645.220
1085.692;   13.928;  -12.480;  716.800
1086.236;   12.263;  -13.020;  503.140
1086.780;   14.465;   -9.190;  751.440
1087.325;   12.650;  -12.480;  654.620
1087.869;   13.686;  -12.450;  610.700
1088.413;   13.479;  -12.240;  705.040
1088.957;   11.270;   -9.020;  543.400
1089.501;   13.219;  -10.320;  766.640
1090.045;   12.483;  -12.720;  726.480
1090.589;   10.827;  -13.690;  569.920
1091.133;   12.232;  -10.020;  673.340
1091.676;   12.387;  -12.330;  591.940
1092.220;   11.694;  -14.970;  600.920
1092.764;   12.581;  -12.430;  706.960
1093.307;   12.507;   -9.800;  673.780
1093.851;   10.344;  -14.970;  556.540
1094.395;   11.918;  -15.310;  683.140
1094.938;   10.999;  -10.370;  632.520
1095.482;   10.580;  -11.050;  559.800
1096.025;   11.088;  -11.840;  710.880
1096.568;   11.609;  -12.840;  779.280
1097.112;    9.903;  -14.700;  508.180
1097.655;   10.868;   -8.720;  603.000
1098.198;    9.316;  -13.610;  600.180
1098.741;    9.891;  -13.350;  612.860
1099.285;   11.123;  -11.230;  657.300
1099.828;    8.790;  -11.840;  439.400
1100.371;    9.997;  -10.840;  608.160
1100.914;   10.731;  -14.190;  682.660
1101.457;   10.324;  -11.240;  679.900
1101.999;    9.069;  -11.270;  584.680
1102.542;    9.450;  -11.480;  641.440
1103.085;    9.344;  -11.750;  658.500
1103.628;   10.119;  -11.400;  762.060
1104.170;    9.440;  -10.490;  588.280
1104.713;    8.686;  -10.600;  646.700
1105.256;    8.533;  -14.360;  557.440
1105.798;    7.601;  -13.210;  499.980
1106.341;   10.488;  -10.270;  728.900
1106.883;    8.089;  -12.200;  521.340
1107.425;    8.763;  -13.110;  668.180
1107.968;    8.759;  -12.840;  612.380
1108.510;    9.427;   -6.480;  684.960
1109.052;    7.064;  -13.940;  612.620
1109.594;    7.369;  -13.690;  554.440
1110.136;    8.752;  -11.880;  643.220
1110.679;    7.243;   -9.500;  633.080
1111.221;    7.804;  -14.160;  604.460
1111.763;    7.407;  -13.980;  559.220
1112.304;    7.457;  -13.880;  547.140
1112.846;    8.003;  -12.210;  666.240
1113.388;   10.157;  -11.390;  942.180
1113.930;    7.715;  -14.540;  694.200
1114.472;    6.762;  -12.640;  606.540
1115.013;    5.699;  -11.620;  551.280
1115.555;    6.105;  -13.640;  587.100
1116.097;    6.551;  -15.380;  579.480
1116.638;    6.903;  -12.640;  684.600
1117.180;    7.053;   -9.850;  667.740
1117.721;    6.254;  -13.690;  568.580
1118.262;    7.953;  -12.680;  677.960
1118.804;    7.293;  -12.530;  637.340
1119.345;    5.735;  -11.690;  578.400
1119.886;    6.996;  -13.380;  704.040
1120.427;    5.275;  -14.070;  589.020
1120.969;    6.100;  -13.500;  597.920
1121.510;    4.987;  -11.480;  563.060
1122.051;    5.482;  -12.830;  723.580
1122.592;    5.268;  -14.290;  655.420
1123.133;    5.236;  -12.400;  547.940
1123.673;    6.620;  -10.130;  706.480
1124.214;    5.445;  -12.930;  612.460
1124.755;    6.200;  -14.380;  639.460
1125.296;    6.067;  -14.000;  627.320
1125.836;    6.221;  -10.070;  691.500
1126.377;    4.602;  -12.640;  599.660
1126.918;    5.589;  -12.960;  614.980
1127.458;    5.103;  -13.350;  622.220
1127.999;    6.254;  -10.750;  656.980
1128.539;    5.291;  -12.350;  694.240
1129.079;    4.487;  -14.860;  632.720
1129.620;    4.502;  -13.840;  558.100
1130.160;    4.005;  -12.330;  539.480
1130.700;    4.971;  -14.530;  640.840
1131.240;    5.012;  -12.530;  643.700
1131.781;    4.322;  -14.450;  619.680
1132.321;    4.035;   -9.790;  599.120
1132.861;    3.088;  -14.860;  564.200
1133.401;    2.898;  -14.290;  593.940
1133.941;    4.580;  -11.750;  626.280
1134.481;    3.239;   -9.920;  597.580
1135.020;    3.094;  -12.290;  609.160
1135.560;    3.775;  -11.650;  674.940
1136.100;    3.128;  -16.270;  501.160
1136.640;    2.527;  -10.890;  510.480
1137.179;    2.504;  -14.180;  537.960
1137.719;    3.025;  -16.250;  605.400
1138.258;    3.007;  -14.230;  587.360
1138.798;    4.023;   -9.090;  663.780
1139.337;    2.205;  -15.130;  482.840
1139.877;    2.751;  -13.680;  642.360
1140.416;    5.487;  -11.320;  878.060
1140.955;    1.475;  -10.860;  535.380
1141.494;    2.595;  -12.920;  669.280
1142.034;    2.379;  -13.930;  583.520
1142.573;    2.555;  -11.440;  646.280
1143.112;    2.709;  -12.000;  553.480
1143.651;    1.676;  -13.670;  536.480
1144.190;    3.411;  -12.730;  691.640
1144.729;    2.557;  -14.560;  607.420
1145.267;    2.269;  -11.830;  584.900
1145.806;    2.728;  -12.230;  637.040
1146.345;    1.848;  -14.130;  635.020
1146.884;    2.061;  -11.590;  622.500
1147.422;    1.414;  -12.550;  533.060
1147.961;    2.496;  -11.180;  708.460
1148.500;    1.682;  -11.510;  669.720
1149.038;    3.170;  -11.640;  632.500
1149.577;    2.502;  -10.130;  698.640
1150.115;   -0.179;  -13.970;  452.280
1150.653;    1.200;  -14.520;  607.340
1151.192;    1.637;  -12.810;  552.920
1151.730;    1.307;   -9.100;  652.560
1152.268;    0.755;  -12.220;  589.520
1152.806;    1.023;  -14.140;  571.180
1153.344;   -0.185;  -12.350;  577.640
1153.882;    0.617;   -8.980;  600.060
1154.421;   -0.151;  -15.190;  470.620
1154.958;   -0.127;  -15.210;  595.240
1155.496;    1.356;  -12.850;  645.280
1156.034;    1.325;   -9.940;  721.880
1156.572;    2.371;  -13.570;  667.060
1157.110;    0.184;  -14.590;  473.940
1157.647;    1.006;  -13.030;  676.960
1158.185;   -0.774;  -12.140;  564.320
1158.723;   -0.869;  -14.390;  509.200
1159.260;    0.383;  -14.090;  701.700
1159.798;    1.577;  -11.920;  658.160
1160.335;   -0.192;  -11.110;  631.820

