
Integration time [ms]:   3.276
Averaging Nr. [scans]: 1000
Smoothing Nr. [pixels]: 0
Data measured with spectrometer [name]: 7414430SP
Wave   ;Sample   ;Dark     ;Reference
[nm]   ;[counts] ;[counts] ;[counts] 

288.544;  151.107;    7.793;  793.890
289.143;  154.735;    7.462;  681.602
289.742;  153.892;    8.602;  828.814
290.341;  139.632;    1.321;  789.841
290.940;  129.259;   -0.709;  730.702
291.538;  130.167;    0.881;  881.108
292.137;  129.900;    0.122;  792.581
292.736;  134.363;   -1.929;  975.101
293.335;  132.054;   -8.229;  735.086
293.934;  131.462;   -5.279;  781.677
294.532;  130.197;   -1.369; 1031.958
295.131;  116.330;   -7.641;  834.394
295.730;  116.319;   -8.420;  809.588
296.328;  115.267;   -5.611;  783.442
296.927;  116.094;   -5.781;  779.652
297.525;  117.154;   -6.361;  781.236
298.124;  107.304;  -11.382;  654.009
298.722;  111.376;   -7.641;  761.933
299.321;  108.266;   -6.811;  708.597
299.919;  106.818;   -6.991;  751.918
300.518;  103.949;  -10.362;  689.338
301.116;  106.062;   -9.581;  691.381
301.715;  105.078;   -4.891;  730.222
302.313;  104.281;   -8.801;  704.943
302.911;  100.036;   -8.522;  733.830
303.509;  105.023;   -6.171;  925.627
304.108;  102.205;   -7.311;  760.383
304.706;  102.209;   -8.321;  801.664
305.304;   96.349;  -10.222;  796.707
305.902;  101.530;   -6.021;  784.484
306.500;   97.867;   -4.971;  728.200
307.098;   96.123;   -7.061;  746.560
307.696;   93.342;   -8.801;  780.432
308.294;   94.372;   -6.411;  731.359
308.892;   95.169;   -2.901;  759.769
309.490;   92.832;   -5.041;  712.161
310.088;   90.969;   -5.002;  788.444
310.686;   94.724;   -2.041;  821.749
311.284;   90.863;   -2.351;  766.040
311.882;   88.777;   -4.422;  731.225
312.480;   85.887;   -4.192;  697.167
313.078;   86.604;   -1.172;  808.331
313.675;   87.316;   -2.601;  691.600
314.273;   82.855;   -1.312;  797.837
314.871;   82.678;   -3.942;  589.829
315.468;   79.812;   -2.802;  652.090
316.066;   82.421;   -0.701;  694.427
316.664;   75.388;   -4.362;  656.351
317.261;   79.716;   -2.872;  910.128
317.859;   75.196;   -2.022;  768.735
318.456;   75.628;   -0.531;  830.096
319.054;   71.530;   -3.912;  787.828
319.651;   70.635;   -4.752;  759.928
320.249;   70.081;   -2.602;  810.188
320.846;   66.904;   -0.821;  714.286
321.443;   65.282;   -4.642;  832.135
322.041;   61.699;   -5.002;  812.315
322.638;   59.452;   -3.982;  701.456
323.235;   60.459;   -3.411;  665.683
323.833;   58.342;   -7.361;  740.354
324.430;   53.410;   -8.611;  615.900
325.027;   53.788;   -4.061;  876.855
325.624;   53.371;   -4.031;  644.532
326.221;   50.986;   -7.481;  689.717
326.818;   51.079;   -5.281;  818.332
327.415;   53.468;   -7.460;  748.828
328.012;   53.359;   -5.510;  690.585
328.609;   51.286;   -7.880;  731.389
329.206;   50.244;   -8.331;  778.621
329.803;   49.150;   -5.121;  737.841
330.400;   52.597;   -4.510;  704.260
330.997;   54.322;   -6.441;  817.147
331.594;   52.991;   -8.831;  788.185
332.191;   58.159;   -7.621;  728.722
332.787;   60.449;   -4.591;  844.463
333.384;   59.399;   -7.412;  763.093
333.981;   58.728;   -8.293;  815.687
334.578;   60.677;   -7.052;  708.378
335.174;   63.918;   -3.102;  731.469
335.771;   63.158;   -5.943;  836.456
336.367;   60.497;   -7.393;  710.631
336.964;   63.676;   -4.063;  793.266
337.561;   61.836;   -3.813;  731.112
338.157;   58.207;   -4.654;  911.916
338.754;   54.735;   -7.934;  796.589
339.350;   53.241;   -4.414;  722.493
339.946;   55.509;   -4.664;  773.135
340.543;   48.170;   -6.375;  846.136
341.139;   41.856;   -9.815;  720.836
341.735;   39.276;   -4.526;  772.593
342.332;   37.505;   -4.895;  691.472
342.928;   38.753;   -4.295;  795.394
343.524;   32.233;   -5.476;  761.684
344.120;   29.409;   -5.856;  738.562
344.716;   32.077;   -2.155;  723.717
345.313;   30.016;   -6.275;  795.342
345.909;   25.096;   -8.815;  627.336
346.505;   26.004;   -5.305;  740.247
347.101;   26.697;   -2.674;  827.864
347.697;   27.606;   -4.344;  785.398
348.293;   22.453;   -9.975;  627.244
348.889;   22.299;   -5.774;  745.914
349.485;   21.453;   -5.004;  688.205
350.081;   22.704;   -4.704;  772.592
350.676;   18.334;   -6.635;  691.606
351.272;   21.731;   -4.504;  809.530
351.868;   21.860;   -3.914;  780.497
352.464;   19.323;   -9.044;  723.932
353.059;   15.208;   -8.314;  646.017
353.655;   18.170;   -7.024;  777.063
354.251;   20.168;   -5.343;  759.845
354.846;   14.342;   -8.604;  740.646
355.442;   12.295;   -6.945;  753.071
356.038;   14.185;   -7.564;  751.708
356.633;   14.221;   -5.814;  728.594
357.229;   11.769;   -7.364;  724.757
357.824;   10.458;   -8.024;  703.600
358.420;    8.780;   -9.384;  679.726
359.015;    9.681;   -5.104;  695.357
359.610;   10.684;   -6.854;  763.920
360.206;    4.838;  -10.185;  603.240
360.801;    7.542;   -7.054;  646.503
361.396;   10.171;   -5.034;  725.975
361.992;    4.630;   -8.284;  668.220
362.587;    2.274;   -8.625;  670.160
363.182;    4.449;   -7.674;  689.631
363.777;    5.335;   -5.164;  738.242
364.372;    5.862;   -8.604;  737.314
364.967;    1.282;   -9.055;  680.744
365.563;    5.816;   -6.114;  815.567
366.158;    2.238;   -5.814;  685.161
366.753;    2.771;   -7.854;  649.263
367.348;    1.286;   -7.804;  746.056
367.942;    0.998;   -7.954;  697.298
368.537;    0.511;   -4.984;  754.245
369.132;    0.894;   -8.564;  703.428
369.727;   -2.715;   -8.855;  638.079
370.322;   -1.712;   -6.245;  580.186
370.917;   -2.253;   -6.425;  710.646
371.511;    0.358;   -6.294;  861.834
372.106;   -2.757;   -7.685;  776.964
372.701;   -6.660;   -7.335;  585.988
373.296;   -1.091;   -4.564;  863.135
373.890;   -5.661;  -10.235;  647.840
374.485;   -7.973;   -7.885;  691.199
375.079;   -3.663;   -7.324;  738.685
375.674;   -2.757;   -3.494;  812.970
376.268;   -6.347;   -8.525;  691.759
376.863;  -12.027;  -10.086;  580.327
377.457;   -6.142;   -7.025;  662.490
378.052;   -8.482;   -3.585;  764.884
378.646;   -8.932;   -7.595;  741.167
379.240;   -8.777;   -8.335;  721.176
379.835;   -8.890;   -5.785;  636.978
380.429;  -10.460;   -4.335;  562.557
381.023;  -11.025;   -6.805;  779.205
381.617;  -12.009;   -9.195;  680.106
382.212;  -10.124;   -6.905;  685.303
382.806;   -9.327;   -3.745;  760.690
383.400;  -12.670;   -7.745;  672.281
383.994;  -13.597;   -9.765;  664.870
384.588;   -9.922;   -6.564;  697.701
385.182;   -8.847;   -5.344;  726.624
385.776;   -9.604;   -8.514;  706.875
386.370;  -13.100;   -9.555;  681.968
386.964;  -12.392;   -8.715;  684.155
387.558;  -10.255;   -6.174;  598.360
388.152;  -14.580;   -8.725;  681.959
388.745;  -12.428;   -7.965;  814.707
389.339;  -10.094;   -5.924;  747.642
389.933;   -9.695;   -5.524;  695.370
390.527;  -10.142;   -7.114;  859.029
391.120;  -17.099;  -10.725;  595.318
391.714;  -13.865;   -8.035;  711.633
392.308;  -10.745;   -3.574;  780.253
392.901;  -14.672;   -7.245;  642.460
393.495;  -16.223;   -9.285;  595.414
394.089;  -14.018;   -5.895;  760.452
394.682;  -14.817;   -4.295;  697.188
395.275;  -15.272;   -9.875;  719.927
395.869;  -16.480;   -8.485;  667.314
396.462;  -15.459;   -7.455;  616.609
397.056;  -12.026;   -5.424;  776.621
397.649;  -15.809;   -6.605;  731.575
398.242;  -13.193;   -8.224;  712.645
398.836;  -12.760;   -7.474;  766.408
399.429;  -13.220;   -7.094;  631.041
400.022;  -16.661;   -9.475;  665.902
400.615;  -14.590;   -7.145;  805.609
401.208;  -12.475;   -7.174;  691.451
401.802;  -15.107;   -5.515;  699.329
402.395;  -17.472;   -9.875;  683.502
402.988;  -17.366;   -8.845;  696.627
403.581;  -13.712;   -8.874;  646.878
404.174;  -11.468;   -5.324;  686.568
404.767;  -14.617;   -9.575;  638.583
405.360;  -16.917;  -10.965;  621.445
405.953;  -12.284;   -8.764;  759.034
406.545;  -11.366;   -7.514;  725.342
407.138;  -15.259;  -10.025;  618.350
407.731;  -13.314;  -10.034;  613.303
408.324;  -10.590;   -9.374;  660.554
408.917;  -11.137;   -6.534;  681.864
409.509;  -12.604;   -8.004;  740.396
410.102;  -15.155;   -9.875;  643.948
410.695;   -8.647;   -8.604;  665.758
411.287;   -9.352;   -6.794;  599.821
411.880;  -11.727;   -9.334;  585.421
412.472;  -13.545;  -10.254;  613.092
413.065;  -11.403;   -6.714;  629.408
413.657;   -8.998;   -7.234;  576.678
414.250;   -8.660;  -10.544;  646.681
414.842;  -11.579;   -9.744;  676.353
415.434;   -8.904;   -6.994;  570.463
416.027;   -5.108;   -5.893;  652.196
416.619;   -6.571;   -7.264;  713.400
417.211;   -6.517;  -10.374;  599.352
417.804;   -3.746;   -7.993;  628.499
418.396;   -7.557;   -7.234;  607.643
418.988;   -5.875;   -9.443;  659.238
419.580;   -9.177;  -10.724;  568.276
420.172;   -6.271;  -10.323;  536.196
420.764;   -2.711;   -8.793;  672.482
421.356;   -3.110;  -11.143;  636.898
421.948;   -4.205;   -8.293;  677.661
422.540;    0.473;   -7.893;  680.027
423.132;   -0.555;   -7.082;  600.641
423.724;   -3.529;   -8.653;  561.267
424.316;   -1.690;  -10.213;  621.345
424.908;    1.974;   -9.762;  591.517
425.500;    2.817;   -5.572;  647.978
426.092;    3.442;   -8.422;  648.268
426.683;    2.765;   -9.283;  684.836
427.275;    5.077;   -7.852;  641.471
427.867;    6.088;   -5.272;  668.948
428.458;    7.104;   -7.682;  732.344
429.050;    5.361;  -10.612;  680.749
429.642;    7.861;   -9.882;  743.124
430.233;    7.629;   -6.962;  569.356
430.825;    9.339;   -6.842;  724.809
431.416;    6.655;   -9.672;  698.241
432.008;   10.493;   -6.552;  651.723
432.599;   10.620;   -6.891;  656.073
433.190;    8.101;  -10.912;  637.670
433.782;    7.276;  -11.172;  590.395
434.373;   14.358;   -6.061;  884.765
434.964;   13.702;   -8.251;  602.920
435.556;   11.054;   -9.722;  634.537
436.147;   13.765;   -9.082;  758.490
436.738;   14.227;   -8.041;  701.099
437.329;   19.152;   -7.341;  721.723
437.920;   12.334;   -8.162;  666.688
438.511;   12.079;  -11.802;  564.526
439.103;   18.331;  -10.191;  623.998
439.694;   20.671;   -7.601;  681.583
440.285;   21.313;   -8.541;  764.432
440.876;   19.784;   -9.751;  845.738
441.466;   18.825;   -9.401;  575.162
442.057;   24.227;   -7.760;  665.814
442.648;   22.648;   -9.971;  746.255
443.239;   21.272;  -11.001;  620.477
443.830;   26.383;   -7.990;  704.958
444.421;   27.945;   -7.910;  655.474
445.011;   25.119;   -8.131;  693.619
445.602;   23.969;   -7.111;  743.126
446.193;   25.135;  -10.920;  488.117
446.783;   30.364;   -6.500;  640.397
447.374;   25.251;   -8.671;  692.759
447.964;   26.209;  -10.781;  713.770
448.555;   34.124;   -9.650;  822.742
449.145;   31.737;   -8.660;  662.853
449.736;   32.555;   -8.990;  803.179
450.326;   32.183;   -9.500;  713.626
450.917;   37.264;   -8.680;  675.324
451.507;   35.665;   -7.520;  600.661
452.097;   36.468;   -8.590;  746.267
452.688;   38.044;  -11.340;  742.160
453.278;   37.730;  -10.100;  566.840
453.868;   42.916;   -6.019;  793.550
454.458;   40.153;   -9.440;  651.141
455.048;   40.781;  -10.560;  711.783
455.639;   41.864;  -11.799;  567.096
456.229;   45.422;   -6.899;  710.694
456.819;   46.713;   -7.389;  751.158
457.409;   47.661;  -11.119;  773.993
457.999;   49.877;   -9.289;  737.505
458.589;   50.261;   -6.139;  686.606
459.179;   50.497;   -8.729;  717.658
459.769;   48.209;   -9.789;  627.099
460.358;   52.841;  -10.259;  797.262
460.948;   52.619;   -7.299;  689.503
461.538;   54.354;  -10.289;  660.677
462.128;   52.904;  -11.269;  664.934
462.717;   59.035;   -9.368;  710.326
463.307;   61.945;   -7.908;  705.846
463.897;   58.128;   -9.599;  656.942
464.486;   57.419;   -9.769;  837.128
465.076;   61.523;   -8.048;  733.776
465.666;   65.877;   -9.358;  652.900
466.255;   62.974;   -7.919;  785.651
466.845;   62.004;  -11.689;  666.749
467.434;   64.623;   -7.818;  725.873
468.023;   65.974;   -7.678;  658.357
468.613;   64.129;  -10.939;  713.946
469.202;   68.180;  -10.118;  646.507
469.791;   71.167;   -9.108;  737.811
470.381;   73.782;   -6.058;  742.813
470.970;   73.837;  -10.428;  711.099
471.559;   73.648;  -10.268;  733.291
472.148;   76.377;   -8.448;  675.737
472.738;   79.040;   -6.917;  765.466
473.327;   78.437;  -11.978;  637.529
473.916;   77.775;  -11.888;  737.446
474.505;   81.108;   -9.437;  751.703
475.094;   85.201;   -6.747;  806.570
475.683;   84.274;   -9.367;  797.699
476.272;   86.354;  -12.637;  730.632
476.861;   88.091;  -10.027;  706.754
477.449;   95.222;   -8.716;  728.487
478.038;   89.302;   -9.577;  692.513
478.627;   90.275;   -9.718;  714.852
479.216;   97.075;   -8.947;  769.441
479.805;   99.917;   -6.256;  783.375
480.393;   98.896;   -7.937; 1008.945
480.982;   98.349;   -7.717;  874.501
481.571;  104.475;   -9.266;  858.333
482.159;  104.869;   -7.636;  705.386
482.748;  106.103;   -9.667;  821.385
483.336;  109.832;  -10.376;  858.209
483.925;  110.806;   -7.147;  774.373
484.513;  117.351;   -7.996;  758.962
485.102;  113.627;  -10.027;  810.965
485.690;  122.647;  -10.446; 1011.050
486.278;  124.202;   -8.446;  979.329
486.867;  124.501;   -6.356;  809.662
487.455;  126.260;   -9.136;  898.229
488.043;  127.346;  -10.646;  748.361
488.631;  136.875;   -7.456; 1005.079
489.220;  140.648;   -6.636;  908.626
489.808;  140.707;  -11.036;  741.415
490.396;  148.072;  -10.246;  914.645
490.984;  154.103;   -8.556;  830.161
491.572;  164.907;   -5.886;  940.315
492.160;  169.775;   -9.486;  919.081
492.748;  182.355;  -10.976;  884.341
493.336;  205.639;   -8.776; 1019.693
493.924;  232.086;   -5.465;  958.077
494.512;  260.822;   -9.986; 1066.638
495.100;  296.344;  -10.636; 1103.280
495.687;  349.282;  -10.885; 1206.373
496.275;  408.678;   -8.126; 1150.796
496.863;  473.706;  -10.586; 1281.171
497.451;  568.521;  -11.926; 1386.805
498.038;  702.761;  -10.885; 1556.729
498.626;  806.662;   -6.315; 1741.407
499.214;  946.597;   -7.326; 2016.609
499.801; 1129.726;  -11.906; 2220.633
500.389; 1365.195;  -10.466; 2312.494
500.976; 1666.681;   -5.236; 2744.849
501.564; 2076.799;   -8.936; 3148.565
502.151; 2431.371;  -13.176; 3515.999
502.738; 2847.389;  -10.646; 3971.274
503.326; 3208.855;   -9.525; 4403.796
503.913; 3568.495;  -10.856; 5161.749
504.500; 3883.136;  -11.586; 5986.420
505.088; 4284.924;  -10.336; 6381.201
505.675; 4795.251;   -6.355; 6925.547
506.262; 5410.615;   -9.046; 7619.060
506.849; 6077.726;  -10.416; 8733.969
507.436; 6548.897;  -10.305; 9790.121
508.023; 7121.183;   -5.496; 9985.472
508.610; 7353.364;   -7.856;10434.618
509.197; 7957.086;  -10.097;11198.435
509.784; 9268.100;  -10.886;12391.194
510.371;10267.113;   -9.315;13603.713
510.958;10954.110;   -9.936;14426.586
511.545;11650.693;   -9.326;15243.775
512.132;12532.333;  -10.075;15945.876
512.719;13106.931;   -7.796;16340.369
513.305;14036.763;  -10.606;18011.766
513.892;14715.938;  -11.486;19754.971
514.479;15960.135;   -9.126;20967.805
515.066;17406.053;   -6.026;22299.793
515.652;18537.361;   -8.466;22908.660
516.239;19686.006;  -10.886;23798.875
516.825;20763.939;  -11.496;25567.275
517.412;21760.234;   -5.796;28154.959
517.998;22590.865;  -10.506;28344.111
518.585;22746.627;  -10.076;27134.219
519.171;23137.609;   -8.315;27268.576
519.758;24379.900;   -8.596;28964.129
520.344;26223.063;   -8.466;30664.494
520.930;26478.643;  -11.006;32550.605
521.516;27813.621;  -10.495;35422.895
522.103;30221.219;   -5.526;38280.004
522.689;31082.268;   -8.746;37835.117
523.275;30770.924;  -11.376;37288.613
523.861;31816.734;  -11.156;37281.395
524.447;33106.121;   -8.135;37846.949
525.033;32517.299;   -7.896;38321.949
525.619;32585.141;  -12.476;38579.285
526.205;34181.387;   -9.516;40622.875
526.791;37115.668;   -6.926;42258.836
527.377;37231.645;   -8.346;42966.902
527.963;38868.004;   -8.717;42018.949
528.549;37760.164;  -11.016;42476.828
529.135;36297.887;   -8.536;41854.852
529.721;35710.223;   -9.666;41237.711
530.306;35368.027;  -10.066;41259.445
530.892;35266.660;  -11.356;41506.047
531.478;36557.074;   -6.596;43559.613
532.063;39109.230;   -8.836;47695.563
532.649;39631.160;  -10.047;50808.324
533.235;40575.117;   -9.746;51787.500
533.820;41608.148;   -6.566;52145.035
534.406;42799.594;  -10.817;51133.488
534.991;42604.324;   -9.416;49996.805
535.576;41279.848;   -9.036;48882.852
536.162;41876.672;   -6.156;46942.285
536.747;42993.828;  -11.607;45711.746
537.333;46375.633;  -11.787;48510.180
537.918;49747.453;  -12.437;50439.891
538.503;48391.184;   -7.196;50863.711
539.088;45043.410;  -10.556;50906.922
539.673;44998.566;   -8.767;52621.965
540.259;44611.699;  -10.026;52368.094
540.844;42084.926;   -7.416;50879.109
541.429;43182.078;   -9.467;52077.777
542.014;46461.820;   -9.527;52716.695
542.599;46284.629;   -9.946;52363.281
543.184;43611.934;   -7.927;53187.137
543.769;44831.125;   -9.297;54697.605
544.354;44441.918;  -10.127;53913.914
544.938;43408.469;   -9.267;49680.164
545.523;45463.145;   -6.506;47386.277
546.108;47622.938;   -9.787;49151.949
546.693;49794.375;  -11.587;51384.637
547.278;49853.441;  -10.986;51853.254
547.862;46870.273;   -8.206;51173.750
548.447;42468.953;  -10.067;51691.395
549.031;41641.180;   -9.637;52456.703
549.616;46260.379;   -9.926;52714.516
550.201;45557.047;   -6.347;52414.598
550.785;46457.641;   -7.917;52355.059
551.370;45816.109;  -10.867;54589.453
551.954;45797.359;   -9.047;58267.348
552.538;46997.332;   -7.827;59062.176
553.123;45301.887;  -10.287;58115.285
553.707;42922.742;  -12.178;56556.285
554.291;43543.738;   -8.717;56201.668
554.876;45524.348;   -7.457;55335.762
555.460;46300.480;  -10.387;54155.703
556.044;48160.180;   -9.618;53721.484
556.628;46428.578;  -11.567;53731.016
557.212;45001.215;   -8.097;54312.531
557.796;42950.250;  -11.077;53797.773
558.380;43144.816;  -11.108;56145.984
558.964;44050.434;   -9.057;57277.930
559.548;45054.195;   -6.977;56459.641
560.132;42996.070;  -11.457;54434.543
560.716;41812.422;  -11.378;54800.617
561.300;42771.395;   -9.577;57606.945
561.884;43741.148;   -7.127;58972.445
562.467;42378.805;   -7.118;57327.570
563.051;41930.719;  -13.358;54962.434
563.635;42756.031;  -10.178;52594.473
564.219;42946.473;   -7.837;50610.410
564.802;43495.449;  -11.398;49551.180
565.386;43770.383;  -12.788;48370.953
565.969;43668.988;   -9.077;48178.871
566.553;42373.730;   -6.207;49957.305
567.136;42587.938;   -8.568;50369.594
567.720;39004.941;  -11.868;49492.004
568.303;37139.324;   -8.268;50616.352
568.887;37029.738;   -8.698;50727.148
569.470;37277.957;   -6.808;51698.379
570.053;36582.719;  -13.188;52122.078
570.637;34931.828;  -12.037;52536.438
571.220;34279.102;   -8.577;51186.098
571.803;34508.969;   -8.498;51032.762
572.386;36560.309;  -10.498;49609.887
572.969;39086.277;   -9.388;48285.926
573.552;37485.012;   -8.338;47624.285
574.135;36222.973;   -8.518;45498.641
574.718;33813.316;  -13.628;41970.434
575.301;32354.029;  -10.893;41447.137
575.884;30894.742;   -8.158;40923.836
576.467;31254.500;  -10.328;45267.723
577.050;32544.088;  -13.058;48175.543
577.633;34468.109;   -9.458;47729.328
578.216;34569.250;   -8.928;47579.793
578.799;34357.063;   -9.358;47820.996
579.381;33597.793;  -11.388;48115.551
579.964;32076.914;  -11.718;47333.766
580.547;33444.523;   -8.588;46668.969
581.129;34218.992;   -8.859;44466.141
581.712;34780.465;  -10.729;44164.922
582.294;35561.473;  -11.118;46477.855
582.877;35743.910;   -5.218;48244.254
583.459;33691.074;   -8.679;47437.895
584.042;31754.967;  -10.709;46943.219
584.624;31982.861;  -11.669;46792.227
585.206;31445.910;   -8.218;46557.250
585.789;31532.730;  -10.569;45793.773
586.371;34180.273;  -11.859;43836.391
586.953;34906.020;  -10.719;42972.492
587.536;35580.707;   -7.198;42487.211
588.118;35440.602;   -8.720;42086.414
588.700;31653.273;  -10.439;43389.930
589.282;30063.207;   -9.198;43646.039
589.864;29183.688;   -9.199;43438.109
590.446;28407.225;  -11.319;43151.926
591.028;27871.861;  -11.159;42781.867
591.610;28649.826;  -11.779;42839.098
592.192;28410.924;   -7.668;42820.402
592.774;28216.232;  -11.949;40724.277
593.356;27647.799;  -12.129;39874.789
593.937;27267.721;  -10.669;39980.648
594.519;29312.072;   -6.509;42069.633
595.101;31449.828;  -10.849;42976.031
595.683;31597.209;  -11.679;44084.441
596.264;32569.504;   -9.049;43478.797
596.846;31928.066;   -8.849;43803.672
597.427;31402.240;   -9.570;42986.934
598.009;33069.672;  -12.620;42832.219
598.591;33541.523;  -10.039;42580.086
599.172;32650.797;  -10.369;43061.805
599.753;32613.471;   -9.140;41691.469
600.335;34072.152;  -11.430;40692.520
600.916;32613.154;   -9.939;39982.422
601.498;30261.820;   -8.479;40318.617
602.079;28898.502;  -10.920;40670.609
602.660;28746.680;  -11.480;41450.898
603.241;30147.850;  -11.699;41137.738
603.823;29056.100;   -9.579;38868.797
604.404;28706.934;  -10.620;38182.785
604.985;30114.381;  -10.450;38078.047
605.566;29645.484;   -9.129;38056.633
606.147;29615.219;   -7.510;37020.418
606.728;31689.498;  -10.660;37883.359
607.309;30702.891;  -11.740;38748.273
607.890;29960.564;   -9.759;38850.230
608.471;29467.264;   -8.250;37457.918
609.051;28827.703;   -9.240;36066.457
609.632;27782.814;  -12.120;35991.074
610.213;28506.000;   -9.110;37402.641
610.794;29318.488;   -8.030;38383.363
611.374;28653.873;   -8.110;40562.387
611.955;28997.518;  -13.560;38533.727
612.536;30553.016;  -11.400;36951.789
613.116;30246.625;   -8.070;37197.891
613.697;30553.471;  -10.830;38411.125
614.277;28946.379;  -11.641;38673.938
614.858;29916.479;  -13.310;37075.863
615.438;29366.295;   -7.460;35092.906
616.019;26630.836;   -7.601;33666.301
616.599;27186.275;  -12.020;34189.023
617.179;29154.125;  -11.780;36952.047
617.760;29922.434;   -8.570;39582.574
618.340;30980.598;  -11.471;38943.977
618.920;32534.813;  -11.170;37594.156
619.500;32365.672;  -11.071;37866.938
620.080;31485.902;   -7.750;37869.043
620.660;32400.865;  -12.711;36868.617
621.241;33639.996;  -10.211;36352.309
621.821;33763.617;  -10.961;35459.520
622.401;33067.449;   -7.720;35207.414
622.980;32155.760;   -8.981;35980.422
623.560;30712.049;   -9.331;37351.328
624.140;29776.037;   -9.850;34388.582
624.720;24953.582;   -7.451;32368.764
625.300;21278.865;   -9.070;32638.629
625.880;24567.885;  -12.601;34599.035
626.459;28409.996;  -11.751;36831.738
627.039;31490.279;   -9.281;38299.098
627.619;31721.340;   -8.801;38289.574
628.198;29991.057;  -12.071;37220.695
628.778;28982.660;   -9.461;37632.563
629.357;29654.271;   -8.491;38003.012
629.937;29590.438;   -9.721;38402.039
630.516;28972.330;   -9.951;37868.801
631.096;28868.664;  -11.731;35760.410
631.675;31610.387;   -8.572;35225.219
632.254;36981.605;  -11.282;35130.289
632.834;36329.645;  -13.322;35794.570
633.413;34348.789;  -10.301;35788.922
633.992;31631.186;   -8.582;34532.863
634.571;32658.537;   -8.352;33590.113
635.151;35536.172;  -11.912;34943.863
635.730;34075.984;  -10.511;35352.523
636.309;30585.238;   -7.731;35366.605
636.888;27929.732;   -9.952;36165.637
637.467;28602.834;  -11.672;37515.902
638.046;30431.080;   -8.901;39288.695
638.625;33477.629;   -7.912;38279.699
639.204;33313.656;  -10.022;37741.598
639.782;31727.129;  -12.252;38364.551
640.361;28034.439;  -10.041;36740.621
640.940;25169.115;  -11.161;34950.082
641.519;25552.715;   -9.701;34137.398
642.097;28042.105;  -11.271;35654.258
642.676;31165.002;   -8.651;35637.957
643.255;32114.297;   -8.711;36567.074
643.833;31219.734;   -9.581;37809.434
644.412;31553.438;  -13.711;37337.293
644.990;30862.945;  -11.811;37018.531
645.569;30649.309;   -9.411;36518.469
646.147;29833.676;  -10.291;36186.430
646.726;29247.865;  -12.401;36267.688
647.304;30239.662;  -10.411;36647.625
647.882;32220.742;   -9.651;39286.742
648.461;34112.461;   -9.631;39157.703
649.039;32446.914;  -11.881;35412.883
649.617;31562.445;   -9.661;34744.918
650.195;31137.715;   -9.301;35403.098
650.773;29994.311;  -10.511;35053.797
651.352;27420.227;  -11.521;33756.816
651.930;25059.844;  -12.211;31868.773
652.508;23498.623;   -9.171;33121.551
653.086;27445.055;   -9.371;33564.793
653.663;30452.033;  -13.161;34054.668
654.241;29264.754;  -13.031;35693.309
654.819;30747.975;   -9.371;36422.906
655.397;30624.432;  -10.511;38213.484
655.975;30363.105;  -10.371;39507.625
656.553;30442.754;  -10.051;39498.223
657.130;28783.346;  -10.061;40395.480
657.708;28028.111;   -9.561;39242.020
658.286;28206.100;  -11.511;38920.020
658.863;29356.688;  -10.261;40202.898
659.441;32121.965;   -7.531;39677.938
660.018;31588.275;   -9.501;40413.355
660.596;30462.438;  -13.301;39931.414
661.173;32288.637;  -11.211;39604.531
661.750;32532.453;   -9.951;39700.070
662.328;31588.330;   -9.390;39292.809
662.905;30773.518;  -11.330;38235.648
663.482;26388.520;   -9.050;36212.305
664.060;24316.924;   -8.240;35944.945
664.637;27030.426;  -10.050;35170.785
665.214;28882.371;  -11.760;34197.523
665.791;30773.480;  -10.530;34549.520
666.368;29597.064;   -9.690;35118.578
666.945;30041.539;   -9.320;36019.418
667.522;31660.678;  -11.860;36048.438
668.099;31722.336;  -10.770;36243.914
668.676;30867.525;   -6.260;35958.875
669.253;29225.820;   -7.000;37384.730
669.830;29668.896;  -10.190;36779.629
670.407;29508.240;   -9.550;35231.289
670.984;29529.832;   -9.260;35544.270
671.560;30107.094;   -9.280;35466.867
672.137;28805.010;  -11.810;34280.863
672.714;29429.129;  -11.490;34632.863
673.290;30063.434;   -7.740;35135.422
673.867;30075.084;  -10.660;36114.480
674.443;30436.031;  -12.230;36152.859
675.020;28936.371;  -10.450;35327.238
675.596;29777.975;   -9.260;35795.176
676.173;30260.863;  -10.780;35430.355
676.749;29990.598;  -13.690;33549.516
677.326;30107.965;  -11.980;32210.012
677.902;30237.650;   -8.630;32068.871
678.478;29331.582;  -10.730;32583.891
679.054;28695.672;  -10.520;32088.928
679.631;29434.746;  -11.920;30978.848
680.207;30656.764;   -7.490;33160.887
680.783;32057.818;   -9.860;35570.363
681.359;31312.250;  -13.380;36125.184
681.935;30631.324;  -12.480;35240.922
682.511;29737.396;   -7.900;34429.961
683.087;29718.748;   -7.710;34463.680
683.663;29318.854;  -11.480;34648.898
684.239;28419.541;  -14.090;34546.457
684.815;28044.342;   -7.560;35586.375
685.390;28430.961;   -9.910;35821.895
685.966;28942.191;  -11.159;35085.871
686.542;31684.643;  -11.169;34198.230
687.118;33720.246;   -5.959;32847.707
687.693;33871.914;  -10.329;32794.027
688.269;33217.367;  -12.059;33072.367
688.844;31294.699;  -10.909;33141.664
689.420;29303.473;   -8.019;33965.742
689.995;27041.949;   -8.399;34655.523
690.571;25757.045;  -10.949;33576.742
691.146;26220.000;   -9.619;32657.219
691.722;25717.994;   -8.999;32526.979
692.297;25448.219;  -11.589;33014.617
692.872;27395.691;  -11.739;34012.254
693.448;26972.867;  -11.059;34237.434
694.023;26106.094;  -10.139;34142.672
694.598;28310.881;   -9.029;34132.031
695.173;28852.133;  -13.319;34205.250
695.748;28266.572;  -10.169;32882.488
696.323;28183.041;   -8.339;32864.906
696.898;28237.381;   -8.169;33170.004
697.473;28010.752;  -12.309;32432.984
698.048;27556.156;  -10.989;31649.303
698.623;27687.746;   -9.329;30778.141
699.198;29440.824;   -9.849;31140.119
699.773;30431.732;  -12.329;31764.299
700.348;29061.988;  -10.389;31780.816
700.922;29114.346;   -9.269;32046.375
701.497;29575.646;   -9.329;32603.574
702.072;29621.207;  -10.789;34799.871
702.646;28629.105;  -10.839;35793.172
703.221;26464.486;   -9.099;35201.590
703.795;28575.605;  -10.939;34764.527
704.370;29127.043;  -12.859;34307.367
704.944;29334.141;  -11.559;33509.887
705.519;30398.807;   -7.939;31388.584
706.093;31672.070;  -10.499;31340.104
706.668;32105.154;  -11.289;32630.281
707.242;30636.273;  -11.509;32728.779
707.816;28895.438;   -9.639;32947.238
708.390;27456.119;  -11.429;33277.855
708.965;28353.682;  -11.869;33834.336
709.539;28822.051;  -11.689;33709.273
710.113;29265.195;  -10.478;33044.313
710.687;28803.736;  -10.228;31953.992
711.261;26808.090;  -13.698;30505.949
711.835;26449.182;  -13.378;30262.369
712.409;27192.383;   -9.698;31254.447
712.983;28929.668;  -11.898;32754.986
713.557;29944.303;  -15.138;34018.824
714.131;29590.029;  -14.098;34579.625
714.704;28717.986;   -9.958;33890.262
715.278;26362.145;  -10.028;33531.102
715.852;25559.178;  -11.148;33601.660
716.425;26459.484;   -9.068;33515.117
716.999;27144.746;  -10.038;33185.555
717.573;28208.703;   -9.798;33905.996
718.146;29574.305;  -12.378;35199.293
718.720;29306.352;  -11.918;35060.551
719.293;28610.166;   -8.088;34973.230
719.867;31534.895;  -10.888;36394.449
720.440;31477.377;  -11.938;36663.008
721.013;29733.930;  -12.818;35102.426
721.587;28287.133;  -10.298;33985.266
722.160;26893.855;  -10.048;33524.965
722.733;25945.723;  -12.108;32987.043
723.306;26658.273;  -10.818;33066.301
723.880;28764.541;   -8.908;33399.500
724.453;30504.813;   -9.878;33468.297
725.026;29413.322;  -11.188;33816.637
725.599;26797.688;  -11.678;32797.996
726.172;27133.838;   -9.618;33187.434
726.745;28419.703;   -8.258;35136.613
727.318;30025.248;  -12.978;35751.730
727.891;30760.793;  -12.148;35890.430
728.463;30557.479;   -8.968;34822.090
729.036;29446.064;  -10.188;32895.086
729.609;29681.484;  -11.788;31823.225
730.182;26513.982;  -11.788;31445.283
730.754;23973.371;  -10.268;32373.223
731.327;23983.260;   -9.998;33676.820
731.900;24072.303;  -12.228;33417.000
732.472;25420.488;  -13.848;31978.498
733.045;27565.078;   -8.698;30368.777
733.617;27461.377;  -10.607;30574.215
734.190;26999.535;  -11.507;31280.975
734.762;24225.266;  -13.647;31674.412
735.334;22566.545;   -9.767;31247.291
735.907;22939.967;   -9.897;29876.211
736.479;22862.021;  -11.637;29808.488
737.051;22561.250;   -9.567;30233.547
737.623;23796.789;   -8.187;31469.086
738.195;24780.635;  -11.187;31784.225
738.768;26743.754;  -12.337;32120.523
739.340;26772.947;  -12.227;32094.342
739.912;25481.553;  -11.057;31312.680
740.484;24338.672;  -10.207;31946.238
741.056;23206.135;  -10.047;32984.059
741.628;24898.873;  -13.627;33897.715
742.199;27224.348;   -7.177;33213.016
742.771;25541.697;  -10.797;31369.113
743.343;23168.842;  -11.997;31865.473
743.915;22097.475;  -12.867;32388.631
744.487;22263.438;   -7.617;31079.568
745.058;22416.775;   -9.557;30570.107
745.630;23103.375;   -9.877;29970.127
746.201;24069.469;  -14.177;29186.766
746.773;24316.752;   -9.237;28805.723
747.344;24203.842;   -9.847;29591.223
747.916;22690.982;  -11.657;31412.201
748.487;22610.461;  -10.587;32194.898
749.059;23808.291;   -8.707;32533.719
749.630;24831.402;  -10.537;32158.518
750.201;23933.646;  -11.687;30855.395
750.773;22143.965;  -11.647;28622.555
751.344;22170.486;   -7.147;28405.732
751.915;23162.084;   -9.757;28461.551
752.486;22612.234;  -12.427;27842.850
753.057;20343.332;  -12.227;27845.008
753.628;19182.502;  -10.417;27728.107
754.199;20357.236;  -11.767;27381.086
754.770;21582.539;  -11.187;25882.203
755.341;21631.777;  -10.507;25886.184
755.912;21733.117;   -9.387;26050.861
756.483;21014.254;  -10.647;26798.779
757.054;19130.566;  -11.837;27048.238
757.625;17897.996;  -12.716;26294.838
758.195;17819.781;   -9.666;26142.076
758.766;17505.160;   -8.656;26392.234
759.337;18243.207;  -12.856;26334.594
759.907;20056.389;  -13.366;27579.652
760.478;20914.068;   -8.576;28352.770
761.048;20265.084;  -10.526;27325.088
761.619;19406.961;  -11.116;26460.428
762.189;19385.744;  -12.136;26029.826
762.760;20381.111;   -9.456;26430.145
763.330;21641.418;   -7.136;26670.902
763.900;21105.967;  -11.786;26603.021
764.471;18375.285;  -11.546;25542.740
765.041;17066.836;   -8.096;24358.459
765.611;17200.279;   -8.876;23991.297
766.181;17679.725;  -12.196;24470.236
766.751;18525.355;  -11.636;24845.975
767.321;18472.027;  -10.156;24533.633
767.891;16551.723;  -11.766;24916.492
768.461;15924.818;  -14.936;24776.771
769.031;16403.100;  -12.356;24757.988
769.601;18028.020;   -7.526;24181.088
770.171;17954.908;  -10.766;23670.387
770.741;16979.797;  -13.176;22960.045
771.311;17222.311;  -10.616;22917.523
771.880;17640.980;   -9.576;23562.941
772.450;17122.172;  -10.336;24216.500
773.020;17049.840;  -13.516;24140.398
773.589;16722.432;  -13.466;24414.857
774.159;16253.268;   -8.686;23858.717
774.729;15741.331;   -9.476;22942.135
775.298;15244.278;  -13.666;22324.033
775.867;14857.266;  -11.716;21140.313
776.437;14963.608;   -9.906;20838.092
777.006;14650.391;  -12.166;20599.510
777.576;14605.725;  -12.356;20508.809
778.145;14798.260;  -11.646;20732.947
778.714;14677.265;   -8.226;21062.465
779.283;13847.287;   -9.556;20949.664
779.853;13333.890;  -14.116;20508.623
780.422;13711.854;  -11.506;20649.082
780.991;13293.921;   -9.556;21527.520
781.560;12225.285;   -9.095;22632.658
782.129;12004.668;  -12.135;23048.277
782.698;12043.529;  -10.865;23438.555
783.267;11694.339;   -9.335;23267.734
783.836;11652.664;  -11.045;22415.133
784.404;12700.084;  -13.865;20443.152
784.973;13190.268;  -13.095;19699.150
785.542;13042.700;  -11.575;19763.828
786.111;12921.082;   -9.705;20341.408
786.679;12492.304;  -12.105;20207.967
787.248;12273.314;  -12.455;19516.465
787.817;12104.324;  -11.535;18900.363
788.385;11690.400;   -9.765;17879.121
788.954;11105.466;  -14.005;17658.301
789.522;10602.637;  -11.955;17788.879
790.090;11166.682;  -10.135;18118.277
790.659;11634.409;  -10.975;18338.736
791.227;11003.106;  -13.375;18508.615
791.795;11342.995;  -12.375;17898.254
792.364;11722.581;  -10.725;17295.133
792.932;12088.885;   -9.715;16822.051
793.500;12346.871;  -12.675;17040.148
794.068;12583.420;  -13.495;17179.787
794.636;12708.168;  -10.885;16664.246
795.204;12196.631;  -11.045;16524.545
795.772;12271.069;  -13.175;17274.564
796.340;11791.329;  -12.445;17891.002
796.908;11584.882;   -9.735;17648.561
797.476;11541.547;   -9.815;17064.080
798.044;11113.676;  -13.985;16672.777
798.612;10311.619;  -13.115;17023.996
799.180; 9980.012;  -10.185;16561.615
799.747; 9873.197;   -9.055;15962.773
800.315; 9558.071;  -12.385;15296.992
800.883; 9217.568;  -15.035;14801.771
801.450; 9218.530;  -10.365;14534.430
802.018; 9274.617;   -9.855;14173.248
802.585; 9344.007;  -11.905;14029.547
803.153; 9403.310;  -11.585;13836.846
803.720; 9286.472;   -9.095;13567.324
804.287; 8942.533;   -9.135;13360.622
804.855; 8513.563;  -11.604;13681.981
805.422; 8344.236;  -11.794;13536.560
805.989; 8321.462;  -10.734;13355.958
806.556; 8486.777;  -10.444;13747.896
807.124; 8780.837;  -12.764;13987.376
807.691; 8709.174;  -12.964;14038.674
808.258; 8496.243;  -11.134;14120.152
808.825; 8173.305;   -9.854;13860.111
809.392; 8250.491;  -10.504;13268.790
809.959; 7761.168;  -13.054;12680.389
810.526; 7347.740;   -8.294;12427.308
811.093; 7429.649;   -8.394;12030.105
811.659; 8052.652;  -12.304;11653.664
812.226; 8484.828;  -13.944;11637.183
812.793; 8089.212;  -10.484;11611.521
813.360; 7384.884;  -10.144;11885.181
813.926; 7001.014;  -11.684;12770.539
814.493; 6768.471;  -13.644;12677.638
815.060; 6443.087;   -9.724;11974.336
815.626; 6519.934;   -9.854;11594.715
816.193; 6958.021;  -13.254;11579.474
816.759; 7018.757;  -13.204;11666.972
817.325; 7112.442;   -9.434;11325.530
817.892; 7448.135;  -10.134;11105.369
818.458; 7849.914;  -13.474;10843.928
819.024; 7511.547;  -11.854;10714.406
819.591; 7159.486;  -10.244;10469.165
820.157; 6925.373;  -10.704;10235.523
820.723; 6391.453;  -12.324;10847.563
821.289; 6073.275;   -9.444;11040.980
821.855; 6004.568;   -8.374;10357.100
822.421; 6000.703;  -10.234; 9978.918
822.987; 5944.358;  -13.294; 9754.177
823.553; 5635.299;  -10.884;10065.755
824.119; 5471.189;   -8.884;10036.294
824.685; 5584.702;   -6.784;10029.192
825.251; 5674.871;  -12.004;10199.230
825.816; 5601.131;  -11.474; 9820.189
826.382; 5331.731;   -9.174; 9297.248
826.948; 5529.368;   -9.214; 9381.347
827.513; 5971.809;  -10.774; 9450.726
828.079; 5810.380;  -11.924; 9472.444
828.645; 5231.926;  -10.543; 9292.643
829.210; 5110.208;  -10.533; 9065.341
829.776; 5096.312;  -10.753; 9132.620
830.341; 4946.614;  -10.173; 9092.878
830.906; 5092.733;  -10.743; 9078.557
831.472; 5467.421;  -11.113; 8534.535
832.037; 5249.073;  -10.603; 8677.874
832.602; 4695.483;  -13.323; 8628.692
833.167; 4388.356;  -10.823; 8879.031
833.733; 4320.332;  -10.113; 9189.790
834.298; 4432.713;  -13.583; 9052.608
834.863; 4476.653;  -12.703; 8895.087
835.428; 4444.990;  -10.523; 8824.266
835.993; 4352.127;   -6.963; 8845.385
836.558; 4220.129;  -10.763; 8888.563
837.123; 4338.070;   -9.903; 8966.582
837.688; 4551.063;   -9.913; 8617.860
838.253; 4736.982;  -10.283; 8590.699
838.817; 4926.692;  -12.963; 8443.797
839.382; 4874.736;  -14.243; 8799.356
839.947; 4558.239;  -10.733; 8810.595
840.511; 4240.156;   -9.383; 8796.394
841.076; 3871.951;  -12.563; 8347.231
841.641; 3924.570;  -12.953; 8224.330
842.205; 4025.011;   -7.043; 8223.349
842.770; 4102.429;   -8.163; 8622.107
843.334; 4296.888;  -12.503; 8410.386
843.898; 4289.808;  -11.693; 8337.465
844.463; 4333.204;  -10.203; 8506.283
845.027; 4105.239;   -9.533; 8280.962
845.591; 3890.006;  -13.443; 8231.141
846.156; 3888.309;  -13.143; 7969.179
846.720; 3757.043;   -9.433; 7768.278
847.284; 3628.509;  -11.033; 7630.957
847.848; 3467.214;  -10.403; 7472.395
848.412; 3372.782;  -11.553; 7437.394
848.976; 3413.526;   -8.393; 7674.592
849.540; 3360.034;   -8.713; 7836.011
850.104; 3444.292;  -12.463; 7913.669
850.668; 3796.634;  -12.973; 7694.508
851.232; 3925.604;  -10.793; 7756.887
851.796; 3750.308;  -10.662; 7926.545
852.359; 3434.547;  -13.082; 7827.844
852.923; 3264.832;  -12.192; 7641.163
853.487; 3083.033;  -11.912; 7342.501
854.050; 3007.701;  -10.892; 7042.820
854.614; 3137.349;  -13.992; 7151.338
855.177; 3242.652;  -11.732; 7105.077
855.741; 3298.658;   -8.962; 6989.675
856.304; 3218.211;   -9.442; 6596.634
856.868; 3154.797;  -14.192; 6356.272
857.431; 3258.325;  -12.702; 6468.571
857.995; 3385.094;   -9.942; 6373.210
858.558; 3396.954;   -9.112; 6324.448
859.121; 3137.291;  -12.932; 6408.327
859.684; 3002.839;  -13.442; 6347.886
860.247; 3116.137;  -10.632; 6321.264
860.810; 3111.955;  -11.272; 6301.903
861.374; 2880.932;   -9.832; 6607.881
861.937; 2623.845;  -11.762; 6408.200
862.500; 2597.117;   -9.722; 6572.639
863.062; 2759.765;  -10.512; 6387.297
863.625; 2943.239;  -11.232; 6190.836
864.188; 3105.979;  -14.112; 5807.254
864.751; 3159.362;  -11.302; 5682.413
865.314; 3043.599;  -10.112; 5547.492
865.876; 2856.980;  -12.182; 5500.150
866.439; 2858.867;  -10.722; 5415.909
867.002; 2831.536;   -9.252; 5501.567
867.564; 2620.484;   -9.572; 5413.946
868.127; 2397.164;  -13.142; 5160.325
868.689; 2297.251;  -12.902; 5133.183
869.252; 2224.682;   -9.732; 5252.382
869.814; 2137.395;   -9.432; 5297.141
870.377; 2160.302;  -11.552; 5390.919
870.939; 2242.094;   -9.052; 5599.898
871.501; 2300.425;  -10.982; 5248.336
872.063; 2301.260;  -12.292; 4854.235
872.626; 2259.019;  -14.912; 4817.074
873.188; 2264.388;  -13.112; 4987.732
873.750; 2230.461;  -13.442; 4868.651
874.312; 2139.602;   -9.402; 4779.330
874.874; 2047.434;  -11.062; 4866.348
875.436; 1970.613;  -13.931; 4718.887
875.998; 1968.246;   -9.561; 4660.005
876.560; 1991.302;  -11.321; 4462.964
877.122; 1935.583;  -12.221; 4145.042
877.683; 1841.694;  -12.191; 4056.481
878.245; 1764.369;  -12.101; 3950.740
878.807; 1804.771;   -8.971; 4058.958
879.369; 1829.845;  -12.071; 3954.677
879.930; 1737.420;  -14.621; 3941.495
880.492; 1675.855;  -10.311; 4067.014
881.053; 1649.141;  -10.901; 3859.633
881.615; 1530.979;  -14.411; 3776.071
882.176; 1433.495;  -13.761; 3734.750
882.738; 1395.856;   -9.181; 3678.489
883.299; 1371.212;  -11.791; 3405.407
883.860; 1371.785;  -13.121; 3351.106
884.422; 1376.382;  -11.211; 3394.044
884.983; 1331.862;  -10.091; 3166.443
885.544; 1235.792;   -8.461; 3189.802
886.105; 1156.202;  -12.361; 3160.360
886.666; 1085.628;  -14.141; 3093.059
887.227; 1023.693;  -11.361; 2941.957
887.788;  958.133;  -11.401; 2974.836
888.349;  893.789;  -13.791; 2721.214
888.910;  888.823;  -13.191; 2696.493
889.471;  898.445;   -9.881; 2560.172
890.032;  883.627;   -9.881; 2558.190
890.593;  855.968;  -10.371; 2567.669
891.153;  827.993;  -13.301; 2460.307
891.714;  778.168;  -11.431; 2372.046
892.275;  741.350;  -11.291; 2309.505
892.835;  703.831;  -11.471; 2382.543
893.396;  644.024;  -11.541; 2295.502
893.956;  584.130;  -11.181; 2162.420
894.517;  545.455;  -11.741; 2125.439
895.077;  537.440;  -11.671; 2086.978
895.638;  538.529;  -11.311; 2126.316
896.198;  509.356;   -9.831; 1838.275
896.758;  464.976;   -8.421; 1892.813
897.319;  431.120;  -12.351; 1792.232
897.879;  413.425;  -13.511; 1762.751
898.439;  386.148;  -12.001; 1661.149
898.999;  360.812;  -10.180; 1781.468
899.559;  350.421;  -12.030; 1703.347
900.119;  346.235;  -15.710; 1537.525
900.679;  342.599;   -8.900; 1638.384
901.239;  328.972;   -8.340; 1527.902
901.799;  317.400;  -13.910; 1456.441
902.359;  311.498;  -13.460; 1357.140
902.919;  303.701;  -11.490; 1331.118
903.479;  290.726;  -12.110; 1317.257
904.038;  267.585;  -11.720; 1262.595
904.598;  251.531;  -13.610; 1152.034
905.158;  246.479;  -11.040; 1240.893
905.717;  239.980;  -10.900; 1233.691
906.277;  229.038;  -15.080; 1217.330
906.836;  220.314;  -13.380; 1222.408
907.396;  211.215;  -10.780; 1193.047
907.955;  204.092;   -8.500; 1182.526
908.515;  197.272;  -12.760; 1099.364
909.074;  190.787;  -11.900; 1092.863
909.633;  184.224;   -8.950; 1069.121
910.192;  179.728;   -8.770; 1196.460
910.752;  174.693;  -12.390; 1029.960
911.311;  170.531;  -13.680; 1009.780
911.870;  167.947;  -12.370;  971.460
912.429;  169.556;  -10.900; 1094.080
912.988;  167.606;  -11.690; 1081.060
913.547;  162.818;  -13.240;  940.380
914.106;  157.144;  -11.990;  999.420
914.665;  153.532;   -9.990;  984.020
915.224;  152.670;  -12.880; 1035.760
915.782;  153.435;  -12.350;  922.560
916.341;  152.712;   -9.110; 1049.840
916.900;  148.828;   -9.270;  925.260
917.458;  146.193;  -13.240;  884.220
918.017;  145.947;  -13.550;  942.600
918.576;  145.186;  -12.320;  904.440
919.134;  143.682;  -11.490;  837.980
919.693;  141.612;  -13.670;  893.060
920.251;  139.615;  -15.470;  876.500
920.809;  139.031;  -11.290;  839.580
921.368;  138.311;  -10.210;  885.360
921.926;  136.731;  -12.140;  842.940
922.484;  135.737;  -13.080;  903.360
923.042;  135.945;  -11.720;  880.340
923.601;  138.328;   -7.480;  998.680
924.159;  136.982;  -11.570;  935.560
924.717;  133.318;  -13.840;  841.080
925.275;  134.050;  -10.640;  903.240
925.833;  133.196;  -11.540;  779.320
926.391;  134.539;  -12.960;  938.380
926.949;  131.887;  -14.130;  857.680
927.506;  132.567;  -11.750;  903.500
928.064;  132.640;  -10.250;  877.580
928.622;  132.275;  -13.030;  880.100
929.180;  130.787;  -13.400;  814.180
929.737;  132.541;  -10.700;  808.540
930.295;  136.438;  -10.070;  928.480
930.853;  138.297;  -11.960;  849.100
931.410;  139.216;  -13.120;  821.120
931.968;  138.840;  -10.770;  940.660
932.525;  138.406;  -10.680;  909.380
933.082;  139.370;  -13.130;  811.440
933.640;  140.070;  -13.210;  925.900
934.197;  138.577;  -11.060;  886.360
934.754;  138.275;   -9.580;  897.780
935.312;  141.811;  -14.000;  863.340
935.869;  146.224;  -10.710; 1012.980
936.426;  146.846;   -9.860;  872.800
936.983;  147.560;   -9.710;  889.020
937.540;  147.095;  -13.990;  838.280
938.097;  146.085;  -14.040;  940.120
938.654;  146.402;  -10.310;  898.860
939.211;  148.736;  -10.560;  952.480
939.768;  152.126;  -13.900;  915.420
940.324;  156.454;  -14.760;  904.200
940.881;  157.459;  -10.370;  878.500
941.438;  158.061;   -8.260; 1021.200
941.995;  153.802;  -12.540;  992.560
942.551;  151.304;  -14.670;  875.620
943.108;  151.373;  -10.450;  937.920
943.664;  153.234;  -10.750;  869.340
944.221;  157.309;  -11.550; 1088.140
944.777;  155.138;  -14.770;  869.680
945.334;  156.551;  -12.820;  884.840
945.890;  158.319;  -10.130;  946.480
946.446;  160.016;  -13.470;  947.020
947.003;  161.120;  -12.120;  964.940
947.559;  162.322;   -9.980; 1063.040
948.115;  161.768;   -9.080; 1026.540
948.671;  160.584;  -10.830;  967.300
949.227;  157.696;  -12.440;  859.560
949.783;  155.190;  -12.910;  858.900
950.339;  155.790;  -10.270;  991.000
950.895;  156.097;  -13.630; 1023.840
951.451;  156.086;  -15.100;  925.280
952.007;  157.232;  -11.330;  998.540
952.563;  158.689;  -10.580;  937.780
953.118;  157.416;  -13.440;  904.940
953.674;  157.378;  -12.710;  935.780
954.230;  157.171;  -10.350;  949.640
954.785;  155.162;   -9.190;  936.640
955.341;  152.601;  -11.200;  998.160
955.897;  150.289;  -16.560;  834.660
956.452;  151.872;  -12.570;  953.840
957.008;  151.920;   -7.970; 1083.640
957.563;  149.286;  -11.940; 1009.540
958.118;  144.711;  -13.450;  877.700
958.674;  145.619;  -12.030;  946.780
959.229;  146.820;   -9.410; 1013.980
959.784;  144.390;  -12.000;  832.400
960.339;  143.787;  -14.780; 1001.280
960.894;  140.035;   -9.860;  963.760
961.449;  136.191;   -9.970;  859.960
962.004;  136.641;  -10.900; 1212.840
962.559;  130.967;  -13.150;  860.140
963.114;  128.568;  -13.740;  742.480
963.669;  129.009;   -9.820;  915.500
964.224;  127.305;  -13.890;  874.340
964.779;  127.083;  -12.600;  828.420
965.334;  128.549;  -10.950; 1017.860
965.888;  127.925;  -11.170;  875.360
966.443;  130.363;  -12.540;  972.380
966.998;  129.055;  -15.780;  819.460
967.552;  128.766;   -9.760;  908.380
968.107;  125.057;   -9.060;  868.300
968.661;  128.939;  -11.950;  922.440
969.216;  131.522;  -12.800;  856.280
969.770;  130.962;  -11.210;  917.200
970.324;  124.112;  -11.610;  923.140
970.879;  111.390;  -11.370;  947.180
971.433;   99.759;  -12.540;  952.720
971.987;   89.844;  -11.320;  895.340
972.541;   85.723;  -10.720;  917.100
973.095;   86.568;   -9.680; 1009.460
973.649;   87.044;  -11.440;  809.480
974.203;   89.107;  -11.210;  829.040
974.757;   91.051;  -10.240;  855.220
975.311;   92.232;  -13.720;  872.600
975.865;   92.557;  -13.770;  881.820
976.419;   91.917;  -11.690;  857.400
976.973;   92.710;   -9.510;  849.620
977.526;   95.053;  -12.620;  949.920
978.080;   94.561;  -12.010;  796.780
978.634;   96.289;  -10.170;  921.320
979.187;   93.979;   -9.020;  905.400
979.741;   93.398;   -9.820; 1018.380
980.294;   88.503;  -14.870;  789.160
980.848;   85.847;  -12.380;  717.220
981.401;   89.103;  -10.350;  816.540
981.955;   90.704;  -13.720;  844.300
982.508;   90.016;  -11.490;  746.340
983.061;   90.221;  -10.000;  915.260
983.615;   87.782;  -11.480;  798.800
984.168;   84.251;  -13.220;  770.080
984.721;   84.028;  -13.960;  880.760
985.274;   83.106;  -10.870;  867.500
985.827;   82.091;   -9.790;  834.220
986.380;   79.865;  -13.120;  721.340
986.933;   78.940;  -12.450;  864.800
987.486;   77.775;  -10.210;  861.920
988.039;   76.323;   -8.430;  863.100
988.591;   75.469;  -10.520;  893.260
989.144;   72.421;  -14.860;  737.260
989.697;   72.185;  -13.080;  758.740
990.250;   72.783;  -10.150;  858.100
990.802;   71.404;  -13.430;  755.860
991.355;   72.901;  -12.750;  974.880
991.907;   70.722;  -12.040;  864.320
992.460;   68.543;  -11.330;  753.760
993.012;   68.643;  -13.610;  749.540
993.565;   66.548;  -13.460;  711.360
994.117;   67.752;   -9.360;  950.780
994.669;   64.508;  -11.300;  701.320
995.221;   62.283;  -13.540;  791.920
995.774;   60.869;  -13.430;  787.580
996.326;   59.542;  -12.520;  740.220
996.878;   59.392;  -10.950;  838.420
997.430;   57.307;  -14.300;  699.860
997.982;   56.321;  -13.760;  750.140
998.534;   56.028;  -11.530;  739.060
999.086;   55.019;  -10.310;  738.220
999.638;   53.507;  -12.530;  661.380
1000.190;   50.971;  -11.840;  699.320
1000.741;   50.182;  -10.260;  742.700
1001.293;   49.801;   -8.860;  686.020
1001.845;   47.085;  -13.700;  676.640
1002.396;   47.069;  -12.100;  743.400
1002.948;   47.548;  -12.760;  737.400
1003.500;   46.139;  -10.380;  723.780
1004.051;   47.536;  -11.900;  907.580
1004.603;   46.046;  -12.250;  791.820
1005.154;   42.751;  -13.210;  608.980
1005.705;   41.869;  -10.950;  723.960
1006.257;   42.282;  -13.880;  707.220
1006.808;   41.284;  -12.840;  685.460
1007.359;   40.592;  -10.570;  763.240
1007.910;   39.262;   -9.620;  646.640
1008.461;   38.827;  -13.630;  732.940
1009.013;   37.704;  -17.200;  588.340
1009.564;   39.565;  -10.200;  793.520
1010.115;   37.292;  -12.570;  597.040
1010.665;   37.119;  -15.150;  602.160
1011.216;   37.329;  -14.480;  667.920
1011.767;   36.649;  -11.340;  697.920
1012.318;   37.856;   -9.780;  736.980
1012.869;   35.892;  -12.380;  679.000
1013.419;   35.411;  -15.560;  603.120
1013.970;   35.515;  -11.010;  666.640
1014.521;   34.872;  -11.610;  620.620
1015.071;   35.332;  -13.450;  670.380
1015.622;   34.393;  -13.870;  635.460
1016.172;   34.150;  -11.610;  596.820
1016.723;   34.267;  -12.120;  614.380
1017.273;   33.187;  -13.620;  604.160
1017.823;   33.856;  -14.140;  650.340
1018.374;   33.087;  -12.800;  611.760
1018.924;   32.616;  -12.340;  716.880
1019.474;   33.436;  -11.410;  718.880
1020.024;   32.009;  -14.770;  657.580
1020.574;   32.248;   -9.780;  726.160
1021.124;   32.977;   -8.560;  673.580
1021.674;   31.030;  -15.190;  559.120
1022.224;   32.470;  -13.530;  708.940
1022.774;   31.682;  -13.280;  668.820
1023.324;   32.891;  -10.690;  753.520
1023.874;   33.508;  -10.240;  875.760
1024.423;   31.060;  -12.540;  613.700
1024.973;   30.342;  -10.010;  610.760
1025.523;   30.011;  -10.550;  620.960
1026.072;   29.858;  -13.560;  606.420
1026.622;   29.733;  -15.120;  675.740
1027.172;   30.984;  -11.260;  715.660
1027.721;   29.155;  -11.410;  601.220
1028.270;   30.319;  -13.530;  663.400
1028.820;   29.682;  -13.680;  638.080
1029.369;   29.365;  -13.520;  612.700
1029.918;   29.159;  -10.980;  649.840
1030.468;   29.053;  -13.530;  564.780
1031.017;   28.750;  -13.170;  634.800
1031.566;   27.409;  -12.200;  608.900
1032.115;   28.523;   -9.960;  694.500
1032.664;   27.585;  -13.210;  596.480
1033.213;   28.732;  -12.500;  735.420
1033.762;   27.874;  -11.910;  635.620
1034.311;   26.915;   -9.640;  677.220
1034.860;   27.892;  -13.310;  691.000
1035.408;   27.626;  -11.830;  722.720
1035.957;   27.391;  -12.000;  719.540
1036.506;   25.351;  -11.690;  530.800
1037.055;   28.242;  -10.990;  844.320
1037.603;   26.494;  -15.120;  664.000
1038.152;   24.805;  -12.450;  534.760
1038.700;   26.036;  -10.560;  585.740
1039.249;   25.294;  -11.080;  681.220
1039.797;   25.726;  -12.540;  633.360
1040.345;   25.431;  -11.920;  705.420
1040.894;   24.957;  -11.410;  625.300
1041.442;   24.933;  -14.320;  632.200
1041.990;   23.427;  -16.240;  559.160
1042.538;   23.812;  -11.680;  536.180
1043.087;   23.708;  -10.760;  570.860
1043.635;   25.639;  -11.850;  670.500
1044.183;   24.035;  -15.480;  586.400
1044.731;   22.962;  -11.770;  576.000
1045.279;   23.742;  -13.090;  674.920
1045.827;   25.744;  -12.440;  892.400
1046.374;   23.019;  -13.840;  515.420
1046.922;   22.205;  -13.220;  590.580
1047.470;   24.035;  -10.230;  691.300
1048.018;   23.211;  -14.590;  647.960
1048.565;   23.474;  -12.050;  708.600
1049.113;   21.583;  -11.650;  557.000
1049.660;   22.072;  -10.510;  629.660
1050.208;   23.047;  -13.310;  675.640
1050.755;   21.725;  -15.900;  606.580
1051.303;   22.311;  -11.430;  686.820
1051.850;   20.684;   -8.480;  635.120
1052.397;   20.242;  -15.010;  473.960
1052.945;   20.736;  -13.960;  617.760
1053.492;   22.208;  -13.150;  741.840
1054.039;   22.557;   -9.630;  720.180
1054.586;   20.832;  -13.680;  557.240
1055.133;   21.414;  -14.570;  693.140
1055.680;   21.303;  -13.820;  646.620
1056.227;   19.902;  -11.730;  542.780
1056.774;   21.821;  -12.480;  794.980
1057.321;   19.018;  -13.930;  523.260
1057.868;   19.958;  -11.690;  651.320
1058.415;   19.768;   -9.520;  651.980
1058.961;   20.454;  -13.160;  678.940
1059.508;   19.530;  -12.920;  643.820
1060.055;   19.281;  -11.920;  581.780
1060.601;   20.276;  -11.500;  624.300
1061.148;   19.495;  -14.330;  616.820
1061.694;   18.352;  -16.870;  592.580
1062.241;   19.148;  -10.330;  596.320
1062.787;   18.917;  -10.620;  663.140
1063.334;   21.364;  -10.110;  808.560
1063.880;   18.708;  -13.400;  668.360
1064.426;   18.540;  -10.680;  706.820
1064.972;   17.868;   -9.920;  601.340
1065.518;   16.551;  -10.980;  566.640
1066.065;   18.130;  -14.890;  624.460
1066.611;   17.631;  -12.870;  598.800
1067.157;   17.745;  -12.950;  641.860
1067.703;   18.091;  -13.540;  668.480
1068.249;   17.649;  -13.540;  605.220
1068.794;   17.594;  -12.600;  626.880
1069.340;   16.582;  -10.620;  578.960
1069.886;   17.079;  -12.830;  590.700
1070.432;   15.628;  -14.870;  541.720
1070.977;   16.195;  -11.980;  601.080
1071.523;   16.277;   -8.200;  573.060
1072.068;   15.954;  -12.330;  582.000
1072.614;   16.323;  -16.370;  527.760
1073.160;   16.862;  -11.100;  687.040
1073.705;   15.324;  -10.480;  572.520
1074.250;   16.375;  -14.520;  559.900
1074.796;   16.389;  -11.460;  655.160
1075.341;   17.421;  -11.950;  664.100
1075.886;   15.915;  -11.460;  594.240
1076.431;   15.418;  -13.770;  649.880
1076.976;   15.299;  -12.680;  639.220
1077.521;   14.788;  -13.170;  583.080
1078.067;   13.799;  -10.860;  579.400
1078.612;   14.980;  -13.920;  661.620
1079.156;   14.723;  -13.880;  601.540
1079.701;   15.450;  -13.120;  693.260
1080.246;   16.299;   -9.940;  696.300
1080.791;   14.572;  -14.740;  625.020
1081.336;   14.078;  -13.750;  659.320
1081.880;   14.605;  -13.400;  649.680
1082.425;   13.933;  -12.220;  573.480
1082.970;   15.320;  -11.610;  717.040
1083.514;   13.797;  -13.580;  597.000
1084.059;   12.999;  -12.810;  586.720
1084.603;   12.833;  -12.320;  565.840
1085.147;   14.222;  -13.190;  645.220
1085.692;   14.871;  -12.480;  716.800
1086.236;   12.179;  -13.020;  503.140
1086.780;   14.570;   -9.190;  751.440
1087.325;   13.572;  -12.480;  654.620
1087.869;   13.015;  -12.450;  610.700
1088.413;   13.960;  -12.240;  705.040
1088.957;   11.857;   -9.020;  543.400
1089.501;   13.614;  -10.320;  766.640
1090.045;   13.142;  -12.720;  726.480
1090.589;   10.970;  -13.690;  569.920
1091.133;   11.782;  -10.020;  673.340
1091.676;   12.488;  -12.330;  591.940
1092.220;   10.878;  -14.970;  600.920
1092.764;   13.192;  -12.430;  706.960
1093.307;   12.357;   -9.800;  673.780
1093.851;   11.089;  -14.970;  556.540
1094.395;   12.726;  -15.310;  683.140
1094.938;   11.463;  -10.370;  632.520
1095.482;   11.563;  -11.050;  559.800
1096.025;   11.625;  -11.840;  710.880
1096.568;   12.240;  -12.840;  779.280
1097.112;    9.716;  -14.700;  508.180
1097.655;   11.723;   -8.720;  603.000
1098.198;   10.745;  -13.610;  600.180
1098.741;    9.951;  -13.350;  612.860
1099.285;   11.570;  -11.230;  657.300
1099.828;    9.295;  -11.840;  439.400
1100.371;   10.763;  -10.840;  608.160
1100.914;   10.182;  -14.190;  682.660
1101.457;   10.430;  -11.240;  679.900
1101.999;    9.195;  -11.270;  584.680
1102.542;   10.162;  -11.480;  641.440
1103.085;    9.871;  -11.750;  658.500
1103.628;   10.295;  -11.400;  762.060
1104.170;    9.881;  -10.490;  588.280
1104.713;   10.297;  -10.600;  646.700
1105.256;    9.266;  -14.360;  557.440
1105.798;    8.072;  -13.210;  499.980
1106.341;   10.285;  -10.270;  728.900
1106.883;    8.589;  -12.200;  521.340
1107.425;    9.033;  -13.110;  668.180
1107.968;    8.712;  -12.840;  612.380
1108.510;    9.294;   -6.480;  684.960
1109.052;    7.280;  -13.940;  612.620
1109.594;    8.271;  -13.690;  554.440
1110.136;    9.250;  -11.880;  643.220
1110.679;    7.836;   -9.500;  633.080
1111.221;    9.166;  -14.160;  604.460
1111.763;    8.219;  -13.980;  559.220
1112.304;    6.989;  -13.880;  547.140
1112.846;    8.015;  -12.210;  666.240
1113.388;   10.508;  -11.390;  942.180
1113.930;    7.977;  -14.540;  694.200
1114.472;    7.735;  -12.640;  606.540
1115.013;    6.642;  -11.620;  551.280
1115.555;    6.521;  -13.640;  587.100
1116.097;    6.728;  -15.380;  579.480
1116.638;    7.387;  -12.640;  684.600
1117.180;    7.558;   -9.850;  667.740
1117.721;    7.224;  -13.690;  568.580
1118.262;    7.423;  -12.680;  677.960
1118.804;    7.084;  -12.530;  637.340
1119.345;    6.190;  -11.690;  578.400
1119.886;    7.634;  -13.380;  704.040
1120.427;    6.262;  -14.070;  589.020
1120.969;    5.810;  -13.500;  597.920
1121.510;    5.714;  -11.480;  563.060
1122.051;    6.697;  -12.830;  723.580
1122.592;    5.603;  -14.290;  655.420
1123.133;    5.104;  -12.400;  547.940
1123.673;    7.396;  -10.130;  706.480
1124.214;    5.466;  -12.930;  612.460
1124.755;    6.266;  -14.380;  639.460
1125.296;    5.544;  -14.000;  627.320
1125.836;    6.721;  -10.070;  691.500
1126.377;    5.365;  -12.640;  599.660
1126.918;    6.335;  -12.960;  614.980
1127.458;    5.095;  -13.350;  622.220
1127.999;    5.630;  -10.750;  656.980
1128.539;    5.940;  -12.350;  694.240
1129.079;    4.122;  -14.860;  632.720
1129.620;    4.545;  -13.840;  558.100
1130.160;    4.003;  -12.330;  539.480
1130.700;    4.967;  -14.530;  640.840
1131.240;    4.983;  -12.530;  643.700
1131.781;    4.720;  -14.450;  619.680
1132.321;    4.683;   -9.790;  599.120
1132.861;    3.201;  -14.860;  564.200
1133.401;    3.157;  -14.290;  593.940
1133.941;    4.356;  -11.750;  626.280
1134.481;    3.864;   -9.920;  597.580
1135.020;    3.613;  -12.290;  609.160
1135.560;    4.364;  -11.650;  674.940
1136.100;    3.578;  -16.270;  501.160
1136.640;    2.997;  -10.890;  510.480
1137.179;    3.649;  -14.180;  537.960
1137.719;    3.762;  -16.250;  605.400
1138.258;    3.406;  -14.230;  587.360
1138.798;    3.986;   -9.090;  663.780
1139.337;    2.073;  -15.130;  482.840
1139.877;    3.130;  -13.680;  642.360
1140.416;    5.048;  -11.320;  878.060
1140.955;    2.278;  -10.860;  535.380
1141.494;    3.096;  -12.920;  669.280
1142.034;    2.848;  -13.930;  583.520
1142.573;    3.354;  -11.440;  646.280
1143.112;    1.965;  -12.000;  553.480
1143.651;    2.770;  -13.670;  536.480
1144.190;    3.647;  -12.730;  691.640
1144.729;    2.795;  -14.560;  607.420
1145.267;    2.238;  -11.830;  584.900
1145.806;    3.054;  -12.230;  637.040
1146.345;    1.772;  -14.130;  635.020
1146.884;    2.141;  -11.590;  622.500
1147.422;    1.245;  -12.550;  533.060
1147.961;    2.963;  -11.180;  708.460
1148.500;    2.583;  -11.510;  669.720
1149.038;    2.570;  -11.640;  632.500
1149.577;    2.091;  -10.130;  698.640
1150.115;    0.150;  -13.970;  452.280
1150.653;    1.140;  -14.520;  607.340
1151.192;    1.328;  -12.810;  552.920
1151.730;    1.219;   -9.100;  652.560
1152.268;    1.355;  -12.220;  589.520
1152.806;    0.462;  -14.140;  571.180
1153.344;    0.107;  -12.350;  577.640
1153.882;    1.225;   -8.980;  600.060
1154.421;   -0.089;  -15.190;  470.620
1154.958;    0.358;  -15.210;  595.240
1155.496;    1.443;  -12.850;  645.280
1156.034;    0.888;   -9.940;  721.880
1156.572;    2.045;  -13.570;  667.060
1157.110;   -0.269;  -14.590;  473.940
1157.647;    1.910;  -13.030;  676.960
1158.185;    0.222;  -12.140;  564.320
1158.723;   -0.972;  -14.390;  509.200
1159.260;    0.816;  -14.090;  701.700
1159.798;    0.556;  -11.920;  658.160
1160.335;    0.485;  -11.110;  631.820

