
Integration time [ms]:   3.276
Averaging Nr. [scans]: 1000
Smoothing Nr. [pixels]: 0
Data measured with spectrometer [name]: 7414430SP
Wave   ;Sample   ;Dark     ;Reference
[nm]   ;[counts] ;[counts] ;[counts] 

288.544;  149.622;    7.793;  793.890
289.143;  154.574;    7.462;  681.602
289.742;  155.752;    8.602;  828.814
290.341;  140.417;    1.321;  789.841
290.940;  128.976;   -0.709;  730.702
291.538;  130.395;    0.881;  881.108
292.137;  130.544;    0.122;  792.581
292.736;  135.094;   -1.929;  975.101
293.335;  130.996;   -8.229;  735.086
293.934;  131.433;   -5.279;  781.677
294.532;  131.170;   -1.369; 1031.958
295.131;  116.184;   -7.641;  834.394
295.730;  115.756;   -8.420;  809.588
296.328;  115.426;   -5.611;  783.442
296.927;  117.151;   -5.781;  779.652
297.525;  116.952;   -6.361;  781.236
298.124;  107.139;  -11.382;  654.009
298.722;  110.973;   -7.641;  761.933
299.321;  109.256;   -6.811;  708.597
299.919;  106.990;   -6.991;  751.918
300.518;  102.944;  -10.362;  689.338
301.116;  105.423;   -9.581;  691.381
301.715;  105.889;   -4.891;  730.222
302.313;  104.176;   -8.801;  704.943
302.911;   99.700;   -8.522;  733.830
303.509;  105.557;   -6.171;  925.627
304.108;  103.864;   -7.311;  760.383
304.706;  101.536;   -8.321;  801.664
305.304;   96.193;  -10.222;  796.707
305.902;  102.808;   -6.021;  784.484
306.500;   97.748;   -4.971;  728.200
307.098;   95.789;   -7.061;  746.560
307.696;   93.270;   -8.801;  780.432
308.294;   94.694;   -6.411;  731.359
308.892;   96.228;   -2.901;  759.769
309.490;   92.271;   -5.041;  712.161
310.088;   90.831;   -5.002;  788.444
310.686;   95.274;   -2.041;  821.749
311.284;   90.892;   -2.351;  766.040
311.882;   88.051;   -4.422;  731.225
312.480;   85.379;   -4.192;  697.167
313.078;   87.330;   -1.172;  808.331
313.675;   88.674;   -2.601;  691.600
314.273;   82.005;   -1.312;  797.837
314.871;   82.204;   -3.942;  589.829
315.468;   80.740;   -2.802;  652.090
316.066;   83.512;   -0.701;  694.427
316.664;   75.821;   -4.362;  656.351
317.261;   79.109;   -2.872;  910.128
317.859;   75.566;   -2.022;  768.735
318.456;   76.682;   -0.531;  830.096
319.054;   72.273;   -3.912;  787.828
319.651;   70.039;   -4.752;  759.928
320.249;   69.809;   -2.602;  810.188
320.846;   67.530;   -0.821;  714.286
321.443;   64.279;   -4.642;  832.135
322.041;   60.741;   -5.002;  812.315
322.638;   59.941;   -3.982;  701.456
323.235;   61.017;   -3.411;  665.683
323.833;   57.793;   -7.361;  740.354
324.430;   52.476;   -8.611;  615.900
325.027;   54.440;   -4.061;  876.855
325.624;   53.757;   -4.031;  644.532
326.221;   50.467;   -7.481;  689.717
326.818;   50.236;   -5.281;  818.332
327.415;   53.717;   -7.460;  748.828
328.012;   53.519;   -5.510;  690.585
328.609;   51.602;   -7.880;  731.389
329.206;   49.448;   -8.331;  778.621
329.803;   50.243;   -5.121;  737.841
330.400;   53.288;   -4.510;  704.260
330.997;   54.091;   -6.441;  817.147
331.594;   52.811;   -8.831;  788.185
332.191;   58.117;   -7.621;  728.722
332.787;   61.006;   -4.591;  844.463
333.384;   59.569;   -7.412;  763.093
333.981;   56.712;   -8.293;  815.687
334.578;   61.592;   -7.052;  708.378
335.174;   64.652;   -3.102;  731.469
335.771;   62.612;   -5.943;  836.456
336.367;   59.345;   -7.393;  710.631
336.964;   63.834;   -4.063;  793.266
337.561;   61.729;   -3.813;  731.112
338.157;   57.446;   -4.654;  911.916
338.754;   54.497;   -7.934;  796.589
339.350;   53.445;   -4.414;  722.493
339.946;   55.397;   -4.664;  773.135
340.543;   47.232;   -6.375;  846.136
341.139;   41.739;   -9.815;  720.836
341.735;   40.260;   -4.526;  772.593
342.332;   38.546;   -4.895;  691.472
342.928;   39.102;   -4.295;  795.394
343.524;   32.353;   -5.476;  761.684
344.120;   29.183;   -5.856;  738.562
344.716;   32.486;   -2.155;  723.717
345.313;   29.650;   -6.275;  795.342
345.909;   24.408;   -8.815;  627.336
346.505;   26.659;   -5.305;  740.247
347.101;   27.676;   -2.674;  827.864
347.697;   27.127;   -4.344;  785.398
348.293;   22.147;   -9.975;  627.244
348.889;   22.986;   -5.774;  745.914
349.485;   21.660;   -5.004;  688.205
350.081;   22.744;   -4.704;  772.592
350.676;   17.885;   -6.635;  691.606
351.272;   22.377;   -4.504;  809.530
351.868;   22.220;   -3.914;  780.497
352.464;   18.526;   -9.044;  723.932
353.059;   14.807;   -8.314;  646.017
353.655;   18.947;   -7.024;  777.063
354.251;   19.797;   -5.343;  759.845
354.846;   14.357;   -8.604;  740.646
355.442;   11.996;   -6.945;  753.071
356.038;   14.433;   -7.564;  751.708
356.633;   14.302;   -5.814;  728.594
357.229;   12.358;   -7.364;  724.757
357.824;   10.162;   -8.024;  703.600
358.420;    9.629;   -9.384;  679.726
359.015;   10.411;   -5.104;  695.357
359.610;   11.451;   -6.854;  763.920
360.206;    4.659;  -10.185;  603.240
360.801;    7.910;   -7.054;  646.503
361.396;   10.586;   -5.034;  725.975
361.992;    5.014;   -8.284;  668.220
362.587;    2.251;   -8.625;  670.160
363.182;    4.866;   -7.674;  689.631
363.777;    6.580;   -5.164;  738.242
364.372;    4.978;   -8.604;  737.314
364.967;    1.236;   -9.055;  680.744
365.563;    5.730;   -6.114;  815.567
366.158;    2.906;   -5.814;  685.161
366.753;    2.969;   -7.854;  649.263
367.348;    1.519;   -7.804;  746.056
367.942;    1.894;   -7.954;  697.298
368.537;    1.001;   -4.984;  754.245
369.132;    1.139;   -8.564;  703.428
369.727;   -2.947;   -8.855;  638.079
370.322;   -0.625;   -6.245;  580.186
370.917;   -1.930;   -6.425;  710.646
371.511;    1.160;   -6.294;  861.834
372.106;   -3.135;   -7.685;  776.964
372.701;   -4.917;   -7.335;  585.988
373.296;    0.067;   -4.564;  863.135
373.890;   -5.654;  -10.235;  647.840
374.485;   -8.026;   -7.885;  691.199
375.079;   -3.170;   -7.324;  738.685
375.674;   -1.575;   -3.494;  812.970
376.268;   -6.259;   -8.525;  691.759
376.863;  -12.283;  -10.086;  580.327
377.457;   -4.853;   -7.025;  662.490
378.052;   -7.226;   -3.585;  764.884
378.646;   -8.855;   -7.595;  741.167
379.240;   -9.709;   -8.335;  721.176
379.835;   -7.774;   -5.785;  636.978
380.429;   -9.069;   -4.335;  562.557
381.023;  -10.226;   -6.805;  779.205
381.617;  -12.345;   -9.195;  680.106
382.212;   -9.397;   -6.905;  685.303
382.806;   -8.087;   -3.745;  760.690
383.400;  -13.029;   -7.745;  672.281
383.994;  -13.488;   -9.765;  664.870
384.588;   -8.942;   -6.564;  697.701
385.182;   -7.702;   -5.344;  726.624
385.776;   -9.527;   -8.514;  706.875
386.370;  -13.835;   -9.555;  681.968
386.964;  -11.341;   -8.715;  684.155
387.558;   -9.690;   -6.174;  598.360
388.152;  -13.461;   -8.725;  681.959
388.745;  -12.044;   -7.965;  814.707
389.339;  -10.385;   -5.924;  747.642
389.933;   -8.837;   -5.524;  695.370
390.527;  -10.299;   -7.114;  859.029
391.120;  -16.633;  -10.725;  595.318
391.714;  -13.233;   -8.035;  711.633
392.308;   -9.332;   -3.574;  780.253
392.901;  -14.173;   -7.245;  642.460
393.495;  -16.333;   -9.285;  595.414
394.089;  -14.042;   -5.895;  760.452
394.682;  -14.529;   -4.295;  697.188
395.275;  -15.108;   -9.875;  719.927
395.869;  -16.334;   -8.485;  667.314
396.462;  -14.464;   -7.455;  616.609
397.056;  -10.157;   -5.424;  776.621
397.649;  -15.584;   -6.605;  731.575
398.242;  -13.255;   -8.224;  712.645
398.836;  -11.978;   -7.474;  766.408
399.429;  -12.677;   -7.094;  631.041
400.022;  -17.323;   -9.475;  665.902
400.615;  -14.534;   -7.145;  805.609
401.208;  -12.263;   -7.174;  691.451
401.802;  -14.163;   -5.515;  699.329
402.395;  -15.334;   -9.875;  683.502
402.988;  -16.973;   -8.845;  696.627
403.581;  -13.659;   -8.874;  646.878
404.174;  -10.912;   -5.324;  686.568
404.767;  -14.387;   -9.575;  638.583
405.360;  -17.026;  -10.965;  621.445
405.953;  -11.027;   -8.764;  759.034
406.545;  -10.621;   -7.514;  725.342
407.138;  -15.009;  -10.025;  618.350
407.731;  -14.813;  -10.034;  613.303
408.324;   -9.166;   -9.374;  660.554
408.917;   -9.535;   -6.534;  681.864
409.509;  -12.787;   -8.004;  740.396
410.102;  -14.827;   -9.875;  643.948
410.695;   -8.085;   -8.604;  665.758
411.287;   -8.995;   -6.794;  599.821
411.880;  -10.875;   -9.334;  585.421
412.472;  -13.527;  -10.254;  613.092
413.065;  -10.887;   -6.714;  629.408
413.657;   -8.843;   -7.234;  576.678
414.250;   -8.289;  -10.544;  646.681
414.842;  -10.878;   -9.744;  676.353
415.434;   -8.065;   -6.994;  570.463
416.027;   -3.656;   -5.893;  652.196
416.619;   -6.320;   -7.264;  713.400
417.211;   -7.137;  -10.374;  599.352
417.804;   -3.186;   -7.993;  628.499
418.396;   -6.280;   -7.234;  607.643
418.988;   -4.264;   -9.443;  659.238
419.580;   -8.695;  -10.724;  568.276
420.172;   -6.374;  -10.323;  536.196
420.764;   -0.842;   -8.793;  672.482
421.356;   -2.948;  -11.143;  636.898
421.948;   -4.718;   -8.293;  677.661
422.540;    1.415;   -7.893;  680.027
423.132;    1.444;   -7.082;  600.641
423.724;   -2.241;   -8.653;  561.267
424.316;   -0.573;  -10.213;  621.345
424.908;    2.468;   -9.762;  591.517
425.500;    3.794;   -5.572;  647.978
426.092;    3.785;   -8.422;  648.268
426.683;    1.394;   -9.283;  684.836
427.275;    5.302;   -7.852;  641.471
427.867;    7.742;   -5.272;  668.948
428.458;    7.480;   -7.682;  732.344
429.050;    5.444;  -10.612;  680.749
429.642;    8.579;   -9.882;  743.124
430.233;    9.077;   -6.962;  569.356
430.825;    9.644;   -6.842;  724.809
431.416;    6.584;   -9.672;  698.241
432.008;   11.274;   -6.552;  651.723
432.599;   12.603;   -6.891;  656.073
433.190;    9.103;  -10.912;  637.670
433.782;    7.665;  -11.172;  590.395
434.373;   15.087;   -6.061;  884.765
434.964;   14.102;   -8.251;  602.920
435.556;   11.982;   -9.722;  634.537
436.147;   14.230;   -9.082;  758.490
436.738;   14.902;   -8.041;  701.099
437.329;   20.145;   -7.341;  721.723
437.920;   12.754;   -8.162;  666.688
438.511;   12.938;  -11.802;  564.526
439.103;   18.936;  -10.191;  623.998
439.694;   22.128;   -7.601;  681.583
440.285;   21.198;   -8.541;  764.432
440.876;   19.340;   -9.751;  845.738
441.466;   20.131;   -9.401;  575.162
442.057;   24.737;   -7.760;  665.814
442.648;   23.313;   -9.971;  746.255
443.239;   21.199;  -11.001;  620.477
443.830;   26.552;   -7.990;  704.958
444.421;   28.598;   -7.910;  655.474
445.011;   25.052;   -8.131;  693.619
445.602;   24.196;   -7.111;  743.126
446.193;   25.732;  -10.920;  488.117
446.783;   31.816;   -6.500;  640.397
447.374;   26.905;   -8.671;  692.759
447.964;   26.243;  -10.781;  713.770
448.555;   35.837;   -9.650;  822.742
449.145;   32.888;   -8.660;  662.853
449.736;   33.655;   -8.990;  803.179
450.326;   31.564;   -9.500;  713.626
450.917;   38.377;   -8.680;  675.324
451.507;   37.782;   -7.520;  600.661
452.097;   37.629;   -8.590;  746.267
452.688;   37.156;  -11.340;  742.160
453.278;   38.219;  -10.100;  566.840
453.868;   43.617;   -6.019;  793.550
454.458;   40.598;   -9.440;  651.141
455.048;   40.773;  -10.560;  711.783
455.639;   42.462;  -11.799;  567.096
456.229;   46.280;   -6.899;  710.694
456.819;   48.262;   -7.389;  751.158
457.409;   47.710;  -11.119;  773.993
457.999;   50.773;   -9.289;  737.505
458.589;   51.724;   -6.139;  686.606
459.179;   50.579;   -8.729;  717.658
459.769;   48.495;   -9.789;  627.099
460.358;   53.289;  -10.259;  797.262
460.948;   54.042;   -7.299;  689.503
461.538;   54.908;  -10.289;  660.677
462.128;   52.835;  -11.269;  664.934
462.717;   59.929;   -9.368;  710.326
463.307;   63.636;   -7.908;  705.846
463.897;   58.148;   -9.599;  656.942
464.486;   56.816;   -9.769;  837.128
465.076;   62.546;   -8.048;  733.776
465.666;   66.486;   -9.358;  652.900
466.255;   63.341;   -7.919;  785.651
466.845;   61.720;  -11.689;  666.749
467.434;   65.228;   -7.818;  725.873
468.023;   66.817;   -7.678;  658.357
468.613;   64.262;  -10.939;  713.946
469.202;   67.368;  -10.118;  646.507
469.791;   72.578;   -9.108;  737.811
470.381;   74.447;   -6.058;  742.813
470.970;   73.941;  -10.428;  711.099
471.559;   73.977;  -10.268;  733.291
472.148;   77.919;   -8.448;  675.737
472.738;   79.644;   -6.917;  765.466
473.327;   79.146;  -11.978;  637.529
473.916;   77.594;  -11.888;  737.446
474.505;   83.492;   -9.437;  751.703
475.094;   86.001;   -6.747;  806.570
475.683;   84.837;   -9.367;  797.699
476.272;   85.228;  -12.637;  730.632
476.861;   89.363;  -10.027;  706.754
477.449;   95.956;   -8.716;  728.487
478.038;   89.684;   -9.577;  692.513
478.627;   90.472;   -9.718;  714.852
479.216;   97.513;   -8.947;  769.441
479.805;  100.877;   -6.256;  783.375
480.393;  100.662;   -7.937; 1008.945
480.982;   98.173;   -7.717;  874.501
481.571;  105.840;   -9.266;  858.333
482.159;  106.633;   -7.636;  705.386
482.748;  105.888;   -9.667;  821.385
483.336;  110.394;  -10.376;  858.209
483.925;  111.102;   -7.147;  774.373
484.513;  118.389;   -7.996;  758.962
485.102;  114.459;  -10.027;  810.965
485.690;  122.385;  -10.446; 1011.050
486.278;  125.014;   -8.446;  979.329
486.867;  126.345;   -6.356;  809.662
487.455;  126.767;   -9.136;  898.229
488.043;  127.849;  -10.646;  748.361
488.631;  137.253;   -7.456; 1005.079
489.220;  141.806;   -6.636;  908.626
489.808;  141.592;  -11.036;  741.415
490.396;  148.931;  -10.246;  914.645
490.984;  154.949;   -8.556;  830.161
491.572;  165.159;   -5.886;  940.315
492.160;  169.273;   -9.486;  919.081
492.748;  180.410;  -10.976;  884.341
493.336;  202.577;   -8.776; 1019.693
493.924;  229.497;   -5.465;  958.077
494.512;  256.075;   -9.986; 1066.638
495.100;  291.351;  -10.636; 1103.280
495.687;  346.599;  -10.885; 1206.373
496.275;  408.754;   -8.126; 1150.796
496.863;  473.634;  -10.586; 1281.171
497.451;  571.023;  -11.926; 1386.805
498.038;  700.918;  -10.885; 1556.729
498.626;  805.611;   -6.315; 1741.407
499.214;  951.330;   -7.326; 2016.609
499.801; 1145.656;  -11.906; 2220.633
500.389; 1375.024;  -10.466; 2312.494
500.976; 1676.822;   -5.236; 2744.849
501.564; 2101.846;   -8.936; 3148.565
502.151; 2466.226;  -13.176; 3515.999
502.738; 2880.920;  -10.646; 3971.274
503.326; 3246.625;   -9.525; 4403.796
503.913; 3636.705;  -10.856; 5161.749
504.500; 4004.094;  -11.586; 5986.420
505.088; 4380.576;  -10.336; 6381.201
505.675; 4910.602;   -6.355; 6925.547
506.262; 5594.824;   -9.046; 7619.060
506.849; 6296.582;  -10.416; 8733.969
507.436; 6817.006;  -10.305; 9790.121
508.023; 7393.622;   -5.496; 9985.472
508.610; 7611.612;   -7.856;10434.618
509.197; 8212.982;  -10.097;11198.435
509.784; 9503.911;  -10.886;12391.194
510.371;10603.957;   -9.315;13603.713
510.958;11323.354;   -9.936;14426.586
511.545;12000.555;   -9.326;15243.775
512.132;12876.465;  -10.075;15945.876
512.719;13497.292;   -7.796;16340.369
513.305;14644.321;  -10.606;18011.766
513.892;15374.736;  -11.486;19754.971
514.479;16495.807;   -9.126;20967.805
515.066;17769.359;   -6.026;22299.793
515.652;19097.988;   -8.466;22908.660
516.239;20490.111;  -10.886;23798.875
516.825;21608.676;  -11.496;25567.275
517.412;22745.756;   -5.796;28154.959
517.998;23363.635;  -10.506;28344.111
518.585;23281.318;  -10.076;27134.219
519.171;23861.998;   -8.315;27268.576
519.758;25705.404;   -8.596;28964.129
520.344;27614.920;   -8.466;30664.494
520.930;27323.775;  -11.006;32550.605
521.516;28547.055;  -10.495;35422.895
522.103;30597.998;   -5.526;38280.004
522.689;31425.475;   -8.746;37835.117
523.275;30812.049;  -11.376;37288.613
523.861;31898.961;  -11.156;37281.395
524.447;33536.141;   -8.135;37846.949
525.033;33391.277;   -7.896;38321.949
525.619;33537.938;  -12.476;38579.285
526.205;34901.926;   -9.516;40622.875
526.791;37684.457;   -6.926;42258.836
527.377;37627.328;   -8.346;42966.902
527.963;38953.695;   -8.717;42018.949
528.549;37992.184;  -11.016;42476.828
529.135;36709.918;   -8.536;41854.852
529.721;35751.934;   -9.666;41237.711
530.306;35218.109;  -10.066;41259.445
530.892;35031.453;  -11.356;41506.047
531.478;36176.176;   -6.596;43559.613
532.063;39229.879;   -8.836;47695.563
532.649;40063.520;  -10.047;50808.324
533.235;40738.863;   -9.746;51787.500
533.820;41378.781;   -6.566;52145.035
534.406;42652.961;  -10.817;51133.488
534.991;42683.320;   -9.416;49996.805
535.576;41193.332;   -9.036;48882.852
536.162;41828.672;   -6.156;46942.285
536.747;43037.645;  -11.607;45711.746
537.333;46239.996;  -11.787;48510.180
537.918;48956.469;  -12.437;50439.891
538.503;47951.035;   -7.196;50863.711
539.088;44960.836;  -10.556;50906.922
539.673;45065.535;   -8.767;52621.965
540.259;45007.199;  -10.026;52368.094
540.844;42359.621;   -7.416;50879.109
541.429;43866.711;   -9.467;52077.777
542.014;46335.172;   -9.527;52716.695
542.599;45650.406;   -9.946;52363.281
543.184;42979.023;   -7.927;53187.137
543.769;44356.160;   -9.297;54697.605
544.354;44184.219;  -10.127;53913.914
544.938;42770.402;   -9.267;49680.164
545.523;44403.973;   -6.506;47386.277
546.108;46977.191;   -9.787;49151.949
546.693;49191.215;  -11.587;51384.637
547.278;49418.016;  -10.986;51853.254
547.862;46437.273;   -8.206;51173.750
548.447;41949.672;  -10.067;51691.395
549.031;41084.191;   -9.637;52456.703
549.616;45796.672;   -9.926;52714.516
550.201;45310.113;   -6.347;52414.598
550.785;46624.508;   -7.917;52355.059
551.370;45919.426;  -10.867;54589.453
551.954;45640.207;   -9.047;58267.348
552.538;46403.918;   -7.827;59062.176
553.123;44735.176;  -10.287;58115.285
553.707;42850.734;  -12.178;56556.285
554.291;44155.969;   -8.717;56201.668
554.876;46750.340;   -7.457;55335.762
555.460;46965.902;  -10.387;54155.703
556.044;47648.449;   -9.618;53721.484
556.628;45753.051;  -11.567;53731.016
557.212;44537.820;   -8.097;54312.531
557.796;43269.973;  -11.077;53797.773
558.380;43226.945;  -11.108;56145.984
558.964;43475.688;   -9.057;57277.930
559.548;44339.414;   -6.977;56459.641
560.132;42495.980;  -11.457;54434.543
560.716;41296.836;  -11.378;54800.617
561.300;42716.070;   -9.577;57606.945
561.884;43781.012;   -7.127;58972.445
562.467;42078.180;   -7.118;57327.570
563.051;41195.734;  -13.358;54962.434
563.635;42513.520;  -10.178;52594.473
564.219;43158.953;   -7.837;50610.410
564.802;43805.371;  -11.398;49551.180
565.386;43619.488;  -12.788;48370.953
565.969;43264.684;   -9.077;48178.871
566.553;42207.570;   -6.207;49957.305
567.136;42706.402;   -8.568;50369.594
567.720;39245.836;  -11.868;49492.004
568.303;37145.410;   -8.268;50616.352
568.887;37033.758;   -8.698;50727.148
569.470;37495.813;   -6.808;51698.379
570.053;36633.645;  -13.188;52122.078
570.637;34410.074;  -12.037;52536.438
571.220;33990.664;   -8.577;51186.098
571.803;34836.527;   -8.498;51032.762
572.386;37472.531;  -10.498;49609.887
572.969;39899.410;   -9.388;48285.926
573.552;37958.078;   -8.338;47624.285
574.135;36347.230;   -8.518;45498.641
574.718;33869.031;  -13.628;41970.434
575.301;33040.180;  -10.893;41447.137
575.884;32211.326;   -8.158;40923.836
576.467;33234.609;  -10.328;45267.723
577.050;34836.559;  -13.058;48175.543
577.633;36083.695;   -9.458;47729.328
578.216;35195.578;   -8.928;47579.793
578.799;34212.406;   -9.358;47820.996
579.381;33113.418;  -11.388;48115.551
579.964;31143.832;  -11.718;47333.766
580.547;32622.127;   -8.588;46668.969
581.129;33515.680;   -8.859;44466.141
581.712;34375.426;  -10.729;44164.922
582.294;34942.055;  -11.118;46477.855
582.877;35161.039;   -5.218;48244.254
583.459;33305.766;   -8.679;47437.895
584.042;31136.549;  -10.709;46943.219
584.624;31020.926;  -11.669;46792.227
585.206;30343.559;   -8.218;46557.250
585.789;30133.984;  -10.569;45793.773
586.371;31164.207;  -11.859;43836.391
586.953;29580.139;  -10.719;42972.492
587.536;28279.176;   -7.198;42487.211
588.118;29221.207;   -8.720;42086.414
588.700;29670.990;  -10.439;43389.930
589.282;31344.842;   -9.198;43646.039
589.864;33229.000;   -9.199;43438.109
590.446;34428.809;  -11.319;43151.926
591.028;34195.094;  -11.159;42781.867
591.610;33083.219;  -11.779;42839.098
592.192;30609.676;   -7.668;42820.402
592.774;29343.141;  -11.949;40724.277
593.356;28413.391;  -12.129;39874.789
593.937;27599.244;  -10.669;39980.648
594.519;29809.402;   -6.509;42069.633
595.101;31727.545;  -10.849;42976.031
595.683;31788.299;  -11.679;44084.441
596.264;32865.547;   -9.049;43478.797
596.846;32406.393;   -8.849;43803.672
597.427;31875.617;   -9.570;42986.934
598.009;33025.770;  -12.620;42832.219
598.591;33469.086;  -10.039;42580.086
599.172;32917.449;  -10.369;43061.805
599.753;33025.711;   -9.140;41691.469
600.335;34201.910;  -11.430;40692.520
600.916;32433.164;   -9.939;39982.422
601.498;30384.506;   -8.479;40318.617
602.079;28981.926;  -10.920;40670.609
602.660;28922.080;  -11.480;41450.898
603.241;30649.553;  -11.699;41137.738
603.823;29386.154;   -9.579;38868.797
604.404;29029.258;  -10.620;38182.785
604.985;30548.813;  -10.450;38078.047
605.566;30272.150;   -9.129;38056.633
606.147;30338.699;   -7.510;37020.418
606.728;32071.959;  -10.660;37883.359
607.309;30809.920;  -11.740;38748.273
607.890;30357.799;   -9.759;38850.230
608.471;29934.773;   -8.250;37457.918
609.051;29264.924;   -9.240;36066.457
609.632;27992.760;  -12.120;35991.074
610.213;28364.080;   -9.110;37402.641
610.794;29262.152;   -8.030;38383.363
611.374;29172.996;   -8.110;40562.387
611.955;29691.654;  -13.560;38533.727
612.536;30999.600;  -11.400;36951.789
613.116;30957.244;   -8.070;37197.891
613.697;31144.424;  -10.830;38411.125
614.277;29379.336;  -11.641;38673.938
614.858;30249.477;  -13.310;37075.863
615.438;29705.863;   -7.460;35092.906
616.019;27138.949;   -7.601;33666.301
616.599;27447.627;  -12.020;34189.023
617.179;29120.596;  -11.780;36952.047
617.760;30095.020;   -8.570;39582.574
618.340;30997.305;  -11.471;38943.977
618.920;32062.576;  -11.170;37594.156
619.500;32132.680;  -11.071;37866.938
620.080;31489.354;   -7.750;37869.043
620.660;32596.586;  -12.711;36868.617
621.241;34244.871;  -10.211;36352.309
621.821;34391.301;  -10.961;35459.520
622.401;33201.723;   -7.720;35207.414
622.980;32354.637;   -8.981;35980.422
623.560;30973.014;   -9.331;37351.328
624.140;29746.045;   -9.850;34388.582
624.720;24688.676;   -7.451;32368.764
625.300;21183.686;   -9.070;32638.629
625.880;24660.951;  -12.601;34599.035
626.459;28874.514;  -11.751;36831.738
627.039;31940.525;   -9.281;38299.098
627.619;31966.008;   -8.801;38289.574
628.198;30255.982;  -12.071;37220.695
628.778;29068.805;   -9.461;37632.563
629.357;29748.297;   -8.491;38003.012
629.937;29886.729;   -9.721;38402.039
630.516;29276.285;   -9.951;37868.801
631.096;28844.699;  -11.731;35760.410
631.675;31534.807;   -8.572;35225.219
632.254;36768.340;  -11.282;35130.289
632.834;36312.563;  -13.322;35794.570
633.413;34479.188;  -10.301;35788.922
633.992;31671.121;   -8.582;34532.863
634.571;32243.363;   -8.352;33590.113
635.151;34815.441;  -11.912;34943.863
635.730;33472.469;  -10.511;35352.523
636.309;30301.041;   -7.731;35366.605
636.888;27963.805;   -9.952;36165.637
637.467;28732.100;  -11.672;37515.902
638.046;30250.811;   -8.901;39288.695
638.625;33179.281;   -7.912;38279.699
639.204;32941.750;  -10.022;37741.598
639.782;31659.646;  -12.252;38364.551
640.361;27647.334;  -10.041;36740.621
640.940;24886.184;  -11.161;34950.082
641.519;25584.033;   -9.701;34137.398
642.097;28579.498;  -11.271;35654.258
642.676;31619.805;   -8.651;35637.957
643.255;32486.174;   -8.711;36567.074
643.833;31620.820;   -9.581;37809.434
644.412;31790.951;  -13.711;37337.293
644.990;30947.109;  -11.811;37018.531
645.569;31087.537;   -9.411;36518.469
646.147;30522.500;  -10.291;36186.430
646.726;30100.604;  -12.401;36267.688
647.304;30803.217;  -10.411;36647.625
647.882;32542.957;   -9.651;39286.742
648.461;34529.023;   -9.631;39157.703
649.039;32734.930;  -11.881;35412.883
649.617;31585.887;   -9.661;34744.918
650.195;30924.621;   -9.301;35403.098
650.773;29552.184;  -10.511;35053.797
651.352;27389.611;  -11.521;33756.816
651.930;25158.744;  -12.211;31868.773
652.508;23479.693;   -9.171;33121.551
653.086;27320.238;   -9.371;33564.793
653.663;30152.502;  -13.161;34054.668
654.241;29113.203;  -13.031;35693.309
654.819;30777.736;   -9.371;36422.906
655.397;30714.457;  -10.511;38213.484
655.975;30257.729;  -10.371;39507.625
656.553;29754.033;  -10.051;39498.223
657.130;28254.016;  -10.061;40395.480
657.708;27747.094;   -9.561;39242.020
658.286;27848.102;  -11.511;38920.020
658.863;28824.783;  -10.261;40202.898
659.441;32142.221;   -7.531;39677.938
660.018;32125.311;   -9.501;40413.355
660.596;30804.869;  -13.301;39931.414
661.173;32557.418;  -11.211;39604.531
661.750;32975.020;   -9.951;39700.070
662.328;31992.820;   -9.390;39292.809
662.905;30931.291;  -11.330;38235.648
663.482;26377.600;   -9.050;36212.305
664.060;24501.201;   -8.240;35944.945
664.637;27526.055;  -10.050;35170.785
665.214;29072.219;  -11.760;34197.523
665.791;30488.957;  -10.530;34549.520
666.368;29550.119;   -9.690;35118.578
666.945;30242.418;   -9.320;36019.418
667.522;31745.242;  -11.860;36048.438
668.099;31553.590;  -10.770;36243.914
668.676;30303.518;   -6.260;35958.875
669.253;28931.199;   -7.000;37384.730
669.830;29417.463;  -10.190;36779.629
670.407;29423.316;   -9.550;35231.289
670.984;29467.125;   -9.260;35544.270
671.560;30045.473;   -9.280;35466.867
672.137;28923.680;  -11.810;34280.863
672.714;29722.809;  -11.490;34632.863
673.290;30871.338;   -7.740;35135.422
673.867;31044.182;  -10.660;36114.480
674.443;30751.000;  -12.230;36152.859
675.020;28769.691;  -10.450;35327.238
675.596;29818.672;   -9.260;35795.176
676.173;30574.201;  -10.780;35430.355
676.749;30321.973;  -13.690;33549.516
677.326;30122.803;  -11.980;32210.012
677.902;30135.049;   -8.630;32068.871
678.478;29380.729;  -10.730;32583.891
679.054;28532.557;  -10.520;32088.928
679.631;28882.271;  -11.920;30978.848
680.207;30234.156;   -7.490;33160.887
680.783;31735.947;   -9.860;35570.363
681.359;30982.529;  -13.380;36125.184
681.935;30686.154;  -12.480;35240.922
682.511;30302.406;   -7.900;34429.961
683.087;30614.211;   -7.710;34463.680
683.663;30045.145;  -11.480;34648.898
684.239;28535.096;  -14.090;34546.457
684.815;27890.307;   -7.560;35586.375
685.390;28092.838;   -9.910;35821.895
685.966;28617.730;  -11.159;35085.871
686.542;31236.086;  -11.169;34198.230
687.118;33356.613;   -5.959;32847.707
687.693;33509.617;  -10.329;32794.027
688.269;33199.027;  -12.059;33072.367
688.844;31468.625;  -10.909;33141.664
689.420;29486.385;   -8.019;33965.742
689.995;27556.451;   -8.399;34655.523
690.571;26226.834;  -10.949;33576.742
691.146;26390.871;   -9.619;32657.219
691.722;26081.629;   -8.999;32526.979
692.297;26055.500;  -11.589;33014.617
692.872;27645.975;  -11.739;34012.254
693.448;27237.176;  -11.059;34237.434
694.023;26280.361;  -10.139;34142.672
694.598;28352.033;   -9.029;34132.031
695.173;29053.488;  -13.319;34205.250
695.748;28196.184;  -10.169;32882.488
696.323;27959.381;   -8.339;32864.906
696.898;28097.117;   -8.169;33170.004
697.473;28134.531;  -12.309;32432.984
698.048;27394.396;  -10.989;31649.303
698.623;27250.635;   -9.329;30778.141
699.198;28955.719;   -9.849;31140.119
699.773;30161.934;  -12.329;31764.299
700.348;28817.607;  -10.389;31780.816
700.922;28613.623;   -9.269;32046.375
701.497;29277.664;   -9.329;32603.574
702.072;29383.584;  -10.789;34799.871
702.646;28290.576;  -10.839;35793.172
703.221;26474.266;   -9.099;35201.590
703.795;28423.570;  -10.939;34764.527
704.370;28815.967;  -12.859;34307.367
704.944;28947.363;  -11.559;33509.887
705.519;29645.523;   -7.939;31388.584
706.093;31032.471;  -10.499;31340.104
706.668;31356.346;  -11.289;32630.281
707.242;30234.795;  -11.509;32728.779
707.816;28913.959;   -9.639;32947.238
708.390;27369.309;  -11.429;33277.855
708.965;27983.449;  -11.869;33834.336
709.539;28186.572;  -11.689;33709.273
710.113;28318.709;  -10.478;33044.313
710.687;27700.027;  -10.228;31953.992
711.261;26092.680;  -13.698;30505.949
711.835;26101.008;  -13.378;30262.369
712.409;26780.684;   -9.698;31254.447
712.983;28675.492;  -11.898;32754.986
713.557;29791.672;  -15.138;34018.824
714.131;29438.582;  -14.098;34579.625
714.704;28427.807;   -9.958;33890.262
715.278;26123.516;  -10.028;33531.102
715.852;25079.229;  -11.148;33601.660
716.425;26085.035;   -9.068;33515.117
716.999;27137.947;  -10.038;33185.555
717.573;28108.252;   -9.798;33905.996
718.146;29137.990;  -12.378;35199.293
718.720;28945.055;  -11.918;35060.551
719.293;28558.500;   -8.088;34973.230
719.867;31539.584;  -10.888;36394.449
720.440;31292.857;  -11.938;36663.008
721.013;29384.113;  -12.818;35102.426
721.587;27802.631;  -10.298;33985.266
722.160;26736.711;  -10.048;33524.965
722.733;25885.410;  -12.108;32987.043
723.306;26318.656;  -10.818;33066.301
723.880;28312.611;   -8.908;33399.500
724.453;30065.283;   -9.878;33468.297
725.026;29185.875;  -11.188;33816.637
725.599;26753.844;  -11.678;32797.996
726.172;27143.037;   -9.618;33187.434
726.745;28315.930;   -8.258;35136.613
727.318;29773.613;  -12.978;35751.730
727.891;30220.477;  -12.148;35890.430
728.463;29615.260;   -8.968;34822.090
729.036;28346.912;  -10.188;32895.086
729.609;28810.068;  -11.788;31823.225
730.182;25991.346;  -11.788;31445.283
730.754;23547.439;  -10.268;32373.223
731.327;23833.611;   -9.998;33676.820
731.900;24398.488;  -12.228;33417.000
732.472;25481.682;  -13.848;31978.498
733.045;27059.611;   -8.698;30368.777
733.617;26981.625;  -10.607;30574.215
734.190;26957.092;  -11.507;31280.975
734.762;24336.244;  -13.647;31674.412
735.334;22503.922;   -9.767;31247.291
735.907;22972.969;   -9.897;29876.211
736.479;23190.406;  -11.637;29808.488
737.051;22851.947;   -9.567;30233.547
737.623;23486.977;   -8.187;31469.086
738.195;24129.318;  -11.187;31784.225
738.768;26423.578;  -12.337;32120.523
739.340;26893.709;  -12.227;32094.342
739.912;25700.770;  -11.057;31312.680
740.484;24318.475;  -10.207;31946.238
741.056;22944.461;  -10.047;32984.059
741.628;24353.920;  -13.627;33897.715
742.199;26691.410;   -7.177;33213.016
742.771;25323.311;  -10.797;31369.113
743.343;23159.896;  -11.997;31865.473
743.915;22252.432;  -12.867;32388.631
744.487;22277.816;   -7.617;31079.568
745.058;22209.904;   -9.557;30570.107
745.630;22661.891;   -9.877;29970.127
746.201;23681.033;  -14.177;29186.766
746.773;24268.961;   -9.237;28805.723
747.344;24175.096;   -9.847;29591.223
747.916;22564.080;  -11.657;31412.201
748.487;22701.732;  -10.587;32194.898
749.059;24047.697;   -8.707;32533.719
749.630;24951.619;  -10.537;32158.518
750.201;24177.119;  -11.687;30855.395
750.773;22316.334;  -11.647;28622.555
751.344;22100.162;   -7.147;28405.732
751.915;23066.061;   -9.757;28461.551
752.486;22959.725;  -12.427;27842.850
753.057;20886.477;  -12.227;27845.008
753.628;19661.916;  -10.417;27728.107
754.199;20629.346;  -11.767;27381.086
754.770;21702.436;  -11.187;25882.203
755.341;21942.748;  -10.507;25886.184
755.912;21997.039;   -9.387;26050.861
756.483;21452.818;  -10.647;26798.779
757.054;19574.973;  -11.837;27048.238
757.625;18137.533;  -12.716;26294.838
758.195;18093.844;   -9.666;26142.076
758.766;17927.090;   -8.656;26392.234
759.337;18534.963;  -12.856;26334.594
759.907;20065.242;  -13.366;27579.652
760.478;20934.504;   -8.576;28352.770
761.048;20263.400;  -10.526;27325.088
761.619;19247.885;  -11.116;26460.428
762.189;19396.971;  -12.136;26029.826
762.760;20612.631;   -9.456;26430.145
763.330;21767.814;   -7.136;26670.902
763.900;21265.729;  -11.786;26603.021
764.471;18691.564;  -11.546;25542.740
765.041;17171.426;   -8.096;24358.459
765.611;17033.063;   -8.876;23991.297
766.181;17464.232;  -12.196;24470.236
766.751;18612.600;  -11.636;24845.975
767.321;18352.736;  -10.156;24533.633
767.891;16235.578;  -11.766;24916.492
768.461;15696.961;  -14.936;24776.771
769.031;16313.167;  -12.356;24757.988
769.601;17913.150;   -7.526;24181.088
770.171;17852.902;  -10.766;23670.387
770.741;17017.836;  -13.176;22960.045
771.311;17243.834;  -10.616;22917.523
771.880;17741.068;   -9.576;23562.941
772.450;17523.207;  -10.336;24216.500
773.020;17574.990;  -13.516;24140.398
773.589;16900.383;  -13.466;24414.857
774.159;16245.968;   -8.686;23858.717
774.729;15773.835;   -9.476;22942.135
775.298;15282.358;  -13.666;22324.033
775.867;14821.245;  -11.716;21140.313
776.437;14955.792;   -9.906;20838.092
777.006;14771.932;  -12.166;20599.510
777.576;14554.891;  -12.356;20508.809
778.145;14650.814;  -11.646;20732.947
778.714;14653.788;   -8.226;21062.465
779.283;14048.116;   -9.556;20949.664
779.853;13502.459;  -14.116;20508.623
780.422;13885.789;  -11.506;20649.082
780.991;13512.646;   -9.556;21527.520
781.560;12261.090;   -9.095;22632.658
782.129;11976.207;  -12.135;23048.277
782.698;11967.827;  -10.865;23438.555
783.267;11590.657;   -9.335;23267.734
783.836;11557.237;  -11.045;22415.133
784.404;12597.332;  -13.865;20443.152
784.973;13236.397;  -13.095;19699.150
785.542;13321.405;  -11.575;19763.828
786.111;13221.402;   -9.705;20341.408
786.679;12651.364;  -12.105;20207.967
787.248;12352.503;  -12.455;19516.465
787.817;12203.951;  -11.535;18900.363
788.385;11773.089;   -9.765;17879.121
788.954;11174.321;  -14.005;17658.301
789.522;10592.099;  -11.955;17788.879
790.090;11050.516;  -10.135;18118.277
790.659;11594.607;  -10.975;18338.736
791.227;11117.207;  -13.375;18508.615
791.795;11470.483;  -12.375;17898.254
792.364;11758.904;  -10.725;17295.133
792.932;12080.325;   -9.715;16822.051
793.500;12422.245;  -12.675;17040.148
794.068;12750.195;  -13.495;17179.787
794.636;12889.138;  -10.885;16664.246
795.204;12270.618;  -11.045;16524.545
795.772;12328.797;  -13.175;17274.564
796.340;11841.117;  -12.445;17891.002
796.908;11577.486;   -9.735;17648.561
797.476;11439.864;   -9.815;17064.080
798.044;11029.896;  -13.985;16672.777
798.612;10300.363;  -13.115;17023.996
799.180; 9869.049;  -10.185;16561.615
799.747; 9682.929;   -9.055;15962.773
800.315; 9426.374;  -12.385;15296.992
800.883; 9182.699;  -15.035;14801.771
801.450; 9297.366;  -10.365;14534.430
802.018; 9390.969;   -9.855;14173.248
802.585; 9438.014;  -11.905;14029.547
803.153; 9473.045;  -11.585;13836.846
803.720; 9279.530;   -9.095;13567.324
804.287; 8760.582;   -9.135;13360.622
804.855; 8295.399;  -11.604;13681.981
805.422; 8174.646;  -11.794;13536.560
805.989; 8215.216;  -10.734;13355.958
806.556; 8429.214;  -10.444;13747.896
807.124; 8723.764;  -12.764;13987.376
807.691; 8688.413;  -12.964;14038.674
808.258; 8471.306;  -11.134;14120.152
808.825; 8051.498;   -9.854;13860.111
809.392; 8138.564;  -10.504;13268.790
809.959; 7717.641;  -13.054;12680.389
810.526; 7265.496;   -8.294;12427.308
811.093; 7261.042;   -8.394;12030.105
811.659; 7826.016;  -12.304;11653.664
812.226; 8350.930;  -13.944;11637.183
812.793; 8064.079;  -10.484;11611.521
813.360; 7424.949;  -10.144;11885.181
813.926; 7113.135;  -11.684;12770.539
814.493; 6931.026;  -13.644;12677.638
815.060; 6567.873;   -9.724;11974.336
815.626; 6546.325;   -9.854;11594.715
816.193; 6927.383;  -13.254;11579.474
816.759; 6943.796;  -13.204;11666.972
817.325; 6954.603;   -9.434;11325.530
817.892; 7283.550;  -10.134;11105.369
818.458; 7706.815;  -13.474;10843.928
819.024; 7320.702;  -11.854;10714.406
819.591; 7017.898;  -10.244;10469.165
820.157; 6862.598;  -10.704;10235.523
820.723; 6409.351;  -12.324;10847.563
821.289; 6119.877;   -9.444;11040.980
821.855; 6021.681;   -8.374;10357.100
822.421; 5896.507;  -10.234; 9978.918
822.987; 5791.563;  -13.294; 9754.177
823.553; 5442.072;  -10.884;10065.755
824.119; 5283.292;   -8.884;10036.294
824.685; 5437.976;   -6.784;10029.192
825.251; 5582.114;  -12.004;10199.230
825.816; 5553.922;  -11.474; 9820.189
826.382; 5299.944;   -9.174; 9297.248
826.948; 5468.686;   -9.214; 9381.347
827.513; 5866.333;  -10.774; 9450.726
828.079; 5722.199;  -11.924; 9472.444
828.645; 5149.436;  -10.543; 9292.643
829.210; 5007.841;  -10.533; 9065.341
829.776; 4980.613;  -10.753; 9132.620
830.341; 4860.558;  -10.173; 9092.878
830.906; 5029.159;  -10.743; 9078.557
831.472; 5373.471;  -11.113; 8534.535
832.037; 5146.901;  -10.603; 8677.874
832.602; 4612.598;  -13.323; 8628.692
833.167; 4353.297;  -10.823; 8879.031
833.733; 4270.445;  -10.113; 9189.790
834.298; 4377.904;  -13.583; 9052.608
834.863; 4464.517;  -12.703; 8895.087
835.428; 4458.411;  -10.523; 8824.266
835.993; 4326.038;   -6.963; 8845.385
836.558; 4184.454;  -10.763; 8888.563
837.123; 4299.892;   -9.903; 8966.582
837.688; 4563.258;   -9.913; 8617.860
838.253; 4801.254;  -10.283; 8590.699
838.817; 4975.459;  -12.963; 8443.797
839.382; 4898.786;  -14.243; 8799.356
839.947; 4586.584;  -10.733; 8810.595
840.511; 4263.841;   -9.383; 8796.394
841.076; 3876.624;  -12.563; 8347.231
841.641; 3944.155;  -12.953; 8224.330
842.205; 4054.379;   -7.043; 8223.349
842.770; 4111.377;   -8.163; 8622.107
843.334; 4275.302;  -12.503; 8410.386
843.898; 4263.763;  -11.693; 8337.465
844.463; 4284.730;  -10.203; 8506.283
845.027; 4074.791;   -9.533; 8280.962
845.591; 3890.272;  -13.443; 8231.141
846.156; 3870.455;  -13.143; 7969.179
846.720; 3772.379;   -9.433; 7768.278
847.284; 3651.292;  -11.033; 7630.957
847.848; 3509.302;  -10.403; 7472.395
848.412; 3407.432;  -11.553; 7437.394
848.976; 3442.898;   -8.393; 7674.592
849.540; 3382.412;   -8.713; 7836.011
850.104; 3451.987;  -12.463; 7913.669
850.668; 3800.593;  -12.973; 7694.508
851.232; 3941.553;  -10.793; 7756.887
851.796; 3804.855;  -10.662; 7926.545
852.359; 3494.000;  -13.082; 7827.844
852.923; 3315.173;  -12.192; 7641.163
853.487; 3156.004;  -11.912; 7342.501
854.050; 3120.438;  -10.892; 7042.820
854.614; 3252.086;  -13.992; 7151.338
855.177; 3359.016;  -11.732; 7105.077
855.741; 3406.854;   -8.962; 6989.675
856.304; 3329.337;   -9.442; 6596.634
856.868; 3301.650;  -14.192; 6356.272
857.431; 3413.901;  -12.702; 6468.571
857.995; 3556.208;   -9.942; 6373.210
858.558; 3578.646;   -9.112; 6324.448
859.121; 3302.404;  -12.932; 6408.327
859.684; 3135.344;  -13.442; 6347.886
860.247; 3223.600;  -10.632; 6321.264
860.810; 3227.920;  -11.272; 6301.903
861.374; 2978.090;   -9.832; 6607.881
861.937; 2718.430;  -11.762; 6408.200
862.500; 2711.636;   -9.722; 6572.639
863.062; 2872.276;  -10.512; 6387.297
863.625; 3019.163;  -11.232; 6190.836
864.188; 3183.154;  -14.112; 5807.254
864.751; 3279.148;  -11.302; 5682.413
865.314; 3194.829;  -10.112; 5547.492
865.876; 2983.557;  -12.182; 5500.150
866.439; 2957.388;  -10.722; 5415.909
867.002; 2911.770;   -9.252; 5501.567
867.564; 2708.635;   -9.572; 5413.946
868.127; 2479.321;  -13.142; 5160.325
868.689; 2354.746;  -12.902; 5133.183
869.252; 2242.596;   -9.732; 5252.382
869.814; 2138.660;   -9.432; 5297.141
870.377; 2156.016;  -11.552; 5390.919
870.939; 2232.592;   -9.052; 5599.898
871.501; 2306.055;  -10.982; 5248.336
872.063; 2309.759;  -12.292; 4854.235
872.626; 2247.281;  -14.912; 4817.074
873.188; 2256.540;  -13.112; 4987.732
873.750; 2236.902;  -13.442; 4868.651
874.312; 2153.321;   -9.402; 4779.330
874.874; 2066.423;  -11.062; 4866.348
875.436; 1982.532;  -13.931; 4718.887
875.998; 1978.869;   -9.561; 4660.005
876.560; 2007.133;  -11.321; 4462.964
877.122; 1945.401;  -12.221; 4145.042
877.683; 1842.524;  -12.191; 4056.481
878.245; 1765.417;  -12.101; 3950.740
878.807; 1799.997;   -8.971; 4058.958
879.369; 1821.496;  -12.071; 3954.677
879.930; 1733.056;  -14.621; 3941.495
880.492; 1671.027;  -10.311; 4067.014
881.053; 1637.600;  -10.901; 3859.633
881.615; 1527.742;  -14.411; 3776.071
882.176; 1423.130;  -13.761; 3734.750
882.738; 1374.702;   -9.181; 3678.489
883.299; 1349.780;  -11.791; 3405.407
883.860; 1347.304;  -13.121; 3351.106
884.422; 1336.754;  -11.211; 3394.044
884.983; 1289.637;  -10.091; 3166.443
885.544; 1211.869;   -8.461; 3189.802
886.105; 1131.950;  -12.361; 3160.360
886.666; 1066.831;  -14.141; 3093.059
887.227; 1011.411;  -11.361; 2941.957
887.788;  948.486;  -11.401; 2974.836
888.349;  882.339;  -13.791; 2721.214
888.910;  879.237;  -13.191; 2696.493
889.471;  882.797;   -9.881; 2560.172
890.032;  863.085;   -9.881; 2558.190
890.593;  833.957;  -10.371; 2567.669
891.153;  804.915;  -13.301; 2460.307
891.714;  758.616;  -11.431; 2372.046
892.275;  721.231;  -11.291; 2309.505
892.835;  682.797;  -11.471; 2382.543
893.396;  627.305;  -11.541; 2295.502
893.956;  569.306;  -11.181; 2162.420
894.517;  529.263;  -11.741; 2125.439
895.077;  523.398;  -11.671; 2086.978
895.638;  527.411;  -11.311; 2126.316
896.198;  498.733;   -9.831; 1838.275
896.758;  455.772;   -8.421; 1892.813
897.319;  423.231;  -12.351; 1792.232
897.879;  408.590;  -13.511; 1762.751
898.439;  383.339;  -12.001; 1661.149
898.999;  357.110;  -10.180; 1781.468
899.559;  345.506;  -12.030; 1703.347
900.119;  340.759;  -15.710; 1537.525
900.679;  337.021;   -8.900; 1638.384
901.239;  321.914;   -8.340; 1527.902
901.799;  310.827;  -13.910; 1456.441
902.359;  304.411;  -13.460; 1357.140
902.919;  298.049;  -11.490; 1331.118
903.479;  286.228;  -12.110; 1317.257
904.038;  265.791;  -11.720; 1262.595
904.598;  248.817;  -13.610; 1152.034
905.158;  245.859;  -11.040; 1240.893
905.717;  239.581;  -10.900; 1233.691
906.277;  226.615;  -15.080; 1217.330
906.836;  217.729;  -13.380; 1222.408
907.396;  209.660;  -10.780; 1193.047
907.955;  202.263;   -8.500; 1182.526
908.515;  196.006;  -12.760; 1099.364
909.074;  189.234;  -11.900; 1092.863
909.633;  183.821;   -8.950; 1069.121
910.192;  179.630;   -8.770; 1196.460
910.752;  173.855;  -12.390; 1029.960
911.311;  168.744;  -13.680; 1009.780
911.870;  167.208;  -12.370;  971.460
912.429;  168.035;  -10.900; 1094.080
912.988;  167.335;  -11.690; 1081.060
913.547;  162.513;  -13.240;  940.380
914.106;  158.440;  -11.990;  999.420
914.665;  154.523;   -9.990;  984.020
915.224;  153.171;  -12.880; 1035.760
915.782;  153.242;  -12.350;  922.560
916.341;  153.506;   -9.110; 1049.840
916.900;  150.249;   -9.270;  925.260
917.458;  146.611;  -13.240;  884.220
918.017;  146.073;  -13.550;  942.600
918.576;  146.378;  -12.320;  904.440
919.134;  144.725;  -11.490;  837.980
919.693;  142.999;  -13.670;  893.060
920.251;  140.209;  -15.470;  876.500
920.809;  140.223;  -11.290;  839.580
921.368;  139.141;  -10.210;  885.360
921.926;  137.740;  -12.140;  842.940
922.484;  136.609;  -13.080;  903.360
923.042;  137.498;  -11.720;  880.340
923.601;  140.067;   -7.480;  998.680
924.159;  138.398;  -11.570;  935.560
924.717;  133.844;  -13.840;  841.080
925.275;  135.059;  -10.640;  903.240
925.833;  134.401;  -11.540;  779.320
926.391;  135.589;  -12.960;  938.380
926.949;  133.028;  -14.130;  857.680
927.506;  134.484;  -11.750;  903.500
928.064;  134.196;  -10.250;  877.580
928.622;  132.479;  -13.030;  880.100
929.180;  132.076;  -13.400;  814.180
929.737;  135.081;  -10.700;  808.540
930.295;  139.585;  -10.070;  928.480
930.853;  138.779;  -11.960;  849.100
931.410;  139.594;  -13.120;  821.120
931.968;  140.728;  -10.770;  940.660
932.525;  140.179;  -10.680;  909.380
933.082;  140.142;  -13.130;  811.440
933.640;  140.248;  -13.210;  925.900
934.197;  139.739;  -11.060;  886.360
934.754;  140.518;   -9.580;  897.780
935.312;  143.359;  -14.000;  863.340
935.869;  147.137;  -10.710; 1012.980
936.426;  148.991;   -9.860;  872.800
936.983;  150.080;   -9.710;  889.020
937.540;  148.918;  -13.990;  838.280
938.097;  147.175;  -14.040;  940.120
938.654;  147.863;  -10.310;  898.860
939.211;  151.257;  -10.560;  952.480
939.768;  154.655;  -13.900;  915.420
940.324;  157.887;  -14.760;  904.200
940.881;  159.947;  -10.370;  878.500
941.438;  160.964;   -8.260; 1021.200
941.995;  155.197;  -12.540;  992.560
942.551;  153.290;  -14.670;  875.620
943.108;  154.277;  -10.450;  937.920
943.664;  156.649;  -10.750;  869.340
944.221;  159.563;  -11.550; 1088.140
944.777;  156.906;  -14.770;  869.680
945.334;  158.080;  -12.820;  884.840
945.890;  159.986;  -10.130;  946.480
946.446;  159.128;  -13.470;  947.020
947.003;  160.662;  -12.120;  964.940
947.559;  164.705;   -9.980; 1063.040
948.115;  165.094;   -9.080; 1026.540
948.671;  162.093;  -10.830;  967.300
949.227;  159.845;  -12.440;  859.560
949.783;  157.479;  -12.910;  858.900
950.339;  160.280;  -10.270;  991.000
950.895;  159.665;  -13.630; 1023.840
951.451;  158.481;  -15.100;  925.280
952.007;  158.904;  -11.330;  998.540
952.563;  158.396;  -10.580;  937.780
953.118;  156.800;  -13.440;  904.940
953.674;  156.157;  -12.710;  935.780
954.230;  157.102;  -10.350;  949.640
954.785;  154.745;   -9.190;  936.640
955.341;  151.637;  -11.200;  998.160
955.897;  149.754;  -16.560;  834.660
956.452;  153.303;  -12.570;  953.840
957.008;  152.107;   -7.970; 1083.640
957.563;  149.601;  -11.940; 1009.540
958.118;  143.893;  -13.450;  877.700
958.674;  145.396;  -12.030;  946.780
959.229;  146.694;   -9.410; 1013.980
959.784;  144.305;  -12.000;  832.400
960.339;  144.116;  -14.780; 1001.280
960.894;  140.551;   -9.860;  963.760
961.449;  136.224;   -9.970;  859.960
962.004;  135.677;  -10.900; 1212.840
962.559;  129.985;  -13.150;  860.140
963.114;  127.846;  -13.740;  742.480
963.669;  127.666;   -9.820;  915.500
964.224;  125.292;  -13.890;  874.340
964.779;  123.773;  -12.600;  828.420
965.334;  126.273;  -10.950; 1017.860
965.888;  125.561;  -11.170;  875.360
966.443;  128.768;  -12.540;  972.380
966.998;  127.481;  -15.780;  819.460
967.552;  127.304;   -9.760;  908.380
968.107;  124.748;   -9.060;  868.300
968.661;  124.994;  -11.950;  922.440
969.216;  125.420;  -12.800;  856.280
969.770;  126.689;  -11.210;  917.200
970.324;  126.244;  -11.610;  923.140
970.879;  122.451;  -11.370;  947.180
971.433;  117.503;  -12.540;  952.720
971.987;  112.564;  -11.320;  895.340
972.541;  109.360;  -10.720;  917.100
973.095;  108.231;   -9.680; 1009.460
973.649;  106.553;  -11.440;  809.480
974.203;  106.639;  -11.210;  829.040
974.757;  106.576;  -10.240;  855.220
975.311;  107.316;  -13.720;  872.600
975.865;  106.295;  -13.770;  881.820
976.419;  103.485;  -11.690;  857.400
976.973;   99.699;   -9.510;  849.620
977.526;   92.639;  -12.620;  949.920
978.080;   82.801;  -12.010;  796.780
978.634;   78.843;  -10.170;  921.320
979.187;   76.692;   -9.020;  905.400
979.741;   77.871;   -9.820; 1018.380
980.294;   75.978;  -14.870;  789.160
980.848;   76.413;  -12.380;  717.220
981.401;   79.630;  -10.350;  816.540
981.955;   81.827;  -13.720;  844.300
982.508;   81.492;  -11.490;  746.340
983.061;   83.769;  -10.000;  915.260
983.615;   81.502;  -11.480;  798.800
984.168;   78.306;  -13.220;  770.080
984.721;   78.941;  -13.960;  880.760
985.274;   79.738;  -10.870;  867.500
985.827;   79.105;   -9.790;  834.220
986.380;   76.973;  -13.120;  721.340
986.933;   75.943;  -12.450;  864.800
987.486;   74.027;  -10.210;  861.920
988.039;   74.888;   -8.430;  863.100
988.591;   72.887;  -10.520;  893.260
989.144;   70.145;  -14.860;  737.260
989.697;   70.418;  -13.080;  758.740
990.250;   70.764;  -10.150;  858.100
990.802;   68.862;  -13.430;  755.860
991.355;   70.141;  -12.750;  974.880
991.907;   68.148;  -12.040;  864.320
992.460;   66.155;  -11.330;  753.760
993.012;   65.997;  -13.610;  749.540
993.565;   64.185;  -13.460;  711.360
994.117;   66.805;   -9.360;  950.780
994.669;   62.979;  -11.300;  701.320
995.221;   59.469;  -13.540;  791.920
995.774;   56.743;  -13.430;  787.580
996.326;   56.964;  -12.520;  740.220
996.878;   58.238;  -10.950;  838.420
997.430;   54.820;  -14.300;  699.860
997.982;   54.151;  -13.760;  750.140
998.534;   54.542;  -11.530;  739.060
999.086;   53.571;  -10.310;  738.220
999.638;   51.390;  -12.530;  661.380
1000.190;   51.197;  -11.840;  699.320
1000.741;   51.690;  -10.260;  742.700
1001.293;   52.090;   -8.860;  686.020
1001.845;   49.502;  -13.700;  676.640
1002.396;   48.701;  -12.100;  743.400
1002.948;   49.387;  -12.760;  737.400
1003.500;   48.389;  -10.380;  723.780
1004.051;   48.466;  -11.900;  907.580
1004.603;   45.963;  -12.250;  791.820
1005.154;   43.164;  -13.210;  608.980
1005.705;   43.105;  -10.950;  723.960
1006.257;   41.302;  -13.880;  707.220
1006.808;   40.686;  -12.840;  685.460
1007.359;   41.566;  -10.570;  763.240
1007.910;   39.910;   -9.620;  646.640
1008.461;   39.423;  -13.630;  732.940
1009.013;   37.495;  -17.200;  588.340
1009.564;   39.859;  -10.200;  793.520
1010.115;   37.611;  -12.570;  597.040
1010.665;   37.256;  -15.150;  602.160
1011.216;   37.071;  -14.480;  667.920
1011.767;   36.843;  -11.340;  697.920
1012.318;   37.593;   -9.780;  736.980
1012.869;   35.861;  -12.380;  679.000
1013.419;   34.534;  -15.560;  603.120
1013.970;   36.361;  -11.010;  666.640
1014.521;   34.931;  -11.610;  620.620
1015.071;   35.179;  -13.450;  670.380
1015.622;   34.503;  -13.870;  635.460
1016.172;   34.063;  -11.610;  596.820
1016.723;   34.090;  -12.120;  614.380
1017.273;   33.923;  -13.620;  604.160
1017.823;   33.291;  -14.140;  650.340
1018.374;   33.289;  -12.800;  611.760
1018.924;   33.316;  -12.340;  716.880
1019.474;   32.887;  -11.410;  718.880
1020.024;   31.534;  -14.770;  657.580
1020.574;   33.277;   -9.780;  726.160
1021.124;   33.389;   -8.560;  673.580
1021.674;   30.797;  -15.190;  559.120
1022.224;   32.120;  -13.530;  708.940
1022.774;   31.187;  -13.280;  668.820
1023.324;   32.160;  -10.690;  753.520
1023.874;   33.484;  -10.240;  875.760
1024.423;   30.639;  -12.540;  613.700
1024.973;   30.416;  -10.010;  610.760
1025.523;   29.957;  -10.550;  620.960
1026.072;   30.214;  -13.560;  606.420
1026.622;   28.544;  -15.120;  675.740
1027.172;   31.057;  -11.260;  715.660
1027.721;   30.484;  -11.410;  601.220
1028.270;   29.742;  -13.530;  663.400
1028.820;   28.871;  -13.680;  638.080
1029.369;   29.122;  -13.520;  612.700
1029.918;   29.502;  -10.980;  649.840
1030.468;   28.871;  -13.530;  564.780
1031.017;   29.121;  -13.170;  634.800
1031.566;   27.486;  -12.200;  608.900
1032.115;   28.985;   -9.960;  694.500
1032.664;   27.477;  -13.210;  596.480
1033.213;   27.646;  -12.500;  735.420
1033.762;   27.941;  -11.910;  635.620
1034.311;   28.087;   -9.640;  677.220
1034.860;   27.084;  -13.310;  691.000
1035.408;   26.523;  -11.830;  722.720
1035.957;   28.148;  -12.000;  719.540
1036.506;   26.404;  -11.690;  530.800
1037.055;   27.916;  -10.990;  844.320
1037.603;   26.353;  -15.120;  664.000
1038.152;   25.229;  -12.450;  534.760
1038.700;   26.026;  -10.560;  585.740
1039.249;   25.316;  -11.080;  681.220
1039.797;   25.414;  -12.540;  633.360
1040.345;   25.570;  -11.920;  705.420
1040.894;   25.190;  -11.410;  625.300
1041.442;   24.922;  -14.320;  632.200
1041.990;   23.492;  -16.240;  559.160
1042.538;   24.056;  -11.680;  536.180
1043.087;   24.507;  -10.760;  570.860
1043.635;   25.178;  -11.850;  670.500
1044.183;   23.102;  -15.480;  586.400
1044.731;   23.190;  -11.770;  576.000
1045.279;   23.714;  -13.090;  674.920
1045.827;   25.130;  -12.440;  892.400
1046.374;   22.082;  -13.840;  515.420
1046.922;   22.300;  -13.220;  590.580
1047.470;   24.098;  -10.230;  691.300
1048.018;   23.891;  -14.590;  647.960
1048.565;   23.868;  -12.050;  708.600
1049.113;   22.097;  -11.650;  557.000
1049.660;   22.407;  -10.510;  629.660
1050.208;   22.517;  -13.310;  675.640
1050.755;   21.354;  -15.900;  606.580
1051.303;   22.255;  -11.430;  686.820
1051.850;   21.663;   -8.480;  635.120
1052.397;   19.436;  -15.010;  473.960
1052.945;   20.524;  -13.960;  617.760
1053.492;   22.578;  -13.150;  741.840
1054.039;   22.336;   -9.630;  720.180
1054.586;   20.130;  -13.680;  557.240
1055.133;   20.901;  -14.570;  693.140
1055.680;   21.358;  -13.820;  646.620
1056.227;   20.598;  -11.730;  542.780
1056.774;   21.515;  -12.480;  794.980
1057.321;   19.338;  -13.930;  523.260
1057.868;   20.520;  -11.690;  651.320
1058.415;   20.374;   -9.520;  651.980
1058.961;   20.656;  -13.160;  678.940
1059.508;   19.098;  -12.920;  643.820
1060.055;   20.071;  -11.920;  581.780
1060.601;   20.790;  -11.500;  624.300
1061.148;   19.603;  -14.330;  616.820
1061.694;   18.026;  -16.870;  592.580
1062.241;   18.751;  -10.330;  596.320
1062.787;   19.611;  -10.620;  663.140
1063.334;   20.380;  -10.110;  808.560
1063.880;   18.590;  -13.400;  668.360
1064.426;   18.916;  -10.680;  706.820
1064.972;   18.045;   -9.920;  601.340
1065.518;   16.705;  -10.980;  566.640
1066.065;   18.892;  -14.890;  624.460
1066.611;   17.362;  -12.870;  598.800
1067.157;   19.377;  -12.950;  641.860
1067.703;   17.842;  -13.540;  668.480
1068.249;   17.042;  -13.540;  605.220
1068.794;   17.810;  -12.600;  626.880
1069.340;   16.868;  -10.620;  578.960
1069.886;   17.004;  -12.830;  590.700
1070.432;   16.555;  -14.870;  541.720
1070.977;   16.608;  -11.980;  601.080
1071.523;   17.496;   -8.200;  573.060
1072.068;   16.843;  -12.330;  582.000
1072.614;   16.138;  -16.370;  527.760
1073.160;   17.327;  -11.100;  687.040
1073.705;   16.107;  -10.480;  572.520
1074.250;   15.471;  -14.520;  559.900
1074.796;   16.214;  -11.460;  655.160
1075.341;   16.836;  -11.950;  664.100
1075.886;   16.517;  -11.460;  594.240
1076.431;   15.839;  -13.770;  649.880
1076.976;   14.571;  -12.680;  639.220
1077.521;   15.257;  -13.170;  583.080
1078.067;   14.506;  -10.860;  579.400
1078.612;   15.319;  -13.920;  661.620
1079.156;   14.546;  -13.880;  601.540
1079.701;   15.882;  -13.120;  693.260
1080.246;   16.054;   -9.940;  696.300
1080.791;   14.677;  -14.740;  625.020
1081.336;   15.090;  -13.750;  659.320
1081.880;   14.266;  -13.400;  649.680
1082.425;   14.335;  -12.220;  573.480
1082.970;   15.390;  -11.610;  717.040
1083.514;   12.966;  -13.580;  597.000
1084.059;   13.090;  -12.810;  586.720
1084.603;   13.346;  -12.320;  565.840
1085.147;   14.013;  -13.190;  645.220
1085.692;   13.834;  -12.480;  716.800
1086.236;   12.481;  -13.020;  503.140
1086.780;   15.733;   -9.190;  751.440
1087.325;   13.637;  -12.480;  654.620
1087.869;   13.044;  -12.450;  610.700
1088.413;   13.331;  -12.240;  705.040
1088.957;   12.629;   -9.020;  543.400
1089.501;   13.966;  -10.320;  766.640
1090.045;   12.409;  -12.720;  726.480
1090.589;   11.670;  -13.690;  569.920
1091.133;   13.407;  -10.020;  673.340
1091.676;   12.232;  -12.330;  591.940
1092.220;   11.461;  -14.970;  600.920
1092.764;   12.609;  -12.430;  706.960
1093.307;   12.730;   -9.800;  673.780
1093.851;   11.532;  -14.970;  556.540
1094.395;   11.416;  -15.310;  683.140
1094.938;   10.980;  -10.370;  632.520
1095.482;   11.668;  -11.050;  559.800
1096.025;   12.027;  -11.840;  710.880
1096.568;   12.140;  -12.840;  779.280
1097.112;    9.987;  -14.700;  508.180
1097.655;   11.580;   -8.720;  603.000
1098.198;   10.151;  -13.610;  600.180
1098.741;    9.422;  -13.350;  612.860
1099.285;   11.011;  -11.230;  657.300
1099.828;    9.693;  -11.840;  439.400
1100.371;   11.152;  -10.840;  608.160
1100.914;    9.676;  -14.190;  682.660
1101.457;   10.410;  -11.240;  679.900
1101.999;    9.692;  -11.270;  584.680
1102.542;    9.649;  -11.480;  641.440
1103.085;    9.059;  -11.750;  658.500
1103.628;   10.429;  -11.400;  762.060
1104.170;    9.685;  -10.490;  588.280
1104.713;    9.946;  -10.600;  646.700
1105.256;    9.108;  -14.360;  557.440
1105.798;    8.213;  -13.210;  499.980
1106.341;   10.597;  -10.270;  728.900
1106.883;    9.132;  -12.200;  521.340
1107.425;    8.712;  -13.110;  668.180
1107.968;    8.939;  -12.840;  612.380
1108.510;   10.362;   -6.480;  684.960
1109.052;    7.749;  -13.940;  612.620
1109.594;    7.403;  -13.690;  554.440
1110.136;    9.125;  -11.880;  643.220
1110.679;    8.839;   -9.500;  633.080
1111.221;    7.723;  -14.160;  604.460
1111.763;    7.112;  -13.980;  559.220
1112.304;    7.828;  -13.880;  547.140
1112.846;    9.191;  -12.210;  666.240
1113.388;   10.859;  -11.390;  942.180
1113.930;    7.222;  -14.540;  694.200
1114.472;    7.581;  -12.640;  606.540
1115.013;    7.039;  -11.620;  551.280
1115.555;    6.539;  -13.640;  587.100
1116.097;    5.482;  -15.380;  579.480
1116.638;    7.089;  -12.640;  684.600
1117.180;    8.475;   -9.850;  667.740
1117.721;    6.932;  -13.690;  568.580
1118.262;    7.547;  -12.680;  677.960
1118.804;    7.380;  -12.530;  637.340
1119.345;    6.435;  -11.690;  578.400
1119.886;    7.472;  -13.380;  704.040
1120.427;    5.322;  -14.070;  589.020
1120.969;    5.495;  -13.500;  597.920
1121.510;    5.682;  -11.480;  563.060
1122.051;    6.197;  -12.830;  723.580
1122.592;    5.234;  -14.290;  655.420
1123.133;    4.278;  -12.400;  547.940
1123.673;    7.093;  -10.130;  706.480
1124.214;    5.213;  -12.930;  612.460
1124.755;    5.412;  -14.380;  639.460
1125.296;    5.859;  -14.000;  627.320
1125.836;    7.024;  -10.070;  691.500
1126.377;    4.994;  -12.640;  599.660
1126.918;    5.364;  -12.960;  614.980
1127.458;    5.167;  -13.350;  622.220
1127.999;    5.941;  -10.750;  656.980
1128.539;    6.256;  -12.350;  694.240
1129.079;    4.476;  -14.860;  632.720
1129.620;    4.432;  -13.840;  558.100
1130.160;    5.234;  -12.330;  539.480
1130.700;    5.605;  -14.530;  640.840
1131.240;    4.941;  -12.530;  643.700
1131.781;    5.135;  -14.450;  619.680
1132.321;    4.816;   -9.790;  599.120
1132.861;    3.662;  -14.860;  564.200
1133.401;    2.844;  -14.290;  593.940
1133.941;    4.125;  -11.750;  626.280
1134.481;    3.943;   -9.920;  597.580
1135.020;    2.996;  -12.290;  609.160
1135.560;    3.336;  -11.650;  674.940
1136.100;    3.013;  -16.270;  501.160
1136.640;    3.644;  -10.890;  510.480
1137.179;    3.286;  -14.180;  537.960
1137.719;    3.497;  -16.250;  605.400
1138.258;    4.030;  -14.230;  587.360
1138.798;    4.001;   -9.090;  663.780
1139.337;    2.459;  -15.130;  482.840
1139.877;    2.643;  -13.680;  642.360
1140.416;    5.310;  -11.320;  878.060
1140.955;    2.449;  -10.860;  535.380
1141.494;    3.369;  -12.920;  669.280
1142.034;    1.966;  -13.930;  583.520
1142.573;    4.185;  -11.440;  646.280
1143.112;    2.223;  -12.000;  553.480
1143.651;    2.417;  -13.670;  536.480
1144.190;    2.933;  -12.730;  691.640
1144.729;    2.593;  -14.560;  607.420
1145.267;    2.859;  -11.830;  584.900
1145.806;    3.443;  -12.230;  637.040
1146.345;    1.331;  -14.130;  635.020
1146.884;    2.204;  -11.590;  622.500
1147.422;    1.343;  -12.550;  533.060
1147.961;    2.890;  -11.180;  708.460
1148.500;    2.196;  -11.510;  669.720
1149.038;    2.534;  -11.640;  632.500
1149.577;    3.234;  -10.130;  698.640
1150.115;    0.376;  -13.970;  452.280
1150.653;    1.289;  -14.520;  607.340
1151.192;    1.862;  -12.810;  552.920
1151.730;    2.527;   -9.100;  652.560
1152.268;    0.753;  -12.220;  589.520
1152.806;    1.192;  -14.140;  571.180
1153.344;   -0.144;  -12.350;  577.640
1153.882;    2.132;   -8.980;  600.060
1154.421;   -0.252;  -15.190;  470.620
1154.958;    0.216;  -15.210;  595.240
1155.496;    1.461;  -12.850;  645.280
1156.034;    2.124;   -9.940;  721.880
1156.572;    1.966;  -13.570;  667.060
1157.110;   -0.538;  -14.590;  473.940
1157.647;    1.488;  -13.030;  676.960
1158.185;    0.494;  -12.140;  564.320
1158.723;   -0.731;  -14.390;  509.200
1159.260;   -0.426;  -14.090;  701.700
1159.798;    1.493;  -11.920;  658.160
1160.335;    0.576;  -11.110;  631.820

