gmr_left
Integration time [ms]: 3468.598
Averaging Nr. [scans]: 10
Smoothing Nr. [pixels]: 0
Data measured with spectrometer [name]: 7414430SP
Wave   ;Sample   ;Dark     ;Reference
[nm]   ;[counts] ;[counts] ;[counts] 

288.544; 5156.891; 4983.385;    6.613
289.143; 4226.343; 4054.288;   14.216
289.742; 5490.375; 5296.867;   11.816
290.341; 5275.386; 5071.188;   -4.936
290.940; 4808.832; 4633.392;    0.852
291.538; 6048.542; 5870.872;    1.792
292.137; 5331.976; 5171.827;    6.262
292.736; 6957.286; 6773.389;    8.164
293.335; 4928.694; 4733.773;   -6.418
293.934; 5298.291; 5105.711;   -2.904
294.532; 7476.003; 7282.726;   -5.162
295.131; 5913.296; 5726.518;  -10.283
295.730; 5729.340; 5546.961;  -16.141
296.328; 5532.832; 5353.235;  -14.740
296.927; 5484.671; 5314.389;   -8.768
297.525; 5475.344; 5271.474;  -15.255
298.124; 4464.542; 4280.530;  -22.063
298.722; 5315.082; 5165.127;  -14.796
299.321; 4916.445; 4751.758;  -10.466
299.919; 5296.235; 5105.331;  -10.979
300.518; 4838.646; 4674.793;  -12.077
301.116; 4815.141; 4680.521;  -13.509
301.715; 5131.587; 4971.916;  -11.939
302.313; 4958.666; 4778.250;  -15.424
302.911; 5279.600; 5092.749;  -19.833
303.509; 6881.762; 6712.962;   -3.567
304.108; 5414.722; 5252.457;   -9.553
304.706; 5802.679; 5641.515;   -8.582
305.304; 5863.361; 5735.520;  -12.348
305.902; 5612.335; 5445.572;  -14.411
306.500; 5238.661; 5061.710;   -7.194
307.098; 5445.272; 5250.898;   -9.322
307.696; 5772.502; 5572.651;  -19.192
308.294; 5321.648; 5156.146;   -9.736
308.892; 5529.442; 5383.022;  -15.482
309.490; 5104.251; 4946.583;  -14.107
310.088; 5860.533; 5709.054;  -15.862
310.686; 6045.598; 5862.354;  -10.781
311.284; 5655.794; 5498.425;  -14.878
311.882; 5244.257; 5091.407;   -9.948
312.480; 5043.540; 4933.328;  -15.503
313.078; 6092.801; 5942.025;  -17.262
313.675; 5020.960; 4875.110;   -3.694
314.273; 5994.899; 5857.348;  -18.246
314.871; 4179.008; 4039.000;  -15.190
315.468; 4765.300; 4617.749;  -12.633
316.066; 5111.072; 4944.624;   -5.765
316.664; 4762.379; 4640.783;  -14.317
317.261; 6943.518; 6802.427;   -8.677
317.859; 5866.052; 5734.268;  -11.804
318.456; 6371.587; 6212.525;   -3.107
319.054; 5983.497; 5840.912;   -3.062
319.651; 5702.174; 5547.735;   -6.706
320.249; 6245.474; 6109.685;   -5.206
320.846; 5412.803; 5266.352;   -4.679
321.443; 6497.418; 6334.103;   -7.920
322.041; 6345.597; 6195.737;  -14.105
322.638; 5417.810; 5261.052;   -6.263
323.235; 4974.866; 4863.250;   -7.424
323.833; 5706.740; 5567.545;  -14.765
324.430; 4580.983; 4435.237;  -10.550
325.027; 6830.764; 6712.098;   -9.951
325.624; 4777.448; 4616.812;   -3.712
326.221; 5111.035; 4968.497;   -9.368
326.818; 6267.725; 6091.093;   -5.637
327.415; 5531.453; 5355.476;   -6.699
328.012; 5037.070; 4863.679;   -5.713
328.609; 5334.332; 5162.610;   -9.983
329.206; 5817.963; 5645.363;   -7.154
329.803; 5369.974; 5211.901;   -1.682
330.400; 5063.373; 4900.641;   -2.741
330.997; 6023.851; 5817.924;   -4.339
331.594; 5812.258; 5646.983;  -10.278
332.191; 5206.398; 4995.754;   -6.967
332.787; 6164.089; 5969.677;   -0.480
333.384; 5438.604; 5257.662;  -10.333
333.981; 5933.160; 5771.552;  -19.900
334.578; 4985.357; 4783.916;  -19.816
335.174; 5139.741; 4998.339;  -15.844
335.771; 6126.286; 5919.491;  -12.670
336.367; 5114.655; 4916.472;  -21.124
336.964; 5826.481; 5640.552;  -18.226
337.561; 5253.624; 5090.344;  -13.311
338.157; 6831.764; 6657.257;  -19.006
338.754; 5837.086; 5671.309;  -19.418
339.350; 5217.871; 5050.082;  -29.433
339.946; 5588.529; 5393.192;  -16.622
340.543; 6285.031; 6090.361;  -16.744
341.139; 5254.096; 5095.704;  -21.841
341.735; 5811.436; 5610.534;  -25.012
342.332; 5076.313; 4912.607;  -19.156
342.928; 5923.981; 5749.129;  -20.443
343.524; 5749.687; 5588.802;  -14.397
344.120; 5536.350; 5379.784;  -20.654
344.716; 5283.155; 5094.014;   -5.730
345.313; 6010.318; 5839.472;  -10.929
345.909; 4534.586; 4381.842;  -19.843
346.505; 5539.448; 5364.214;  -19.645
347.101; 6241.377; 6056.932;   -9.618
347.697; 5929.923; 5751.302;  -10.305
348.293; 4537.521; 4347.975;  -23.189
348.889; 5587.150; 5446.116;  -18.418
349.485; 5021.535; 4872.965;  -10.476
350.081; 5811.335; 5670.291;  -17.320
350.676; 5179.880; 5000.419;  -21.088
351.272; 6121.321; 5950.016;  -12.821
351.868; 5781.366; 5612.910;  -13.165
352.464; 5355.813; 5204.664;  -12.464
353.059; 4768.210; 4613.287;  -22.547
353.655; 5894.365; 5722.059;   -9.379
354.251; 5690.979; 5519.300;   -8.266
354.846; 5554.491; 5425.623;  -17.705
355.442; 5616.200; 5447.184;   -9.317
356.038; 5606.428; 5455.090;  -11.049
356.633; 5415.204; 5254.163;  -10.006
357.229; 5409.399; 5228.999;  -13.120
357.824; 5282.970; 5095.231;  -15.647
358.420; 5024.146; 4871.454;  -19.204
359.015; 5111.231; 4953.653;  -12.263
359.610; 5769.148; 5623.981;  -16.421
360.206; 4387.636; 4244.451;  -20.074
360.801; 4715.675; 4567.671;  -13.277
361.396; 5417.729; 5273.642;   -5.822
361.992; 4999.370; 4822.082;  -11.247
362.587; 5004.048; 4866.389;  -21.502
363.182; 5151.978; 5012.657;   -7.461
363.777; 5615.963; 5452.306;   -8.719
364.372; 5587.838; 5417.878;  -14.590
364.967; 5121.944; 4998.401;  -15.145
365.563; 6204.360; 6062.795;   -7.192
366.158; 5099.395; 4955.311;   -5.662
366.753; 4831.720; 4656.940;   -8.378
367.348; 5697.298; 5508.222;  -14.990
367.942; 5221.823; 5090.001;   -6.005
368.537; 5713.301; 5566.585;  -11.504
369.132; 5340.794; 5163.560;  -10.576
369.727; 4718.691; 4572.582;  -12.573
370.322; 4364.969; 4212.081;  -11.560
370.917; 5439.180; 5272.619;  -10.388
371.511; 6753.182; 6595.170;   -9.161
372.106; 6046.844; 5869.301;  -10.245
372.701; 4398.338; 4245.487;  -10.158
373.296; 6666.595; 6521.885;   -4.719
373.890; 4954.048; 4797.689;  -11.802
374.485; 5345.158; 5206.901;  -13.500
375.079; 5728.090; 5582.247;   -6.276
375.674; 6306.342; 6178.866;   -0.447
376.268; 5251.023; 5119.886;   -6.916
376.863; 4458.015; 4325.718;  -14.483
377.457; 5085.465; 4959.743;   -6.903
378.052; 5972.699; 5812.932;   -9.844
378.646; 5813.071; 5688.691;  -12.601
379.240; 5615.975; 5483.954;  -14.715
379.835; 4951.345; 4791.252;  -12.331
380.429; 4302.632; 4139.587;   -9.074
381.023; 6114.878; 6023.366;   -1.729
381.617; 5311.657; 5193.600;  -13.714
382.212; 5338.564; 5199.617;   -7.060
382.806; 5970.365; 5856.393;   -2.303
383.400; 5305.438; 5194.861;   -0.815
383.994; 5275.142; 5127.624;   -4.429
384.588; 5523.805; 5394.073;   -6.261
385.182; 5777.355; 5638.881;    0.008
385.776; 5660.406; 5545.624;   -3.247
386.370; 5430.127; 5300.699;   -1.030
386.964; 5425.961; 5324.055;   -1.346
387.558; 4713.203; 4587.712;   -2.020
388.152; 5445.580; 5338.543;   -5.345
388.745; 6614.904; 6478.322;   -2.774
389.339; 5883.606; 5769.749;    3.510
389.933; 5447.076; 5325.146;    5.280
390.527; 7010.330; 6889.151;    2.610
391.120; 4755.534; 4663.248;   -7.914
391.714; 5652.625; 5553.737;   -1.903
392.308; 6331.703; 6199.287;    6.023
392.901; 5179.593; 5082.758;   -4.103
393.495; 4830.115; 4713.759;    3.284
394.089; 6270.812; 6189.122;    8.655
394.682; 5701.240; 5610.813;    2.312
395.275; 5891.416; 5792.710;   -7.402
395.869; 5468.383; 5370.055;   -1.072
396.462; 4998.552; 4932.678;    6.454
397.056; 6298.027; 6202.715;    8.494
397.649; 6020.339; 5922.913;    1.599
398.242; 5874.534; 5768.239;    3.153
398.836; 6283.851; 6167.017;   11.395
399.429; 5080.682; 5014.096;   14.695
400.022; 5466.251; 5395.776;    3.627
400.615; 6705.696; 6618.121;    8.383
401.208; 5588.155; 5498.181;   13.295
401.802; 5779.285; 5681.382;    6.211
402.395; 5691.151; 5596.026;    7.227
402.988; 5736.126; 5664.872;    2.700
403.581; 5212.021; 5136.675;   11.225
404.174; 5542.684; 5480.048;   18.922
404.767; 5162.108; 5071.610;   14.169
405.360; 5134.566; 5064.078;    8.999
405.953; 6251.727; 6154.089;   13.138
406.545; 5979.140; 5915.479;   13.937
407.138; 5031.477; 4989.331;   10.869
407.731; 5036.053; 4971.279;   12.768
408.324; 5370.638; 5308.193;   22.921
408.917; 5644.156; 5555.781;   15.308
409.509; 6155.741; 6066.265;   12.239
410.102; 5361.883; 5291.206;   13.741
410.695; 5469.790; 5394.863;   20.249
411.287; 4968.317; 4872.253;   21.793
411.880; 4798.729; 4750.541;   22.965
412.472; 5078.945; 4994.453;   15.082
413.065; 5284.039; 5211.779;   23.423
413.657; 4763.378; 4700.924;   21.077
414.250; 5327.994; 5250.026;   12.349
414.842; 5557.248; 5521.505;   20.423
415.434; 4752.586; 4676.125;   19.906
416.027; 5318.254; 5250.987;   26.574
416.619; 5920.827; 5860.780;   15.705
417.211; 4887.435; 4856.906;   17.791
417.804; 5148.714; 5078.208;   30.244
418.396; 5052.742; 4972.632;   24.177
418.988; 5464.912; 5394.105;   24.904
419.580; 4696.854; 4639.345;   20.692
420.172; 4457.264; 4422.949;   22.275
420.764; 5481.663; 5436.114;   26.773
421.356; 5270.045; 5234.536;   25.731
421.948; 5576.128; 5520.057;   24.876
422.540; 5554.472; 5486.917;   30.042
423.132; 4952.285; 4874.056;   32.728
423.724; 4580.749; 4547.598;   21.317
424.316; 5129.402; 5074.269;   29.359
424.908; 4880.722; 4818.475;   28.798
425.500; 5314.146; 5270.527;   30.512
426.092; 5298.862; 5262.205;   26.741
426.683; 5737.376; 5674.779;   27.029
427.275; 5240.368; 5220.344;   32.611
427.867; 5433.685; 5381.797;   33.796
428.458; 6021.813; 5979.088;   34.453
429.050; 5625.386; 5560.808;   34.255
429.642; 6102.756; 6064.581;   39.082
430.233; 4553.365; 4497.833;   41.138
430.825; 6016.465; 5978.757;   31.581
431.416; 5760.918; 5693.486;   35.755
432.008; 5291.922; 5234.766;   40.566
432.599; 5294.927; 5254.004;   46.322
433.190; 5219.099; 5165.022;   46.897
433.782; 4594.119; 4558.587;   41.069
434.373; 7180.036; 7136.306;   48.778
434.964; 4847.072; 4799.398;   50.078
435.556; 5165.733; 5104.428;   52.381
436.147; 6202.066; 6134.034;   38.251
436.738; 5679.914; 5644.065;   47.237
437.329; 5807.455; 5767.012;   61.304
437.920; 5337.863; 5283.781;   48.611
438.511; 4511.404; 4484.836;   44.910
439.103; 4981.546; 4948.235;   62.404
439.694; 5485.611; 5438.619;   63.075
440.285; 5985.926; 5937.420;   61.033
440.876; 6907.124; 6875.643;   57.249
441.466; 4552.665; 4531.124;   61.306
442.057; 5271.673; 5215.991;   65.773
442.648; 6020.698; 5976.379;   65.676
443.239; 4961.688; 4920.651;   55.963
443.830; 5622.224; 5610.384;   69.631
444.421; 5184.274; 5137.718;   69.943
445.011; 5528.981; 5510.426;   72.791
445.602; 5956.037; 5907.933;   68.848
446.193; 3765.889; 3709.493;   80.044
446.783; 4938.056; 4895.904;   82.599
447.374; 5442.470; 5405.238;   77.419
447.964; 5722.178; 5641.364;   72.605
448.555; 6511.532; 6454.327;   82.041
449.145; 5212.806; 5148.146;   76.230
449.736; 6387.448; 6313.438;   75.545
450.326; 5607.816; 5572.809;   67.945
450.917; 5279.169; 5214.044;   77.598
451.507; 4663.708; 4629.224;   68.027
452.097; 5926.595; 5859.108;   67.771
452.688; 5764.796; 5714.359;   62.884
453.278; 4207.284; 4175.920;   65.512
453.868; 6319.022; 6226.240;   71.796
454.458; 5051.552; 4998.066;   60.956
455.048; 5547.711; 5505.911;   62.356
455.639; 4321.367; 4270.608;   58.782
456.229; 5495.596; 5442.075;   65.209
456.819; 5808.092; 5737.538;   61.466
457.409; 6052.783; 5988.460;   59.967
457.999; 5656.593; 5608.689;   58.093
458.589; 5190.261; 5144.935;   59.536
459.179; 5532.380; 5490.749;   55.994
459.769; 4766.438; 4700.417;   43.624
460.358; 6161.510; 6079.692;   46.978
460.948; 5238.378; 5199.387;   49.821
461.538; 4990.946; 4915.584;   54.678
462.128; 5025.296; 4979.425;   49.309
462.717; 5321.494; 5271.431;   52.774
463.307; 5312.427; 5279.012;   48.101
463.897; 4915.199; 4840.453;   45.606
464.486; 6491.187; 6435.799;   45.010
465.076; 5558.344; 5508.673;   45.519
465.666; 4772.696; 4710.358;   50.058
466.255; 5990.703; 5932.642;   44.463
466.845; 4879.967; 4845.475;   41.206
467.434; 5432.829; 5385.521;   44.847
468.023; 4789.902; 4736.857;   46.760
468.613; 5328.061; 5274.485;   39.736
469.202; 4714.729; 4667.222;   46.461
469.791; 5402.804; 5351.184;   47.944
470.381; 5433.484; 5350.895;   47.529
470.970; 5191.816; 5136.348;   43.773
471.559; 5434.114; 5390.396;   41.646
472.148; 4810.369; 4762.518;   37.914
472.738; 5571.974; 5495.057;   48.071
473.327; 4500.333; 4456.801;   47.871
473.916; 5374.606; 5287.146;   37.716
474.505; 5460.390; 5393.509;   40.256
475.094; 5939.668; 5865.358;   43.269
475.683; 5756.894; 5701.447;   36.499
476.272; 5191.994; 5158.572;   44.542
476.861; 4943.020; 4900.277;   42.297
477.449; 5066.752; 5016.748;   46.878
478.038; 4782.518; 4744.075;   35.156
478.627; 4991.305; 4943.110;   42.514
479.216; 5396.586; 5325.338;   43.937
479.805; 5453.500; 5371.653;   51.393
480.393; 7416.360; 7300.708;   53.239
480.982; 6323.131; 6238.065;   38.955
481.571; 6079.308; 6005.705;   45.436
482.159; 4678.296; 4618.991;   51.007
482.748; 5690.038; 5641.481;   49.695
483.336; 5940.667; 5872.924;   48.280
483.925; 5072.462; 4993.409;   47.166
484.513; 5009.767; 4970.040;   55.404
485.102; 5464.005; 5368.277;   54.238
485.690; 7089.858; 7009.038;   55.748
486.278; 6791.334; 6745.635;   55.934
486.867; 5280.277; 5215.002;   57.106
487.455; 5995.412; 5939.843;   56.979
488.043; 4696.920; 4629.218;   57.564
488.631; 6800.651; 6732.188;   57.432
489.220; 5929.484; 5888.118;   63.646
489.808; 4464.677; 4399.126;   65.449
490.396; 5892.338; 5816.073;   61.977
490.984; 5023.666; 4951.264;   68.834
491.572; 5888.855; 5823.526;   70.775
492.160; 5577.120; 5484.568;   67.564
492.748; 5146.388; 5103.664;   66.808
493.336; 5992.907; 5918.320;   79.747
493.924; 5121.669; 5054.267;   88.688
494.512; 5897.438; 5817.397;   84.120
495.100; 5751.496; 5691.016;   86.250
495.687; 6093.241; 6014.601;  103.074
496.275; 4974.768; 4878.941;  108.717
496.863; 5154.749; 5065.160;  107.035
497.451; 5118.272; 5034.038;  117.993
498.038; 5364.590; 5313.558;  120.116
498.626; 5168.753; 5086.890;  143.059
499.214; 5538.934; 5471.485;  153.434
499.801; 5410.129; 5322.221;  175.121
500.389; 4429.108; 4364.446;  185.617
500.976; 5627.556; 5544.377;  215.789
501.564; 5445.761; 5330.850;  240.321
502.151; 3935.928; 3852.220;  267.007
502.738; 5097.332; 5027.823;  317.961
503.326; 5192.258; 5129.429;  361.216
503.913; 5463.279; 5378.604;  401.433
504.500; 5614.253; 5530.499;  446.492
505.088; 4774.110; 4710.506;  512.063
505.675; 5199.142; 5123.102;  586.387
506.262; 5180.552; 5085.023;  671.021
506.849; 5296.423; 5209.396;  759.062
507.436; 6000.033; 5891.975;  849.788
508.023; 5284.561; 5196.791;  944.288
508.610; 5841.939; 5784.424; 1020.690
509.197; 5669.642; 5582.570; 1089.052
509.784; 5325.010; 5220.757; 1133.776
510.371; 4450.774; 4366.182; 1165.501
510.958; 5440.985; 5338.453; 1251.735
511.545; 6248.222; 6150.146; 1350.248
512.132; 5294.301; 5223.521; 1525.945
512.719; 4727.279; 4663.104; 1834.933
513.305; 4864.250; 4822.911; 1965.349
513.892; 6170.847; 6074.784; 1963.265
514.479; 5450.384; 5352.118; 2046.446
515.066; 5939.439; 5865.174; 2252.803
515.652; 5403.375; 5316.741; 2567.247
516.239; 5790.778; 5688.453; 2636.919
516.825; 4522.699; 4440.519; 2482.304
517.412; 6658.396; 6569.657; 2427.031
517.998; 5210.037; 5124.672; 2540.463
518.585; 5120.528; 5041.720; 2609.007
519.171; 5443.469; 5357.517; 2842.088
519.758; 4604.280; 4527.980; 3090.703
520.344; 5894.210; 5801.957; 3176.076
520.930; 4742.495; 4660.865; 3295.037
521.516; 5659.821; 5568.661; 3500.959
522.103; 6202.367; 6109.140; 3736.704
522.689; 5132.448; 5046.509; 3971.022
523.275; 6024.021; 5921.020; 4213.778
523.861; 5199.291; 5141.817; 4190.361
524.447; 5985.325; 5895.449; 4070.602
525.033; 6072.581; 5969.365; 4088.892
525.619; 4935.359; 4824.573; 4416.851
526.205; 4603.553; 4522.824; 4836.835
526.791; 5157.944; 5080.638; 4885.903
527.377; 4970.492; 4886.777; 4544.907
527.963; 5464.646; 5357.608; 4321.995
528.549; 5542.008; 5471.029; 4473.979
529.135; 4879.042; 4799.785; 4788.663
529.721; 5391.761; 5289.275; 4888.577
530.306; 7257.808; 7149.079; 4775.779
530.892; 5098.041; 5035.210; 4793.906
531.478; 4992.462; 4910.001; 4956.948
532.063; 4779.276; 4698.426; 5136.936
532.649; 6614.689; 6475.575; 5336.867
533.235; 4803.508; 4710.380; 5748.092
533.820; 6113.800; 6033.095; 6456.875
534.406; 5211.758; 5133.546; 6590.167
534.991; 4845.416; 4744.730; 6179.622
535.576; 5250.285; 5152.528; 6098.691
536.162; 7276.330; 7175.622; 6441.234
536.747; 4575.181; 4500.724; 6816.224
537.333; 4884.266; 4772.972; 6889.752
537.918; 5296.026; 5181.318; 7154.280
538.503; 4973.558; 4867.438; 7150.848
539.088; 5562.547; 5444.059; 7253.308
539.673; 5100.258; 5018.697; 7625.180
540.259; 4910.840; 4832.009; 8226.793
540.844; 4311.781; 4250.265; 8745.092
541.429; 6475.757; 6360.395; 8762.553
542.014; 4534.979; 4420.172; 8871.497
542.599; 5531.188; 5417.014; 8886.008
543.184; 4646.137; 4561.306; 9079.139
543.769; 4963.073; 4844.123; 9076.182
544.354; 5100.646; 4998.507; 8354.081
544.938; 5527.006; 5396.553; 8236.809
545.523; 6441.680; 6326.764; 8222.179
546.108; 5306.937; 5217.730; 8114.082
546.693; 5262.159; 5178.206; 8535.912
547.278; 5281.439; 5181.683; 9238.322
547.862; 5253.545; 5151.523; 9034.405
548.447; 5949.344; 5833.480; 7795.011
549.031; 5087.358; 5019.655; 7485.099
549.616; 5520.179; 5383.887; 7626.308
550.201; 4973.234; 4859.369; 7627.909
550.785; 5724.373; 5618.947; 7859.125
551.370; 4640.908; 4519.063; 7990.654
551.954; 5882.008; 5785.114; 8196.468
552.538; 5796.010; 5663.715; 7959.495
553.123; 4950.196; 4862.699; 7964.826
553.707; 5147.805; 5038.385; 8515.957
554.291; 6179.045; 6054.031; 8724.024
554.876; 5842.208; 5747.388; 8524.211
555.460; 4981.590; 4892.509; 8704.456
556.044; 4942.680; 4828.855; 9141.473
556.628; 5304.875; 5202.608; 9250.197
557.212; 6021.559; 5944.873; 9444.237
557.796; 5197.851; 5082.906; 9379.783
558.380; 5580.160; 5466.216; 9353.658
558.964; 5444.325; 5321.742; 9210.310
559.548; 4568.061; 4477.608; 8475.153
560.132; 5107.934; 4982.252; 7954.084
560.716; 4713.048; 4593.302; 7489.529
561.300; 4612.170; 4507.485; 7211.952
561.884; 5728.827; 5581.377; 7141.313
562.467; 5658.712; 5549.185; 7155.386
563.051; 5308.132; 5185.900; 7323.158
563.635; 5245.905; 5099.010; 7709.114
564.219; 5281.899; 5166.236; 7678.855
564.802; 5696.740; 5563.201; 7376.187
565.386; 5402.393; 5259.096; 7054.372
565.969; 6180.561; 6057.083; 6589.196
566.553; 6788.574; 6654.257; 6279.371
567.136; 6123.944; 5988.439; 5967.930
567.720; 5426.278; 5255.929; 5660.703
568.303; 5584.060; 5455.691; 5648.615
568.887; 5443.885; 5286.245; 5618.443
569.470; 5598.686; 5440.454; 5411.875
570.053; 5848.726; 5667.810; 5149.274
570.637; 4979.935; 4787.553; 5122.798
571.220; 5904.991; 5681.210; 4957.369
571.803; 6843.353; 6635.300; 4933.018
572.386; 5269.139; 5055.450; 4840.973
572.969; 5287.553; 5062.691; 4592.886
573.552; 5389.108; 5157.522; 4348.387
574.135; 4919.364; 4658.188; 4002.290
574.718; 5144.207; 4835.171; 3654.773
575.301; 5134.788; 4821.937; 3502.288
575.884; 5125.370; 4808.703; 3349.803
576.467; 6303.378; 5951.329; 3191.403
577.050; 5849.857; 5439.763; 3062.418
577.633; 6920.877; 6480.844; 3214.200
578.216; 5573.482; 5073.692; 3284.889
578.799; 5604.332; 5071.508; 3189.777
579.381; 7330.146; 6697.000; 3064.502
579.964; 5443.604; 4809.335; 2888.357
580.547; 6131.029; 5371.672; 2905.760
581.129; 6971.407; 6197.255; 2966.849
581.712; 6359.434; 5529.845; 2887.292
582.294; 6243.458; 5301.864; 2771.631
582.877; 7779.151; 6756.813; 2711.602
583.459; 6392.198; 5236.528; 2577.049
584.042; 6407.194; 5150.640; 2454.707
584.624; 6134.498; 4768.103; 2305.893
585.206; 5604.010; 4114.883; 2189.546
585.789; 6591.187; 4948.339; 2112.577
586.371; 7237.668; 5531.035; 2153.065
586.953; 7546.771; 5740.188; 2197.806
587.536; 8079.082; 6109.292; 2105.489
588.118; 7302.666; 5140.732; 1963.911
588.700; 8611.033; 6115.244; 1843.179
589.282; 8394.027; 5567.221; 1813.834
589.864; 8534.991; 5353.828; 1777.620
590.446; 7745.484; 4281.861; 1733.780
591.028; 9117.973; 5306.373; 1676.008
591.610; 8337.603; 4363.441; 1631.649
592.192; 9395.576; 5368.327; 1632.362
592.774; 8914.749; 4705.171; 1569.507
593.356; 9401.490; 4906.636; 1524.539
593.937; 9777.231; 4876.733; 1569.720
594.519;11128.938; 5891.684; 1569.049
595.101;10114.759; 4415.508; 1545.452
595.683;11204.206; 4950.863; 1607.568
596.264;12125.435; 5184.795; 1615.506
596.846;12383.105; 5034.453; 1667.622
597.427;12799.993; 4882.123; 1670.469
598.009;13495.929; 4818.189; 1640.312
598.591;14505.037; 5743.932; 1541.022
599.172;14085.200; 5070.064; 1598.665
599.753;14040.229; 4544.065; 1619.068
600.335;16067.084; 6136.621; 1548.612
600.916;15657.979; 5220.222; 1607.510
601.498;16574.412; 5512.527; 1745.181
602.079;17324.701; 5267.174; 1801.011
602.660;18247.473; 5161.532; 1834.640
603.241;17729.713; 4183.903; 1787.351
603.823;18550.191; 4952.837; 1684.266
604.404;18133.836; 4586.540; 1654.241
604.985;18456.096; 4963.834; 1758.741
605.566;19852.598; 5787.352; 1697.679
606.147;20476.459; 5119.091; 1526.728
606.728;20984.846; 4563.777; 1484.086
607.309;22391.908; 4904.498; 1421.070
607.890;22542.879; 4984.097; 1369.867
608.471;22740.949; 4801.079; 1277.826
609.051;23714.900; 5385.582; 1180.416
609.632;23914.941; 4723.337; 1075.816
610.213;25595.885; 5155.071; 1053.313
610.794;26196.691; 4975.971;  979.442
611.374;27317.803; 5465.109;  917.414
611.955;26685.369; 4470.179;  819.987
612.536;28781.676; 5384.845;  752.627
613.116;29290.787; 4959.033;  690.799
613.697;29314.561; 4885.601;  674.974
614.277;29241.504; 4738.818;  663.846
614.858;28374.424; 4877.575;  665.898
615.438;27745.152; 5227.542;  660.712
616.019;28671.344; 6137.323;  632.732
616.599;26879.980; 4113.567;  551.759
617.179;28571.195; 4594.608;  512.871
617.760;31868.430; 6911.514;  473.655
618.340;30086.287; 5155.940;  440.004
618.920;31495.924; 6328.034;  429.731
619.500;30996.578; 5015.039;  441.361
620.080;30644.945; 4725.700;  425.202
620.660;30900.943; 4711.282;  408.164
621.241;31729.951; 5022.023;  387.161
621.821;33013.758; 5282.726;  378.017
622.401;33441.754; 5863.925;  379.188
622.980;31414.729; 4482.932;  350.019
623.560;31938.031; 5026.484;  336.446
624.140;30911.896; 5298.343;  336.473
624.720;29492.955; 5462.688;  334.974
625.300;28464.531; 4728.110;  325.717
625.880;29025.561; 5147.411;  308.519
626.459;30846.756; 5201.913;  307.117
627.039;31487.723; 4350.832;  290.890
627.619;34967.195; 6638.576;  286.635
628.198;34887.941; 5951.995;  282.535
628.778;35284.957; 5586.238;  285.474
629.357;32957.668; 4542.902;  284.103
629.937;32809.973; 4978.398;  292.178
630.516;34642.727; 6239.056;  290.749
631.096;33631.945; 4804.599;  285.489
631.675;34775.090; 6131.162;  287.022
632.254;33450.898; 4798.861;  286.038
632.834;32657.566; 5153.383;  276.451
633.413;33015.020; 6110.794;  279.447
633.992;32366.131; 5855.117;  264.508
634.571;32131.973; 5609.308;  271.010
635.151;32911.234; 4691.204;  277.338
635.730;33879.910; 5087.243;  289.305
636.309;33951.023; 5521.918;  285.306
636.888;33451.332; 5605.305;  254.051
637.467;30690.164; 4264.982;  230.324
638.046;32115.365; 6252.648;  253.349
638.625;31891.258; 6001.558;  246.866
639.204;31627.555; 5370.055;  240.825
639.782;32520.266; 5208.692;  261.970
640.361;33077.828; 6048.680;  277.780
640.940;32140.434; 4878.755;  270.101
641.519;32190.537; 5450.881;  248.622
642.097;32921.840; 5568.007;  239.843
642.676;32886.145; 5261.282;  244.264
643.255;32679.146; 5050.108;  234.985
643.833;34212.250; 5615.533;  244.406
644.412;34146.152; 4987.809;  244.927
644.990;34183.059; 5280.984;  249.948
645.569;34072.262; 5544.160;  249.569
646.147;33856.266; 5836.085;  243.290
646.726;32331.168; 5366.811;  249.511
647.304;31654.771; 4997.137;  228.032
647.882;29734.875; 4258.813;  214.552
648.461;30165.979; 5371.288;  214.973
649.039;30972.783; 5608.514;  223.394
649.617;30849.285; 5628.339;  261.415
650.195;30610.490; 5371.365;  298.736
650.773;30044.893; 4960.740;  309.557
651.352;28791.697; 4143.216;  297.978
651.930;27743.600; 4130.991;  289.399
652.508;29471.703; 5723.267;  285.620
653.086;28963.207; 5507.692;  272.241
653.663;28113.510; 4796.918;  265.062
654.241;27967.814; 4490.293;  286.083
654.819;28935.818; 4615.369;  286.404
655.397;30276.922; 4690.295;  291.825
655.975;31667.625; 5048.920;  299.145
656.553;33096.430; 6218.846;  288.866
657.130;31238.631; 4657.571;  304.087
657.708;30715.936; 5433.847;  302.908
658.286;30260.639; 5296.923;  294.629
658.863;30816.742; 5324.798;  293.350
659.441;30887.346; 5389.874;  318.671
660.018;29586.549; 5097.750;  333.692
660.596;28512.652; 4200.725;  335.013
661.173;29272.457; 4901.000;  371.534
661.750;28953.061; 4702.626;  365.155
662.328;29977.264; 5587.202;  349.976
662.905;28636.367; 4940.777;  332.997
663.482;28249.770; 5083.353;  321.717
664.060;27780.074; 4771.229;  314.438
664.637;28585.977; 5588.704;  306.259
665.214;29101.881; 5335.729;  314.580
665.791;28868.584; 5032.305;  334.501
666.368;28451.588; 4959.781;  329.222
666.945;29854.191; 5684.906;  342.143
667.522;29307.494; 4717.682;  370.964
668.099;29627.898; 5091.607;  396.885
668.676;29070.303; 5118.883;  391.706
669.253;29737.705; 6240.458;  369.627
669.830;29274.809; 6020.684;  360.348
670.407;28716.613; 5106.160;  344.769
670.984;29194.516; 5086.335;  322.890
671.560;29346.020; 5574.311;  316.910
672.137;28230.523; 4961.736;  322.531
672.714;29228.428; 5467.362;  318.552
673.290;30041.430; 5373.288;  324.473
673.867;30041.033; 4833.513;  340.594
674.443;30043.637; 4531.489;  319.515
675.020;30405.342; 5309.114;  286.336
675.596;29524.445; 5018.040;  247.557
676.173;29511.049; 4451.815;  227.778
676.749;29451.951; 3922.141;  224.399
677.326;30115.355; 4368.667;  230.520
677.902;31121.459; 4774.042;  241.841
678.478;32150.262; 4461.667;  239.762
679.054;35420.367; 7564.293;  248.583
679.631;31717.270; 5430.918;  237.503
680.207;31858.273; 6464.444;  245.924
680.783;29850.477; 4093.020;  224.845
681.359;31967.080; 5083.095;  209.666
681.935;33246.383; 5235.421;  191.687
682.511;32570.287; 5215.347;  210.008
683.087;31691.291; 5486.172;  213.329
683.663;30792.994; 4989.798;  216.850
684.239;30716.998; 4471.173;  229.471
684.815;32298.500; 5717.749;  248.792
685.390;32752.904; 6583.324;  231.813
685.966;30413.008; 5212.300;  221.234
686.542;30486.912; 4601.525;  214.255
687.118;32939.414; 5305.601;  212.276
687.693;33435.320; 5532.626;  233.096
688.269;32618.223; 5006.652;  246.917
688.844;33027.426; 5451.178;  236.938
689.420;31942.229; 5201.003;  242.059
689.995;32165.533; 6343.929;  245.480
690.571;31838.236; 6073.555;  244.701
691.146;31434.539; 4956.180;  251.922
691.722;32449.443; 5407.605;  284.743
692.297;32784.445; 4926.881;  320.664
692.872;33554.449; 4713.607;  313.885
693.448;33451.953; 4582.982;  290.106
694.023;34996.656; 5245.058;  304.327
694.598;35504.563; 5270.083;  319.648
695.173;33875.465; 4924.559;  323.169
695.748;31948.668; 4215.834;  376.389
696.323;33241.070; 5105.660;  397.610
696.898;34781.977; 5950.936;  430.231
697.473;33483.477; 4299.711;  454.952
698.048;35550.781; 4971.887;  478.973
698.623;35420.887; 4452.513;  477.094
699.198;35326.891; 5220.988;  496.915
699.773;34660.594; 4741.614;  490.236
700.348;34176.996; 4612.189;  519.957
700.922;35701.199; 5259.115;  575.678
701.497;36204.902; 5148.090;  621.399
702.072;36311.805; 5743.716;  664.420
702.646;35461.809; 5594.742;  690.541
703.221;33951.113; 5313.967;  748.862
703.795;32554.617; 4632.393;  774.282
704.370;30951.621; 3778.718;  799.803
704.944;32036.324; 4895.394;  875.824
705.519;33951.629; 5308.319;  902.945
706.093;34408.031; 4681.495;  889.266
706.668;34804.734; 5455.021;  903.487
707.242;35440.637; 5654.146;  881.708
707.816;35032.844; 4947.872;  892.329
708.390;34464.344; 5124.697;  970.250
708.965;33658.250; 5301.323;  984.671
709.539;33449.254; 4990.148; 1026.092
710.113;34003.555; 5207.074; 1067.913
710.687;33759.660; 5640.149; 1166.434
711.261;32489.063; 4559.725; 1190.854
711.835;33416.566; 4612.951; 1197.275
712.409;34429.770; 4253.726; 1308.096
712.983;34670.074; 4290.602; 1461.617
713.557;34646.078; 4282.777; 1611.838
714.131;34878.082; 5013.153; 1554.359
714.704;33774.184; 4634.329; 1520.780
715.278;35572.188; 5144.154; 1575.101
715.852;36371.992; 5585.030; 1689.822
716.425;36967.793; 6407.255; 1829.143
716.999;34024.000; 4212.281; 2008.664
717.573;34260.000; 5429.156; 2000.485
718.146;35399.805; 6262.982; 1914.506
718.720;36097.008; 5259.257; 1818.026
719.293;37680.012; 5467.333; 1734.147
719.867;36791.617; 4764.059; 1716.968
720.440;38209.219; 6015.034; 1918.589
721.013;37123.824; 4811.760; 1975.410
721.587;35846.426; 4299.285; 2073.331
722.160;36640.828; 5726.411; 2357.852
722.733;34907.434; 5173.437; 2657.073
723.306;33608.637; 5141.112; 2703.894
723.880;33048.441; 5249.688; 2549.415
724.453;34193.645; 5992.313; 2414.336
725.026;32922.148; 4835.539; 2298.557
725.599;33592.852; 5329.164; 2168.778
726.172;33567.953; 5443.940; 2106.099
726.745;33551.156; 5378.465; 2253.320
727.318;34456.762; 5725.491; 2404.740
727.891;35182.766; 5322.967; 2680.161
728.463;35237.770; 5295.292; 2838.882
729.036;33687.273; 4689.868; 2755.103
729.609;32993.277; 4626.493; 2731.824
730.182;34295.680; 5631.519; 2855.645
730.754;32952.484; 3903.344; 2946.866
731.327;34826.688; 5446.720; 2840.187
731.900;33248.090; 4321.945; 2647.608
732.472;34359.691; 5046.071; 2473.929
733.045;36026.898; 4950.497; 2445.750
733.617;34815.102; 4246.672; 2511.771
734.190;35647.305; 5419.898; 2581.592
734.762;35410.707; 5102.974; 2710.813
735.334;35477.512; 5176.299; 3005.733
735.907;35232.516; 5168.075; 3154.954
736.479;36261.719; 5842.250; 3171.675
737.051;35531.320; 5445.776; 3217.496
737.623;36537.824; 5507.851; 3246.217
738.195;35847.730; 4769.227; 2985.238
738.768;34270.633; 4023.802; 2727.559
739.340;35293.137; 4860.628; 2666.880
739.912;34864.438; 5603.554; 2769.601
740.484;33643.742; 5436.879; 2731.422
741.056;33250.547; 4970.305; 2963.043
741.628;33837.449; 4624.780; 3361.364
742.199;34553.254; 5959.956; 3641.185
742.771;33326.258; 4440.481; 3932.005
743.343;34306.559; 4653.057; 4319.926
743.915;35083.766; 5345.033; 4706.647
744.487;36223.566; 5489.258; 4874.968
745.058;37200.770; 5553.984; 4616.589
745.630;36453.574; 5518.659; 4253.410
746.201;35362.180; 4827.835; 4056.131
746.773;35148.180; 5459.160; 3772.952
747.344;34716.184; 5104.136; 3642.473
747.916;34360.387; 5270.111; 3752.294
748.487;34488.391; 5635.887; 4106.215
749.059;33607.996; 4506.013; 4457.835
749.630;34031.398; 4721.138; 4366.457
750.201;35518.703; 5102.164; 4600.078
750.773;34886.008; 4777.889; 4658.499
751.344;34938.711; 5161.865; 4609.319
751.915;34754.715; 5092.241; 4526.440
752.486;34447.316; 4694.116; 4536.061
753.057;34958.520; 5222.992; 4383.282
753.628;34975.223; 4686.817; 4296.503
754.199;36055.227; 4885.593; 4383.224
754.770;36597.332; 5480.368; 4653.545
755.341;35617.934; 5749.894; 4831.666
755.912;33764.738; 4999.419; 4831.387
756.483;34203.141; 5448.545; 4735.808
757.054;32976.145; 4883.271; 4685.029
757.625;31530.449; 4503.046; 4994.250
758.195;32461.252; 4325.572; 5051.471
758.766;34040.055; 5270.748; 5317.792
759.337;33149.660; 4280.773; 5646.512
759.907;32462.063; 4342.999; 5404.133
760.478;33277.465; 4789.124; 5090.954
761.048;33957.270; 5493.399; 4871.175
761.619;33234.473; 5362.475; 4589.396
762.189;33074.078; 5069.951; 4171.317
762.760;32525.980; 5565.626; 3872.538
763.330;32429.684; 5503.752; 3832.259
763.900;31747.387; 5284.328; 4150.180
764.471;31040.090; 4638.003; 4529.801
765.041;32364.193; 5847.179; 4715.922
765.611;32271.898; 5437.304; 4681.442
766.181;32427.801; 5039.780; 4717.063
766.751;32622.205; 5119.005; 4710.285
767.321;31609.709; 4448.131; 4450.305
767.891;32030.012; 5204.557; 4274.126
768.461;31550.016; 5037.032; 4215.047
769.031;31464.119; 5077.508; 4173.068
769.601;32252.123; 5778.733; 4174.689
770.171;31126.826; 4328.109; 4229.310
770.741;31111.830; 4911.034; 4352.031
771.311;31564.033; 5448.910; 4336.652
771.880;30465.736; 4618.485; 4300.873
772.450;29986.541; 4677.311; 4387.194
773.020;29840.344; 4289.887; 4220.415
773.589;30607.947; 4754.562; 4075.835
774.159;31231.150; 4800.438; 4105.756
774.729;31051.555; 4720.813; 4114.978
775.298;31106.258; 4759.439; 3693.298
775.867;30828.961; 4757.714; 3343.119
776.437;31348.664; 5131.040; 3062.040
777.006;30833.469; 4302.866; 2927.161
777.576;31893.473; 5446.941; 3046.482
778.145;30772.475; 5370.917; 3230.203
778.714;29480.680; 5031.542; 3253.324
779.283;30022.582; 5439.118; 3129.745
779.853;30031.785; 5058.943; 2983.566
780.422;30520.590; 5060.219; 2929.887
780.991;31096.193; 5386.495; 2863.908
781.560;31562.996; 5965.070; 2948.029
782.129;30323.100; 5295.696; 3074.149
782.698;30548.004; 5900.921; 2893.970
783.267;30029.508; 4729.297; 2721.391
783.836;30322.510; 5276.172; 2659.712
784.404;29001.113; 4461.098; 2622.233
784.973;27872.518; 3851.023; 2600.754
785.542;28511.721; 5026.349; 2528.475
786.111;29946.025; 5830.775; 2404.396
786.679;29559.828; 5452.550; 2365.717
787.248;26808.031; 4330.676; 2498.438
787.817;26567.336; 4810.651; 2645.659
788.385;28078.039; 5724.877; 2709.280
788.954;27442.742; 4367.553; 2620.500
789.522;28560.246; 5565.378; 2625.422
790.090;27198.549; 4385.804; 2743.843
790.659;27507.652; 4865.079; 2635.163
791.227;28383.855; 4976.205; 2495.484
791.795;29337.760; 5255.430; 2413.705
792.364;28371.764; 4543.306; 2345.326
792.932;28310.967; 5377.682; 2350.447
793.500;27290.670; 4911.007; 2429.768
794.068;26403.074; 4323.183; 2513.589
794.636;26865.578; 4670.558; 2664.310
795.204;27188.881; 4202.534; 2721.431
795.772;27140.984; 4632.659; 2802.052
796.340;26685.688; 4759.435; 2847.173
796.908;25633.592; 4206.960; 2997.194
797.476;25894.895; 4502.336; 3151.615
798.044;25375.299; 4136.012; 3110.735
798.612;26374.203; 4980.737; 2931.656
799.180;26099.406; 5133.313; 2785.777
799.747;25268.209; 5083.138; 2899.098
800.315;24407.813; 4392.014; 2955.519
800.883;23947.516; 4061.490; 2948.940
801.450;25294.020; 5018.665; 2965.361
802.018;26113.424; 5292.940; 3070.582
802.585;25702.428; 5054.666; 3156.103
803.153;25176.430; 4664.492; 3199.524
803.720;25513.533; 4707.517; 3168.845
804.287;26494.137; 4887.243; 3248.366
804.855;27785.641; 5659.468; 3406.187
805.422;26507.244; 4918.644; 3430.907
805.989;25799.648; 4588.070; 3453.528
806.556;25386.852; 4591.795; 3612.649
807.124;26393.555; 5564.021; 3736.570
807.691;25589.158; 4479.996; 3770.491
808.258;26744.662; 5059.472; 3705.012
808.825;27079.066; 5589.797; 3828.733
809.392;27360.068; 5972.673; 3986.754
809.959;26337.672; 5256.549; 4410.075
810.526;26026.377; 6019.674; 4774.996
811.093;24608.980; 5721.400; 4754.217
811.659;23857.482; 5003.125; 4661.238
812.226;24346.486; 4971.901; 4672.559
812.793;24865.391; 5206.876; 4822.979
813.360;24428.895; 4989.102; 5189.800
813.926;24498.396; 5258.478; 5310.622
814.493;23667.201; 4367.403; 5414.542
815.060;23007.705; 4104.079; 5548.963
815.626;23552.607; 4424.154; 5452.284
816.193;24428.311; 5153.030; 5339.305
816.759;23679.914; 4596.655; 5544.426
817.325;22907.418; 4107.481; 5706.547
817.892;24057.121; 5512.756; 5623.468
818.458;23831.326; 5284.882; 5586.689
819.024;23998.029; 5746.008; 5647.910
819.591;23662.932; 5041.883; 5762.031
820.157;23226.336; 4388.759; 6284.452
820.723;24066.639; 5277.134; 6906.973
821.289;25957.543; 7644.560; 7086.894
821.855;23634.947; 5422.386; 7054.915
822.421;22640.650; 4781.211; 7112.035
822.987;21894.953; 4474.437; 7256.156
823.553;22520.957; 4880.512; 7538.077
824.119;22825.461; 5598.288; 7594.298
824.685;22698.965; 5809.763; 7613.619
825.251;22575.668; 5485.439; 7644.140
825.816;23365.871; 6152.064; 7720.261
826.382;22865.176; 5462.590; 8014.282
826.948;22975.479; 5587.666; 8281.503
827.513;22006.482; 4939.641; 8289.624
828.079;21155.086; 4576.167; 8587.045
828.645;21775.590; 5236.742; 8821.865
829.210;20786.492; 4476.118; 9054.486
829.776;21561.695; 5393.894; 9054.607
830.341;21223.299; 5571.819; 9415.628
830.906;20769.303; 5734.745; 9932.449
831.472;19743.707; 4652.970;10150.271
832.037;20484.711; 5600.096; 9420.391
832.602;19675.514; 4780.071; 8664.912
833.167;20053.518; 5128.247; 8491.933
833.733;20583.721; 5597.522; 8872.854
834.298;19181.523; 4517.298; 9370.575
834.863;19718.127; 5262.974; 9610.695
835.428;19105.932; 5239.899; 9655.616
835.993;19167.535; 5386.875; 9437.838
836.558;19536.139; 5484.250; 9441.459
837.123;20993.742; 6723.426; 9600.979
837.688;19733.445; 5300.852; 9798.301
838.253;19768.949; 5286.427; 9902.921
838.817;19213.352; 4945.703;10339.742
839.382;19658.756; 5909.928;10548.363
839.947;18909.959; 5175.404;10252.484
840.511;19662.264; 6070.330;10040.005
841.076;17309.867; 4079.655;10099.926
841.641;18520.369; 5452.181;10347.347
842.205;18564.174; 5323.656;10817.368
842.770;19337.277; 6296.932;11435.289
843.334;17620.180; 5019.107;12072.409
843.898;16927.783; 4823.783;12635.431
844.463;17714.188; 5928.008;12537.252
845.027;16356.791; 4890.584;12759.673
845.591;16797.994; 5662.259;12821.993
846.156;15850.798; 4826.035;12520.914
846.720;16746.402; 5556.960;12390.436
847.284;16706.205; 5252.386;12956.456
847.848;16809.609; 5441.262;13240.177
848.412;16080.813; 5169.087;13216.998
848.976;16376.616; 6061.613;13014.619
849.540;16670.219; 6527.588;12355.740
850.104;15979.923; 5991.064;12208.761
850.668;14392.427; 4184.590;12106.882
851.232;14304.030; 4307.315;11862.103
851.796;14861.134; 5074.941;11700.523
852.359;15464.237; 5627.167;12375.944
852.923;15586.740; 5804.642;13087.966
853.487;15160.944; 5520.167;13297.187
854.050;12894.447; 3571.143;13851.207
854.614;14039.751; 4908.619;14854.229
855.177;14615.255; 5336.494;15802.149
855.741;14706.458; 5383.170;16603.570
856.304;15317.062; 5697.095;16359.891
856.868;14653.365; 4635.771;14365.512
857.431;15005.269; 5137.597;13361.333
857.995;14211.473; 4962.522;14130.554
858.558;13289.876; 5337.897;14883.175
859.121;12668.279; 5622.773;15754.195
859.684;11686.482; 5279.549;15995.017
860.247;11276.286; 5129.674;15149.537
860.810;11335.290; 4926.800;14640.358
861.374;13397.493; 6596.625;15551.079
861.937;11412.896; 4535.751;16519.801
862.500;11611.400; 4851.626;16796.521
863.062;11114.704; 4611.952;16538.742
863.625;11871.508; 5352.228;16716.764
864.188;11643.111; 4892.903;17055.084
864.751;11645.114; 4850.029;17197.705
865.314;11986.818; 5205.104;17151.625
865.876;12396.722; 5766.130;17783.547
866.439;12216.726; 5567.105;19283.467
867.002;12933.929; 6460.231;20256.389
867.564;12288.232; 5861.807;20485.410
868.127;11574.735; 5149.032;20789.730
868.689;11579.039; 5392.908;21981.951
869.252;11912.643; 5834.233;23803.771
869.814;10774.347; 4718.109;24974.094
870.377;11282.750; 5351.635;24690.314
870.939;13327.253; 7392.760;23963.436
871.501;11252.356; 5303.736;25167.156
872.063; 9702.561; 3896.411;26995.477
872.626; 9785.364; 4223.787;27443.098
873.188;10849.367; 5324.163;26718.418
873.750;10466.971; 5080.338;26558.840
874.312;10251.175; 4895.864;26701.561
874.874;11590.078; 6199.339;27970.582
875.436;10768.781; 5680.564;29173.402
875.998;10940.385; 6024.940;30376.623
876.560;10469.488; 5691.266;32507.344
877.122; 9387.192; 4768.292;34833.066
877.683;10050.896; 5575.017;36458.285
878.245; 9115.999; 4897.792;37248.207
878.807; 9676.603; 5480.068;36758.027
879.369; 8772.506; 4507.444;35223.551
879.930; 8927.910; 4623.719;33824.969
880.492;10293.213; 5949.395;34436.492
881.053; 8843.517; 4672.570;37745.313
881.615; 8899.820; 4868.146;41184.633
882.176; 8898.424; 5057.021;42871.555
882.738; 9347.527; 5618.397;41693.074
883.299; 7843.231; 4152.623;40289.895
883.860; 7971.435; 4284.748;39231.215
884.422; 9200.438; 5557.724;38264.039
884.983; 8156.142; 4626.299;37171.859
885.544; 8711.245; 5340.225;35842.379
886.105; 8339.448; 5211.150;34810.000
886.666; 7806.452; 4913.826;34519.020
887.227; 7078.755; 4302.852;33905.641
887.788; 8081.259; 5344.127;34502.965
888.349; 7173.063; 4439.103;34241.785
888.910; 8279.866; 5573.479;33722.203
889.471; 7994.870; 5316.104;32539.625
890.032; 7705.773; 5162.779;31528.346
890.593; 7934.177; 5543.855;32655.068
891.153; 7395.080; 5135.131;33882.289
891.714; 6584.083; 4414.606;33318.711
892.275; 6610.587; 4501.832;31848.930
892.835; 7790.691; 5723.458;30339.752
893.396; 7573.094; 5634.183;30074.973
893.956; 6835.198; 5032.409;30338.393
894.517; 7071.301; 5302.334;30864.113
895.077; 7088.905; 5403.359;29766.734
895.638; 7841.708; 6198.235;26379.557
896.198; 6175.912; 4584.511;24056.277
896.758; 7241.016; 5675.736;22961.898
897.319; 6565.619; 5074.512;21772.020
897.879; 6555.723; 5141.837;20877.539
898.439; 5666.926; 4307.613;19509.461
898.999; 6831.029; 5535.039;17297.582
899.559; 6688.033; 5431.164;14712.002
900.119; 5828.336; 4616.940;12790.224
900.679; 7291.940; 6113.965;11586.744
901.239; 6712.644; 5570.341;10776.465
901.799; 6327.147; 5233.517; 9691.687
902.359; 5753.651; 4687.342; 8725.907
902.919; 5650.254; 4621.167; 8305.728
903.479; 5657.558; 4659.443; 8172.649
904.038; 5421.461; 4449.169; 7913.870
904.598; 4809.965; 3875.344; 7262.291
905.158; 5775.168; 4863.920; 6609.012
905.717; 5969.172; 5072.996; 6236.133
906.277; 5994.975; 5162.421; 5829.054
906.836; 6292.179; 5462.646; 5396.674
907.396; 6174.982; 5392.572; 4964.195
907.955; 6204.286; 5429.648; 4528.917
908.515; 5687.189; 4933.723; 4223.837
909.074; 5743.493; 4988.649; 4023.958
909.633; 5742.296; 5010.174; 4065.379
910.192; 6953.000; 6207.950; 4066.300
910.752; 5683.500; 4959.600; 3971.600
911.311; 5598.400; 4865.850; 3839.600
911.870; 5371.900; 4688.450; 3684.500
912.429; 6499.000; 5783.650; 3635.600
912.988; 6387.900; 5661.550; 3689.800
913.547; 5305.200; 4605.900; 3737.700
914.106; 5911.800; 5258.100; 3740.300
914.665; 5884.500; 5208.000; 3604.600
915.224; 6430.200; 5768.550; 3358.700
915.782; 5477.000; 4839.550; 3188.400
916.341; 6604.000; 5962.050; 3091.400
916.900; 5567.100; 4909.900; 3044.800
917.458; 5322.600; 4651.400; 2888.600
918.017; 5852.700; 5178.650; 2818.900
918.576; 5603.200; 4931.300; 2838.600
919.134; 4972.200; 4303.950; 2880.100
919.693; 5566.600; 4873.500; 2996.300
920.251; 5448.100; 4780.050; 3183.100
920.809; 5123.000; 4494.900; 3247.000
921.368; 5449.300; 4778.200; 3156.600
921.926; 5219.800; 4589.350; 2964.900
922.484; 5750.000; 5097.850; 2846.300
923.042; 5602.600; 4926.600; 2890.400
923.601; 6579.300; 5921.450; 2987.700
924.159; 6073.900; 5421.100; 3049.800
924.717; 5225.900; 4566.750; 3087.000
925.275; 5807.100; 5131.200; 3093.400
925.833; 4777.700; 4094.750; 3182.400
926.391; 6061.600; 5383.850; 3397.900
926.949; 5473.600; 4799.250; 3575.400
927.506; 5833.800; 5168.150; 3713.400
928.064; 5543.800; 4871.550; 3871.300
928.622; 5632.100; 4950.850; 4092.800
929.180; 5063.500; 4394.550; 4499.300
929.737; 4959.800; 4262.150; 4813.200
930.295; 6057.100; 5342.700; 5084.100
930.853; 5356.900; 4611.400; 5185.000
931.410; 5069.800; 4362.650; 5313.100
931.968; 6154.300; 5435.750; 5339.600
932.525; 5788.500; 5058.050; 5399.900
933.082; 5033.600; 4274.850; 5457.500
933.640; 6008.900; 5255.400; 5692.900
934.197; 5600.100; 4870.600; 5821.200
934.754; 5600.600; 4870.050; 5617.900
935.312; 5327.100; 4606.400; 5512.400
935.869; 6606.900; 5887.300; 5582.400
936.426; 5328.100; 4637.950; 5650.100
936.983; 5497.100; 4807.450; 5657.400
937.540; 5048.000; 4325.550; 5564.300
938.097; 5958.800; 5211.850; 5574.000
938.654; 5464.100; 4733.500; 5665.900
939.211; 5961.100; 5207.750; 5931.600
939.768; 5710.900; 4927.300; 6153.600
940.324; 5587.000; 4788.500; 6397.600
940.881; 5339.500; 4588.100; 6454.200
941.438; 6465.500; 5707.300; 6206.900
941.995; 6269.000; 5495.300; 6003.900
942.551; 5123.400; 4355.850; 6228.300
943.108; 5658.000; 4900.450; 6603.500
943.664; 5161.800; 4401.000; 7188.100
944.221; 6974.800; 6214.550; 7579.900
944.777; 5100.000; 4352.050; 7658.100
945.334; 5210.200; 4460.300; 7670.400
945.890; 5748.400; 4974.650; 7525.100
946.446; 5760.800; 5010.250; 7261.500
947.003; 5937.800; 5163.700; 6949.200
947.559; 6721.400; 5954.200; 6773.100
948.115; 6381.800; 5645.200; 6668.400
948.671; 5892.500; 5137.900; 6488.400
949.227; 4954.000; 4193.750; 6236.600
949.783; 4872.900; 4117.050; 6008.900
950.339; 6002.500; 5242.800; 5934.100
950.895; 6298.800; 5574.850; 5933.500
951.451; 5468.300; 4741.800; 6074.700
952.007; 6053.100; 5352.750; 6066.400
952.563; 5494.500; 4791.800; 5884.100
953.118; 5315.000; 4613.750; 5733.800
953.674; 5666.600; 4922.500; 5734.300
954.230; 5643.200; 4959.300; 6039.700
954.785; 5632.100; 4916.850; 6383.500
955.341; 6119.900; 5416.850; 6568.200
955.897; 4850.200; 4133.300; 6488.600
956.452; 5878.800; 5157.200; 6239.200
957.008; 7074.000; 6357.800; 5954.600
957.563; 6394.600; 5679.400; 5816.700
958.118; 5272.600; 4559.100; 5828.200
958.674; 5773.600; 5078.700; 5717.400
959.229; 6466.800; 5788.900; 5506.800
959.784; 4989.400; 4272.350; 5292.200
960.339; 6435.200; 5738.950; 5101.900
960.894; 6100.900; 5417.000; 5093.200
961.449; 5197.000; 4517.750; 5227.900
962.004; 8227.900; 7532.950; 5349.300
962.559; 5269.200; 4597.600; 5514.900
963.114; 4249.400; 3622.400; 5717.300
963.669; 5653.800; 5023.250; 5841.400
964.224; 5408.800; 4740.150; 5805.900
964.779; 5043.300; 4358.550; 5723.400
965.334; 6471.100; 5790.050; 5779.500
965.888; 5337.900; 4670.950; 5948.500
966.443; 6153.300; 5528.700; 6344.200
966.998; 4781.900; 4132.900; 6666.300
967.552; 5559.300; 4962.650; 6710.100
968.107; 5297.400; 4647.700; 6593.500
968.661; 5782.100; 5145.450; 6344.100
969.216; 5243.700; 4608.150; 6062.400
969.770; 5779.400; 5152.800; 5785.500
970.324; 5788.200; 5182.700; 5426.800
970.879; 6064.200; 5463.500; 5016.800
971.433; 6151.600; 5521.200; 4904.500
971.987; 5675.400; 5071.450; 4991.000
972.541; 5847.800; 5259.650; 4978.500
973.095; 6613.300; 6011.200; 4832.000
973.649; 4921.400; 4331.800; 4767.900
974.203; 5104.500; 4502.500; 4881.200
974.757; 5320.500; 4730.300; 4969.500
975.311; 5513.800; 4921.050; 4953.000
975.865; 5572.300; 4997.600; 4884.300
976.419; 5381.000; 4821.850; 4739.800
976.973; 5320.500; 4742.950; 4698.100
977.526; 6220.900; 5635.700; 4631.100
978.080; 4891.300; 4325.400; 4621.600
978.634; 5919.800; 5383.250; 4650.200
979.187; 5810.600; 5267.150; 4669.200
979.741; 6779.800; 6253.100; 4658.000
980.294; 4893.900; 4361.800; 4579.100
980.848; 4306.800; 3796.150; 4452.800
981.401; 5210.000; 4698.600; 4271.900
981.955; 5513.000; 4978.100; 4087.800
982.508; 4637.700; 4129.250; 3973.900
983.061; 6124.300; 5614.150; 3928.600
983.615; 5078.600; 4550.500; 3851.200
984.168; 4865.400; 4374.550; 3734.800
984.721; 5791.800; 5297.850; 3628.300
985.274; 5686.500; 5179.000; 3564.300
985.827; 5452.800; 4956.350; 3558.100
986.380; 4475.900; 4019.650; 3559.900
986.933; 5700.200; 5235.600; 3688.700
987.486; 5699.800; 5250.250; 3778.500
988.039; 5669.000; 5211.400; 3559.900
988.591; 6018.300; 5577.650; 3219.300
989.144; 4711.300; 4254.600; 2902.900
989.697; 4981.000; 4526.200; 2722.600
990.250; 5842.300; 5416.950; 2618.000
990.802; 4989.500; 4538.700; 2523.900
991.355; 6938.500; 6484.450; 2436.500
991.907; 6002.000; 5581.450; 2412.200
992.460; 5065.500; 4678.450; 2387.900
993.012; 5066.800; 4678.000; 2365.800
993.565; 4766.200; 4384.000; 2311.100
994.117; 6765.300; 6381.400; 2308.700
994.669; 4794.500; 4400.700; 2249.300
995.221; 5594.300; 5229.250; 2158.100
995.774; 5501.600; 5121.500; 2085.600
996.326; 5116.700; 4758.800; 2068.100
996.878; 6023.300; 5677.700; 1975.300
997.430; 4862.700; 4524.900; 1929.500
997.982; 5306.400; 4971.100; 1861.900
998.534; 5277.700; 4937.900; 1830.200
999.086; 5228.100; 4910.300; 1823.200
999.638; 4579.200; 4255.000; 1815.000
1000.190; 5009.300; 4652.250; 1796.600
1000.741; 5346.300; 5014.250; 1738.800
1001.293; 4853.100; 4532.050; 1666.200
1001.845; 4855.000; 4533.200; 1566.500
1002.396; 5423.400; 5081.800; 1471.900
1002.948; 5368.600; 5048.700; 1398.000
1003.500; 5251.300; 4960.550; 1356.500
1004.051; 6915.800; 6624.850; 1294.200
1004.603; 5967.600; 5643.750; 1190.000
1005.154; 4421.900; 4166.050; 1063.900
1005.705; 5424.300; 5158.700;  968.300
1006.257; 5305.600; 5060.350;  889.800
1006.808; 5180.100; 4926.700;  801.500
1007.359; 5882.100; 5655.450;  716.400
1007.910; 4891.300; 4671.000;  639.100
1008.461; 5646.400; 5443.300;  561.600
1009.013; 4400.800; 4188.250;  500.400
1009.564; 6183.900; 5967.100;  476.100
1010.115; 4477.300; 4299.100;  431.600
1010.665; 4571.600; 4390.700;  409.300
1011.216; 5166.400; 4940.700;  399.700
1011.767; 5358.400; 5164.100;  388.100
1012.318; 5580.000; 5392.150;  381.400
1012.869; 5185.600; 4966.150;  375.400
1013.419; 4578.100; 4378.150;  357.600
1013.970; 5165.900; 4961.350;  358.300
1014.521; 4713.300; 4524.950;  344.100
1015.071; 5208.700; 5015.950;  322.800
1015.622; 4868.900; 4668.650;  320.600
1016.172; 4540.800; 4392.750;  301.700
1016.723; 4684.800; 4524.350;  289.800
1017.273; 4655.800; 4471.700;  287.600
1017.823; 5011.900; 4817.050;  278.700
1018.374; 4732.400; 4549.200;  274.400
1018.924; 5613.000; 5442.750;  283.200
1019.474; 5523.000; 5356.750;  278.500
1020.024; 5083.100; 4888.650;  274.700
1020.574; 5657.700; 5503.500;  272.700
1021.124; 5279.300; 5080.200;  278.400
1021.674; 4277.400; 4124.300;  269.200
1022.224; 5589.500; 5407.900;  267.800
1022.774; 5193.400; 5009.550;  258.100
1023.324; 5970.700; 5784.100;  260.000
1023.874; 7025.900; 6859.800;  260.700
1024.423; 4767.000; 4580.650;  252.700
1024.973; 4627.200; 4470.350;  234.700
1025.523; 4813.500; 4626.050;  226.500
1026.072; 4726.100; 4538.100;  225.500
1026.622; 5315.100; 5114.600;  210.100
1027.172; 5616.400; 5425.100;  213.000
1027.721; 4664.600; 4495.400;  207.700
1028.270; 5255.100; 5086.500;  205.400
1028.820; 5018.100; 4850.200;  201.000
1029.369; 4783.300; 4637.950;  201.000
1029.918; 5032.900; 4862.500;  198.400
1030.468; 4376.400; 4243.350;  199.200
1031.017; 5021.600; 4836.350;  192.600
1031.566; 4772.900; 4617.600;  197.400
1032.115; 5474.100; 5331.750;  188.300
1032.664; 4700.300; 4559.450;  193.700
1033.213; 5827.900; 5668.250;  191.900
1033.762; 4997.900; 4830.250;  184.500
1034.311; 5366.200; 5191.500;  194.300
1034.860; 5441.900; 5284.950;  192.300
1035.408; 5754.900; 5610.700;  182.600
1035.957; 5686.200; 5522.400;  173.900
1036.506; 4082.600; 3960.200;  185.200
1037.055; 6784.500; 6586.050;  182.500
1037.603; 5279.400; 5103.350;  167.600
1038.152; 4113.500; 3968.450;  168.200
1038.700; 4581.900; 4427.150;  169.600
1039.249; 5388.900; 5226.650;  164.300
1039.797; 5014.300; 4872.500;  169.600
1040.345; 5579.200; 5424.800;  167.100
1040.894; 4970.300; 4813.700;  164.400
1041.442; 5036.300; 4877.550;  158.300
1041.990; 4399.200; 4262.300;  160.000
1042.538; 4193.300; 4042.350;  156.800
1043.087; 4430.700; 4310.800;  146.600
1043.635; 5402.400; 5260.000;  162.400
1044.183; 4691.500; 4514.800;  156.300
1044.731; 4547.700; 4406.500;  158.100
1045.279; 5397.000; 5219.050;  154.500
1045.827; 7232.400; 7077.300;  146.200
1046.374; 3992.700; 3856.850;  154.000
1046.922; 4652.800; 4528.700;  149.000
1047.470; 5523.400; 5396.150;  154.900
1048.018; 5228.600; 5076.000;  148.400
1048.565; 5734.500; 5586.050;  146.300
1049.113; 4381.600; 4219.750;  156.100
1049.660; 4974.000; 4830.250;  154.300
1050.208; 5398.900; 5232.150;  149.400
1050.755; 4812.200; 4685.600;  157.500
1051.303; 5530.100; 5350.000;  157.700
1051.850; 5018.400; 4900.250;  152.800
1052.397; 3708.300; 3583.350;  146.300
1052.945; 4931.400; 4763.250;  149.500
1053.492; 5981.800; 5860.450;  149.300
1054.039; 5795.600; 5671.700;  163.100
1054.586; 4415.400; 4260.150;  150.400
1055.133; 5597.200; 5451.250;  153.500
1055.680; 5151.000; 5019.000;  155.600
1056.227; 4273.400; 4119.750;  148.700
1056.774; 6438.200; 6272.800;  151.500
1057.321; 4143.800; 3982.050;  143.700
1057.868; 5197.700; 5038.200;  145.300
1058.415; 5236.800; 5095.550;  153.500
1058.961; 5438.600; 5280.150;  149.900
1059.508; 5143.800; 4988.750;  147.300
1060.055; 4657.100; 4525.850;  151.000
1060.601; 4951.100; 4812.050;  148.700
1061.148; 5016.600; 4856.200;  153.800
1061.694; 4766.400; 4607.750;  150.500
1062.241; 4780.600; 4618.400;  149.100
1062.787; 5371.200; 5206.850;  153.000
1063.334; 6502.700; 6355.650;  153.200
1063.880; 5421.100; 5266.000;  148.400
1064.426; 5724.700; 5564.350;  149.200
1064.972; 4776.500; 4656.350;  156.400
1065.518; 4537.800; 4387.200;  144.700
1066.065; 5073.500; 4927.450;  139.400
1066.611; 4809.200; 4690.100;  139.300
1067.157; 5154.200; 5020.700;  138.400
1067.703; 5400.600; 5278.700;  142.700
1068.249; 4779.600; 4640.100;  136.700
1068.794; 5035.400; 4906.750;  139.400
1069.340; 4628.200; 4496.450;  142.700
1069.886; 4778.900; 4653.350;  135.600
1070.432; 4321.600; 4171.150;  133.400
1070.977; 4877.000; 4721.800;  138.200
1071.523; 4520.500; 4393.350;  132.400
1072.068; 4652.100; 4498.200;  132.700
1072.614; 4203.500; 4055.600;  127.000
1073.160; 5643.600; 5477.150;  131.300
1073.705; 4669.100; 4497.900;  135.700
1074.250; 4502.100; 4390.750;  133.000
1074.796; 5339.000; 5194.350;  138.000
1075.341; 5360.100; 5229.600;  137.300
1075.886; 4708.100; 4626.400;  134.300
1076.431; 5306.100; 5204.900;  138.200
1076.976; 5205.800; 5083.800;  132.200
1077.521; 4681.500; 4562.800;  138.900
1078.067; 4689.400; 4576.800;  128.600
1078.612; 5417.100; 5274.850;  138.900
1079.156; 4874.200; 4743.400;  128.900
1079.701; 5653.500; 5527.550;  129.700
1080.246; 5684.000; 5543.800;  128.600
1080.791; 5118.000; 4994.550;  122.600
1081.336; 5346.000; 5231.150;  122.000
1081.880; 5313.700; 5190.550;  123.900
1082.425; 4607.200; 4490.500;  120.600
1082.970; 5861.000; 5734.950;  124.500
1083.514; 4850.600; 4696.700;  112.000
1084.059; 4728.300; 4624.650;  120.700
1084.603; 4610.900; 4479.200;  116.000
1085.147; 5287.100; 5167.200;  116.300
1085.692; 5900.400; 5753.400;  108.200
1086.236; 4082.000; 3966.450;  114.600
1086.780; 6170.800; 6044.500;  118.900
1087.325; 5343.600; 5225.500;  120.400
1087.869; 5028.000; 4879.850;  110.500
1088.413; 5739.900; 5615.250;  114.000
1088.957; 4331.500; 4238.200;  114.300
1089.501; 6328.600; 6206.000;  114.600
1090.045; 5947.900; 5864.600;  114.200
1090.589; 4624.900; 4492.250;  105.500
1091.133; 5495.900; 5377.300;  111.800
1091.676; 4776.100; 4649.250;  110.900
1092.220; 4915.500; 4787.250;  110.100
1092.764; 5793.000; 5672.550;  108.100
1093.307; 5501.300; 5364.100;  109.900
1093.851; 4520.900; 4422.150;  107.500
1094.395; 5616.400; 5493.850;   96.200
1094.938; 5180.400; 5062.000;   99.300
1095.482; 4569.700; 4436.550;   97.700
1096.025; 5831.700; 5711.450;   84.900
1096.568; 6370.900; 6229.550;   88.500
1097.112; 4072.300; 3972.400;   95.700
1097.655; 4838.300; 4744.650;   97.300
1098.198; 4906.500; 4778.850;   92.600
1098.741; 5043.100; 4922.400;   91.800
1099.285; 5366.600; 5240.200;   88.000
1099.828; 3565.000; 3448.600;   91.700
1100.371; 5017.900; 4888.250;   89.900
1100.914; 5628.900; 5508.500;   91.500
1101.457; 5567.800; 5443.850;   88.100
1101.999; 4736.600; 4632.250;   86.400
1102.542; 5214.600; 5117.750;   90.800
1103.085; 5422.300; 5320.700;   95.400
1103.628; 6315.600; 6206.250;   97.700
1104.170; 4808.400; 4684.400;   84.000
1104.713; 5311.100; 5195.850;   93.900
1105.256; 4539.000; 4419.550;   93.000
1105.798; 4107.800; 3988.600;   85.600
1106.341; 6008.600; 5905.300;   87.100
1106.883; 4269.900; 4161.400;   85.200
1107.425; 5524.800; 5414.900;   85.000
1107.968; 5097.100; 4974.500;   84.300
1108.510; 5625.700; 5540.350;   88.200
1109.052; 5087.800; 4988.450;   86.600
1109.594; 4578.400; 4484.800;   79.400
1110.136; 5326.200; 5221.300;   81.700
1110.679; 5165.200; 5066.900;   75.500
1111.221; 4994.100; 4895.250;   88.500
1111.763; 4556.500; 4453.050;   87.700
1112.304; 4490.000; 4373.350;   89.700
1112.846; 5514.300; 5377.400;   81.900
1113.388; 7883.800; 7765.850;   86.400
1113.930; 5745.700; 5628.400;   84.700
1114.472; 5013.700; 4929.350;   78.900
1115.013; 4528.300; 4415.050;   78.100
1115.555; 4900.600; 4761.800;   84.900
1116.097; 4738.000; 4628.450;   79.200
1116.638; 5682.000; 5576.850;   83.700
1117.180; 5465.600; 5357.600;   85.500
1117.721; 4756.000; 4643.900;   78.800
1118.262; 5637.500; 5513.150;   77.400
1118.804; 5248.100; 5150.350;   81.400
1119.345; 4816.200; 4708.600;   77.800
1119.886; 5842.500; 5730.300;   81.200
1120.427; 4868.800; 4749.450;   77.200
1120.969; 4982.600; 4855.250;   75.200
1121.510; 4671.300; 4565.100;   80.900
1122.051; 5990.300; 5882.950;   77.300
1122.592; 5481.400; 5362.150;   73.300
1123.133; 4525.300; 4406.450;   90.100
1123.673; 5889.300; 5780.650;   75.000
1124.214; 5082.000; 4988.450;   80.600
1124.755; 5326.600; 5239.150;   78.000
1125.296; 5172.700; 5071.700;   77.500
1125.836; 5740.700; 5614.350;   80.400
1126.377; 4981.200; 4888.950;   75.600
1126.918; 5140.300; 4990.000;   78.900
1127.458; 5190.700; 5057.400;   78.000
1127.999; 5459.100; 5356.800;   76.100
1128.539; 5788.500; 5660.000;   81.400
1129.079; 5291.600; 5167.400;   77.400
1129.620; 4611.400; 4531.750;   68.000
1130.160; 4495.500; 4398.900;   77.500
1130.700; 5311.300; 5217.650;   76.300
1131.240; 5374.000; 5245.000;   66.800
1131.781; 5172.400; 5091.350;   70.600
1132.321; 5020.900; 4912.100;   77.200
1132.861; 4651.800; 4544.850;   70.400
1133.401; 4964.800; 4886.600;   68.700
1133.941; 5208.700; 5117.700;   68.500
1134.481; 5033.400; 4933.900;   75.900
1135.020; 5065.400; 4968.550;   66.600
1135.560; 5581.000; 5473.300;   68.100
1136.100; 4152.400; 4069.400;   64.900
1136.640; 4271.700; 4176.500;   72.500
1137.179; 4431.600; 4350.650;   69.700
1137.719; 5065.500; 4954.400;   68.400
1138.258; 4900.200; 4803.500;   67.000
1138.798; 5510.800; 5416.400;   69.600
1139.337; 4016.800; 3922.550;   64.000
1139.877; 5328.100; 5230.350;   64.500
1140.416; 7264.000; 7166.500;   74.900
1140.955; 4425.300; 4333.400;   67.200
1141.494; 5631.300; 5532.550;   69.900
1142.034; 4884.600; 4767.300;   59.100
1142.573; 5388.700; 5287.550;   65.900
1143.112; 4597.000; 4512.350;   70.600
1143.651; 4473.900; 4385.950;   67.100
1144.190; 5833.600; 5703.450;   56.700
1144.729; 5056.400; 4955.750;   61.800
1145.267; 4829.800; 4736.950;   62.500
1145.806; 5334.200; 5220.900;   68.500
1146.345; 5372.600; 5257.750;   58.300
1146.884; 5243.600; 5145.950;   63.100
1147.422; 4434.700; 4340.300;   54.800
1147.961; 5960.600; 5848.100;   67.600
1148.500; 5594.900; 5498.250;   64.700
1149.038; 5347.600; 5233.850;   61.000
1149.577; 5881.900; 5777.000;   65.100
1150.115; 3760.100; 3681.900;   58.100
1150.653; 5121.800; 5012.650;   60.500
1151.192; 4682.100; 4567.250;   56.600
1151.730; 5500.500; 5413.950;   62.300
1152.268; 4904.000; 4812.600;   55.500
1152.806; 4800.300; 4734.050;   58.200
1153.344; 4799.200; 4732.600;   55.000
1153.882; 4993.200; 4902.000;   64.200
1154.421; 3914.800; 3841.450;   60.300
1154.958; 5028.500; 4952.800;   58.100
1155.496; 5387.100; 5328.650;   55.800
1156.034; 6101.300; 5973.800;   61.000
1156.572; 5583.400; 5493.900;   56.200
1157.110; 3939.700; 3856.400;   53.200
1157.647; 5694.000; 5588.750;   57.400
1158.185; 4773.600; 4685.000;   55.500
1158.723; 4291.000; 4210.500;   58.000
1159.260; 5898.300; 5779.700;   53.700
1159.798; 5548.400; 5442.950;   51.700
1160.335; 5314.300; 5227.600;   59.600

