source
Integration time [ms]: 3468.598
Averaging Nr. [scans]: 10
Smoothing Nr. [pixels]: 0
Data measured with spectrometer [name]: 7414430SP
Wave   ;Sample   ;Dark     ;Reference
[nm]   ;[counts] ;[counts] ;[counts] 

288.544; 5204.185; 4983.385;    6.613
289.143; 4326.132; 4054.288;   14.216
289.742; 5570.312; 5296.867;   11.816
290.341; 5352.818; 5071.188;   -4.936
290.940; 4862.357; 4633.392;    0.852
291.538; 6122.928; 5870.872;    1.792
292.137; 5427.035; 5171.827;    6.262
292.736; 7027.518; 6773.389;    8.164
293.335; 4989.191; 4733.773;   -6.418
293.934; 5387.315; 5105.711;   -2.904
294.532; 7544.352; 7282.726;   -5.162
295.131; 5995.094; 5726.518;  -10.283
295.730; 5784.210; 5546.961;  -16.141
296.328; 5617.091; 5353.235;  -14.740
296.927; 5560.322; 5314.389;   -8.768
297.525; 5533.485; 5271.474;  -15.255
298.124; 4543.871; 4280.530;  -22.063
298.722; 5435.531; 5165.127;  -14.796
299.321; 4989.965; 4751.758;  -10.466
299.919; 5361.163; 5105.331;  -10.979
300.518; 4898.846; 4674.793;  -12.077
301.116; 4886.048; 4680.521;  -13.509
301.715; 5207.033; 4971.916;  -11.939
302.313; 5035.620; 4778.250;  -15.424
302.911; 5317.545; 5092.749;  -19.833
303.509; 6953.603; 6712.962;   -3.567
304.108; 5497.488; 5252.457;   -9.553
304.706; 5872.256; 5641.515;   -8.582
305.304; 5948.357; 5735.520;  -12.348
305.902; 5673.824; 5445.572;  -14.411
306.500; 5287.134; 5061.710;   -7.194
307.098; 5497.044; 5250.898;   -9.322
307.696; 5815.598; 5572.651;  -19.192
308.294; 5403.499; 5156.146;   -9.736
308.892; 5615.617; 5383.022;  -15.482
309.490; 5156.631; 4946.583;  -14.107
310.088; 5918.952; 5709.054;  -15.862
310.686; 6095.758; 5862.354;  -10.781
311.284; 5749.864; 5498.425;  -14.878
311.882; 5328.198; 5091.407;   -9.948
312.480; 5148.718; 4933.328;  -15.503
313.078; 6168.672; 5942.025;  -17.262
313.675; 5091.535; 4875.110;   -3.694
314.273; 6082.561; 5857.348;  -18.246
314.871; 4229.422; 4039.000;  -15.190
315.468; 4857.746; 4617.749;  -12.633
316.066; 5143.986; 4944.624;   -5.765
316.664; 4838.533; 4640.783;  -14.317
317.261; 6999.925; 6802.427;   -8.677
317.859; 5916.696; 5734.268;  -11.804
318.456; 6447.171; 6212.525;   -3.107
319.054; 6049.012; 5840.912;   -3.062
319.651; 5751.393; 5547.735;   -6.706
320.249; 6282.593; 6109.685;   -5.206
320.846; 5473.482; 5266.352;   -4.679
321.443; 6532.567; 6334.103;   -7.920
322.041; 6390.354; 6195.737;  -14.105
322.638; 5457.891; 5261.052;   -6.263
323.235; 5051.920; 4863.250;   -7.424
323.833; 5744.306; 5567.545;  -14.765
324.430; 4639.754; 4435.237;  -10.550
325.027; 6907.652; 6712.098;   -9.951
325.624; 4823.702; 4616.812;   -3.712
326.221; 5161.682; 4968.497;   -9.368
326.818; 6308.337; 6091.093;   -5.637
327.415; 5590.246; 5355.476;   -6.699
328.012; 5101.699; 4863.679;   -5.713
328.609; 5402.933; 5162.610;   -9.983
329.206; 5889.287; 5645.363;   -7.154
329.803; 5449.597; 5211.901;   -1.682
330.400; 5138.090; 4900.641;   -2.741
330.997; 6062.893; 5817.924;   -4.339
331.594; 5906.924; 5646.983;  -10.278
332.191; 5267.643; 4995.754;   -6.967
332.787; 6250.740; 5969.677;   -0.480
333.384; 5513.605; 5257.662;  -10.333
333.981; 6024.885; 5771.552;  -19.900
334.578; 5060.736; 4783.916;  -19.816
335.174; 5258.025; 4998.339;  -15.844
335.771; 6199.379; 5919.491;  -12.670
336.367; 5187.521; 4916.472;  -21.124
336.964; 5931.378; 5640.552;  -18.226
337.561; 5368.226; 5090.344;  -13.311
338.157; 6938.395; 6657.257;  -19.006
338.754; 5959.472; 5671.309;  -19.418
339.350; 5311.345; 5050.082;  -29.433
339.946; 5656.965; 5393.192;  -16.622
340.543; 6352.226; 6090.361;  -16.744
341.139; 5361.651; 5095.704;  -21.841
341.735; 5856.724; 5610.534;  -25.012
342.332; 5127.705; 4912.607;  -19.156
342.928; 5984.608; 5749.129;  -20.443
343.524; 5816.690; 5588.802;  -14.397
344.120; 5619.409; 5379.784;  -20.654
344.716; 5338.572; 5094.014;   -5.730
345.313; 6081.532; 5839.472;  -10.929
345.909; 4584.068; 4381.842;  -19.843
346.505; 5609.864; 5364.214;  -19.645
347.101; 6283.053; 6056.932;   -9.618
347.697; 5987.095; 5751.302;  -10.305
348.293; 4591.285; 4347.975;  -23.189
348.889; 5658.732; 5446.116;  -18.418
349.485; 5097.647; 4872.965;  -10.476
350.081; 5876.989; 5670.291;  -17.320
350.676; 5217.886; 5000.419;  -21.088
351.272; 6206.546; 5950.016;  -12.821
351.868; 5850.547; 5612.910;  -13.165
352.464; 5422.070; 5204.664;  -12.464
353.059; 4825.659; 4613.287;  -22.547
353.655; 5952.063; 5722.059;   -9.379
354.251; 5750.325; 5519.300;   -8.266
354.846; 5629.715; 5425.623;  -17.705
355.442; 5672.614; 5447.184;   -9.317
356.038; 5680.197; 5455.090;  -11.049
356.633; 5454.693; 5254.163;  -10.006
357.229; 5470.550; 5228.999;  -13.120
357.824; 5363.760; 5095.231;  -15.647
358.420; 5084.357; 4871.454;  -19.204
359.015; 5180.372; 4953.653;  -12.263
359.610; 5861.067; 5623.981;  -16.421
360.206; 4448.912; 4244.451;  -20.074
360.801; 4799.246; 4567.671;  -13.277
361.396; 5498.365; 5273.642;   -5.822
361.992; 5037.960; 4822.082;  -11.247
362.587; 5070.321; 4866.389;  -21.502
363.182; 5223.595; 5012.657;   -7.461
363.777; 5676.110; 5452.306;   -8.719
364.372; 5632.622; 5417.878;  -14.590
364.967; 5191.704; 4998.401;  -15.145
365.563; 6235.719; 6062.795;   -7.192
366.158; 5177.433; 4955.311;   -5.662
366.753; 4889.504; 4656.940;   -8.378
367.348; 5709.923; 5508.222;  -14.990
367.942; 5315.896; 5090.001;   -6.005
368.537; 5763.499; 5566.585;  -11.504
369.132; 5376.248; 5163.560;  -10.576
369.727; 4788.253; 4572.582;  -12.573
370.322; 4427.776; 4212.081;  -11.560
370.917; 5488.186; 5272.619;  -10.388
371.511; 6814.654; 6595.170;   -9.161
372.106; 6100.004; 5869.301;  -10.245
372.701; 4474.261; 4245.487;  -10.158
373.296; 6722.990; 6521.885;   -4.719
373.890; 4982.622; 4797.689;  -11.802
374.485; 5385.605; 5206.901;  -13.500
375.079; 5796.189; 5582.247;   -6.276
375.674; 6375.640; 6178.866;   -0.447
376.268; 5318.776; 5119.886;   -6.916
376.863; 4497.295; 4325.718;  -14.483
377.457; 5152.159; 4959.743;   -6.903
378.052; 6008.146; 5812.932;   -9.844
378.646; 5865.183; 5688.691;  -12.601
379.240; 5707.458; 5483.954;  -14.715
379.835; 4990.188; 4791.252;  -12.331
380.429; 4325.353; 4139.587;   -9.074
381.023; 6192.133; 6023.366;   -1.729
381.617; 5344.621; 5193.600;  -13.714
382.212; 5369.317; 5199.617;   -7.060
382.806; 6003.759; 5856.393;   -2.303
383.400; 5365.318; 5194.861;   -0.815
383.994; 5313.594; 5127.624;   -4.429
384.588; 5549.316; 5394.073;   -6.261
385.182; 5815.360; 5638.881;    0.008
385.776; 5715.500; 5545.624;   -3.247
386.370; 5457.851; 5300.699;   -1.030
386.964; 5511.842; 5324.055;   -1.346
387.558; 4736.009; 4587.712;   -2.020
388.152; 5470.544; 5338.543;   -5.345
388.745; 6602.032; 6478.322;   -2.774
389.339; 5924.042; 5769.749;    3.510
389.933; 5512.188; 5325.146;    5.280
390.527; 7038.403; 6889.151;    2.610
391.120; 4790.959; 4663.248;   -7.914
391.714; 5688.960; 5553.737;   -1.903
392.308; 6380.967; 6199.287;    6.023
392.901; 5218.380; 5082.758;   -4.103
393.495; 4839.057; 4713.759;    3.284
394.089; 6319.324; 6189.122;    8.655
394.682; 5718.687; 5610.813;    2.312
395.275; 5932.341; 5792.710;   -7.402
395.869; 5506.935; 5370.055;   -1.072
396.462; 5032.423; 4932.678;    6.454
397.056; 6316.155; 6202.715;    8.494
397.649; 6054.203; 5922.913;    1.599
398.242; 5849.121; 5768.239;    3.153
398.836; 6295.616; 6167.017;   11.395
399.429; 5104.497; 5014.096;   14.695
400.022; 5467.055; 5395.776;    3.627
400.615; 6718.155; 6618.121;    8.383
401.208; 5633.875; 5498.181;   13.295
401.802; 5791.545; 5681.382;    6.211
402.395; 5683.854; 5596.026;    7.227
402.988; 5745.825; 5664.872;    2.700
403.581; 5215.969; 5136.675;   11.225
404.174; 5574.465; 5480.048;   18.922
404.767; 5162.649; 5071.610;   14.169
405.360; 5144.023; 5064.078;    8.999
405.953; 6278.813; 6154.089;   13.138
406.545; 5980.091; 5915.479;   13.937
407.138; 5075.668; 4989.331;   10.869
407.731; 5033.907; 4971.279;   12.768
408.324; 5403.942; 5308.193;   22.921
408.917; 5670.360; 5555.781;   15.308
409.509; 6168.755; 6066.265;   12.239
410.102; 5375.019; 5291.206;   13.741
410.695; 5478.593; 5394.863;   20.249
411.287; 4949.872; 4872.253;   21.793
411.880; 4759.181; 4750.541;   22.965
412.472; 5069.873; 4994.453;   15.082
413.065; 5255.807; 5211.779;   23.423
413.657; 4757.183; 4700.924;   21.077
414.250; 5318.652; 5250.026;   12.349
414.842; 5573.925; 5521.505;   20.423
415.434; 4727.375; 4676.125;   19.906
416.027; 5310.057; 5250.987;   26.574
416.619; 5923.875; 5860.780;   15.705
417.211; 4910.509; 4856.906;   17.791
417.804; 5138.584; 5078.208;   30.244
418.396; 5026.343; 4972.632;   24.177
418.988; 5454.432; 5394.105;   24.904
419.580; 4670.511; 4639.345;   20.692
420.172; 4459.340; 4422.949;   22.275
420.764; 5485.676; 5436.114;   26.773
421.356; 5279.880; 5234.536;   25.731
421.948; 5528.201; 5520.057;   24.876
422.540; 5541.721; 5486.917;   30.042
423.132; 4916.515; 4874.056;   32.728
423.724; 4578.956; 4547.598;   21.317
424.316; 5117.490; 5074.269;   29.359
424.908; 4858.081; 4818.475;   28.798
425.500; 5317.226; 5270.527;   30.512
426.092; 5294.337; 5262.205;   26.741
426.683; 5701.496; 5674.779;   27.029
427.275; 5247.723; 5220.344;   32.611
427.867; 5430.477; 5381.797;   33.796
428.458; 5996.039; 5979.088;   34.453
429.050; 5624.183; 5560.808;   34.255
429.642; 6116.671; 6064.581;   39.082
430.233; 4538.432; 4497.833;   41.138
430.825; 6023.890; 5978.757;   31.581
431.416; 5728.663; 5693.486;   35.755
432.008; 5263.542; 5234.766;   40.566
432.599; 5280.544; 5254.004;   46.322
433.190; 5184.919; 5165.022;   46.897
433.782; 4582.248; 4558.587;   41.069
434.373; 7164.104; 7136.306;   48.778
434.964; 4826.644; 4799.398;   50.078
435.556; 5156.010; 5104.428;   52.381
436.147; 6164.216; 6134.034;   38.251
436.738; 5681.950; 5644.065;   47.237
437.329; 5784.710; 5767.012;   61.304
437.920; 5289.063; 5283.781;   48.611
438.511; 4494.963; 4484.836;   44.910
439.103; 4966.892; 4948.235;   62.404
439.694; 5505.979; 5438.619;   63.075
440.285; 5983.664; 5937.420;   61.033
440.876; 6916.053; 6875.643;   57.249
441.466; 4525.894; 4531.124;   61.306
442.057; 5273.174; 5215.991;   65.773
442.648; 5993.300; 5976.379;   65.676
443.239; 4941.498; 4920.651;   55.963
443.830; 5656.899; 5610.384;   69.631
444.421; 5183.601; 5137.718;   69.943
445.011; 5533.647; 5510.426;   72.791
445.602; 5934.731; 5907.933;   68.848
446.193; 3745.443; 3709.493;   80.044
446.783; 4951.841; 4895.904;   82.599
447.374; 5416.538; 5405.238;   77.419
447.964; 5672.172; 5641.364;   72.605
448.555; 6495.837; 6454.327;   82.041
449.145; 5190.797; 5148.146;   76.230
449.736; 6337.044; 6313.438;   75.545
450.326; 5596.264; 5572.809;   67.945
450.917; 5255.319; 5214.044;   77.598
451.507; 4636.892; 4629.224;   68.027
452.097; 5878.871; 5859.108;   67.771
452.688; 5775.555; 5714.359;   62.884
453.278; 4170.446; 4175.920;   65.512
453.868; 6280.596; 6226.240;   71.796
454.458; 5032.023; 4998.066;   60.956
455.048; 5526.024; 5505.911;   62.356
455.639; 4303.170; 4270.608;   58.782
456.229; 5458.159; 5442.075;   65.209
456.819; 5781.942; 5737.538;   61.466
457.409; 6045.523; 5988.460;   59.967
457.999; 5655.911; 5608.689;   58.093
458.589; 5178.488; 5144.935;   59.536
459.179; 5533.333; 5490.749;   55.994
459.769; 4743.107; 4700.417;   43.624
460.358; 6105.464; 6079.692;   46.978
460.948; 5241.441; 5199.387;   49.821
461.538; 4967.503; 4915.584;   54.678
462.128; 5021.759; 4979.425;   49.309
462.717; 5300.656; 5271.431;   52.774
463.307; 5310.105; 5279.012;   48.101
463.897; 4895.754; 4840.453;   45.606
464.486; 6448.041; 6435.799;   45.010
465.076; 5528.097; 5508.673;   45.519
465.666; 4745.667; 4710.358;   50.058
466.255; 5965.956; 5932.642;   44.463
466.845; 4870.574; 4845.475;   41.206
467.434; 5418.627; 5385.521;   44.847
468.023; 4746.391; 4736.857;   46.760
468.613; 5323.888; 5274.485;   39.736
469.202; 4688.112; 4667.222;   46.461
469.791; 5395.702; 5351.184;   47.944
470.381; 5387.815; 5350.895;   47.529
470.970; 5181.753; 5136.348;   43.773
471.559; 5420.185; 5390.396;   41.646
472.148; 4841.288; 4762.518;   37.914
472.738; 5569.689; 5495.057;   48.071
473.327; 4478.191; 4456.801;   47.871
473.916; 5341.592; 5287.146;   37.716
474.505; 5437.443; 5393.509;   40.256
475.094; 5923.266; 5865.358;   43.269
475.683; 5753.360; 5701.447;   36.499
476.272; 5189.818; 5158.572;   44.542
476.861; 4966.517; 4900.277;   42.297
477.449; 5084.743; 5016.748;   46.878
478.038; 4809.364; 4744.075;   35.156
478.627; 4943.028; 4943.110;   42.514
479.216; 5362.629; 5325.338;   43.937
479.805; 5449.150; 5371.653;   51.393
480.393; 7410.373; 7300.708;   53.239
480.982; 6282.542; 6238.065;   38.955
481.571; 6075.227; 6005.705;   45.436
482.159; 4666.475; 4618.991;   51.007
482.748; 5691.354; 5641.481;   49.695
483.336; 5922.485; 5872.924;   48.280
483.925; 5064.542; 4993.409;   47.166
484.513; 5047.989; 4970.040;   55.404
485.102; 5437.532; 5368.277;   54.238
485.690; 7112.628; 7009.038;   55.748
486.278; 6809.083; 6745.635;   55.934
486.867; 5298.973; 5215.002;   57.106
487.455; 6026.944; 5939.843;   56.979
488.043; 4683.178; 4629.218;   57.564
488.631; 6796.620; 6732.188;   57.432
489.220; 5956.185; 5888.118;   63.646
489.808; 4486.930; 4399.126;   65.449
490.396; 5899.300; 5816.073;   61.977
490.984; 5055.263; 4951.264;   68.834
491.572; 5904.438; 5823.526;   70.775
492.160; 5571.078; 5484.568;   67.564
492.748; 5121.256; 5103.664;   66.808
493.336; 5970.946; 5918.320;   79.747
493.924; 5154.600; 5054.267;   88.688
494.512; 5886.058; 5817.397;   84.120
495.100; 5743.933; 5691.016;   86.250
495.687; 6122.695; 6014.601;  103.074
496.275; 4986.273; 4878.941;  108.717
496.863; 5152.725; 5065.160;  107.035
497.451; 5103.829; 5034.038;  117.993
498.038; 5385.570; 5313.558;  120.116
498.626; 5168.789; 5086.890;  143.059
499.214; 5537.283; 5471.485;  153.434
499.801; 5385.139; 5322.221;  175.121
500.389; 4431.572; 4364.446;  185.617
500.976; 5647.021; 5544.377;  215.789
501.564; 5424.119; 5330.850;  240.321
502.151; 3927.055; 3852.220;  267.007
502.738; 5099.292; 5027.823;  317.961
503.326; 5207.090; 5129.429;  361.216
503.913; 5473.641; 5378.604;  401.433
504.500; 5606.927; 5530.499;  446.492
505.088; 4798.995; 4710.506;  512.063
505.675; 5219.979; 5123.102;  586.387
506.262; 5181.400; 5085.023;  671.021
506.849; 5287.773; 5209.396;  759.062
507.436; 6011.060; 5891.975;  849.788
508.023; 5276.481; 5196.791;  944.288
508.610; 5871.884; 5784.424; 1020.690
509.197; 5640.155; 5582.570; 1089.052
509.784; 5344.779; 5220.757; 1133.776
510.371; 4456.143; 4366.182; 1165.501
510.958; 5443.265; 5338.453; 1251.735
511.545; 6260.589; 6150.146; 1350.248
512.132; 5334.522; 5223.521; 1525.945
512.719; 4738.841; 4663.104; 1834.933
513.305; 4897.410; 4822.911; 1965.349
513.892; 6150.899; 6074.784; 1963.265
514.479; 5425.384; 5352.118; 2046.446
515.066; 5952.468; 5865.174; 2252.803
515.652; 5445.966; 5316.741; 2567.247
516.239; 5769.457; 5688.453; 2636.919
516.825; 4534.369; 4440.519; 2482.304
517.412; 6685.378; 6569.657; 2427.031
517.998; 5207.416; 5124.672; 2540.463
518.585; 5154.355; 5041.720; 2609.007
519.171; 5447.200; 5357.517; 2842.088
519.758; 4654.367; 4527.980; 3090.703
520.344; 5899.779; 5801.957; 3176.076
520.930; 4773.348; 4660.865; 3295.037
521.516; 5667.508; 5568.661; 3500.959
522.103; 6210.289; 6109.140; 3736.704
522.689; 5162.541; 5046.509; 3971.022
523.275; 6005.563; 5921.020; 4213.778
523.861; 5223.292; 5141.817; 4190.361
524.447; 6015.525; 5895.449; 4070.602
525.033; 6103.748; 5969.365; 4088.892
525.619; 4918.993; 4824.573; 4416.851
526.205; 4610.985; 4522.824; 4836.835
526.791; 5198.028; 5080.638; 4885.903
527.377; 4991.815; 4886.777; 4544.907
527.963; 5446.272; 5357.608; 4321.995
528.549; 5573.784; 5471.029; 4473.979
529.135; 4907.775; 4799.785; 4788.663
529.721; 5390.562; 5289.275; 4888.577
530.306; 7267.484; 7149.079; 4775.779
530.892; 5142.533; 5035.210; 4793.906
531.478; 5037.188; 4910.001; 4956.948
532.063; 4780.646; 4698.426; 5136.936
532.649; 6596.362; 6475.575; 5336.867
533.235; 4818.269; 4710.380; 5748.092
533.820; 6161.896; 6033.095; 6456.875
534.406; 5226.382; 5133.546; 6590.167
534.991; 4850.261; 4744.730; 6179.622
535.576; 5278.307; 5152.528; 6098.691
536.162; 7297.323; 7175.622; 6441.234
536.747; 4610.386; 4500.724; 6816.224
537.333; 4907.817; 4772.972; 6889.752
537.918; 5301.687; 5181.318; 7154.280
538.503; 4979.028; 4867.438; 7150.848
539.088; 5561.557; 5444.059; 7253.308
539.673; 5094.867; 5018.697; 7625.180
540.259; 4942.749; 4832.009; 8226.793
540.844; 4367.647; 4250.265; 8745.092
541.429; 6481.298; 6360.395; 8762.553
542.014; 4521.817; 4420.172; 8871.497
542.599; 5551.456; 5417.014; 8886.008
543.184; 4691.912; 4561.306; 9079.139
543.769; 4974.209; 4844.123; 9076.182
544.354; 5107.389; 4998.507; 8354.081
544.938; 5526.458; 5396.553; 8236.809
545.523; 6442.463; 6326.764; 8222.179
546.108; 5285.770; 5217.730; 8114.082
546.693; 5241.405; 5178.206; 8535.912
547.278; 5282.222; 5181.683; 9238.322
547.862; 5271.492; 5151.523; 9034.405
548.447; 5948.362; 5833.480; 7795.011
549.031; 5094.121; 5019.655; 7485.099
549.616; 5508.437; 5383.887; 7626.308
550.201; 4975.879; 4859.369; 7627.909
550.785; 5758.267; 5618.947; 7859.125
551.370; 4653.380; 4519.063; 7990.654
551.954; 5942.865; 5785.114; 8196.468
552.538; 5787.933; 5663.715; 7959.495
553.123; 4973.429; 4862.699; 7964.826
553.707; 5139.686; 5038.385; 8515.957
554.291; 6207.446; 6054.031; 8724.024
554.876; 5864.823; 5747.388; 8524.211
555.460; 4989.943; 4892.509; 8704.456
556.044; 4954.414; 4828.855; 9141.473
556.628; 5353.158; 5202.608; 9250.197
557.212; 6078.509; 5944.873; 9444.237
557.796; 5206.313; 5082.906; 9379.783
558.380; 5595.728; 5466.216; 9353.658
558.964; 5449.260; 5321.742; 9210.310
559.548; 4618.958; 4477.608; 8475.153
560.132; 5113.975; 4982.252; 7954.084
560.716; 4728.576; 4593.302; 7489.529
561.300; 4661.576; 4507.485; 7211.952
561.884; 5741.425; 5581.377; 7141.313
562.467; 5706.978; 5549.185; 7155.386
563.051; 5312.506; 5185.900; 7323.158
563.635; 5270.228; 5099.010; 7709.114
564.219; 5346.862; 5166.236; 7678.855
564.802; 5722.599; 5563.201; 7376.187
565.386; 5413.592; 5259.096; 7054.372
565.969; 6235.815; 6057.083; 6589.196
566.553; 6829.490; 6654.257; 6279.371
567.136; 6134.916; 5988.439; 5967.930
567.720; 5486.887; 5255.929; 5660.703
568.303; 5612.069; 5455.691; 5648.615
568.887; 5511.799; 5286.245; 5618.443
569.470; 5627.138; 5440.454; 5411.875
570.053; 5876.336; 5667.810; 5149.274
570.637; 5009.659; 4787.553; 5122.798
571.220; 5965.927; 5681.210; 4957.369
571.803; 6909.416; 6635.300; 4933.018
572.386; 5343.215; 5055.450; 4840.973
572.969; 5351.877; 5062.691; 4592.886
573.552; 5503.819; 5157.522; 4348.387
574.135; 5011.825; 4658.188; 4002.290
574.718; 5162.834; 4835.171; 3654.773
575.301; 5188.802; 4821.937; 3502.288
575.884; 5214.769; 4808.703; 3349.803
576.467; 6404.087; 5951.329; 3191.403
577.050; 5947.675; 5439.763; 3062.418
577.633; 7063.123; 6480.844; 3214.200
578.216; 5717.663; 5073.692; 3284.889
578.799; 5775.460; 5071.508; 3189.777
579.381; 7471.707; 6697.000; 3064.502
579.964; 5681.886; 4809.335; 2888.357
580.547; 6314.012; 5371.672; 2905.760
581.129; 7226.631; 6197.255; 2966.849
581.712; 6651.209; 5529.845; 2887.292
582.294; 6624.159; 5301.864; 2771.631
582.877; 8168.966; 6756.813; 2711.602
583.459; 6792.912; 5236.528; 2577.049
584.042; 6884.695; 5150.640; 2454.707
584.624; 6636.070; 4768.103; 2305.893
585.206; 6159.425; 4114.883; 2189.546
585.789; 7193.302; 4948.339; 2112.577
586.371; 7914.380; 5531.035; 2153.065
586.953; 8232.133; 5740.188; 2197.806
587.536; 8888.162; 6109.292; 2105.489
588.118; 8191.344; 5140.732; 1963.911
588.700; 9626.226; 6115.244; 1843.179
589.282; 9546.543; 5567.221; 1813.834
589.864; 9834.819; 5353.828; 1777.620
590.446; 9226.008; 4281.861; 1733.780
591.028;10766.198; 5306.373; 1676.008
591.610;10080.472; 4363.441; 1631.649
592.192;11243.534; 5368.327; 1632.362
592.774;10720.137; 4705.171; 1569.507
593.356;11408.674; 4906.636; 1524.539
593.937;11969.918; 4876.733; 1569.720
594.519;13478.011; 5891.684; 1569.049
595.101;12736.878; 4415.508; 1545.452
595.683;14092.885; 4950.863; 1607.568
596.264;15330.493; 5184.795; 1615.506
596.846;15845.162; 5034.453; 1667.622
597.427;16411.906; 4882.123; 1670.469
598.009;17419.904; 4818.189; 1640.312
598.591;18522.043; 5743.932; 1541.022
599.172;18290.760; 5070.064; 1598.665
599.753;18516.445; 4544.065; 1619.068
600.335;20768.445; 6136.621; 1548.612
600.916;20644.322; 5220.222; 1607.510
601.498;21841.027; 5512.527; 1745.181
602.079;23041.783; 5267.174; 1801.011
602.660;24447.236; 5161.532; 1834.640
603.241;24154.455; 4183.903; 1787.351
603.823;25222.941; 4952.837; 1684.266
604.404;24788.596; 4586.540; 1654.241
604.985;24981.098; 4963.834; 1758.741
605.566;26620.986; 5787.352; 1697.679
606.147;27854.074; 5119.091; 1526.728
606.728;28923.938; 4563.777; 1484.086
607.309;30736.148; 4904.498; 1421.070
607.890;30976.363; 4984.097; 1369.867
608.471;31247.891; 4801.079; 1277.826
609.051;32494.254; 5385.582; 1180.416
609.632;33127.852; 4723.337; 1075.816
610.213;35353.246; 5155.071; 1053.313
610.794;36458.637; 4975.971;  979.442
611.374;38079.746; 5465.109;  917.414
611.955;37729.398; 4470.179;  819.987
612.536;40434.109; 5384.845;  752.627
613.116;41305.422; 4959.033;  690.799
613.697;41351.996; 4885.601;  674.974
614.277;41343.387; 4738.818;  663.846
614.858;40031.359; 4877.575;  665.898
615.438;38971.164; 5227.542;  660.712
616.019;40043.199; 6137.323;  632.732
616.599;38472.707; 4113.567;  551.759
617.179;40657.973; 4594.608;  512.871
617.760;44314.563; 6911.514;  473.655
618.340;42358.590; 5155.940;  440.004
618.920;43933.398; 6328.034;  429.731
619.500;43976.313; 5015.039;  441.361
620.080;43548.027; 4725.700;  425.202
620.660;43806.340; 4711.282;  408.164
621.241;45044.793; 5022.023;  387.161
621.821;46915.355; 5282.726;  378.017
622.401;47315.363; 5863.925;  379.188
622.980;44930.438; 4482.932;  350.019
623.560;45497.105; 5026.484;  336.446
624.140;43794.836; 5298.343;  336.473
624.720;41682.137; 5462.688;  334.974
625.300;40474.035; 4728.110;  325.717
625.880;41126.719; 5147.411;  308.519
626.459;43743.793; 5201.913;  307.117
627.039;45258.645; 4350.832;  290.890
627.619;49268.547; 6638.576;  286.635
628.198;49352.207; 5951.995;  282.535
628.778;50099.035; 5586.238;  285.474
629.357;47223.590; 4542.902;  284.103
629.937;46747.043; 4978.398;  292.178
630.516;48940.813; 6239.056;  290.749
631.096;48130.043; 4804.599;  285.489
631.675;49293.402; 6131.162;  287.022
632.254;48046.113; 4798.861;  286.038
632.834;46702.418; 5153.383;  276.451
633.413;46798.930; 6110.794;  279.447
633.992;45941.520; 5855.117;  264.508
634.571;45753.082; 5609.308;  271.010
635.151;47365.953; 4691.204;  277.338
635.730;48520.051; 5087.243;  289.305
636.309;48525.297; 5521.918;  285.306
636.888;47916.137; 5605.305;  254.051
637.467;44525.246; 4264.982;  230.324
638.046;45645.953; 6252.648;  253.349
638.625;45417.082; 6001.558;  246.866
639.204;45244.129; 5370.055;  240.825
639.782;46759.371; 5208.692;  261.970
640.361;47152.289; 6048.680;  277.780
640.940;46046.777; 4878.755;  270.101
641.519;45904.363; 5450.881;  248.622
642.097;47013.652; 5568.007;  239.843
642.676;46988.840; 5261.282;  244.264
643.255;46748.828; 5050.108;  234.985
643.833;48880.215; 5615.533;  244.406
644.412;49162.199; 4987.809;  244.927
644.990;48942.387; 5280.984;  249.948
645.569;48487.574; 5544.160;  249.569
646.147;48239.063; 5836.085;  243.290
646.726;46069.348; 5366.811;  249.511
647.304;45492.438; 4997.137;  228.032
647.882;42930.523; 4258.813;  214.552
648.461;43010.512; 5371.288;  214.973
649.039;44010.098; 5608.514;  223.394
649.617;43998.484; 5628.339;  261.415
650.195;43750.871; 5371.365;  298.736
650.773;42932.961; 4960.740;  309.557
651.352;41581.848; 4143.216;  297.978
651.930;40273.535; 4130.991;  289.399
652.508;42195.520; 5723.267;  285.620
653.086;41297.109; 5507.692;  272.241
653.663;40248.496; 4796.918;  265.062
654.241;40112.781; 4490.293;  286.083
654.819;41679.871; 4615.369;  286.404
655.397;43622.355; 4690.295;  291.825
655.975;45425.344; 5048.920;  299.145
656.553;46935.832; 6218.846;  288.866
657.130;44987.418; 4657.571;  304.087
657.708;43761.406; 5433.847;  302.908
658.286;43333.191; 5296.923;  294.629
658.863;44296.680; 5324.798;  293.350
659.441;44341.566; 5389.874;  318.671
660.018;42575.055; 5097.750;  333.692
660.596;41274.840; 4200.725;  335.013
661.173;42004.727; 4901.000;  371.534
661.750;41567.617; 4702.626;  365.155
662.328;42938.102; 5587.202;  349.976
662.905;41337.891; 4940.777;  332.997
663.482;40670.977; 5083.353;  321.717
664.060;40310.664; 4771.229;  314.438
664.637;41106.750; 5588.704;  306.259
665.214;41829.238; 5335.729;  314.580
665.791;41620.727; 5032.305;  334.501
666.368;41082.414; 4959.781;  329.222
666.945;42857.699; 5684.906;  342.143
667.522;42713.188; 4717.682;  370.964
668.099;43242.473; 5091.607;  396.885
668.676;42203.160; 5118.883;  391.706
669.253;42717.547; 6240.458;  369.627
669.830;42119.434; 6020.684;  360.348
670.407;41876.824; 5106.160;  344.769
670.984;42638.309; 5086.335;  322.890
671.560;42650.797; 5574.311;  316.910
672.137;41211.285; 4961.736;  322.531
672.714;42438.570; 5467.362;  318.552
673.290;43831.457; 5373.288;  324.473
673.867;44146.246; 4833.513;  340.594
674.443;44308.832; 4531.489;  319.515
675.020;44482.918; 5309.114;  286.336
675.596;43255.406; 5018.040;  247.557
676.173;43645.992; 4451.815;  227.778
676.749;43842.582; 3922.141;  224.399
677.326;44850.270; 4368.667;  230.520
677.902;46320.656; 4774.042;  241.841
678.478;48038.242; 4461.667;  239.762
679.054;51216.430; 7564.293;  248.583
679.631;46973.418; 5430.918;  237.503
680.207;46783.605; 6464.444;  245.924
680.783;45061.590; 4093.020;  224.845
681.359;48068.180; 5083.095;  209.666
681.935;49707.664; 5235.421;  191.687
682.511;48654.453; 5215.347;  210.008
683.087;47349.340; 5486.172;  213.329
683.663;46437.227; 4989.798;  216.850
684.239;46483.813; 4471.173;  229.471
684.815;48431.102; 5717.749;  248.792
685.390;48613.090; 6583.324;  231.813
685.966;45803.875; 5212.300;  221.234
686.542;46543.164; 4601.525;  214.255
687.118;50096.250; 5305.601;  212.276
687.693;50836.836; 5532.626;  233.096
688.269;50062.523; 5006.652;  246.917
688.844;50636.711; 5451.178;  236.938
689.420;49011.398; 5201.003;  242.059
689.995;48927.586; 6343.929;  245.480
690.571;48760.172; 6073.555;  244.701
691.146;48900.359; 4956.180;  251.922
691.722;50315.848; 5407.605;  284.743
692.297;51175.234; 4926.881;  320.664
692.872;52518.621; 4713.607;  313.885
693.448;52852.008; 4582.982;  290.106
694.023;55196.195; 5245.058;  304.327
694.598;55898.281; 5270.083;  319.648
695.173;53686.469; 4924.559;  323.169
695.748;51522.156; 4215.834;  376.389
696.323;52962.746; 5105.660;  397.610
696.898;54614.531; 5950.936;  430.231
697.473;53561.719; 4299.711;  454.952
698.048;56844.004; 4971.887;  478.973
698.623;57032.594; 4452.513;  477.094
699.198;56791.578; 5220.988;  496.915
699.773;56371.668; 4741.614;  490.236
700.348;55876.254; 4612.189;  519.957
700.922;57730.441; 5259.115;  575.678
701.497;58390.730; 5148.090;  621.399
702.072;58683.414; 5743.716;  664.420
702.646;57349.703; 5594.742;  690.541
703.221;55258.488; 5313.967;  748.862
703.795;53751.777; 4632.393;  774.282
704.370;51917.863; 3778.718;  799.803
704.944;52963.051; 4895.394;  875.824
705.519;55668.238; 5308.319;  902.945
706.093;56630.727; 4681.495;  889.266
706.668;56962.313; 5455.021;  903.487
707.242;57757.000; 5654.146;  881.708
707.816;57671.988; 4947.872;  892.329
708.390;57003.676; 5124.697;  970.250
708.965;55673.762; 5301.323;  984.671
709.539;55630.148; 4990.148; 1026.092
710.113;56541.438; 5207.074; 1067.913
710.687;56428.125; 5640.149; 1166.434
711.261;55551.512; 4559.725; 1190.854
711.835;57276.297; 4612.951; 1197.275
712.409;59102.484; 4253.726; 1308.096
712.983;59074.473; 4290.602; 1461.617
713.557;58856.660; 4282.777; 1611.838
714.131;59087.645; 5013.153; 1554.359
714.704;58421.934; 4634.329; 1520.780
715.278;61048.422; 5144.154; 1575.101
715.852;61695.508; 5585.030; 1689.822
716.425;62326.895; 6407.255; 1829.143
716.999;59202.883; 4212.281; 2008.664
717.573;59464.867; 5429.156; 2000.485
718.146;61149.156; 6262.982; 1914.506
718.720;62202.941; 5259.257; 1818.026
719.293;64423.031; 5467.333; 1734.147
719.867;63594.219; 4764.059; 1716.968
720.440;64555.504; 6015.034; 1918.589
721.013;63851.590; 4811.760; 1975.410
721.587;62200.578; 4299.285; 2073.331
722.160;62199.168; 5726.411; 2357.852
722.733;60064.555; 5173.437; 2657.073
723.306;58676.742; 5141.112; 2703.894
723.880;58280.727; 5249.688; 2549.415
724.453;59429.215; 5992.313; 2414.336
725.026;58071.102; 4835.539; 2298.557
725.599;58951.688; 5329.164; 2168.778
726.172;58524.875; 5443.940; 2106.099
726.745;58321.063; 5378.465; 2253.320
727.318;59608.949; 5725.491; 2404.740
727.891;60418.836; 5322.967; 2680.161
728.463;60511.125; 5295.292; 2838.882
729.036;58759.410; 4689.868; 2755.103
729.609;58101.500; 4626.493; 2731.824
730.182;59721.785; 5631.519; 2855.645
730.754;58734.875; 3903.344; 2946.866
731.327;60244.859; 5446.720; 2840.187
731.900;59419.246; 4321.945; 2647.608
732.472;60637.633; 5046.071; 2473.929
733.045;62725.723; 4950.497; 2445.750
733.617;61779.410; 4246.672; 2511.771
734.190;63011.895; 5419.898; 2581.592
734.762;63483.785; 5102.974; 2710.813
735.334;63246.270; 5176.299; 3005.733
735.907;62533.656; 5168.075; 3154.954
736.479;63536.246; 5842.250; 3171.675
737.051;62958.730; 5445.776; 3217.496
737.623;64312.219; 5507.851; 3246.217
738.195;62965.605; 4769.227; 2985.238
738.768;61513.895; 4023.802; 2727.559
739.340;62273.379; 4860.628; 2666.880
739.912;61205.668; 5603.554; 2769.601
740.484;60126.156; 5436.879; 2731.422
741.056;60346.242; 4970.305; 2963.043
741.628;60899.828; 4624.780; 3361.364
742.199;60929.617; 5959.956; 3641.185
742.771;59688.203; 4440.481; 3932.005
743.343;61508.789; 4653.057; 4319.926
743.915;62437.477; 5345.033; 4706.647
744.487;64147.566; 5489.258; 4874.968
745.058;64573.254; 5553.984; 4616.589
745.630;64490.238; 5518.659; 4253.410
746.201;62803.828; 4827.835; 4056.131
746.773;62093.313; 5459.160; 3772.952
747.344;62066.699; 5104.136; 3642.473
747.916;61149.688; 5270.111; 3752.294
748.487;61694.773; 5635.887; 4106.215
749.059;61182.063; 4506.013; 4457.835
749.630;61324.250; 4721.138; 4366.457
750.201;62101.535; 5102.164; 4600.078
750.773;61701.723; 4777.889; 4658.499
751.344;62063.711; 5161.865; 4609.319
751.915;61593.496; 5092.241; 4526.440
752.486;62436.387; 4694.116; 4536.061
753.057;62933.773; 5222.992; 4383.282
753.628;63883.758; 4686.817; 4296.503
754.199;64579.445; 4885.593; 4383.224
754.770;64579.832; 5480.368; 4653.545
755.341;63552.223; 5749.894; 4831.666
755.912;60718.809; 4999.419; 4831.387
756.483;60144.297; 5448.545; 4735.808
757.054;58368.781; 4883.271; 4685.029
757.625;57359.871; 4503.046; 4994.250
758.195;59335.055; 4325.572; 5051.471
758.766;60929.844; 5270.748; 5317.792
759.337;59553.430; 4280.773; 5646.512
759.907;59468.520; 4342.999; 5404.133
760.478;59983.004; 4789.124; 5090.954
761.048;60412.391; 5493.399; 4871.175
761.619;59599.078; 5362.475; 4589.396
762.189;59460.066; 5069.951; 4171.317
762.760;58332.652; 5565.626; 3872.538
763.330;56945.742; 5503.752; 3832.259
763.900;56428.930; 5284.328; 4150.180
764.471;56147.016; 4638.003; 4529.801
765.041;57021.504; 5847.179; 4715.922
765.611;56803.691; 5437.304; 4681.442
766.181;57320.676; 5039.780; 4717.063
766.751;58223.063; 5119.005; 4710.285
767.321;57114.152; 4448.131; 4450.305
767.891;56268.637; 5204.557; 4274.126
768.461;54723.523; 5037.032; 4215.047
769.031;55330.113; 5077.508; 4173.068
769.601;56611.898; 5778.733; 4174.689
770.171;55350.785; 4328.109; 4229.310
770.741;55284.074; 4911.034; 4352.031
771.311;55143.160; 5448.910; 4336.652
771.880;54050.250; 4618.485; 4300.873
772.450;53940.137; 4677.311; 4387.194
773.020;54018.422; 4289.887; 4220.415
773.589;54393.410; 4754.562; 4075.835
774.159;55059.195; 4800.438; 4105.756
774.729;55076.484; 4720.813; 4114.978
775.298;55197.070; 4759.439; 3693.298
775.867;54518.859; 4757.714; 3343.119
776.437;55226.246; 5131.040; 3062.040
777.006;54406.531; 4302.866; 2927.161
777.576;55108.918; 5446.941; 3046.482
778.145;55022.309; 5370.917; 3230.203
778.714;53124.395; 5031.542; 3253.324
779.283;52891.680; 5439.118; 3129.745
779.853;53874.770; 5058.943; 2983.566
780.422;54310.055; 5060.219; 2929.887
780.991;55234.141; 5386.495; 2863.908
781.560;55644.629; 5965.070; 2948.029
782.129;54298.719; 5295.696; 3074.149
782.698;54017.504; 5900.921; 2893.970
783.267;52254.191; 4729.297; 2721.391
783.836;52436.879; 5276.172; 2659.712
784.404;51312.066; 4461.098; 2622.233
784.973;49513.652; 3851.023; 2600.754
785.542;49724.238; 5026.349; 2528.475
786.111;51400.727; 5830.775; 2404.396
786.679;51371.613; 5452.550; 2365.717
787.248;48626.000; 4330.676; 2498.438
787.817;47936.188; 4810.651; 2645.659
788.385;49328.777; 5724.877; 2709.280
788.954;48247.461; 4367.553; 2620.500
789.522;49099.148; 5565.378; 2625.422
790.090;47048.738; 4385.804; 2743.843
790.659;48263.523; 4865.079; 2635.163
791.227;49051.109; 4976.205; 2495.484
791.795;49613.398; 5255.430; 2413.705
792.364;48662.688; 4543.306; 2345.326
792.932;49237.473; 5377.682; 2350.447
793.500;48154.660; 4911.007; 2429.768
794.068;47288.445; 4323.183; 2513.589
794.636;47587.836; 4670.558; 2664.310
795.204;48135.922; 4202.534; 2721.431
795.772;47774.707; 4632.659; 2802.052
796.340;47134.496; 4759.435; 2847.173
796.908;45886.484; 4206.960; 2997.194
797.476;45784.770; 4502.336; 3151.615
798.044;45390.457; 4136.012; 3110.735
798.612;46677.344; 4980.737; 2931.656
799.180;45949.633; 5133.313; 2785.777
799.747;44753.820; 5083.138; 2899.098
800.315;43149.105; 4392.014; 2955.519
800.883;42953.191; 4061.490; 2948.940
801.450;44916.680; 5018.665; 2965.361
802.018;46010.168; 5292.940; 3070.582
802.585;44968.953; 5054.666; 3156.103
803.153;44376.242; 4664.492; 3199.524
803.720;44683.930; 4707.517; 3168.845
804.287;45803.215; 4887.243; 3248.366
804.855;47711.902; 5659.468; 3406.187
805.422;46307.289; 4918.644; 3430.907
805.989;44352.176; 4588.070; 3453.528
806.556;43705.465; 4591.795; 3612.649
807.124;44936.453; 5564.021; 3736.570
807.691;43953.938; 4479.996; 3770.491
808.258;44645.125; 5059.472; 3705.012
808.825;44736.715; 5589.797; 3828.733
809.392;44635.801; 5972.673; 3986.754
809.959;44242.488; 5256.549; 4410.075
810.526;44521.773; 6019.674; 4774.996
811.093;43565.262; 5721.400; 4754.217
811.659;42605.449; 5003.125; 4661.238
812.226;42954.938; 4971.901; 4672.559
812.793;43530.523; 5206.876; 4822.979
813.360;43389.910; 4989.102; 5189.800
813.926;43486.199; 5258.478; 5310.622
814.493;43024.586; 4367.403; 5414.542
815.060;42167.871; 4104.079; 5548.963
815.626;41969.457; 4424.154; 5452.284
816.193;43335.645; 5153.030; 5339.305
816.759;41773.332; 4596.655; 5544.426
817.325;40166.320; 4107.481; 5706.547
817.892;41250.809; 5512.756; 5623.468
818.458;40775.996; 5284.882; 5586.689
819.024;41342.980; 5746.008; 5647.910
819.591;41313.168; 5041.883; 5762.031
820.157;40702.758; 4388.759; 6284.452
820.723;41458.043; 5277.134; 6906.973
821.289;43122.031; 7644.560; 7086.894
821.855;40766.016; 5422.386; 7054.915
822.421;39989.305; 4781.211; 7112.035
822.987;39224.793; 4474.437; 7256.156
823.553;40090.777; 4880.512; 7538.077
824.119;40244.867; 5598.288; 7594.298
824.685;39434.055; 5809.763; 7613.619
825.251;39010.141; 5485.439; 7644.140
825.816;38833.926; 6152.064; 7720.261
826.382;38111.715; 5462.590; 8014.282
826.948;38703.902; 5587.666; 8281.503
827.513;37530.789; 4939.641; 8289.624
828.079;36044.676; 4576.167; 8587.045
828.645;36425.664; 5236.742; 8821.865
829.210;36096.250; 4476.118; 9054.486
829.776;36460.637; 5393.894; 9054.607
830.341;35391.523; 5571.819; 9415.628
830.906;35792.613; 5734.745; 9932.449
831.472;35885.000; 4652.970;10150.271
832.037;37684.086; 5600.096; 9420.391
832.602;36302.074; 4780.071; 8664.912
833.167;36454.559; 5128.247; 8491.933
833.733;36368.148; 5597.522; 8872.854
834.298;33936.535; 4517.298; 9370.575
834.863;33594.723; 5262.974; 9610.695
835.428;33551.211; 5239.899; 9655.616
835.993;33547.395; 5386.875; 9437.838
836.558;33785.184; 5484.250; 9441.459
837.123;35479.070; 6723.426; 9600.979
837.688;34308.359; 5300.852; 9798.301
838.253;34144.246; 5286.427; 9902.921
838.817;33588.230; 4945.703;10339.742
839.382;34099.719; 5909.928;10548.363
839.947;33155.207; 5175.404;10252.484
840.511;33138.293; 6070.330;10040.005
841.076;29786.480; 4079.655;10099.926
841.641;30087.768; 5452.181;10347.347
842.205;29574.455; 5323.656;10817.368
842.770;30388.941; 6296.932;11435.289
843.334;29238.029; 5019.107;12072.409
843.898;28698.416; 4823.783;12635.431
844.463;29690.404; 5928.008;12537.252
845.027;28975.090; 4890.584;12759.673
845.591;29366.178; 5662.259;12821.993
846.156;28531.865; 4826.035;12520.914
846.720;29167.451; 5556.960;12390.436
847.284;28601.939; 5252.386;12956.456
847.848;28216.627; 5441.262;13240.177
848.412;26905.014; 5169.087;13216.998
848.976;26807.602; 6061.613;13014.619
849.540;26587.389; 6527.588;12355.740
850.104;25698.074; 5991.064;12208.761
850.668;24592.563; 4184.590;12106.882
851.232;24907.449; 4307.315;11862.103
851.796;24842.236; 5074.941;11700.523
852.359;25244.824; 5627.167;12375.944
852.923;25658.510; 5804.642;13087.966
853.487;25066.197; 5520.167;13297.187
854.050;22810.385; 3571.143;13851.207
854.614;23837.973; 4908.619;14854.229
855.177;24237.059; 5336.494;15802.149
855.741;24263.646; 5383.170;16603.570
856.304;24257.533; 5697.095;16359.891
856.868;22962.820; 4635.771;14365.512
857.431;23069.008; 5137.597;13361.333
857.995;22209.096; 4962.522;14130.554
858.558;22086.383; 5337.897;14883.175
859.121;22456.869; 5622.773;15754.195
859.684;22179.057; 5279.549;15995.017
860.247;21636.645; 5129.674;15149.537
860.810;21193.830; 4926.800;14640.358
861.374;22588.918; 6596.625;15551.079
861.937;20407.605; 4535.751;16519.801
862.500;20231.293; 4851.626;16796.521
863.062;19576.180; 4611.952;16538.742
863.625;20190.467; 5352.228;16716.764
864.188;19946.553; 4892.903;17055.084
864.751;19503.641; 4850.029;17197.705
865.314;19504.828; 5205.104;17151.625
865.876;19902.314; 5766.130;17783.547
866.439;19631.303; 5567.105;19283.467
867.002;20404.389; 6460.231;20256.389
867.564;19367.176; 5861.807;20485.410
868.127;17998.963; 5149.032;20789.730
868.689;17959.250; 5392.908;21981.951
869.252;18489.838; 5834.233;23803.771
869.814;17340.025; 4718.109;24974.094
870.377;17895.813; 5351.635;24690.314
870.939;19660.799; 7392.760;23963.436
871.501;17306.486; 5303.736;25167.156
872.063;15493.174; 3896.411;26995.477
872.626;15871.261; 4223.787;27443.098
873.188;16874.348; 5324.163;26718.418
873.750;16561.635; 5080.338;26558.840
874.312;16067.923; 4895.864;26701.561
874.874;17175.809; 6199.339;27970.582
875.436;16477.797; 5680.564;29173.402
875.998;16497.984; 6024.940;30376.623
876.560;15926.371; 5691.266;32507.344
877.122;14717.358; 4768.292;34833.066
877.683;15386.846; 5575.017;36458.285
878.245;14479.232; 4897.792;37248.207
878.807;14699.319; 5480.068;36758.027
879.369;13537.606; 4507.444;35223.551
879.930;13552.494; 4623.719;33824.969
880.492;14911.881; 5949.395;34436.492
881.053;13552.468; 4672.570;37745.313
881.615;13542.855; 4868.146;41184.633
882.176;13115.442; 5057.021;42871.555
882.738;13395.930; 5618.397;41693.074
883.299;11674.717; 4152.623;40289.895
883.860;11652.404; 4284.748;39231.215
884.422;12826.291; 5557.724;38264.039
884.983;11759.578; 4626.299;37171.859
885.544;12024.966; 5340.225;35842.379
886.105;11513.753; 5211.150;34810.000
886.666;10994.739; 4913.826;34519.020
887.227;10371.327; 4302.852;33905.641
887.788;11343.614; 5344.127;34502.965
888.349;10157.501; 4439.103;34241.785
888.910;11139.389; 5573.479;33722.203
889.471;10649.375; 5316.104;32539.625
890.032;10259.063; 5162.779;31528.346
890.593;10448.250; 5543.855;32655.068
891.153; 9941.337; 5135.131;33882.289
891.714; 8964.724; 4414.606;33318.711
892.275; 8868.011; 4501.832;31848.930
892.835; 9927.099; 5723.458;30339.752
893.396; 9500.186; 5634.183;30074.973
893.956; 8637.072; 5032.409;30338.393
894.517; 8765.460; 5302.334;30864.113
895.077; 8650.947; 5403.359;29766.734
895.638; 9351.935; 6198.235;26379.557
896.198; 7599.421; 4584.511;24056.277
896.758; 8609.009; 5675.736;22961.898
897.319; 7895.695; 5074.512;21772.020
897.879; 7796.583; 5141.837;20877.539
898.439; 6876.070; 4307.613;19509.461
898.999; 8028.157; 5535.039;17297.582
899.559; 7813.944; 5431.164;14712.002
900.119; 6884.431; 4616.940;12790.224
900.679; 8334.519; 6113.965;11586.744
901.239; 7666.406; 5570.341;10776.465
901.799; 7205.893; 5233.517; 9691.687
902.359; 6582.280; 4687.342; 8725.907
902.919; 6475.767; 4621.167; 8305.728
903.479; 6483.854; 4659.443; 8172.649
904.038; 6223.341; 4449.169; 7913.870
904.598; 5554.028; 3875.344; 7262.291
905.158; 6480.416; 4863.920; 6609.012
905.717; 6653.703; 5072.996; 6236.133
906.277; 6655.490; 5162.421; 5829.054
906.836; 6883.377; 5462.646; 5396.674
907.396; 6794.764; 5392.572; 4964.195
907.955; 6823.051; 5429.648; 4528.917
908.515; 6265.338; 4933.723; 4223.837
909.074; 6345.826; 4988.649; 4023.958
909.633; 6294.313; 5010.174; 4065.379
910.192; 7505.100; 6207.950; 4066.300
910.752; 6220.000; 4959.600; 3971.600
911.311; 6118.400; 4865.850; 3839.600
911.870; 5883.100; 4688.450; 3684.500
912.429; 6997.100; 5783.650; 3635.600
912.988; 6860.500; 5661.550; 3689.800
913.547; 5778.800; 4605.900; 3737.700
914.106; 6375.400; 5258.100; 3740.300
914.665; 6329.500; 5208.000; 3604.600
915.224; 6875.500; 5768.550; 3358.700
915.782; 5937.100; 4839.550; 3188.400
916.341; 7019.600; 5962.050; 3091.400
916.900; 5996.800; 4909.900; 3044.800
917.458; 5731.700; 4651.400; 2888.600
918.017; 6244.300; 5178.650; 2818.900
918.576; 6015.400; 4931.300; 2838.600
919.134; 5380.700; 4303.950; 2880.100
919.693; 5962.200; 4873.500; 2996.300
920.251; 5843.500; 4780.050; 3183.100
920.809; 5545.700; 4494.900; 3247.000
921.368; 5879.800; 4778.200; 3156.600
921.926; 5660.600; 4589.350; 2964.900
922.484; 6197.100; 5097.850; 2846.300
923.042; 6019.300; 4926.600; 2890.400
923.601; 7000.600; 5921.450; 2987.700
924.159; 6486.300; 5421.100; 3049.800
924.717; 5690.800; 4566.750; 3087.000
925.275; 6236.200; 5131.200; 3093.400
925.833; 5193.600; 4094.750; 3182.400
926.391; 6519.200; 5383.850; 3397.900
926.949; 5912.900; 4799.250; 3575.400
927.506; 6299.600; 5168.150; 3713.400
928.064; 6019.400; 4871.550; 3871.300
928.622; 6109.400; 4950.850; 4092.800
929.180; 5549.600; 4394.550; 4499.300
929.737; 5454.900; 4262.150; 4813.200
930.295; 6542.200; 5342.700; 5084.100
930.853; 5812.900; 4611.400; 5185.000
931.410; 5595.700; 4362.650; 5313.100
931.968; 6665.000; 5435.750; 5339.600
932.525; 6319.600; 5058.050; 5399.900
933.082; 5535.500; 4274.850; 5457.500
933.640; 6539.500; 5255.400; 5692.900
934.197; 6155.000; 4870.600; 5821.200
934.754; 6169.100; 4870.050; 5617.900
935.312; 5890.000; 4606.400; 5512.400
935.869; 7213.100; 5887.300; 5582.400
936.426; 5979.100; 4637.950; 5650.100
936.983; 6158.800; 4807.450; 5657.400
937.540; 5675.700; 4325.550; 5564.300
938.097; 6601.600; 5211.850; 5574.000
938.654; 6113.100; 4733.500; 5665.900
939.211; 6576.600; 5207.750; 5931.600
939.768; 6335.500; 4927.300; 6153.600
940.324; 6190.900; 4788.500; 6397.600
940.881; 6006.800; 4588.100; 6454.200
941.438; 7141.700; 5707.300; 6206.900
941.995; 6890.400; 5495.300; 6003.900
942.551; 5785.700; 4355.850; 6228.300
943.108; 6338.400; 4900.450; 6603.500
943.664; 5828.900; 4401.000; 7188.100
944.221; 7644.700; 6214.550; 7579.900
944.777; 5729.400; 4352.050; 7658.100
945.334; 5885.500; 4460.300; 7670.400
945.890; 6353.200; 4974.650; 7525.100
946.446; 6384.100; 5010.250; 7261.500
947.003; 6522.300; 5163.700; 6949.200
947.559; 7343.600; 5954.200; 6773.100
948.115; 6971.800; 5645.200; 6668.400
948.671; 6505.300; 5137.900; 6488.400
949.227; 5557.700; 4193.750; 6236.600
949.783; 5478.100; 4117.050; 6008.900
950.339; 6626.800; 5242.800; 5934.100
950.895; 6951.800; 5574.850; 5933.500
951.451; 6120.400; 4741.800; 6074.700
952.007; 6689.600; 5352.750; 6066.400
952.563; 6130.900; 4791.800; 5884.100
953.118; 5953.500; 4613.750; 5733.800
953.674; 6251.100; 4922.500; 5734.300
954.230; 6252.600; 4959.300; 6039.700
954.785; 6218.000; 4916.850; 6383.500
955.341; 6710.400; 5416.850; 6568.200
955.897; 5429.400; 4133.300; 6488.600
956.452; 6457.100; 5157.200; 6239.200
957.008; 7649.500; 6357.800; 5954.600
957.563; 6984.500; 5679.400; 5816.700
958.118; 5840.600; 4559.100; 5828.200
958.674; 6379.400; 5078.700; 5717.400
959.229; 7073.500; 5788.900; 5506.800
959.784; 5553.500; 4272.350; 5292.200
960.339; 7038.400; 5738.950; 5101.900
960.894; 6689.900; 5417.000; 5093.200
961.449; 5777.000; 4517.750; 5227.900
962.004; 8802.800; 7532.950; 5349.300
962.559; 5838.200; 4597.600; 5514.900
963.114; 4810.000; 3622.400; 5717.300
963.669; 6261.600; 5023.250; 5841.400
964.224; 5973.300; 4740.150; 5805.900
964.779; 5601.200; 4358.550; 5723.400
965.334; 7009.000; 5790.050; 5779.500
965.888; 5904.800; 4670.950; 5948.500
966.443; 6751.200; 5528.700; 6344.200
966.998; 5349.400; 4132.900; 6666.300
967.552; 6180.800; 4962.650; 6710.100
968.107; 5858.300; 4647.700; 6593.500
968.661; 6335.000; 5145.450; 6344.100
969.216; 5772.000; 4608.150; 6062.400
969.770; 6310.600; 5152.800; 5785.500
970.324; 6325.400; 5182.700; 5426.800
970.879; 6604.400; 5463.500; 5016.800
971.433; 6646.900; 5521.200; 4904.500
971.987; 6181.400; 5071.450; 4991.000
972.541; 6392.100; 5259.650; 4978.500
973.095; 7105.300; 6011.200; 4832.000
973.649; 5424.200; 4331.800; 4767.900
974.203; 5571.500; 4502.500; 4881.200
974.757; 5791.200; 4730.300; 4969.500
975.311; 5971.300; 4921.050; 4953.000
975.865; 6044.900; 4997.600; 4884.300
976.419; 5861.000; 4821.850; 4739.800
976.973; 5811.300; 4742.950; 4698.100
977.526; 6682.300; 5635.700; 4631.100
978.080; 5315.800; 4325.400; 4621.600
978.634; 6371.100; 5383.250; 4650.200
979.187; 6238.500; 5267.150; 4669.200
979.741; 7248.300; 6253.100; 4658.000
980.294; 5319.400; 4361.800; 4579.100
980.848; 4704.900; 3796.150; 4452.800
981.401; 5623.300; 4698.600; 4271.900
981.955; 5896.800; 4978.100; 4087.800
982.508; 5024.900; 4129.250; 3973.900
983.061; 6483.500; 5614.150; 3928.600
983.615; 5395.800; 4550.500; 3851.200
984.168; 5207.700; 4374.550; 3734.800
984.721; 6133.200; 5297.850; 3628.300
985.274; 6023.100; 5179.000; 3564.300
985.827; 5790.100; 4956.350; 3558.100
986.380; 4816.700; 4019.650; 3559.900
986.933; 6028.400; 5235.600; 3688.700
987.486; 6061.000; 5250.250; 3778.500
988.039; 5979.100; 5211.400; 3559.900
988.591; 6341.900; 5577.650; 3219.300
989.144; 5012.500; 4254.600; 2902.900
989.697; 5263.500; 4526.200; 2722.600
990.250; 6146.900; 5416.950; 2618.000
990.802; 5255.300; 4538.700; 2523.900
991.355; 7215.700; 6484.450; 2436.500
991.907; 6281.350; 5581.450; 2412.200
992.460; 5347.000; 4678.450; 2387.900
993.012; 5315.100; 4678.000; 2365.800
993.565; 5029.500; 4384.000; 2311.100
994.117; 7044.500; 6381.400; 2308.700
994.669; 5022.300; 4400.700; 2249.300
995.221; 5821.900; 5229.250; 2158.100
995.774; 5732.900; 5121.500; 2085.600
996.326; 5368.500; 4758.800; 2068.100
996.878; 6273.600; 5677.700; 1975.300
997.430; 5083.800; 4524.900; 1929.500
997.982; 5543.700; 4971.100; 1861.900
998.534; 5520.400; 4937.900; 1830.200
999.086; 5462.200; 4910.300; 1823.200
999.638; 4816.400; 4255.000; 1815.000
1000.190; 5228.300; 4652.250; 1796.600
1000.741; 5570.200; 5014.250; 1738.800
1001.293; 5072.000; 4532.050; 1666.200
1001.845; 5066.500; 4533.200; 1566.500
1002.396; 5626.700; 5081.800; 1471.900
1002.948; 5557.700; 5048.700; 1398.000
1003.500; 5469.900; 4960.550; 1356.500
1004.051; 7102.000; 6624.850; 1294.200
1004.603; 6147.800; 5643.750; 1190.000
1005.154; 4583.100; 4166.050; 1063.900
1005.705; 5581.000; 5158.700;  968.300
1006.257; 5458.600; 5060.350;  889.800
1006.808; 5314.100; 4926.700;  801.500
1007.359; 6030.900; 5655.450;  716.400
1007.910; 5017.900; 4671.000;  639.100
1008.461; 5792.100; 5443.300;  561.600
1009.013; 4548.400; 4188.250;  500.400
1009.564; 6292.600; 5967.100;  476.100
1010.115; 4600.100; 4299.100;  431.600
1010.665; 4725.700; 4390.700;  409.300
1011.216; 5248.700; 4940.700;  399.700
1011.767; 5463.000; 5164.100;  388.100
1012.318; 5721.400; 5392.150;  381.400
1012.869; 5264.100; 4966.150;  375.400
1013.419; 4677.300; 4378.150;  357.600
1013.970; 5288.100; 4961.350;  358.300
1014.521; 4829.400; 4524.950;  344.100
1015.071; 5325.400; 5015.950;  322.800
1015.622; 4967.700; 4668.650;  320.600
1016.172; 4679.000; 4392.750;  301.700
1016.723; 4805.200; 4524.350;  289.800
1017.273; 4753.900; 4471.700;  287.600
1017.823; 5131.700; 4817.050;  278.700
1018.374; 4824.300; 4549.200;  274.400
1018.924; 5723.900; 5442.750;  283.200
1019.474; 5636.800; 5356.750;  278.500
1020.024; 5177.800; 4888.650;  274.700
1020.574; 5759.700; 5503.500;  272.700
1021.124; 5374.000; 5080.200;  278.400
1021.674; 4379.000; 4124.300;  269.200
1022.224; 5674.300; 5407.900;  267.800
1022.774; 5307.200; 5009.550;  258.100
1023.324; 6065.200; 5784.100;  260.000
1023.874; 7129.400; 6859.800;  260.700
1024.423; 4845.800; 4580.650;  252.700
1024.973; 4748.100; 4470.350;  234.700
1025.523; 4915.600; 4626.050;  226.500
1026.072; 4807.400; 4538.100;  225.500
1026.622; 5371.800; 5114.600;  210.100
1027.172; 5687.800; 5425.100;  213.000
1027.721; 4749.900; 4495.400;  207.700
1028.270; 5348.500; 5086.500;  205.400
1028.820; 5114.100; 4850.200;  201.000
1029.369; 4891.300; 4637.950;  201.000
1029.918; 5136.600; 4862.500;  198.400
1030.468; 4467.600; 4243.350;  199.200
1031.017; 5098.500; 4836.350;  192.600
1031.566; 4856.200; 4617.600;  197.400
1032.115; 5560.400; 5331.750;  188.300
1032.664; 4802.900; 4559.450;  193.700
1033.213; 5927.100; 5668.250;  191.900
1033.762; 5111.700; 4830.250;  184.500
1034.311; 5463.700; 5191.500;  194.300
1034.860; 5546.100; 5284.950;  192.300
1035.408; 5856.100; 5610.700;  182.600
1035.957; 5785.400; 5522.400;  173.900
1036.506; 4184.100; 3960.200;  185.200
1037.055; 6851.600; 6586.050;  182.500
1037.603; 5360.500; 5103.350;  167.600
1038.152; 4211.300; 3968.450;  168.200
1038.700; 4644.200; 4427.150;  169.600
1039.249; 5467.100; 5226.650;  164.300
1039.797; 5108.600; 4872.500;  169.600
1040.345; 5670.400; 5424.800;  167.100
1040.894; 5059.400; 4813.700;  164.400
1041.442; 5094.900; 4877.550;  158.300
1041.990; 4506.000; 4262.300;  160.000
1042.538; 4290.600; 4042.350;  156.800
1043.087; 4531.500; 4310.800;  146.600
1043.635; 5478.900; 5260.000;  162.400
1044.183; 4761.500; 4514.800;  156.300
1044.731; 4618.300; 4406.500;  158.100
1045.279; 5471.200; 5219.050;  154.500
1045.827; 7334.000; 7077.300;  146.200
1046.374; 4093.500; 3856.850;  154.000
1046.922; 4728.100; 4528.700;  149.000
1047.470; 5620.500; 5396.150;  154.900
1048.018; 5295.200; 5076.000;  148.400
1048.565; 5817.700; 5586.050;  146.300
1049.113; 4450.200; 4219.750;  156.100
1049.660; 5069.000; 4830.250;  154.300
1050.208; 5459.900; 5232.150;  149.400
1050.755; 4898.700; 4685.600;  157.500
1051.303; 5603.300; 5350.000;  157.700
1051.850; 5095.400; 4900.250;  152.800
1052.397; 3784.300; 3583.350;  146.300
1052.945; 5008.400; 4763.250;  149.500
1053.492; 6066.000; 5860.450;  149.300
1054.039; 5899.500; 5671.700;  163.100
1054.586; 4511.700; 4260.150;  150.400
1055.133; 5666.500; 5451.250;  153.500
1055.680; 5251.600; 5019.000;  155.600
1056.227; 4353.800; 4119.750;  148.700
1056.774; 6500.300; 6272.800;  151.500
1057.321; 4219.800; 3982.050;  143.700
1057.868; 5268.400; 5038.200;  145.300
1058.415; 5311.700; 5095.550;  153.500
1058.961; 5521.800; 5280.150;  149.900
1059.508; 5211.400; 4988.750;  147.300
1060.055; 4744.400; 4525.850;  151.000
1060.601; 5043.100; 4812.050;  148.700
1061.148; 5092.600; 4856.200;  153.800
1061.694; 4848.500; 4607.750;  150.500
1062.241; 4829.700; 4618.400;  149.100
1062.787; 5447.200; 5206.850;  153.000
1063.334; 6590.400; 6355.650;  153.200
1063.880; 5487.600; 5266.000;  148.400
1064.426; 5801.100; 5564.350;  149.200
1064.972; 4873.200; 4656.350;  156.400
1065.518; 4598.100; 4387.200;  144.700
1066.065; 5137.100; 4927.450;  139.400
1066.611; 4896.400; 4690.100;  139.300
1067.157; 5278.800; 5020.700;  138.400
1067.703; 5487.000; 5278.700;  142.700
1068.249; 4844.800; 4640.100;  136.700
1068.794; 5116.700; 4906.750;  139.400
1069.340; 4679.900; 4496.450;  142.700
1069.886; 4855.300; 4653.350;  135.600
1070.432; 4368.500; 4171.150;  133.400
1070.977; 4948.300; 4721.800;  138.200
1071.523; 4574.700; 4393.350;  132.400
1072.068; 4696.800; 4498.200;  132.700
1072.614; 4261.200; 4055.600;  127.000
1073.160; 5662.500; 5477.150;  131.300
1073.705; 4710.200; 4497.900;  135.700
1074.250; 4583.100; 4390.750;  133.000
1074.796; 5381.900; 5194.350;  138.000
1075.341; 5441.200; 5229.600;  137.300
1075.886; 4785.000; 4626.400;  134.300
1076.431; 5409.600; 5204.900;  138.200
1076.976; 5271.500; 5083.800;  132.200
1077.521; 4753.000; 4562.800;  138.900
1078.067; 4738.500; 4576.800;  128.600
1078.612; 5468.300; 5274.850;  138.900
1079.156; 4950.400; 4743.400;  128.900
1079.701; 5720.400; 5527.550;  129.700
1080.246; 5741.700; 5543.800;  128.600
1080.791; 5180.600; 4994.550;  122.600
1081.336; 5429.000; 5231.150;  122.000
1081.880; 5370.600; 5190.550;  123.900
1082.425; 4692.900; 4490.500;  120.600
1082.970; 5907.700; 5734.950;  124.500
1083.514; 4922.700; 4696.700;  112.000
1084.059; 4810.800; 4624.650;  120.700
1084.603; 4671.600; 4479.200;  116.000
1085.147; 5343.100; 5167.200;  116.300
1085.692; 5927.900; 5753.400;  108.200
1086.236; 4144.200; 3966.450;  114.600
1086.780; 6233.300; 6044.500;  118.900
1087.325; 5408.700; 5225.500;  120.400
1087.869; 5037.400; 4879.850;  110.500
1088.413; 5799.000; 5615.250;  114.000
1088.957; 4427.600; 4238.200;  114.300
1089.501; 6365.700; 6206.000;  114.600
1090.045; 6053.600; 5864.600;  114.200
1090.589; 4674.900; 4492.250;  105.500
1091.133; 5559.100; 5377.300;  111.800
1091.676; 4825.200; 4649.250;  110.900
1092.220; 4958.500; 4787.250;  110.100
1092.764; 5847.500; 5672.550;  108.100
1093.307; 5574.300; 5364.100;  109.900
1093.851; 4580.600; 4422.150;  107.500
1094.395; 5677.600; 5493.850;   96.200
1094.938; 5242.200; 5062.000;   99.300
1095.482; 4614.800; 4436.550;   97.700
1096.025; 5917.000; 5711.450;   84.900
1096.568; 6425.000; 6229.550;   88.500
1097.112; 4156.700; 3972.400;   95.700
1097.655; 4909.200; 4744.650;   97.300
1098.198; 4954.500; 4778.850;   92.600
1098.741; 5092.300; 4922.400;   91.800
1099.285; 5402.700; 5240.200;   88.000
1099.828; 3626.900; 3448.600;   91.700
1100.371; 5076.200; 4888.250;   89.900
1100.914; 5671.400; 5508.500;   91.500
1101.457; 5610.200; 5443.850;   88.100
1101.999; 4783.900; 4632.250;   86.400
1102.542; 5269.600; 5117.750;   90.800
1103.085; 5467.700; 5320.700;   95.400
1103.628; 6370.700; 6206.250;   97.700
1104.170; 4824.100; 4684.400;   84.000
1104.713; 5371.300; 5195.850;   93.900
1105.256; 4574.400; 4419.550;   93.000
1105.798; 4145.000; 3988.600;   85.600
1106.341; 6082.200; 5905.300;   87.100
1106.883; 4320.600; 4161.400;   85.200
1107.425; 5586.100; 5414.900;   85.000
1107.968; 5137.500; 4974.500;   84.300
1108.510; 5691.300; 5540.350;   88.200
1109.052; 5151.000; 4988.450;   86.600
1109.594; 4658.300; 4484.800;   79.400
1110.136; 5344.200; 5221.300;   81.700
1110.679; 5259.700; 5066.900;   75.500
1111.221; 5048.400; 4895.250;   88.500
1111.763; 4615.300; 4453.050;   87.700
1112.304; 4551.000; 4373.350;   89.700
1112.846; 5576.600; 5377.400;   81.900
1113.388; 7931.200; 7765.850;   86.400
1113.930; 5798.400; 5628.400;   84.700
1114.472; 5074.900; 4929.350;   78.900
1115.013; 4581.800; 4415.050;   78.100
1115.555; 4939.700; 4761.800;   84.900
1116.097; 4815.400; 4628.450;   79.200
1116.638; 5728.900; 5576.850;   83.700
1117.180; 5524.800; 5357.600;   85.500
1117.721; 4772.800; 4643.900;   78.800
1118.262; 5676.600; 5513.150;   77.400
1118.804; 5298.500; 5150.350;   81.400
1119.345; 4878.200; 4708.600;   77.800
1119.886; 5882.400; 5730.300;   81.200
1120.427; 4915.000; 4749.450;   77.200
1120.969; 5045.200; 4855.250;   75.200
1121.510; 4726.300; 4565.100;   80.900
1122.051; 6066.600; 5882.950;   77.300
1122.592; 5511.200; 5362.150;   73.300
1123.133; 4543.600; 4406.450;   90.100
1123.673; 5925.200; 5780.650;   75.000
1124.214; 5121.800; 4988.450;   80.600
1124.755; 5389.300; 5239.150;   78.000
1125.296; 5233.600; 5071.700;   77.500
1125.836; 5750.500; 5614.350;   80.400
1126.377; 5022.000; 4888.950;   75.600
1126.918; 5165.700; 4990.000;   78.900
1127.458; 5222.800; 5057.400;   78.000
1127.999; 5507.800; 5356.800;   76.100
1128.539; 5815.800; 5660.000;   81.400
1129.079; 5340.600; 5167.400;   77.400
1129.620; 4691.700; 4531.750;   68.000
1130.160; 4527.400; 4398.900;   77.500
1130.700; 5375.400; 5217.650;   76.300
1131.240; 5391.300; 5245.000;   66.800
1131.781; 5247.100; 5091.350;   70.600
1132.321; 5057.600; 4912.100;   77.200
1132.861; 4693.300; 4544.850;   70.400
1133.401; 5019.200; 4886.600;   68.700
1133.941; 5252.900; 5117.700;   68.500
1134.481; 5070.100; 4933.900;   75.900
1135.020; 5125.400; 4968.550;   66.600
1135.560; 5634.500; 5473.300;   68.100
1136.100; 4201.500; 4069.400;   64.900
1136.640; 4278.600; 4176.500;   72.500
1137.179; 4466.500; 4350.650;   69.700
1137.719; 5088.800; 4954.400;   68.400
1138.258; 4961.600; 4803.500;   67.000
1138.798; 5559.800; 5416.400;   69.600
1139.337; 4044.800; 3922.550;   64.000
1139.877; 5368.700; 5230.350;   64.500
1140.416; 7312.000; 7166.500;   74.900
1140.955; 4471.900; 4333.400;   67.200
1141.494; 5680.400; 5532.550;   69.900
1142.034; 4930.100; 4767.300;   59.100
1142.573; 5434.100; 5287.550;   65.900
1143.112; 4646.700; 4512.350;   70.600
1143.651; 4507.000; 4385.950;   67.100
1144.190; 5880.500; 5703.450;   56.700
1144.729; 5126.900; 4955.750;   61.800
1145.267; 4879.800; 4736.950;   62.500
1145.806; 5361.600; 5220.900;   68.500
1146.345; 5395.900; 5257.750;   58.300
1146.884; 5296.300; 5145.950;   63.100
1147.422; 4471.700; 4340.300;   54.800
1147.961; 5973.100; 5848.100;   67.600
1148.500; 5667.300; 5498.250;   64.700
1149.038; 5379.300; 5233.850;   61.000
1149.577; 5904.400; 5777.000;   65.100
1150.115; 3791.300; 3681.900;   58.100
1150.653; 5141.400; 5012.650;   60.500
1151.192; 4724.100; 4567.250;   56.600
1151.730; 5541.400; 5413.950;   62.300
1152.268; 4937.500; 4812.600;   55.500
1152.806; 4868.600; 4734.050;   58.200
1153.344; 4873.200; 4732.600;   55.000
1153.882; 5045.000; 4902.000;   64.200
1154.421; 3932.500; 3841.450;   60.300
1154.958; 5058.000; 4952.800;   58.100
1155.496; 5475.200; 5328.650;   55.800
1156.034; 6106.500; 5973.800;   61.000
1156.572; 5627.100; 5493.900;   56.200
1157.110; 3990.900; 3856.400;   53.200
1157.647; 5729.600; 5588.750;   57.400
1158.185; 4800.300; 4685.000;   55.500
1158.723; 4321.400; 4210.500;   58.000
1159.260; 5911.200; 5779.700;   53.700
1159.798; 5563.900; 5442.950;   51.700
1160.335; 5363.500; 5227.600;   59.600

