
Integration time [ms]:   3.882
Averaging Nr. [scans]: 1000
Smoothing Nr. [pixels]: 0
Data measured with spectrometer [name]: 7414430SP
Wave   ;Sample   ;Dark     ;Reference
[nm]   ;[counts] ;[counts] ;[counts] 

288.544;  140.652;    7.153;  793.890
289.143;  144.059;    8.402;  681.602
289.742;  144.912;    7.062;  828.814
290.341;  131.543;    0.191;  789.841
290.940;  123.050;    0.321;  730.702
291.538;  124.028;    3.811;  881.108
292.137;  121.770;   -3.438;  792.581
292.736;  124.224;   -2.809;  975.101
293.335;  121.796;   -5.239;  735.086
293.934;  122.506;   -4.939;  781.677
294.532;  122.937;   -2.199; 1031.958
295.131;  107.304;   -6.831;  834.394
295.730;  108.157;   -6.620;  809.588
296.328;  105.635;   -6.471;  783.442
296.927;  105.530;   -6.571;  779.652
297.525;  105.682;   -7.391;  781.236
298.124;   97.815;   -9.402;  654.009
298.722;  103.166;   -5.781;  761.933
299.321;  100.579;   -6.351;  708.597
299.919;   97.626;   -8.661;  751.918
300.518;   94.387;  -11.922;  689.338
301.116;   96.092;   -6.941;  691.381
301.715;   95.591;   -5.471;  730.222
302.313;   94.855;   -8.361;  704.943
302.911;   90.753;   -9.082;  733.830
303.509;   96.370;   -4.571;  925.627
304.108;   92.987;   -7.111;  760.383
304.706;   93.121;   -7.681;  801.664
305.304;   88.578;   -9.162;  796.707
305.902;   92.188;   -6.761;  784.484
306.500;   88.510;   -6.921;  728.200
307.098;   85.644;   -6.491;  746.560
307.696;   84.156;   -6.941;  780.432
308.294;   85.308;   -6.301;  731.359
308.892;   87.600;   -4.771;  759.769
309.490;   82.040;   -5.141;  712.161
310.088;   81.918;   -2.912;  788.444
310.686;   86.723;   -0.421;  821.749
311.284;   81.849;   -3.461;  766.040
311.882;   79.328;   -6.282;  731.225
312.480;   76.333;   -3.632;  697.167
313.078;   78.620;   -2.112;  808.331
313.675;   79.193;   -1.931;  691.600
314.273;   74.269;   -1.442;  797.837
314.871;   73.694;   -3.002;  589.829
315.468;   72.051;   -2.252;  652.090
316.066;   74.923;   -1.091;  694.427
316.664;   66.527;   -4.512;  656.351
317.261;   72.839;   -0.062;  910.128
317.859;   67.558;   -0.952;  768.735
318.456;   68.722;    0.719;  830.096
319.054;   63.986;   -4.002;  787.828
319.651;   63.145;   -4.972;  759.928
320.249;   63.031;   -1.162;  810.188
320.846;   60.166;   -2.651;  714.286
321.443;   57.571;   -3.832;  832.135
322.041;   55.069;   -4.312;  812.315
322.638;   52.513;   -3.872;  701.456
323.235;   54.201;   -4.361;  665.683
323.833;   51.894;   -4.821;  740.354
324.430;   47.803;   -6.971;  615.900
325.027;   49.314;   -4.361;  876.855
325.624;   48.578;   -5.581;  644.532
326.221;   45.654;   -6.601;  689.717
326.818;   45.591;   -7.301;  818.332
327.415;   48.094;   -6.180;  748.828
328.012;   47.679;   -5.920;  690.585
328.609;   45.280;   -8.390;  731.389
329.206;   44.105;   -6.121;  778.621
329.803;   44.134;   -5.241;  737.841
330.400;   46.252;   -7.420;  704.260
330.997;   46.529;   -5.931;  817.147
331.594;   44.411;   -5.641;  788.185
332.191;   50.969;   -6.451;  728.722
332.787;   53.884;   -4.651;  844.463
333.384;   50.638;   -5.472;  763.093
333.981;   48.184;   -6.303;  815.687
334.578;   53.066;   -5.892;  708.378
335.174;   54.353;   -4.102;  731.469
335.771;   52.990;   -8.053;  836.456
336.367;   50.405;   -7.363;  710.631
336.964;   55.682;   -6.243;  793.266
337.561;   53.653;   -5.653;  731.112
338.157;   47.878;   -7.074;  911.916
338.754;   46.674;   -5.474;  796.589
339.350;   45.850;   -5.624;  722.493
339.946;   47.327;   -5.054;  773.135
340.543;   40.941;   -6.695;  846.136
341.139;   33.767;   -6.215;  720.836
341.735;   32.413;   -5.746;  772.593
342.332;   30.238;   -7.335;  691.472
342.928;   31.523;   -4.835;  795.394
343.524;   25.390;   -4.586;  761.684
344.120;   22.500;   -3.946;  738.562
344.716;   26.649;   -4.835;  723.717
345.313;   23.710;   -5.325;  795.342
345.909;   19.453;   -6.535;  627.336
346.505;   21.422;   -4.725;  740.247
347.101;   21.431;   -4.164;  827.864
347.697;   21.687;   -5.274;  785.398
348.293;   15.921;   -7.145;  627.244
348.889;   16.812;   -4.364;  745.914
349.485;   16.665;   -6.404;  688.205
350.081;   16.872;   -7.534;  772.592
350.676;   12.188;   -6.995;  691.606
351.272;   17.651;   -3.544;  809.530
351.868;   16.693;   -5.324;  780.497
352.464;   13.814;   -7.204;  723.932
353.059;   10.082;   -6.894;  646.017
353.655;   14.448;   -3.754;  777.063
354.251;   15.067;   -6.143;  759.845
354.846;    8.328;   -9.464;  740.646
355.442;    7.495;   -7.555;  753.071
356.038;    9.125;   -5.474;  751.708
356.633;    9.667;   -5.914;  728.594
357.229;    7.572;   -8.944;  724.757
357.824;    5.485;   -6.794;  703.600
358.420;    4.709;   -5.754;  679.726
359.015;    5.080;   -5.664;  695.357
359.610;    6.149;   -8.004;  763.920
360.206;    0.788;   -8.815;  603.240
360.801;    3.561;   -8.834;  646.503
361.396;    5.662;   -6.274;  725.975
361.992;    1.126;   -8.574;  668.220
362.587;   -1.185;   -9.265;  670.160
363.182;    1.204;   -5.484;  689.631
363.777;    1.390;   -5.164;  738.242
364.372;    1.396;   -6.954;  737.314
364.967;   -2.902;   -7.065;  680.744
365.563;    1.940;   -5.684;  815.567
366.158;   -1.658;   -6.484;  685.161
366.753;   -1.195;   -8.004;  649.263
367.348;   -1.876;  -10.114;  746.056
367.942;   -1.405;   -7.764;  697.298
368.537;   -3.199;   -4.554;  754.245
369.132;   -3.355;   -7.664;  703.428
369.727;   -6.856;   -8.905;  638.079
370.322;   -6.218;   -4.945;  580.186
370.917;   -5.768;   -7.095;  710.646
371.511;   -3.437;   -6.574;  861.834
372.106;   -6.557;   -6.515;  776.964
372.701;   -9.467;   -8.225;  585.988
373.296;   -3.497;   -4.494;  863.135
373.890;   -9.413;   -7.965;  647.840
374.485;  -11.339;   -9.745;  691.199
375.079;   -7.216;   -5.554;  738.685
375.674;   -5.449;   -4.724;  812.970
376.268;   -9.954;   -8.365;  691.759
376.863;  -15.891;   -8.126;  580.327
377.457;   -8.595;   -6.045;  662.490
378.052;  -10.192;   -6.835;  764.884
378.646;  -11.975;   -9.375;  741.167
379.240;  -12.044;   -6.185;  721.176
379.835;  -11.693;   -6.135;  636.978
380.429;  -12.963;   -8.365;  562.557
381.023;  -13.396;   -7.935;  779.205
381.617;  -15.260;   -8.325;  680.106
382.212;  -12.074;   -7.405;  685.303
382.806;  -11.542;   -4.155;  760.690
383.400;  -16.140;   -8.945;  672.281
383.994;  -16.797;   -8.365;  664.870
384.588;  -11.825;   -7.824;  697.701
385.182;  -11.363;   -7.984;  726.624
385.776;  -12.463;  -10.404;  706.875
386.370;  -15.483;   -7.335;  681.968
386.964;  -14.103;   -7.485;  684.155
387.558;  -12.979;   -8.174;  598.360
388.152;  -16.645;  -10.415;  681.959
388.745;  -14.250;   -9.595;  814.707
389.339;  -12.562;   -6.454;  747.642
389.933;  -11.392;   -5.804;  695.370
390.527;  -12.915;   -6.854;  859.029
391.120;  -19.451;   -7.665;  595.318
391.714;  -15.585;   -7.245;  711.633
392.308;  -12.533;   -4.514;  780.253
392.901;  -16.986;   -7.935;  642.460
393.495;  -18.143;   -8.585;  595.414
394.089;  -16.018;   -5.245;  760.452
394.682;  -16.431;   -6.305;  697.188
395.275;  -17.500;   -9.335;  719.927
395.869;  -18.849;   -7.375;  667.314
396.462;  -16.278;   -7.055;  616.609
397.056;  -12.450;   -5.434;  776.621
397.649;  -17.875;   -9.525;  731.575
398.242;  -14.805;   -7.574;  712.645
398.836;  -13.974;   -5.134;  766.408
399.429;  -15.201;   -6.544;  631.041
400.022;  -19.769;   -9.215;  665.902
400.615;  -15.954;   -8.105;  805.609
401.208;  -13.909;   -7.614;  691.451
401.802;  -16.389;   -8.085;  699.329
402.395;  -18.237;   -9.575;  683.502
402.988;  -18.753;   -9.285;  696.627
403.581;  -14.930;   -7.514;  646.878
404.174;  -12.673;   -6.404;  686.568
404.767;  -16.890;   -8.775;  638.583
405.360;  -18.921;   -7.415;  621.445
405.953;  -12.165;   -5.624;  759.034
406.545;  -12.697;   -6.474;  725.342
407.138;  -16.786;   -8.445;  618.350
407.731;  -16.088;  -10.044;  613.303
408.324;  -11.584;   -8.484;  660.554
408.917;  -12.668;   -7.624;  681.864
409.509;  -15.257;   -8.304;  740.396
410.102;  -16.991;   -8.495;  643.948
410.695;   -9.560;   -7.824;  665.758
411.287;  -11.014;   -7.754;  599.821
411.880;  -13.152;   -9.294;  585.421
412.472;  -16.199;   -8.814;  613.092
413.065;  -12.751;   -6.674;  629.408
413.657;   -9.989;   -9.664;  576.678
414.250;  -10.856;  -10.264;  646.681
414.842;  -13.007;   -8.664;  676.353
415.434;  -10.005;   -8.584;  570.463
416.027;   -5.910;   -9.423;  652.196
416.619;   -7.981;  -10.764;  713.400
417.211;   -8.707;   -7.404;  599.352
417.804;   -4.066;   -7.383;  628.499
418.396;   -8.703;   -8.334;  607.643
418.988;   -6.472;   -9.633;  659.238
419.580;   -9.742;  -10.554;  568.276
420.172;   -8.553;   -8.683;  536.196
420.764;   -3.669;   -9.713;  672.482
421.356;   -5.446;  -11.303;  636.898
421.948;   -5.705;   -8.453;  677.661
422.540;   -0.728;   -5.793;  680.027
423.132;   -1.588;   -7.162;  600.641
423.724;   -5.643;   -7.933;  561.267
424.316;   -2.780;   -9.083;  621.345
424.908;    1.227;   -8.392;  591.517
425.500;    1.766;   -8.062;  647.978
426.092;    2.277;   -9.692;  648.268
426.683;    0.521;   -8.223;  684.836
427.275;    3.564;   -8.602;  641.471
427.867;    5.385;   -8.382;  668.948
428.458;    4.781;  -10.472;  732.344
429.050;    4.312;   -9.112;  680.749
429.642;    6.509;   -7.752;  743.124
430.233;    6.728;   -8.832;  569.356
430.825;    7.814;   -8.292;  724.809
431.416;    5.169;   -7.522;  698.241
432.008;    9.582;   -9.262;  651.723
432.599;    9.773;   -6.441;  656.073
433.190;    6.138;   -9.222;  637.670
433.782;    5.558;  -11.832;  590.395
434.373;   14.738;   -7.121;  884.765
434.964;   12.264;   -9.141;  602.920
435.556;    8.774;   -9.332;  634.537
436.147;   11.816;   -8.892;  758.490
436.738;   12.992;   -8.151;  701.099
437.329;   18.177;   -8.281;  721.723
437.920;   10.388;   -9.062;  666.688
438.511;   11.234;  -11.182;  564.526
439.103;   16.938;   -7.461;  623.998
439.694;   18.918;   -8.541;  681.583
440.285;   20.254;   -7.351;  764.432
440.876;   17.858;   -8.201;  845.738
441.466;   17.536;  -10.381;  575.162
442.057;   22.893;   -7.620;  665.814
442.648;   21.190;   -8.461;  746.255
443.239;   19.495;   -8.991;  620.477
443.830;   24.582;   -7.910;  704.958
444.421;   27.004;   -7.340;  655.474
445.011;   23.780;   -8.981;  693.619
445.602;   22.633;   -9.341;  743.126
446.193;   24.468;  -11.390;  488.117
446.783;   29.928;  -11.240;  640.397
447.374;   23.565;   -8.471;  692.759
447.964;   25.066;   -8.471;  713.770
448.555;   33.943;   -6.590;  822.742
449.145;   29.233;   -8.200;  662.853
449.736;   30.007;  -11.040;  803.179
450.326;   29.980;   -9.640;  713.626
450.917;   35.839;   -9.480;  675.324
451.507;   34.127;   -8.020;  600.661
452.097;   34.899;  -10.210;  746.267
452.688;   36.366;   -7.810;  742.160
453.278;   36.036;   -9.360;  566.840
453.868;   40.755;   -8.669;  793.550
454.458;   37.837;  -10.950;  651.141
455.048;   38.258;  -10.200;  711.783
455.639;   39.876;   -9.369;  567.096
456.229;   43.674;   -7.739;  710.694
456.819;   45.247;   -8.939;  751.158
457.409;   45.243;   -7.169;  773.993
457.999;   49.308;   -7.779;  737.505
458.589;   47.702;   -7.039;  686.606
459.179;   47.395;   -9.019;  717.658
459.769;   46.327;   -8.909;  627.099
460.358;   51.383;   -8.659;  797.262
460.948;   50.930;   -8.209;  689.503
461.538;   51.783;   -9.879;  660.677
462.128;   50.223;   -9.379;  664.934
462.717;   57.679;   -9.158;  710.326
463.307;   60.783;   -8.638;  705.846
463.897;   55.595;   -8.869;  656.942
464.486;   55.389;   -7.409;  837.128
465.076;   60.398;   -9.618;  733.776
465.666;   63.160;   -7.578;  652.900
466.255;   60.769;   -9.369;  785.651
466.845;   58.902;  -10.049;  666.749
467.434;   62.710;   -8.168;  725.873
468.023;   64.155;   -9.188;  658.357
468.613;   61.140;   -9.849;  713.946
469.202;   65.936;  -12.958;  646.507
469.791;   70.374;   -9.488;  737.811
470.381;   71.303;   -6.468;  742.813
470.970;   71.474;  -10.248;  711.099
471.559;   71.207;  -11.428;  733.291
472.148;   74.920;   -9.738;  675.737
472.738;   76.981;   -7.877;  765.466
473.327;   75.948;  -11.868;  637.529
473.916;   75.224;   -8.578;  737.446
474.505;   80.204;  -11.137;  751.703
475.094;   82.849;   -9.407;  806.570
475.683;   81.782;   -9.977;  797.699
476.272;   82.414;  -10.807;  730.632
476.861;   86.184;  -11.017;  706.754
477.449;   92.164;  -10.316;  728.487
478.038;   86.534;  -10.187;  692.513
478.627;   87.746;  -12.458;  714.852
479.216;   94.972;  -10.127;  769.441
479.805;   97.428;   -6.256;  783.375
480.393;   96.640;   -8.737; 1008.945
480.982;   95.118;   -9.087;  874.501
481.571;  102.259;   -7.806;  858.333
482.159;  102.083;  -10.596;  705.386
482.748;  101.621;  -11.507;  821.385
483.336;  105.812;   -8.366;  858.209
483.925;  106.534;   -7.497;  774.373
484.513;  113.195;   -8.326;  758.962
485.102;  109.891;  -10.277;  810.965
485.690;  118.525;   -8.256; 1011.050
486.278;  120.505;   -7.146;  979.329
486.867;  120.299;   -7.986;  809.662
487.455;  122.440;   -9.926;  898.229
488.043;  122.639;  -10.026;  748.361
488.631;  132.426;   -7.226; 1005.079
489.220;  135.006;   -8.696;  908.626
489.808;  134.095;  -12.276;  741.415
490.396;  141.239;   -9.386;  914.645
490.984;  147.474;   -8.506;  830.161
491.572;  156.957;   -8.226;  940.315
492.160;  161.684;   -9.836;  919.081
492.748;  170.778;  -10.316;  884.341
493.336;  189.597;   -7.146; 1019.693
493.924;  210.617;   -7.965;  958.077
494.512;  233.203;  -10.316; 1066.638
495.100;  266.697;  -10.186; 1103.280
495.687;  314.477;   -7.805; 1206.373
496.275;  370.946;   -9.686; 1150.796
496.863;  440.803;  -11.566; 1281.171
497.451;  527.459;  -11.406; 1386.805
498.038;  648.865;   -8.235; 1556.729
498.626;  755.970;   -7.485; 1741.407
499.214;  898.024;   -8.646; 2016.609
499.801; 1118.227;   -9.936; 2220.633
500.389; 1290.375;   -8.056; 2312.494
500.976; 1454.520;   -6.166; 2744.849
501.564; 1638.158;   -9.126; 3148.565
502.151; 1915.114;  -12.456; 3515.999
502.738; 2297.589;  -10.056; 3971.274
503.326; 2694.301;  -10.605; 4403.796
503.913; 3010.270;  -10.576; 5161.749
504.500; 3473.816;   -9.056; 5986.420
505.088; 3942.309;  -10.136; 6381.201
505.675; 4644.774;   -9.075; 6925.547
506.262; 5157.026;  -11.346; 7619.060
506.849; 5814.783;   -9.376; 8733.969
507.436; 6341.048;   -7.365; 9790.121
508.023; 6648.376;   -8.686; 9985.472
508.610; 7012.017;   -8.846;10434.618
509.197; 7960.623;   -9.077;11198.435
509.784; 9192.394;  -10.246;12391.194
510.371; 9563.146;   -9.825;13603.713
510.958;10135.248;  -10.896;14426.586
511.545;10925.653;   -9.006;15243.775
512.132;11768.059;   -8.765;15945.876
512.719;12696.868;   -8.286;16340.369
513.305;14478.900;   -9.256;18011.766
513.892;16536.855;  -11.106;19754.971
514.479;17890.104;   -8.576;20967.805
515.066;18807.023;   -9.046;22299.793
515.652;19122.758;  -10.676;22908.660
516.239;20170.283;  -10.166;23798.875
516.825;19771.906;  -11.266;25567.275
517.412;17844.547;   -7.446;28154.959
517.998;17621.174;  -10.916;28344.111
518.585;18682.633;   -9.166;27134.219
519.171;20636.582;  -10.135;27268.576
519.758;23433.672;   -8.806;28964.129
520.344;26645.889;   -6.716;30664.494
520.930;28366.922;  -10.166;32550.605
521.516;28769.609;   -9.615;35422.895
522.103;30106.936;   -8.656;38280.004
522.689;32457.611;   -9.646;37835.117
523.275;33257.988;  -10.786;37288.613
523.861;34181.613;   -9.266;37281.395
524.447;34169.281;   -8.285;37846.949
525.033;34252.602;   -9.426;38321.949
525.619;33622.707;   -9.836;38579.285
526.205;34298.027;   -8.136;40622.875
526.791;35134.902;   -9.986;42258.836
527.377;36604.520;   -8.236;42966.902
527.963;35622.215;  -12.117;42018.949
528.549;34316.520;   -8.376;42476.828
529.135;35117.664;   -8.696;41854.852
529.721;36537.152;   -9.686;41237.711
530.306;38627.543;   -8.616;41259.445
530.892;41747.762;   -9.396;41506.047
531.478;42229.215;   -9.926;43559.613
532.063;43683.344;  -10.236;47695.563
532.649;45876.266;   -8.257;50808.324
533.235;47598.609;  -11.476;51787.500
533.820;46599.727;   -8.156;52145.035
534.406;44648.250;  -12.257;51133.488
534.991;42728.656;   -8.686;49996.805
535.576;40534.277;   -9.426;48882.852
536.162;40629.789;   -8.436;46942.285
536.747;39577.281;  -10.957;45711.746
537.333;38580.785;  -13.147;48510.180
537.918;41616.813;   -9.027;50439.891
538.503;43045.141;   -8.256;50863.711
539.088;46611.418;  -10.576;50906.922
539.673;48609.699;  -10.907;52621.965
540.259;48614.453;   -9.126;52368.094
540.844;45775.852;   -9.026;50879.109
541.429;46588.586;   -9.597;52077.777
542.014;50296.395;  -11.447;52716.695
542.599;51433.828;   -9.236;52363.281
543.184;49271.398;  -12.267;53187.137
543.769;50416.770;  -10.367;54697.605
544.354;50778.434;  -10.887;53913.914
544.938;44931.184;  -11.687;49680.164
545.523;39995.738;   -8.286;47386.277
546.108;40745.758;   -9.317;49151.949
546.693;42649.672;  -10.187;51384.637
547.278;41699.918;   -9.926;51853.254
547.862;40234.289;   -9.196;51173.750
548.447;37572.875;   -9.657;51691.395
549.031;35142.188;   -9.127;52456.703
549.616;36509.613;  -10.836;52714.516
550.201;39715.770;   -8.507;52414.598
550.785;43131.086;  -10.537;52355.059
551.370;46421.668;  -11.727;54589.453
551.954;49427.406;   -9.457;58267.348
552.538;50203.313;   -8.147;59062.176
553.123;48718.238;   -9.397;58115.285
553.707;46357.320;   -9.558;56556.285
554.291;47508.496;   -9.417;56201.668
554.876;47537.215;   -7.627;55335.762
555.460;45428.082;  -10.457;54155.703
556.044;43073.438;  -10.078;53721.484
556.628;43448.496;   -9.407;53731.016
557.212;43622.758;   -7.957;54312.531
557.796;43449.293;  -11.327;53797.773
558.380;47544.785;  -10.868;56145.984
558.964;48907.398;   -9.637;57277.930
559.548;47177.363;   -8.807;56459.641
560.132;47952.941;  -10.187;54434.543
560.716;47346.766;   -9.868;54800.617
561.300;47997.523;  -10.217;57606.945
561.884;48399.078;   -4.947;58972.445
562.467;47797.043;   -9.588;57327.570
563.051;46387.816;  -11.138;54962.434
563.635;44279.789;   -9.358;52594.473
564.219;43793.250;   -9.797;50610.410
564.802;44283.566;   -9.918;49551.180
565.386;41954.859;  -10.838;48370.953
565.969;41010.105;   -8.037;48178.871
566.553;40555.184;   -5.667;49957.305
567.136;39022.730;   -8.258;50369.594
567.720;38511.113;  -11.278;49492.004
568.303;41218.473;   -9.028;50616.352
568.887;41204.176;   -7.508;50727.148
569.470;39896.871;  -11.068;51698.379
570.053;40129.484;  -10.028;52122.078
570.637;38739.461;  -11.077;52536.438
571.220;38317.102;   -8.747;51186.098
571.803;39739.625;   -8.868;51032.762
572.386;41740.570;  -10.608;49609.887
572.969;41634.184;  -10.548;48285.926
573.552;39360.566;   -7.898;47624.285
574.135;40120.102;   -9.918;45498.641
574.718;36292.844;  -10.328;41970.434
575.301;33449.531;   -9.548;41447.137
575.884;30606.221;   -8.768;40923.836
576.467;33886.754;   -9.858;45267.723
577.050;34165.805;  -11.018;48175.543
577.633;34882.996;  -10.048;47729.328
578.216;34216.551;  -10.268;47579.793
578.799;31716.246;  -11.808;47820.996
579.381;31893.178;   -7.338;48115.551
579.964;34819.379;   -9.728;47333.766
580.547;36080.434;   -8.928;46668.969
581.129;37290.438;   -9.149;44466.141
581.712;37693.957;  -11.359;44164.922
582.294;35538.652;  -10.738;46477.855
582.877;34005.203;   -8.788;48244.254
583.459;34160.516;   -9.859;47437.895
584.042;36519.207;   -9.649;46943.219
584.624;36348.512;  -10.529;46792.227
585.206;34647.547;  -10.298;46557.250
585.789;34179.918;  -11.029;45793.773
586.371;32176.348;   -9.359;43836.391
586.953;31569.912;   -8.799;42972.492
587.536;31422.701;   -8.928;42487.211
588.118;31311.051;   -9.180;42086.414
588.700;30738.352;  -10.519;43389.930
589.282;29794.064;   -8.098;43646.039
589.864;29994.102;   -8.139;43438.109
590.446;31443.090;  -10.509;43151.926
591.028;31800.203;  -11.119;42781.867
591.610;33451.008;  -10.019;42839.098
592.192;33587.660;   -8.838;42820.402
592.774;30386.809;  -11.549;40724.277
593.356;27419.469;  -11.609;39874.789
593.937;26604.662;  -10.019;39980.648
594.519;28976.670;   -7.839;42069.633
595.101;31759.760;  -10.779;42976.031
595.683;33169.410;  -10.049;44084.441
596.264;33065.504;   -9.969;43478.797
596.846;32689.670;   -9.699;43803.672
597.427;31718.242;  -10.970;42986.934
598.009;31109.506;  -13.090;42832.219
598.591;30454.736;   -9.509;42580.086
599.172;30707.617;   -9.019;43061.805
599.753;31419.582;  -13.310;41691.469
600.335;32293.471;  -11.010;40692.520
600.916;31495.551;  -10.309;39982.422
601.498;30367.973;   -8.209;40318.617
602.079;29952.371;  -11.440;40670.609
602.660;31422.908;   -8.690;41450.898
603.241;32924.293;  -12.759;41137.738
603.823;31730.420;  -10.409;38868.797
604.404;31174.848;  -11.790;38182.785
604.985;32944.531;  -10.280;38078.047
605.566;34408.699;   -8.059;38056.633
606.147;31617.299;   -8.960;37020.418
606.728;29137.563;  -10.710;37883.359
607.309;28522.789;  -12.760;38748.273
607.890;27284.457;   -9.959;38850.230
608.471;27520.990;   -9.780;37457.918
609.051;29002.594;   -8.940;36066.457
609.632;29750.404;  -12.070;35991.074
610.213;29885.385;   -9.610;37402.641
610.794;30325.211;   -8.750;38383.363
611.374;30985.303;  -11.100;40562.387
611.955;31406.225;  -12.200;38533.727
612.536;31434.871;  -10.410;36951.789
613.116;30550.049;  -10.010;37197.891
613.697;28826.877;  -10.480;38411.125
614.277;28792.463;  -12.751;38673.938
614.858;27810.359;  -11.600;37075.863
615.438;27663.326;   -8.190;35092.906
616.019;26400.189;   -8.941;33666.301
616.599;27984.230;  -13.540;34189.023
617.179;30714.293;  -10.890;36952.047
617.760;30174.113;   -7.610;39582.574
618.340;28350.105;  -14.441;38943.977
618.920;27978.545;   -9.180;37594.156
619.500;30075.506;  -11.881;37866.938
620.080;31746.307;   -9.870;37869.043
620.660;30585.348;  -13.211;36868.617
621.241;29520.012;  -11.921;36352.309
621.821;29222.068;  -10.271;35459.520
622.401;30307.553;   -8.200;35207.414
622.980;31737.869;  -11.141;35980.422
623.560;30894.752;  -14.321;37351.328
624.140;29312.955;   -9.360;34388.582
624.720;25537.879;   -7.481;32368.764
625.300;23138.238;  -12.730;32638.629
625.880;26938.977;  -11.441;34599.035
626.459;30175.357;  -10.971;36831.738
627.039;33997.066;   -9.011;38299.098
627.619;34765.609;   -8.521;38289.574
628.198;32736.127;   -9.861;37220.695
628.778;31539.729;   -8.841;37632.563
629.357;31885.574;   -9.891;38003.012
629.937;32412.746;  -11.871;38402.039
630.516;32102.982;  -10.641;37868.801
631.096;33984.047;  -11.391;35760.410
631.675;35518.012;   -6.622;35225.219
632.254;32488.635;  -13.002;35130.289
632.834;30972.387;  -11.622;35794.570
633.413;31978.479;   -8.321;35788.922
633.992;30234.438;   -7.732;34532.863
634.571;30055.207;  -10.992;33590.113
635.151;29404.113;  -10.422;34943.863
635.730;30661.613;  -11.511;35352.523
636.309;31042.832;   -7.901;35366.605
636.888;30076.898;  -11.452;36165.637
637.467;29117.342;  -10.672;37515.902
638.046;29445.387;   -9.301;39288.695
638.625;30886.986;  -11.452;38279.699
639.204;31659.260;  -12.262;37741.598
639.782;31973.514;  -11.892;38364.551
640.361;30736.248;  -11.411;36740.621
640.940;25501.316;  -11.501;34950.082
641.519;27367.275;  -10.921;34137.398
642.097;31133.723;  -10.101;35654.258
642.676;30061.309;  -10.821;35637.957
643.255;31137.500;   -8.631;36567.074
643.833;33689.527;  -11.411;37809.434
644.412;36428.461;  -12.021;37337.293
644.990;36696.980;  -12.271;37018.531
645.569;35439.887;   -9.741;36518.469
646.147;33013.758;   -9.051;36186.430
646.726;32925.090;  -13.861;36267.688
647.304;33291.223;   -9.461;36647.625
647.882;32936.160;  -13.171;39286.742
648.461;33380.270;  -11.911;39157.703
649.039;32248.027;   -9.541;35412.883
649.617;31397.518;   -8.901;34744.918
650.195;29496.129;   -8.591;35403.098
650.773;28816.846;  -13.031;35053.797
651.352;27692.148;  -12.211;33756.816
651.930;25437.254;  -11.361;31868.773
652.508;22594.631;   -8.601;33121.551
653.086;25328.930;   -9.991;33564.793
653.663;29664.373;  -11.931;34054.668
654.241;31889.527;  -10.821;35693.309
654.819;33342.984;   -9.341;36422.906
655.397;31216.605;  -10.851;38213.484
655.975;29931.395;  -11.461;39507.625
656.553;29996.377;   -8.841;39498.223
657.130;29482.258;  -10.371;40395.480
657.708;30150.682;  -11.071;39242.020
658.286;29807.521;  -11.141;38920.020
658.863;30631.271;  -10.861;40202.898
659.441;34747.379;  -11.181;39677.938
660.018;35074.566;  -10.851;40413.355
660.596;34499.922;  -12.571;39931.414
661.173;34795.590;  -12.141;39604.531
661.750;34765.648;  -11.571;39700.070
662.328;32309.732;  -10.780;39292.809
662.905;29631.377;  -10.750;38235.648
663.482;26398.373;  -11.320;36212.305
664.060;25678.861;  -10.160;35944.945
664.637;30426.148;  -13.120;35170.785
665.214;32530.195;  -11.500;34197.523
665.791;30761.105;  -12.430;34549.520
666.368;28440.955;   -9.840;35118.578
666.945;27469.805;  -11.290;36019.418
667.522;28006.260;  -13.540;36048.438
668.099;28606.699;  -10.250;36243.914
668.676;27997.180;  -11.270;35958.875
669.253;27061.879;   -8.210;37384.730
669.830;26380.547;   -9.710;36779.629
670.407;25827.598;   -9.700;35231.289
670.984;26479.139;   -9.190;35544.270
671.560;25733.947;   -9.560;35466.867
672.137;25200.881;  -11.820;34280.863
672.714;27747.863;  -12.460;34632.863
673.290;32261.320;  -10.940;35135.422
673.867;33275.563;  -10.510;36114.480
674.443;29826.408;  -12.110;36152.859
675.020;31078.053;  -11.760;35327.238
675.596;32332.258;   -9.380;35795.176
676.173;30964.055;  -11.120;35430.355
676.749;29644.961;  -13.390;33549.516
677.326;28839.697;  -12.600;32210.012
677.902;27939.287;  -10.830;32068.871
678.478;27832.980;  -12.400;32583.891
679.054;29774.582;   -8.610;32088.928
679.631;29983.613;  -11.640;30978.848
680.207;29737.652;   -8.140;33160.887
680.783;30743.039;  -12.300;35570.363
681.359;29841.121;  -10.910;36125.184
681.935;29983.984;  -11.040;35240.922
682.511;30733.547;  -11.130;34429.961
683.087;30963.445;  -11.080;34463.680
683.663;33145.688;  -10.530;34648.898
684.239;32777.148;  -12.120;34546.457
684.815;30208.094;   -8.870;35586.375
685.390;29241.254;   -8.940;35821.895
685.966;29341.898;  -12.109;35085.871
686.542;28464.512;  -13.539;34198.230
687.118;28329.598;  -10.379;32847.707
687.693;28723.896;  -10.189;32794.027
688.269;27532.158;  -12.939;33072.367
688.844;26207.244;   -8.679;33141.664
689.420;27007.289;  -10.919;33965.742
689.995;27408.496;   -7.489;34655.523
690.571;26927.875;  -12.199;33576.742
691.146;26868.354;   -8.979;32657.219
691.722;28253.416;   -9.119;32526.979
692.297;26816.039;  -10.519;33014.617
692.872;26357.840;  -10.629;34012.254
693.448;27007.709;  -12.119;34237.434
694.023;27872.180;   -8.219;34142.672
694.598;26113.070;  -13.209;34132.031
695.173;25088.697;  -11.879;34205.250
695.748;25889.865;  -12.039;32882.488
696.323;25598.398;  -11.779;32864.906
696.898;26309.643;  -10.219;33170.004
697.473;27398.148;  -13.639;32432.984
698.048;27847.871;  -11.239;31649.303
698.623;29811.031;  -10.859;30778.141
699.198;31408.242;  -13.379;31140.119
699.773;31820.813;  -13.409;31764.299
700.348;32213.535;  -12.329;31780.816
700.922;32826.699;   -8.749;32046.375
701.497;33241.137;  -12.449;32603.574
702.072;32432.727;   -8.879;34799.871
702.646;30512.699;  -10.719;35793.172
703.221;29099.941;   -8.469;35201.590
703.795;29000.342;  -11.389;34764.527
704.370;28950.160;  -12.499;34307.367
704.944;28653.154;  -11.449;33509.887
705.519;27938.281;  -10.659;31388.584
706.093;27272.600;  -12.909;31340.104
706.668;27478.176;  -13.509;32630.281
707.242;26750.762;  -10.049;32728.779
707.816;24844.236;  -10.629;32947.238
708.390;24296.834;  -11.829;33277.855
708.965;24534.414;  -11.159;33834.336
709.539;25444.922;  -11.069;33709.273
710.113;24986.211;  -10.908;33044.313
710.687;23556.715;   -9.488;31953.992
711.261;23548.154;  -13.068;30505.949
711.835;26115.748;  -12.748;30262.369
712.409;27346.523;  -10.678;31254.447
712.983;26587.514;  -11.658;32754.986
713.557;27162.535;  -13.718;34018.824
714.131;27822.682;  -13.388;34579.625
714.704;27991.412;   -9.818;33890.262
715.278;28595.184;  -11.818;33531.102
715.852;29719.227;  -11.328;33601.660
716.425;30110.510;   -9.118;33515.117
716.999;30358.098;  -10.188;33185.555
717.573;30644.814;   -9.808;33905.996
718.146;33228.063;  -11.478;35199.293
718.720;33381.188;  -10.998;35060.551
719.293;31469.070;   -9.508;34973.230
719.867;30664.375;  -12.138;36394.449
720.440;29235.621;  -11.288;36663.008
721.013;31430.994;  -11.428;35102.426
721.587;32529.604;  -11.698;33985.266
722.160;33413.789;  -11.608;33524.965
722.733;32638.072;  -11.428;32987.043
723.306;31793.904;  -12.518;33066.301
723.880;31865.141;   -7.408;33399.500
724.453;30754.803;  -11.048;33468.297
725.026;29364.824;  -11.678;33816.637
725.599;27914.676;  -10.978;32797.996
726.172;27012.258;   -8.838;33187.434
726.745;27890.453;  -11.438;35136.613
727.318;28522.119;   -9.828;35751.730
727.891;26991.879;  -10.868;35890.430
728.463;25108.311;  -11.348;34822.090
729.036;23726.758;  -11.608;32895.086
729.609;23980.354;  -14.738;31823.225
730.182;25149.723;   -8.448;31445.283
730.754;26369.104;  -11.228;32373.223
731.327;26368.084;  -12.018;33676.820
731.900;27986.645;  -13.748;33417.000
732.472;28242.633;  -10.928;31978.498
733.045;26988.621;   -9.478;30368.777
733.617;25540.615;  -12.967;30574.215
734.190;24600.469;  -11.707;31280.975
734.762;23410.283;  -11.067;31674.412
735.334;22803.889;  -10.587;31247.291
735.907;22010.605;  -11.947;29876.211
736.479;22516.768;  -11.667;29808.488
737.051;24847.236;  -10.187;30233.547
737.623;26888.590;   -6.887;31469.086
738.195;29481.086;  -12.117;31784.225
738.768;31471.797;  -14.077;32120.523
739.340;31112.992;  -12.207;32094.342
739.912;28244.307;   -8.977;31312.680
740.484;26287.152;  -11.017;31946.238
741.056;26810.002;  -13.517;32984.059
741.628;28598.396;  -11.507;33897.715
742.199;28958.559;   -7.597;33213.016
742.771;29592.309;  -12.227;31369.113
743.343;29273.580;  -12.427;31865.473
743.915;27916.021;   -9.827;32388.631
744.487;26958.396;  -10.007;31079.568
745.058;25305.754;  -11.887;30570.107
745.630;24396.244;  -10.787;29970.127
746.201;23604.422;  -10.887;29186.766
746.773;23368.174;   -9.707;28805.723
747.344;24263.428;  -11.137;29591.223
747.916;24575.900;  -11.887;31412.201
748.487;24050.928;   -9.707;32194.898
749.059;23505.006;  -10.027;32533.719
749.630;23398.467;  -11.787;32158.518
750.201;22269.811;  -12.767;30855.395
750.773;21827.850;  -11.497;28622.555
751.344;22575.863;   -9.937;28405.732
751.915;23027.643;  -11.567;28461.551
752.486;22422.430;  -13.267;27842.850
753.057;20514.064;  -10.627;27845.008
753.628;19122.449;  -11.657;27728.107
754.199;21336.326;  -12.097;27381.086
754.770;23030.412;  -11.447;25882.203
755.341;23066.512;  -11.997;25886.184
755.912;20832.871;  -10.207;26050.861
756.483;18951.771;  -10.937;26798.779
757.054;18755.793;  -11.527;27048.238
757.625;19073.887;  -12.886;26294.838
758.195;19591.842;  -11.226;26142.076
758.766;19759.904;  -12.366;26392.234
759.337;18569.076;  -11.946;26334.594
759.907;18616.432;  -13.856;27579.652
760.478;19571.424;   -9.606;28352.770
761.048;19337.164;  -11.606;27325.088
761.619;19263.057;  -11.036;26460.428
762.189;18654.232;  -12.206;26029.826
762.760;19888.141;   -9.666;26430.145
763.330;20909.275;   -9.796;26670.902
763.900;19142.725;  -10.896;26603.021
764.471;17653.088;  -11.726;25542.740
765.041;18147.656;   -9.656;24358.459
765.611;19051.777;  -11.276;23991.297
766.181;18888.494;  -12.116;24470.236
766.751;18314.596;  -12.376;24845.975
767.321;18125.619;  -11.626;24533.633
767.891;18375.918;  -10.426;24916.492
768.461;17515.275;  -13.456;24776.771
769.031;15572.046;  -11.616;24757.988
769.601;15331.671;  -11.356;24181.088
770.171;15523.480;  -11.586;23670.387
770.741;15878.498;  -12.696;22960.045
771.311;15900.108;  -10.226;22917.523
771.880;15589.063;  -11.146;23562.941
772.450;16309.497;  -11.716;24216.500
773.020;16719.299;  -13.226;24140.398
773.589;16412.404;  -12.586;24414.857
774.159;16183.746;  -10.246;23858.717
774.729;15581.396;  -11.586;22942.135
775.298;14591.819;  -15.926;22324.033
775.867;14544.494;  -10.426;21140.313
776.437;14512.065;  -11.416;20838.092
777.006;13158.558;  -12.766;20599.510
777.576;13073.713;  -13.666;20508.809
778.145;13617.551;  -10.066;20732.947
778.714;13446.956;  -10.276;21062.465
779.283;13770.160;  -12.086;20949.664
779.853;15143.314;  -14.016;20508.623
780.422;15698.617;  -12.376;20649.082
780.991;14634.929;   -9.246;21527.520
781.560;13724.920;   -9.775;22632.658
782.129;13491.933;  -12.495;23048.277
782.698;13113.479;  -11.775;23438.555
783.267;13340.139;  -10.065;23267.734
783.836;13986.512;  -12.455;22415.133
784.404;14842.168;  -13.385;20443.152
784.973;15730.136;  -11.045;19699.150
785.542;15207.088;   -9.505;19763.828
786.111;14147.613;   -9.385;20341.408
786.679;14031.201;  -13.475;20207.967
787.248;14052.030;  -11.245;19516.465
787.817;12137.690;  -12.485;18900.363
788.385;10332.792;  -11.165;17879.121
788.954;11034.547;  -11.755;17658.301
789.522;12019.837;   -9.625;17788.879
790.090;11651.374;   -9.665;18118.277
790.659;11104.938;   -9.295;18338.736
791.227;11998.982;  -12.175;18508.615
791.795;13456.870;  -12.145;17898.254
792.364;13437.660;  -11.575;17295.133
792.932;12142.392;  -11.085;16822.051
793.500;10972.318;  -11.345;17040.148
794.068;10712.855;  -12.565;17179.787
794.636;11669.840;  -12.105;16664.246
795.204;12303.331;  -11.995;16524.545
795.772;11783.593;  -12.615;17274.564
796.340;11362.278;  -12.425;17891.002
796.908;11151.966;  -11.455;17648.561
797.476;10649.112;  -12.165;17064.080
798.044;10314.159;  -15.795;16672.777
798.612;10379.051;  -10.985;17023.996
799.180;11035.329;  -12.055;16561.615
799.747;11363.303;  -12.525;15962.773
800.315;10147.769;  -14.765;15296.992
800.883; 8845.338;  -12.435;14801.771
801.450; 8719.852;  -11.295;14534.430
802.018; 9254.325;  -11.185;14173.248
802.585; 9289.960;  -11.625;14029.547
803.153; 8293.471;  -10.665;13836.846
803.720; 7837.702;  -10.275;13567.324
804.287; 7747.624;  -12.865;13360.622
804.855; 7966.974;  -12.324;13681.981
805.422; 8268.613;  -11.574;13536.560
805.989; 8118.004;  -11.004;13355.958
806.556; 8364.101;  -12.214;13747.896
807.124; 8828.874;  -13.304;13987.376
807.691; 8582.051;  -12.034;14038.674
808.258; 7895.326;  -11.014;14120.152
808.825; 7786.128;  -11.804;13860.111
809.392; 7720.605;  -11.544;13268.790
809.959; 7556.215;  -14.954;12680.389
810.526; 7932.571;  -10.214;12427.308
811.093; 8497.712;  -10.754;12030.105
811.659; 8152.169;  -12.194;11653.664
812.226; 6926.748;   -9.194;11637.183
812.793; 6520.378;   -9.644;11611.521
813.360; 7325.882;  -11.544;11885.181
813.926; 8231.905;  -12.814;12770.539
814.493; 8238.954;  -11.524;12677.638
815.060; 7914.294;  -12.254;11974.336
815.626; 7450.166;  -12.114;11594.715
816.193; 7074.913;  -11.994;11579.474
816.759; 6939.233;  -11.464;11666.972
817.325; 6636.248;  -10.444;11325.530
817.892; 6322.016;  -11.124;11105.369
818.458; 6167.495;  -11.864;10843.928
819.024; 6394.996;  -10.634;10714.406
819.591; 6489.016;  -10.554;10469.165
820.157; 6759.192;  -13.334;10235.523
820.723; 7055.558;  -13.044;10847.563
821.289; 7179.023;   -9.664;11040.980
821.855; 7349.585;  -10.994;10357.100
822.421; 7374.626;  -11.784; 9978.918
822.987; 7333.932;  -12.554; 9754.177
823.553; 7733.917;  -12.554;10065.755
824.119; 7620.511;   -8.544;10036.294
824.685; 6666.290;  -12.144;10029.192
825.251; 6091.961;  -12.754;10199.230
825.816; 5658.382;  -11.354; 9820.189
826.382; 5387.388;  -11.004; 9297.248
826.948; 5422.487;  -11.004; 9381.347
827.513; 5348.830;  -12.474; 9450.726
828.079; 5309.746;  -13.084; 9472.444
828.645; 5453.687;  -10.813; 9292.643
829.210; 5240.912;  -11.593; 9065.341
829.776; 5167.084;  -12.633; 9132.620
830.341; 5202.625;  -10.473; 9092.878
830.906; 5019.924;   -8.763; 9078.557
831.472; 4736.432;  -13.453; 8534.535
832.037; 4147.372;  -12.173; 8677.874
832.602; 3916.019;  -14.093; 8628.692
833.167; 4165.576;  -13.593; 8879.031
833.733; 4700.767;  -10.793; 9189.790
834.298; 5120.811;  -14.783; 9052.608
834.863; 4763.964;  -11.023; 8895.087
835.428; 4489.013;  -11.113; 8824.266
835.993; 4931.949;   -9.983; 8845.385
836.558; 5185.157;  -13.003; 8888.563
837.123; 4997.496;  -10.733; 8966.582
837.688; 4577.458;   -9.683; 8617.860
838.253; 4395.635;  -12.253; 8590.699
838.817; 4400.238;  -11.643; 8443.797
839.382; 4352.104;  -11.953; 8799.356
839.947; 4433.881;  -11.443; 8810.595
840.511; 4786.825;  -10.843; 8796.394
841.076; 5069.177;  -13.533; 8347.231
841.641; 4899.604;  -11.743; 8224.330
842.205; 4348.707;  -10.013; 8223.349
842.770; 4011.901;  -11.023; 8622.107
843.334; 4087.369;  -14.273; 8410.386
843.898; 4474.203;  -11.323; 8337.465
844.463; 4877.034;  -10.263; 8506.283
845.027; 5063.852;  -10.353; 8280.962
845.591; 5011.929;  -12.163; 8231.141
846.156; 4862.230;  -12.263; 7969.179
846.720; 4830.783;  -11.553; 7768.278
847.284; 4642.817;  -12.393; 7630.957
847.848; 3861.395;  -12.623; 7472.395
848.412; 3228.791;  -11.863; 7437.394
848.976; 3168.042;  -10.203; 7674.592
849.540; 3390.385;  -10.603; 7836.011
850.104; 3627.093;  -12.423; 7913.669
850.668; 3650.151;  -14.613; 7694.508
851.232; 3657.512;  -12.873; 7756.887
851.796; 3899.085;  -14.192; 7926.545
852.359; 4119.808;  -13.652; 7827.844
852.923; 4064.518;  -11.402; 7641.163
853.487; 3739.831;  -12.022; 7342.501
854.050; 3529.459;  -15.202; 7042.820
854.614; 3525.116;  -14.592; 7151.338
855.177; 3487.724;  -12.572; 7105.077
855.741; 3510.046;   -9.932; 6989.675
856.304; 3464.238;  -12.192; 6596.634
856.868; 3340.895;  -13.462; 6356.272
857.431; 3339.539;  -11.542; 6468.571
857.995; 3456.312;  -12.062; 6373.210
858.558; 3269.334;  -11.142; 6324.448
859.121; 3102.927;  -11.742; 6408.327
859.684; 3202.446;  -10.332; 6347.886
860.247; 3490.083;  -11.962; 6321.264
860.810; 3847.082;  -12.332; 6301.903
861.374; 3943.787;  -10.292; 6607.881
861.937; 3671.060;  -12.062; 6408.200
862.500; 3211.830;  -11.702; 6572.639
863.062; 2547.105;  -13.852; 6387.297
863.625; 1976.285;  -12.972; 6190.836
864.188; 1773.510;  -10.292; 5807.254
864.751; 1893.860;  -12.382; 5682.413
865.314; 2004.752;  -13.232; 5547.492
865.876; 1940.698;  -12.772; 5500.150
866.439; 1837.412;  -11.952; 5415.909
867.002; 1963.983;   -9.332; 5501.567
867.564; 2328.898;  -11.712; 5413.946
868.127; 2552.172;  -12.012; 5160.325
868.689; 2318.383;  -11.882; 5133.183
869.252; 2009.394;  -11.572; 5252.382
869.814; 1906.006;  -10.692; 5297.141
870.377; 1948.349;  -12.392; 5390.919
870.939; 2012.262;  -10.582; 5599.898
871.501; 2061.039;  -12.782; 5248.336
872.063; 2090.127;  -15.612; 4854.235
872.626; 2153.378;  -13.922; 4817.074
873.188; 2152.560;  -13.832; 4987.732
873.750; 2114.788;  -10.962; 4868.651
874.312; 2172.630;  -11.022; 4779.330
874.874; 2238.755;  -13.152; 4866.348
875.436; 2183.479;  -13.401; 4718.887
875.998; 2072.826;   -8.891; 4660.005
876.560; 1971.107;  -12.591; 4462.964
877.122; 1894.472;  -14.531; 4145.042
877.683; 1851.130;  -10.781; 4056.481
878.245; 1768.669;  -14.281; 3950.740
878.807; 1714.269;  -10.311; 4058.958
879.369; 1671.227;  -13.201; 3954.677
879.930; 1635.816;  -12.061; 3941.495
880.492; 1636.692;   -9.181; 4067.014
881.053; 1659.666;  -12.051; 3859.633
881.615; 1633.078;  -11.501; 3776.071
882.176; 1542.294;  -12.221; 3734.750
882.738; 1436.130;   -8.931; 3678.489
883.299; 1362.986;  -13.571; 3405.407
883.860; 1368.665;  -12.331; 3351.106
884.422; 1314.460;  -10.201; 3394.044
884.983; 1184.404;  -12.521; 3166.443
885.544; 1065.991;  -12.291; 3189.802
886.105; 1004.829;  -12.991; 3160.360
886.666;  987.066;  -12.901; 3093.059
887.227;  983.353;  -12.061; 2941.957
887.788;  959.051;  -11.641; 2974.836
888.349;  911.242;  -14.691; 2721.214
888.910;  864.860;   -9.681; 2696.493
889.471;  862.727;   -9.971; 2560.172
890.032;  876.921;  -13.151; 2558.190
890.593;  855.655;  -12.051; 2567.669
891.153;  812.403;  -12.841; 2460.307
891.714;  776.978;  -13.561; 2372.046
892.275;  745.718;  -12.401; 2309.505
892.835;  709.658;  -13.191; 2382.543
893.396;  669.372;  -12.551; 2295.502
893.956;  644.369;  -11.981; 2162.420
894.517;  626.185;  -12.221; 2125.439
895.077;  594.505;  -12.021; 2086.978
895.638;  537.085;  -10.891; 2126.316
896.198;  485.062;  -13.171; 1838.275
896.758;  450.995;  -11.891; 1892.813
897.319;  429.529;  -12.491; 1792.232
897.879;  415.965;  -12.401; 1762.751
898.439;  387.206;  -13.431; 1661.149
898.999;  366.791;  -11.340; 1781.468
899.559;  357.553;  -13.930; 1703.347
900.119;  338.535;  -13.730; 1537.525
900.679;  319.799;   -9.210; 1638.384
901.239;  301.438;  -10.860; 1527.902
901.799;  284.099;  -11.450; 1456.441
902.359;  265.304;  -13.800; 1357.140
902.919;  259.392;  -12.130; 1331.118
903.479;  260.764;  -12.650; 1317.257
904.038;  255.428;  -16.110; 1262.595
904.598;  242.218;  -13.690; 1152.034
905.158;  229.111;  -10.290; 1240.893
905.717;  221.502;  -10.670; 1233.691
906.277;  221.245;  -14.040; 1217.330
906.836;  220.937;  -13.510; 1222.408
907.396;  217.071;  -11.530; 1193.047
907.955;  205.682;  -13.190; 1182.526
908.515;  192.943;  -12.950; 1099.364
909.074;  184.370;  -12.390; 1092.863
909.633;  180.404;  -10.340; 1069.121
910.192;  177.301;  -11.170; 1196.460
910.752;  171.987;  -14.200; 1029.960
911.311;  167.772;  -13.810; 1009.780
911.870;  165.084;  -12.750;  971.460
912.429;  163.701;  -12.380; 1094.080
912.988;  161.644;  -11.930; 1081.060
913.547;  155.877;  -10.990;  940.380
914.106;  152.966;  -11.200;  999.420
914.665;  150.217;  -13.150;  984.020
915.224;  148.314;  -13.310; 1035.760
915.782;  147.869;  -13.340;  922.560
916.341;  147.559;  -10.710; 1049.840
916.900;  144.017;  -12.980;  925.260
917.458;  141.412;  -13.060;  884.220
918.017;  140.300;  -10.900;  942.600
918.576;  140.651;  -11.630;  904.440
919.134;  139.668;  -12.860;  837.980
919.693;  139.629;  -15.160;  893.060
920.251;  138.893;  -13.470;  876.500
920.809;  138.470;  -13.700;  839.580
921.368;  139.491;  -13.420;  885.360
921.926;  138.712;  -14.710;  842.940
922.484;  139.796;  -12.560;  903.360
923.042;  139.949;  -11.930;  880.340
923.601;  139.048;  -10.270;  998.680
924.159;  138.303;  -12.960;  935.560
924.717;  138.006;  -13.040;  841.080
925.275;  141.048;  -12.560;  903.240
925.833;  141.037;  -13.040;  779.320
926.391;  142.697;  -13.360;  938.380
926.949;  142.715;  -13.940;  857.680
927.506;  143.929;   -9.400;  903.500
928.064;  142.861;  -10.940;  877.580
928.622;  141.716;  -13.180;  880.100
929.180;  141.565;  -12.730;  814.180
929.737;  142.041;  -12.840;  808.540
930.295;  143.645;  -11.810;  928.480
930.853;  144.060;  -13.650;  849.100
931.410;  143.316;  -13.580;  821.120
931.968;  142.051;  -12.020;  940.660
932.525;  140.456;  -13.320;  909.380
933.082;  141.300;  -13.800;  811.440
933.640;  148.388;  -11.380;  925.900
934.197;  153.001;  -11.480;  886.360
934.754;  157.240;  -13.220;  897.780
935.312;  155.824;  -14.950;  863.340
935.869;  154.524;  -10.940; 1012.980
936.426;  150.083;  -12.100;  872.800
936.983;  151.889;  -12.930;  889.020
937.540;  153.454;  -14.250;  838.280
938.097;  158.796;  -12.600;  940.120
938.654;  164.587;  -11.260;  898.860
939.211;  168.383;  -13.020;  952.480
939.768;  170.916;  -15.760;  915.420
940.324;  172.548;  -13.920;  904.200
940.881;  168.985;  -11.620;  878.500
941.438;  165.662;   -9.870; 1021.200
941.995;  163.320;  -13.920;  992.560
942.551;  162.671;  -12.830;  875.620
943.108;  164.077;  -11.980;  937.920
943.664;  166.013;  -13.740;  869.340
944.221;  172.190;  -12.670; 1088.140
944.777;  170.370;  -13.250;  869.680
945.334;  169.240;  -13.000;  884.840
945.890;  169.419;  -13.020;  946.480
946.446;  169.903;  -13.880;  947.020
947.003;  173.532;  -12.660;  964.940
947.559;  174.096;   -8.730; 1063.040
948.115;  171.309;  -11.960; 1026.540
948.671;  167.537;  -12.360;  967.300
949.227;  162.953;  -12.700;  859.560
949.783;  159.424;  -13.450;  858.900
950.339;  158.761;  -10.620;  991.000
950.895;  155.124;  -14.770; 1023.840
951.451;  153.091;  -13.650;  925.280
952.007;  153.786;  -11.180;  998.540
952.563;  152.329;  -11.680;  937.780
953.118;  151.568;  -13.280;  904.940
953.674;  154.080;  -12.510;  935.780
954.230;  153.958;  -12.220;  949.640
954.785;  149.830;  -12.190;  936.640
955.341;  143.897;  -12.270;  998.160
955.897;  138.659;  -14.900;  834.660
956.452;  139.149;  -12.520;  953.840
957.008;  139.961;   -9.410; 1083.640
957.563;  137.015;  -11.280; 1009.540
958.118;  134.287;  -13.470;  877.700
958.674;  136.307;  -12.190;  946.780
959.229;  138.196;  -12.760; 1013.980
959.784;  142.391;  -15.710;  832.400
960.339;  149.862;  -12.540; 1001.280
960.894;  151.909;  -11.680;  963.760
961.449;  146.579;  -11.410;  859.960
962.004;  145.397;  -10.430; 1212.840
962.559;  139.256;  -14.040;  860.140
963.114;  137.151;  -14.270;  742.480
963.669;  138.049;  -11.320;  915.500
964.224;  136.179;  -14.620;  874.340
964.779;  135.013;  -14.150;  828.420
965.334;  134.435;  -10.850; 1017.860
965.888;  132.964;  -14.530;  875.360
966.443;  135.005;  -13.520;  972.380
966.998;  131.110;  -13.370;  819.460
967.552;  128.279;   -9.960;  908.380
968.107;  123.315;  -12.360;  868.300
968.661;  124.287;  -12.270;  922.440
969.216;  123.496;  -12.140;  856.280
969.770;  124.470;  -11.860;  917.200
970.324;  124.070;  -12.170;  923.140
970.879;  121.846;  -14.160;  947.180
971.433;  120.057;  -12.940;  952.720
971.987;  116.956;  -10.180;  895.340
972.541;  115.217;  -12.130;  917.100
973.095;  115.365;  -14.980; 1009.460
973.649;  113.816;  -14.480;  809.480
974.203;  115.763;  -13.530;  829.040
974.757;  116.233;  -12.060;  855.220
975.311;  115.120;  -13.240;  872.600
975.865;  112.748;  -12.550;  881.820
976.419;  111.205;  -13.180;  857.400
976.973;  110.562;  -14.100;  849.620
977.526;  110.956;  -13.330;  949.920
978.080;  106.667;  -15.390;  796.780
978.634;  106.872;  -11.670;  921.320
979.187;  103.429;  -10.640;  905.400
979.741;  102.737;  -13.330; 1018.380
980.294;   99.996;  -14.480;  789.160
980.848;   98.945;  -13.420;  717.220
981.401;   96.983;  -12.360;  816.540
981.955;   94.385;  -12.480;  844.300
982.508;   90.997;  -14.000;  746.340
983.061;   91.260;  -10.440;  915.260
983.615;   86.591;  -14.340;  798.800
984.168;   83.440;  -14.950;  770.080
984.721;   84.243;  -13.270;  880.760
985.274;   82.408;  -12.240;  867.500
985.827;   79.138;  -12.720;  834.220
986.380;   75.148;  -14.920;  721.340
986.933;   76.198;  -12.860;  864.800
987.486;   74.934;  -10.440;  861.920
988.039;   74.095;  -11.820;  863.100
988.591;   71.944;  -13.760;  893.260
989.144;   70.756;  -14.080;  737.260
989.697;   71.638;  -13.440;  758.740
990.250;   71.920;  -12.050;  858.100
990.802;   70.168;  -14.550;  755.860
991.355;   70.655;  -10.770;  974.880
991.907;   68.530;  -11.710;  864.320
992.460;   66.404;  -12.650;  753.760
993.012;   65.350;  -13.860;  749.540
993.565;   63.190;  -14.310;  711.360
994.117;   63.699;   -9.920;  950.780
994.669;   60.174;  -13.420;  701.320
995.221;   58.895;  -14.200;  791.920
995.774;   58.712;  -13.400;  787.580
996.326;   57.693;  -11.850;  740.220
996.878;   57.735;  -12.230;  838.420
997.430;   54.895;  -14.260;  699.860
997.982;   54.304;  -11.430;  750.140
998.534;   55.055;  -11.590;  739.060
999.086;   53.700;  -11.960;  738.220
999.638;   52.974;  -13.640;  661.380
1000.190;   51.873;  -13.660;  699.320
1000.741;   52.002;   -9.980;  742.700
1001.293;   51.568;  -11.860;  686.020
1001.845;   50.317;  -14.280;  676.640
1002.396;   51.022;  -12.270;  743.400
1002.948;   50.580;  -13.670;  737.400
1003.500;   48.939;  -12.010;  723.780
1004.051;   49.578;  -11.890;  907.580
1004.603;   48.720;  -11.220;  791.820
1005.154;   45.283;  -13.210;  608.980
1005.705;   44.216;  -11.850;  723.960
1006.257;   44.187;  -13.670;  707.220
1006.808;   43.512;  -12.060;  685.460
1007.359;   42.803;  -10.250;  763.240
1007.910;   41.217;  -13.440;  646.640
1008.461;   40.369;  -13.170;  732.940
1009.013;   38.878;  -14.590;  588.340
1009.564;   41.073;  -12.100;  793.520
1010.115;   38.247;  -14.000;  597.040
1010.665;   38.044;  -15.020;  602.160
1011.216;   39.253;  -12.560;  667.920
1011.767;   38.178;  -11.330;  697.920
1012.318;   38.480;  -11.450;  736.980
1012.869;   37.386;  -11.000;  679.000
1013.419;   36.526;  -11.760;  603.120
1013.970;   37.200;  -11.800;  666.640
1014.521;   36.104;  -14.750;  620.620
1015.071;   35.986;  -14.430;  670.380
1015.622;   35.790;  -14.170;  635.460
1016.172;   35.474;  -11.700;  596.820
1016.723;   34.508;  -13.230;  614.380
1017.273;   35.192;  -16.120;  604.160
1017.823;   35.086;  -13.360;  650.340
1018.374;   34.475;  -13.710;  611.760
1018.924;   34.659;  -11.050;  716.880
1019.474;   34.825;  -14.120;  718.880
1020.024;   33.310;  -12.990;  657.580
1020.574;   34.639;  -12.010;  726.160
1021.124;   33.893;  -12.080;  673.580
1021.674;   31.660;  -15.860;  559.120
1022.224;   34.442;  -11.710;  708.940
1022.774;   33.028;  -13.030;  668.820
1023.324;   34.124;  -11.000;  753.520
1023.874;   34.689;  -13.270;  875.760
1024.423;   31.930;  -14.570;  613.700
1024.973;   32.057;  -12.620;  610.760
1025.523;   30.980;  -12.630;  620.960
1026.072;   29.948;  -14.110;  606.420
1026.622;   30.420;  -15.390;  675.740
1027.172;   31.978;   -9.090;  715.660
1027.721;   29.842;  -12.250;  601.220
1028.270;   30.912;  -15.590;  663.400
1028.820;   29.820;  -13.840;  638.080
1029.369;   30.244;  -13.170;  612.700
1029.918;   30.226;  -14.080;  649.840
1030.468;   29.487;  -13.860;  564.780
1031.017;   30.035;  -12.970;  634.800
1031.566;   29.001;  -12.320;  608.900
1032.115;   29.825;  -13.140;  694.500
1032.664;   28.170;  -14.560;  596.480
1033.213;   29.850;  -11.620;  735.420
1033.762;   28.126;  -13.190;  635.620
1034.311;   27.817;  -13.460;  677.220
1034.860;   28.019;  -15.770;  691.000
1035.408;   29.154;  -13.100;  722.720
1035.957;   29.289;  -12.880;  719.540
1036.506;   26.042;  -13.640;  530.800
1037.055;   29.799;  -12.420;  844.320
1037.603;   27.605;  -13.740;  664.000
1038.152;   26.256;  -13.840;  534.760
1038.700;   26.003;  -10.770;  585.740
1039.249;   25.730;  -13.520;  681.220
1039.797;   26.566;  -13.060;  633.360
1040.345;   26.948;  -11.760;  705.420
1040.894;   25.302;  -10.790;  625.300
1041.442;   25.220;  -15.420;  632.200
1041.990;   25.084;  -14.550;  559.160
1042.538;   24.579;  -15.620;  536.180
1043.087;   24.451;  -14.940;  570.860
1043.635;   25.579;  -12.100;  670.500
1044.183;   24.860;  -13.200;  586.400
1044.731;   25.203;  -11.630;  576.000
1045.279;   23.839;  -14.200;  674.920
1045.827;   26.415;  -12.510;  892.400
1046.374;   23.293;  -14.960;  515.420
1046.922;   22.985;  -11.850;  590.580
1047.470;   24.318;  -13.770;  691.300
1048.018;   23.668;  -15.380;  647.960
1048.565;   24.953;  -14.010;  708.600
1049.113;   22.997;  -14.620;  557.000
1049.660;   23.028;  -14.940;  629.660
1050.208;   23.554;  -14.540;  675.640
1050.755;   22.712;  -13.710;  606.580
1051.303;   23.809;  -11.880;  686.820
1051.850;   21.988;  -12.160;  635.120
1052.397;   20.565;  -15.110;  473.960
1052.945;   21.174;  -14.770;  617.760
1053.492;   23.780;  -12.320;  741.840
1054.039;   22.980;  -13.290;  720.180
1054.586;   20.559;  -15.210;  557.240
1055.133;   22.821;  -12.920;  693.140
1055.680;   22.297;  -12.610;  646.620
1056.227;   20.949;  -12.620;  542.780
1056.774;   22.432;  -13.010;  794.980
1057.321;   20.480;  -16.180;  523.260
1057.868;   21.843;  -11.230;  651.320
1058.415;   20.340;  -10.890;  651.980
1058.961;   21.040;  -12.530;  678.940
1059.508;   19.973;  -14.120;  643.820
1060.055;   20.437;  -13.340;  581.780
1060.601;   20.580;  -12.920;  624.300
1061.148;   19.749;  -14.430;  616.820
1061.694;   19.610;  -14.140;  592.580
1062.241;   19.551;  -12.550;  596.320
1062.787;   19.951;  -13.370;  663.140
1063.334;   21.149;  -12.260;  808.560
1063.880;   20.074;  -10.800;  668.360
1064.426;   19.541;   -9.920;  706.820
1064.972;   18.963;  -12.970;  601.340
1065.518;   17.334;  -14.440;  566.640
1066.065;   18.657;  -12.680;  624.460
1066.611;   18.373;  -13.520;  598.800
1067.157;   18.999;  -11.100;  641.860
1067.703;   18.257;  -14.100;  668.480
1068.249;   18.296;  -13.750;  605.220
1068.794;   18.345;  -11.070;  626.880
1069.340;   17.271;  -13.210;  578.960
1069.886;   16.898;  -14.850;  590.700
1070.432;   16.496;  -14.580;  541.720
1070.977;   16.812;  -12.930;  601.080
1071.523;   17.424;  -11.970;  573.060
1072.068;   16.345;  -13.730;  582.000
1072.614;   16.530;  -14.550;  527.760
1073.160;   18.034;  -13.690;  687.040
1073.705;   15.877;  -14.780;  572.520
1074.250;   16.085;  -15.430;  559.900
1074.796;   17.442;  -11.620;  655.160
1075.341;   17.531;  -11.580;  664.100
1075.886;   16.553;  -13.190;  594.240
1076.431;   16.314;  -13.630;  649.880
1076.976;   16.146;  -11.670;  639.220
1077.521;   16.046;  -11.600;  583.080
1078.067;   14.796;  -13.920;  579.400
1078.612;   15.602;  -12.910;  661.620
1079.156;   15.201;  -15.340;  601.540
1079.701;   15.802;  -12.560;  693.260
1080.246;   15.977;  -12.490;  696.300
1080.791;   15.760;  -14.550;  625.020
1081.336;   15.816;  -15.210;  659.320
1081.880;   15.310;  -11.280;  649.680
1082.425;   14.751;  -12.830;  573.480
1082.970;   15.221;  -11.680;  717.040
1083.514;   14.444;  -15.500;  597.000
1084.059;   14.121;  -11.770;  586.720
1084.603;   13.912;  -13.480;  565.840
1085.147;   13.512;  -13.940;  645.220
1085.692;   14.474;  -13.170;  716.800
1086.236;   12.047;  -15.740;  503.140
1086.780;   15.310;  -10.750;  751.440
1087.325;   14.004;  -14.900;  654.620
1087.869;   13.720;  -15.160;  610.700
1088.413;   15.232;  -11.030;  705.040
1088.957;   12.691;  -15.210;  543.400
1089.501;   14.309;  -12.310;  766.640
1090.045;   13.896;  -12.790;  726.480
1090.589;   11.436;  -14.040;  569.920
1091.133;   12.565;  -12.800;  673.340
1091.676;   12.778;  -13.600;  591.940
1092.220;   12.091;  -12.960;  600.920
1092.764;   14.035;  -10.830;  706.960
1093.307;   13.126;  -12.390;  673.780
1093.851;   10.997;  -15.850;  556.540
1094.395;   12.703;  -12.980;  683.140
1094.938;   12.769;  -13.670;  632.520
1095.482;   11.656;  -12.740;  559.800
1096.025;   12.814;  -13.340;  710.880
1096.568;   13.291;  -10.500;  779.280
1097.112;   10.518;  -13.500;  508.180
1097.655;   11.973;  -13.060;  603.000
1098.198;    9.865;  -13.240;  600.180
1098.741;   11.050;  -15.490;  612.860
1099.285;   11.654;  -13.410;  657.300
1099.828;    8.721;  -15.640;  439.400
1100.371;   10.584;  -13.980;  608.160
1100.914;   11.183;  -13.990;  682.660
1101.457;   11.615;  -15.030;  679.900
1101.999;    9.512;  -12.480;  584.680
1102.542;   11.167;  -12.410;  641.440
1103.085;    9.590;  -14.730;  658.500
1103.628;   11.424;  -12.190;  762.060
1104.170;    9.589;  -12.360;  588.280
1104.713;    9.400;  -13.350;  646.700
1105.256;    9.594;  -14.930;  557.440
1105.798;    8.898;  -15.150;  499.980
1106.341;   10.644;  -13.230;  728.900
1106.883;    8.445;  -14.680;  521.340
1107.425;    9.185;  -14.810;  668.180
1107.968;    9.761;  -12.940;  612.380
1108.510;    9.816;  -10.550;  684.960
1109.052;    8.084;  -15.640;  612.620
1109.594;    8.177;  -14.440;  554.440
1110.136;    9.594;  -11.380;  643.220
1110.679;    8.802;  -13.090;  633.080
1111.221;    8.983;  -14.230;  604.460
1111.763;    7.718;  -14.260;  559.220
1112.304;    7.546;  -14.510;  547.140
1112.846;    8.293;  -14.700;  666.240
1113.388;   11.490;  -12.270;  942.180
1113.930;    8.506;  -13.340;  694.200
1114.472;    7.846;  -12.560;  606.540
1115.013;    6.343;  -14.280;  551.280
1115.555;    7.348;  -14.010;  587.100
1116.097;    6.826;  -14.730;  579.480
1116.638;    8.292;  -12.160;  684.600
1117.180;    8.408;  -14.320;  667.740
1117.721;    6.785;  -15.730;  568.580
1118.262;    8.596;  -13.480;  677.960
1118.804;    7.889;  -11.530;  637.340
1119.345;    6.627;  -13.540;  578.400
1119.886;    7.957;  -14.470;  704.040
1120.427;    6.183;  -13.030;  589.020
1120.969;    6.145;  -13.150;  597.920
1121.510;    5.742;  -13.940;  563.060
1122.051;    6.474;  -12.310;  723.580
1122.592;    5.672;  -13.870;  655.420
1123.133;    4.862;  -12.890;  547.940
1123.673;    7.132;  -13.300;  706.480
1124.214;    6.196;  -14.000;  612.460
1124.755;    6.596;  -13.210;  639.460
1125.296;    6.502;  -13.450;  627.320
1125.836;    7.088;  -12.610;  691.500
1126.377;    5.647;  -15.840;  599.660
1126.918;    6.325;  -11.830;  614.980
1127.458;    6.368;  -11.830;  622.220
1127.999;    6.740;  -11.490;  656.980
1128.539;    5.801;  -12.900;  694.240
1129.079;    5.312;  -14.910;  632.720
1129.620;    4.533;  -12.920;  558.100
1130.160;    4.526;  -14.640;  539.480
1130.700;    5.365;  -13.270;  640.840
1131.240;    4.998;  -14.110;  643.700
1131.781;    5.131;  -13.130;  619.680
1132.321;    4.500;  -15.220;  599.120
1132.861;    3.462;  -15.670;  564.200
1133.401;    3.917;  -13.970;  593.940
1133.941;    5.317;  -13.740;  626.280
1134.481;    3.909;  -13.200;  597.580
1135.020;    3.466;  -14.830;  609.160
1135.560;    4.824;  -14.590;  674.940
1136.100;    3.404;  -13.730;  501.160
1136.640;    3.858;  -15.240;  510.480
1137.179;    2.680;  -14.710;  537.960
1137.719;    3.798;  -14.090;  605.400
1138.258;    3.859;  -12.470;  587.360
1138.798;    3.617;  -12.580;  663.780
1139.337;    1.816;  -16.480;  482.840
1139.877;    3.657;  -13.970;  642.360
1140.416;    6.732;   -9.870;  878.060
1140.955;    2.374;  -14.860;  535.380
1141.494;    3.357;  -14.530;  669.280
1142.034;    2.215;  -13.940;  583.520
1142.573;    3.895;  -11.160;  646.280
1143.112;    2.459;  -15.050;  553.480
1143.651;    2.427;  -15.390;  536.480
1144.190;    3.801;  -12.990;  691.640
1144.729;    2.450;  -12.220;  607.420
1145.267;    2.588;  -14.020;  584.900
1145.806;    3.221;  -12.740;  637.040
1146.345;    2.375;  -14.810;  635.020
1146.884;    2.755;  -12.920;  622.500
1147.422;    1.453;  -13.930;  533.060
1147.961;    3.247;  -11.830;  708.460
1148.500;    2.650;  -12.710;  669.720
1149.038;    3.398;  -14.420;  632.500
1149.577;    3.132;  -13.920;  698.640
1150.115;    0.427;  -17.050;  452.280
1150.653;    2.109;  -14.890;  607.340
1151.192;    2.158;  -15.270;  552.920
1151.730;    1.872;  -13.160;  652.560
1152.268;    1.981;  -15.430;  589.520
1152.806;    1.432;  -15.880;  571.180
1153.344;    0.888;  -13.240;  577.640
1153.882;    1.737;  -13.010;  600.060
1154.421;   -0.729;  -16.180;  470.620
1154.958;    0.826;  -13.880;  595.240
1155.496;    2.368;  -13.590;  645.280
1156.034;    1.356;  -11.910;  721.880
1156.572;    2.001;  -12.010;  667.060
1157.110;    0.461;  -16.250;  473.940
1157.647;    1.224;  -15.230;  676.960
1158.185;    0.591;  -13.770;  564.320
1158.723;   -0.939;  -15.300;  509.200
1159.260;    1.450;  -13.130;  701.700
1159.798;    1.476;  -11.300;  658.160
1160.335;    0.543;  -13.210;  631.820

