
Integration time [ms]:   3.276
Averaging Nr. [scans]: 1000
Smoothing Nr. [pixels]: 0
Data measured with spectrometer [name]: 7414430SP
Wave   ;Sample   ;Dark     ;Reference
[nm]   ;[counts] ;[counts] ;[counts] 

288.544;  151.768;    7.793;  793.890
289.143;  155.492;    7.462;  681.602
289.742;  156.141;    8.602;  828.814
290.341;  143.866;    1.321;  789.841
290.940;  134.371;   -0.709;  730.702
291.538;  135.258;    0.881;  881.108
292.137;  134.104;    0.122;  792.581
292.736;  137.498;   -1.929;  975.101
293.335;  133.433;   -8.229;  735.086
293.934;  133.740;   -5.279;  781.677
294.532;  134.414;   -1.369; 1031.958
295.131;  121.744;   -7.641;  834.394
295.730;  121.530;   -8.420;  809.588
296.328;  119.797;   -5.611;  783.442
296.927;  118.468;   -5.781;  779.652
297.525;  118.967;   -6.361;  781.236
298.124;  110.479;  -11.382;  654.009
298.722;  114.771;   -7.641;  761.933
299.321;  112.875;   -6.811;  708.597
299.919;  110.100;   -6.991;  751.918
300.518;  106.317;  -10.362;  689.338
301.116;  107.122;   -9.581;  691.381
301.715;  108.814;   -4.891;  730.222
302.313;  107.620;   -8.801;  704.943
302.911;  103.655;   -8.522;  733.830
303.509;  106.326;   -6.171;  925.627
304.108;  105.384;   -7.311;  760.383
304.706;  104.566;   -8.321;  801.664
305.304;   98.579;  -10.222;  796.707
305.902;  104.632;   -6.021;  784.484
306.500;   99.715;   -4.971;  728.200
307.098;   98.902;   -7.061;  746.560
307.696;   96.266;   -8.801;  780.432
308.294;   96.512;   -6.411;  731.359
308.892;   99.384;   -2.901;  759.769
309.490;   95.317;   -5.041;  712.161
310.088;   92.196;   -5.002;  788.444
310.686;   97.120;   -2.041;  821.749
311.284;   92.994;   -2.351;  766.040
311.882;   90.675;   -4.422;  731.225
312.480;   87.276;   -4.192;  697.167
313.078;   89.283;   -1.172;  808.331
313.675;   89.837;   -2.601;  691.600
314.273;   85.608;   -1.312;  797.837
314.871;   84.025;   -3.942;  589.829
315.468;   81.609;   -2.802;  652.090
316.066;   86.349;   -0.701;  694.427
316.664;   77.707;   -4.362;  656.351
317.261;   81.506;   -2.872;  910.128
317.859;   77.520;   -2.022;  768.735
318.456;   77.915;   -0.531;  830.096
319.054;   73.382;   -3.912;  787.828
319.651;   72.012;   -4.752;  759.928
320.249;   71.112;   -2.602;  810.188
320.846;   69.346;   -0.821;  714.286
321.443;   66.273;   -4.642;  832.135
322.041;   63.393;   -5.002;  812.315
322.638;   61.334;   -3.982;  701.456
323.235;   63.467;   -3.411;  665.683
323.833;   59.542;   -7.361;  740.354
324.430;   54.573;   -8.611;  615.900
325.027;   54.447;   -4.061;  876.855
325.624;   55.888;   -4.031;  644.532
326.221;   53.021;   -7.481;  689.717
326.818;   51.736;   -5.281;  818.332
327.415;   54.979;   -7.460;  748.828
328.012;   54.427;   -5.510;  690.585
328.609;   52.404;   -7.880;  731.389
329.206;   51.213;   -8.331;  778.621
329.803;   50.729;   -5.121;  737.841
330.400;   54.138;   -4.510;  704.260
330.997;   55.688;   -6.441;  817.147
331.594;   54.124;   -8.831;  788.185
332.191;   58.252;   -7.621;  728.722
332.787;   62.137;   -4.591;  844.463
333.384;   61.433;   -7.412;  763.093
333.981;   59.923;   -8.293;  815.687
334.578;   62.328;   -7.052;  708.378
335.174;   65.302;   -3.102;  731.469
335.771;   64.977;   -5.943;  836.456
336.367;   61.460;   -7.393;  710.631
336.964;   65.280;   -4.063;  793.266
337.561;   63.781;   -3.813;  731.112
338.157;   59.760;   -4.654;  911.916
338.754;   57.707;   -7.934;  796.589
339.350;   56.354;   -4.414;  722.493
339.946;   57.649;   -4.664;  773.135
340.543;   49.847;   -6.375;  846.136
341.139;   45.043;   -9.815;  720.836
341.735;   41.396;   -4.526;  772.593
342.332;   41.142;   -4.895;  691.472
342.928;   41.247;   -4.295;  795.394
343.524;   35.213;   -5.476;  761.684
344.120;   30.812;   -5.856;  738.562
344.716;   34.522;   -2.155;  723.717
345.313;   32.253;   -6.275;  795.342
345.909;   26.577;   -8.815;  627.336
346.505;   28.140;   -5.305;  740.247
347.101;   29.542;   -2.674;  827.864
347.697;   28.865;   -4.344;  785.398
348.293;   23.544;   -9.975;  627.244
348.889;   24.683;   -5.774;  745.914
349.485;   24.024;   -5.004;  688.205
350.081;   24.717;   -4.704;  772.592
350.676;   19.417;   -6.635;  691.606
351.272;   23.526;   -4.504;  809.530
351.868;   23.385;   -3.914;  780.497
352.464;   21.363;   -9.044;  723.932
353.059;   16.845;   -8.314;  646.017
353.655;   20.305;   -7.024;  777.063
354.251;   21.689;   -5.343;  759.845
354.846;   15.895;   -8.604;  740.646
355.442;   13.579;   -6.945;  753.071
356.038;   15.171;   -7.564;  751.708
356.633;   16.439;   -5.814;  728.594
357.229;   13.820;   -7.364;  724.757
357.824;   11.948;   -8.024;  703.600
358.420;   10.067;   -9.384;  679.726
359.015;   11.469;   -5.104;  695.357
359.610;   12.391;   -6.854;  763.920
360.206;    6.010;  -10.185;  603.240
360.801;    8.583;   -7.054;  646.503
361.396;   12.048;   -5.034;  725.975
361.992;    7.081;   -8.284;  668.220
362.587;    4.210;   -8.625;  670.160
363.182;    5.838;   -7.674;  689.631
363.777;    6.950;   -5.164;  738.242
364.372;    6.374;   -8.604;  737.314
364.967;    2.767;   -9.055;  680.744
365.563;    7.272;   -6.114;  815.567
366.158;    4.842;   -5.814;  685.161
366.753;    4.491;   -7.854;  649.263
367.348;    3.802;   -7.804;  746.056
367.942;    3.013;   -7.954;  697.298
368.537;    1.877;   -4.984;  754.245
369.132;    2.248;   -8.564;  703.428
369.727;   -2.086;   -8.855;  638.079
370.322;   -0.625;   -6.245;  580.186
370.917;   -0.846;   -6.425;  710.646
371.511;    1.993;   -6.294;  861.834
372.106;   -1.661;   -7.685;  776.964
372.701;   -4.404;   -7.335;  585.988
373.296;    0.963;   -4.564;  863.135
373.890;   -3.730;  -10.235;  647.840
374.485;   -6.413;   -7.885;  691.199
375.079;   -2.700;   -7.324;  738.685
375.674;   -1.038;   -3.494;  812.970
376.268;   -5.377;   -8.525;  691.759
376.863;  -10.237;  -10.086;  580.327
377.457;   -4.796;   -7.025;  662.490
378.052;   -6.455;   -3.585;  764.884
378.646;   -7.907;   -7.595;  741.167
379.240;   -7.948;   -8.335;  721.176
379.835;   -7.319;   -5.785;  636.978
380.429;   -8.139;   -4.335;  562.557
381.023;   -8.144;   -6.805;  779.205
381.617;  -12.082;   -9.195;  680.106
382.212;   -8.471;   -6.905;  685.303
382.806;   -7.695;   -3.745;  760.690
383.400;  -10.734;   -7.745;  672.281
383.994;  -12.961;   -9.765;  664.870
384.588;   -9.410;   -6.564;  697.701
385.182;   -7.400;   -5.344;  726.624
385.776;   -8.342;   -8.514;  706.875
386.370;  -11.727;   -9.555;  681.968
386.964;  -11.132;   -8.715;  684.155
387.558;   -8.347;   -6.174;  598.360
388.152;  -12.270;   -8.725;  681.959
388.745;  -11.160;   -7.965;  814.707
389.339;   -9.236;   -5.924;  747.642
389.933;   -8.268;   -5.524;  695.370
390.527;   -9.536;   -7.114;  859.029
391.120;  -15.969;  -10.725;  595.318
391.714;  -13.102;   -8.035;  711.633
392.308;   -9.877;   -3.574;  780.253
392.901;  -12.992;   -7.245;  642.460
393.495;  -15.208;   -9.285;  595.414
394.089;  -12.847;   -5.895;  760.452
394.682;  -13.130;   -4.295;  697.188
395.275;  -13.745;   -9.875;  719.927
395.869;  -15.463;   -8.485;  667.314
396.462;  -14.043;   -7.455;  616.609
397.056;  -10.197;   -5.424;  776.621
397.649;  -14.788;   -6.605;  731.575
398.242;  -12.732;   -8.224;  712.645
398.836;  -12.080;   -7.474;  766.408
399.429;  -12.388;   -7.094;  631.041
400.022;  -16.413;   -9.475;  665.902
400.615;  -13.574;   -7.145;  805.609
401.208;  -11.838;   -7.174;  691.451
401.802;  -13.865;   -5.515;  699.329
402.395;  -14.550;   -9.875;  683.502
402.988;  -15.850;   -8.845;  696.627
403.581;  -13.291;   -8.874;  646.878
404.174;  -10.563;   -5.324;  686.568
404.767;  -13.144;   -9.575;  638.583
405.360;  -15.852;  -10.965;  621.445
405.953;  -10.616;   -8.764;  759.034
406.545;  -10.226;   -7.514;  725.342
407.138;  -14.516;  -10.025;  618.350
407.731;  -13.295;  -10.034;  613.303
408.324;   -9.270;   -9.374;  660.554
408.917;   -9.710;   -6.534;  681.864
409.509;  -11.771;   -8.004;  740.396
410.102;  -14.408;   -9.875;  643.948
410.695;   -8.324;   -8.604;  665.758
411.287;   -9.769;   -6.794;  599.821
411.880;  -10.284;   -9.334;  585.421
412.472;  -12.950;  -10.254;  613.092
413.065;  -11.039;   -6.714;  629.408
413.657;   -8.040;   -7.234;  576.678
414.250;   -8.004;  -10.544;  646.681
414.842;  -10.545;   -9.744;  676.353
415.434;   -7.679;   -6.994;  570.463
416.027;   -4.040;   -5.893;  652.196
416.619;   -5.405;   -7.264;  713.400
417.211;   -6.405;  -10.374;  599.352
417.804;   -2.828;   -7.993;  628.499
418.396;   -6.655;   -7.234;  607.643
418.988;   -4.502;   -9.443;  659.238
419.580;   -8.027;  -10.724;  568.276
420.172;   -5.663;  -10.323;  536.196
420.764;   -1.632;   -8.793;  672.482
421.356;   -3.343;  -11.143;  636.898
421.948;   -4.092;   -8.293;  677.661
422.540;    0.969;   -7.893;  680.027
423.132;    0.572;   -7.082;  600.641
423.724;   -2.999;   -8.653;  561.267
424.316;   -1.127;  -10.213;  621.345
424.908;    2.189;   -9.762;  591.517
425.500;    3.346;   -5.572;  647.978
426.092;    3.045;   -8.422;  648.268
426.683;    2.604;   -9.283;  684.836
427.275;    5.222;   -7.852;  641.471
427.867;    6.933;   -5.272;  668.948
428.458;    7.230;   -7.682;  732.344
429.050;    4.918;  -10.612;  680.749
429.642;    7.608;   -9.882;  743.124
430.233;    8.191;   -6.962;  569.356
430.825;    9.276;   -6.842;  724.809
431.416;    6.762;   -9.672;  698.241
432.008;   10.435;   -6.552;  651.723
432.599;   11.554;   -6.891;  656.073
433.190;    8.308;  -10.912;  637.670
433.782;    8.147;  -11.172;  590.395
434.373;   14.472;   -6.061;  884.765
434.964;   13.434;   -8.251;  602.920
435.556;   10.796;   -9.722;  634.537
436.147;   13.663;   -9.082;  758.490
436.738;   12.888;   -8.041;  701.099
437.329;   18.767;   -7.341;  721.723
437.920;   12.126;   -8.162;  666.688
438.511;   11.071;  -11.802;  564.526
439.103;   18.278;  -10.191;  623.998
439.694;   20.174;   -7.601;  681.583
440.285;   21.287;   -8.541;  764.432
440.876;   18.584;   -9.751;  845.738
441.466;   18.605;   -9.401;  575.162
442.057;   24.687;   -7.760;  665.814
442.648;   22.519;   -9.971;  746.255
443.239;   21.053;  -11.001;  620.477
443.830;   25.118;   -7.990;  704.958
444.421;   27.725;   -7.910;  655.474
445.011;   24.082;   -8.131;  693.619
445.602;   23.447;   -7.111;  743.126
446.193;   24.217;  -10.920;  488.117
446.783;   30.134;   -6.500;  640.397
447.374;   24.820;   -8.671;  692.759
447.964;   26.001;  -10.781;  713.770
448.555;   34.240;   -9.650;  822.742
449.145;   30.704;   -8.660;  662.853
449.736;   31.114;   -8.990;  803.179
450.326;   30.737;   -9.500;  713.626
450.917;   35.802;   -8.680;  675.324
451.507;   35.287;   -7.520;  600.661
452.097;   36.149;   -8.590;  746.267
452.688;   36.635;  -11.340;  742.160
453.278;   36.559;  -10.100;  566.840
453.868;   41.317;   -6.019;  793.550
454.458;   38.701;   -9.440;  651.141
455.048;   39.173;  -10.560;  711.783
455.639;   40.912;  -11.799;  567.096
456.229;   44.313;   -6.899;  710.694
456.819;   46.332;   -7.389;  751.158
457.409;   46.799;  -11.119;  773.993
457.999;   48.359;   -9.289;  737.505
458.589;   49.199;   -6.139;  686.606
459.179;   48.269;   -8.729;  717.658
459.769;   46.615;   -9.789;  627.099
460.358;   50.943;  -10.259;  797.262
460.948;   51.329;   -7.299;  689.503
461.538;   52.835;  -10.289;  660.677
462.128;   51.260;  -11.269;  664.934
462.717;   56.784;   -9.368;  710.326
463.307;   59.938;   -7.908;  705.846
463.897;   56.572;   -9.599;  656.942
464.486;   55.533;   -9.769;  837.128
465.076;   59.690;   -8.048;  733.776
465.666;   63.774;   -9.358;  652.900
466.255;   61.520;   -7.919;  785.651
466.845;   60.783;  -11.689;  666.749
467.434;   63.616;   -7.818;  725.873
468.023;   64.220;   -7.678;  658.357
468.613;   62.216;  -10.939;  713.946
469.202;   66.740;  -10.118;  646.507
469.791;   70.218;   -9.108;  737.811
470.381;   72.544;   -6.058;  742.813
470.970;   72.714;  -10.428;  711.099
471.559;   71.257;  -10.268;  733.291
472.148;   74.998;   -8.448;  675.737
472.738;   76.623;   -6.917;  765.466
473.327;   76.870;  -11.978;  637.529
473.916;   75.797;  -11.888;  737.446
474.505;   80.828;   -9.437;  751.703
475.094;   83.638;   -6.747;  806.570
475.683;   82.605;   -9.367;  797.699
476.272;   83.672;  -12.637;  730.632
476.861;   86.607;  -10.027;  706.754
477.449;   93.985;   -8.716;  728.487
478.038;   88.354;   -9.577;  692.513
478.627;   89.372;   -9.718;  714.852
479.216;   95.670;   -8.947;  769.441
479.805;   98.458;   -6.256;  783.375
480.393;   98.936;   -7.937; 1008.945
480.982;   97.289;   -7.717;  874.501
481.571;  104.083;   -9.266;  858.333
482.159;  104.987;   -7.636;  705.386
482.748;  104.750;   -9.667;  821.385
483.336;  110.026;  -10.376;  858.209
483.925;  109.917;   -7.147;  774.373
484.513;  117.195;   -7.996;  758.962
485.102;  114.820;  -10.027;  810.965
485.690;  123.467;  -10.446; 1011.050
486.278;  124.521;   -8.446;  979.329
486.867;  126.640;   -6.356;  809.662
487.455;  128.802;   -9.136;  898.229
488.043;  131.312;  -10.646;  748.361
488.631;  139.403;   -7.456; 1005.079
489.220;  143.886;   -6.636;  908.626
489.808;  145.830;  -11.036;  741.415
490.396;  155.350;  -10.246;  914.645
490.984;  164.267;   -8.556;  830.161
491.572;  179.620;   -5.886;  940.315
492.160;  190.119;   -9.486;  919.081
492.748;  205.802;  -10.976;  884.341
493.336;  236.715;   -8.776; 1019.693
493.924;  282.077;   -5.465;  958.077
494.512;  338.304;   -9.986; 1066.638
495.100;  397.764;  -10.636; 1103.280
495.687;  491.806;  -10.885; 1206.373
496.275;  591.243;   -8.126; 1150.796
496.863;  690.149;  -10.586; 1281.171
497.451;  840.380;  -11.926; 1386.805
498.038;  968.554;  -10.885; 1556.729
498.626; 1143.852;   -6.315; 1741.407
499.214; 1425.325;   -7.326; 2016.609
499.801; 1746.676;  -11.906; 2220.633
500.389; 2132.675;  -10.466; 2312.494
500.976; 2455.114;   -5.236; 2744.849
501.564; 3017.881;   -8.936; 3148.565
502.151; 3786.662;  -13.176; 3515.999
502.738; 4367.550;  -10.646; 3971.274
503.326; 4824.123;   -9.525; 4403.796
503.913; 5218.145;  -10.856; 5161.749
504.500; 5800.229;  -11.586; 5986.420
505.088; 6477.682;  -10.336; 6381.201
505.675; 7407.313;   -6.355; 6925.547
506.262; 8033.301;   -9.046; 7619.060
506.849; 8390.643;  -10.416; 8733.969
507.436; 9137.205;  -10.305; 9790.121
508.023; 9669.519;   -5.496; 9985.472
508.610; 9617.483;   -7.856;10434.618
509.197;10354.671;  -10.097;11198.435
509.784;11895.468;  -10.886;12391.194
510.371;13470.988;   -9.315;13603.713
510.958;14710.897;   -9.936;14426.586
511.545;15236.999;   -9.326;15243.775
512.132;15232.411;  -10.075;15945.876
512.719;15735.710;   -7.796;16340.369
513.305;16893.965;  -10.606;18011.766
513.892;18707.408;  -11.486;19754.971
514.479;20173.959;   -9.126;20967.805
515.066;20920.029;   -6.026;22299.793
515.652;20495.871;   -8.466;22908.660
516.239;20945.975;  -10.886;23798.875
516.825;21985.635;  -11.496;25567.275
517.412;23562.455;   -5.796;28154.959
517.998;24827.654;  -10.506;28344.111
518.585;25616.990;  -10.076;27134.219
519.171;24957.949;   -8.315;27268.576
519.758;26132.891;   -8.596;28964.129
520.344;28234.971;   -8.466;30664.494
520.930;27393.914;  -11.006;32550.605
521.516;26364.020;  -10.495;35422.895
522.103;28225.873;   -5.526;38280.004
522.689;29858.541;   -8.746;37835.117
523.275;30703.400;  -11.376;37288.613
523.861;32545.506;  -11.156;37281.395
524.447;32546.107;   -8.135;37846.949
525.033;32601.727;   -7.896;38321.949
525.619;33116.941;  -12.476;38579.285
526.205;33359.465;   -9.516;40622.875
526.791;32992.852;   -6.926;42258.836
527.377;32249.027;   -8.346;42966.902
527.963;33836.813;   -8.717;42018.949
528.549;35124.719;  -11.016;42476.828
529.135;33676.098;   -8.536;41854.852
529.721;34180.418;   -9.666;41237.711
530.306;33115.395;  -10.066;41259.445
530.892;32680.680;  -11.356;41506.047
531.478;34655.426;   -6.596;43559.613
532.063;37040.660;   -8.836;47695.563
532.649;35919.250;  -10.047;50808.324
533.235;36598.883;   -9.746;51787.500
533.820;38139.715;   -6.566;52145.035
534.406;39281.840;  -10.817;51133.488
534.991;40924.070;   -9.416;49996.805
535.576;38931.293;   -9.036;48882.852
536.162;36394.629;   -6.156;46942.285
536.747;37087.414;  -11.607;45711.746
537.333;38936.621;  -11.787;48510.180
537.918;40004.313;  -12.437;50439.891
538.503;40291.605;   -7.196;50863.711
539.088;41148.234;  -10.556;50906.922
539.673;41759.891;   -8.767;52621.965
540.259;39077.961;  -10.026;52368.094
540.844;39283.020;   -7.416;50879.109
541.429;39000.227;   -9.467;52077.777
542.014;37959.398;   -9.527;52716.695
542.599;40901.160;   -9.946;52363.281
543.184;41875.809;   -7.927;53187.137
543.769;42602.875;   -9.297;54697.605
544.354;42930.340;  -10.127;53913.914
544.938;40559.137;   -9.267;49680.164
545.523;39322.617;   -6.506;47386.277
546.108;42221.281;   -9.787;49151.949
546.693;42358.480;  -11.587;51384.637
547.278;41543.754;  -10.986;51853.254
547.862;42227.660;   -8.206;51173.750
548.447;40636.520;  -10.067;51691.395
549.031;40241.043;   -9.637;52456.703
549.616;40294.133;   -9.926;52714.516
550.201;39908.367;   -6.347;52414.598
550.785;40648.422;   -7.917;52355.059
551.370;41461.484;  -10.867;54589.453
551.954;42978.316;   -9.047;58267.348
552.538;41919.328;   -7.827;59062.176
553.123;40426.781;  -10.287;58115.285
553.707;39206.930;  -12.178;56556.285
554.291;37814.375;   -8.717;56201.668
554.876;40040.148;   -7.457;55335.762
555.460;42229.570;  -10.387;54155.703
556.044;43503.352;   -9.618;53721.484
556.628;43552.773;  -11.567;53731.016
557.212;44108.750;   -8.097;54312.531
557.796;45894.746;  -11.077;53797.773
558.380;44699.875;  -11.108;56145.984
558.964;43148.109;   -9.057;57277.930
559.548;40869.199;   -6.977;56459.641
560.132;38488.445;  -11.457;54434.543
560.716;39669.746;  -11.378;54800.617
561.300;40443.016;   -9.577;57606.945
561.884;38894.859;   -7.127;58972.445
562.467;39159.113;   -7.118;57327.570
563.051;37574.176;  -13.358;54962.434
563.635;35168.496;  -10.178;52594.473
564.219;36973.707;   -7.837;50610.410
564.802;40850.625;  -11.398;49551.180
565.386;41622.445;  -12.788;48370.953
565.969;42110.336;   -9.077;48178.871
566.553;41476.121;   -6.207;49957.305
567.136;40373.785;   -8.568;50369.594
567.720;41215.266;  -11.868;49492.004
568.303;42160.465;   -8.268;50616.352
568.887;41232.207;   -8.698;50727.148
569.470;39195.504;   -6.808;51698.379
570.053;37000.281;  -13.188;52122.078
570.637;34331.438;  -12.037;52536.438
571.220;34723.266;   -8.577;51186.098
571.803;34832.973;   -8.498;51032.762
572.386;36435.086;  -10.498;49609.887
572.969;37216.699;   -9.388;48285.926
573.552;37512.195;   -8.338;47624.285
574.135;36446.094;   -8.518;45498.641
574.718;32454.781;  -13.628;41970.434
575.301;33123.340;  -10.893;41447.137
575.884;33791.898;   -8.158;40923.836
576.467;39243.414;  -10.328;45267.723
577.050;40206.176;  -13.058;48175.543
577.633;39265.176;   -9.458;47729.328
578.216;36226.066;   -8.928;47579.793
578.799;34030.199;   -9.358;47820.996
579.381;34851.777;  -11.388;48115.551
579.964;34774.969;  -11.718;47333.766
580.547;33419.723;   -8.588;46668.969
581.129;33695.656;   -8.859;44466.141
581.712;35638.805;  -10.729;44164.922
582.294;35770.723;  -11.118;46477.855
582.877;35830.020;   -5.218;48244.254
583.459;35737.598;   -8.679;47437.895
584.042;37110.832;  -10.709;46943.219
584.624;35421.293;  -11.669;46792.227
585.206;34690.773;   -8.218;46557.250
585.789;35632.480;  -10.569;45793.773
586.371;35933.121;  -11.859;43836.391
586.953;36438.020;  -10.719;42972.492
587.536;38359.344;   -7.198;42487.211
588.118;37680.305;   -8.720;42086.414
588.700;36537.082;  -10.439;43389.930
589.282;34287.043;   -9.198;43646.039
589.864;31814.465;   -9.199;43438.109
590.446;31058.111;  -11.319;43151.926
591.028;30991.471;  -11.159;42781.867
591.610;30601.820;  -11.779;42839.098
592.192;30695.803;   -7.668;42820.402
592.774;28606.422;  -11.949;40724.277
593.356;25953.957;  -12.129;39874.789
593.937;26828.660;  -10.669;39980.648
594.519;30355.797;   -6.509;42069.633
595.101;31437.373;  -10.849;42976.031
595.683;31022.182;  -11.679;44084.441
596.264;30902.518;   -9.049;43478.797
596.846;30418.039;   -8.849;43803.672
597.427;30657.500;   -9.570;42986.934
598.009;32872.348;  -12.620;42832.219
598.591;33105.223;  -10.039;42580.086
599.172;34536.641;  -10.369;43061.805
599.753;36020.051;   -9.140;41691.469
600.335;35449.156;  -11.430;40692.520
600.916;32906.664;   -9.939;39982.422
601.498;30161.672;   -8.479;40318.617
602.079;29386.057;  -10.920;40670.609
602.660;29407.828;  -11.480;41450.898
603.241;31155.686;  -11.699;41137.738
603.823;31828.240;   -9.579;38868.797
604.404;31422.260;  -10.620;38182.785
604.985;33955.750;  -10.450;38078.047
605.566;34853.141;   -9.129;38056.633
606.147;35870.117;   -7.510;37020.418
606.728;34434.855;  -10.660;37883.359
607.309;32462.557;  -11.740;38748.273
607.890;32284.281;   -9.759;38850.230
608.471;31063.004;   -8.250;37457.918
609.051;30447.055;   -9.240;36066.457
609.632;29436.223;  -12.120;35991.074
610.213;29578.957;   -9.110;37402.641
610.794;31019.490;   -8.030;38383.363
611.374;30074.422;   -8.110;40562.387
611.955;29912.605;  -13.560;38533.727
612.536;30462.729;  -11.400;36951.789
613.116;29854.594;   -8.070;37197.891
613.697;31009.996;  -10.830;38411.125
614.277;30710.363;  -11.641;38673.938
614.858;30202.662;  -13.310;37075.863
615.438;30603.676;   -7.460;35092.906
616.019;28353.512;   -7.601;33666.301
616.599;29127.342;  -12.020;34189.023
617.179;29220.498;  -11.780;36952.047
617.760;28233.654;   -8.570;39582.574
618.340;28522.094;  -11.471;38943.977
618.920;28117.832;  -11.170;37594.156
619.500;28675.287;  -11.071;37866.938
620.080;29587.449;   -7.750;37869.043
620.660;30247.090;  -12.711;36868.617
621.241;30881.273;  -10.211;36352.309
621.821;29995.836;  -10.961;35459.520
622.401;30222.340;   -7.720;35207.414
622.980;32339.617;   -8.981;35980.422
623.560;30773.627;   -9.331;37351.328
624.140;26974.889;   -9.850;34388.582
624.720;23462.029;   -7.451;32368.764
625.300;22772.297;   -9.070;32638.629
625.880;26742.701;  -12.601;34599.035
626.459;29863.586;  -11.751;36831.738
627.039;29663.654;   -9.281;38299.098
627.619;29329.955;   -8.801;38289.574
628.198;29136.547;  -12.071;37220.695
628.778;28959.365;   -9.461;37632.563
629.357;29586.691;   -8.491;38003.012
629.937;29522.340;   -9.721;38402.039
630.516;30328.340;   -9.951;37868.801
631.096;31880.158;  -11.731;35760.410
631.675;34499.262;   -8.572;35225.219
632.254;34068.402;  -11.282;35130.289
632.834;32675.096;  -13.322;35794.570
633.413;33404.047;  -10.301;35788.922
633.992;34013.672;   -8.582;34532.863
634.571;34823.816;   -8.352;33590.113
635.151;33765.727;  -11.912;34943.863
635.730;32173.654;  -10.511;35352.523
636.309;32081.680;   -7.731;35366.605
636.888;31783.209;   -9.952;36165.637
637.467;31466.307;  -11.672;37515.902
638.046;29706.338;   -8.901;39288.695
638.625;28934.807;   -7.912;38279.699
639.204;28202.021;  -10.022;37741.598
639.782;30161.811;  -12.252;38364.551
640.361;31568.521;  -10.041;36740.621
640.940;30266.920;  -11.161;34950.082
641.519;29929.797;   -9.701;34137.398
642.097;30953.986;  -11.271;35654.258
642.676;30567.930;   -8.651;35637.957
643.255;30025.541;   -8.711;36567.074
643.833;30754.203;   -9.581;37809.434
644.412;31321.793;  -13.711;37337.293
644.990;32356.504;  -11.811;37018.531
645.569;34503.293;   -9.411;36518.469
646.147;35267.555;  -10.291;36186.430
646.726;34451.016;  -12.401;36267.688
647.304;33334.566;  -10.411;36647.625
647.882;33868.980;   -9.651;39286.742
648.461;33186.801;   -9.631;39157.703
649.039;29995.553;  -11.881;35412.883
649.617;29609.127;   -9.661;34744.918
650.195;30203.773;   -9.301;35403.098
650.773;29684.158;  -10.511;35053.797
651.352;29228.369;  -11.521;33756.816
651.930;28688.504;  -12.211;31868.773
652.508;28390.381;   -9.171;33121.551
653.086;29461.398;   -9.371;33564.793
653.663;31917.230;  -13.161;34054.668
654.241;30550.701;  -13.031;35693.309
654.819;28146.209;   -9.371;36422.906
655.397;28589.756;  -10.511;38213.484
655.975;28772.219;  -10.371;39507.625
656.553;30057.240;  -10.051;39498.223
657.130;30810.268;  -10.061;40395.480
657.708;26980.133;   -9.561;39242.020
658.286;24072.248;  -11.511;38920.020
658.863;24328.947;  -10.261;40202.898
659.441;27155.359;   -7.531;39677.938
660.018;30055.354;   -9.501;40413.355
660.596;30884.857;  -13.301;39931.414
661.173;33319.285;  -11.211;39604.531
661.750;32424.461;   -9.951;39700.070
662.328;29768.514;   -9.390;39292.809
662.905;28178.559;  -11.330;38235.648
663.482;25412.877;   -9.050;36212.305
664.060;23818.316;   -8.240;35944.945
664.637;27535.363;  -10.050;35170.785
665.214;31217.393;  -11.760;34197.523
665.791;30070.941;  -10.530;34549.520
666.368;30861.275;   -9.690;35118.578
666.945;31999.988;   -9.320;36019.418
667.522;32344.080;  -11.860;36048.438
668.099;31859.371;  -10.770;36243.914
668.676;33153.887;   -6.260;35958.875
669.253;34762.973;   -7.000;37384.730
669.830;34122.984;  -10.190;36779.629
670.407;32233.469;   -9.550;35231.289
670.984;31433.598;   -9.260;35544.270
671.560;30479.121;   -9.280;35466.867
672.137;28872.580;  -11.810;34280.863
672.714;28605.338;  -11.490;34632.863
673.290;29242.771;   -7.740;35135.422
673.867;29099.359;  -10.660;36114.480
674.443;28087.545;  -12.230;36152.859
675.020;26987.279;  -10.450;35327.238
675.596;25772.746;   -9.260;35795.176
676.173;26634.738;  -10.780;35430.355
676.749;27313.207;  -13.690;33549.516
677.326;28008.768;  -11.980;32210.012
677.902;25849.193;   -8.630;32068.871
678.478;24759.643;  -10.730;32583.891
679.054;26636.373;  -10.520;32088.928
679.631;27396.402;  -11.920;30978.848
680.207;27996.717;   -7.490;33160.887
680.783;29629.359;   -9.860;35570.363
681.359;31361.645;  -13.380;36125.184
681.935;31577.100;  -12.480;35240.922
682.511;31400.895;   -7.900;34429.961
683.087;30903.807;   -7.710;34463.680
683.663;31547.025;  -11.480;34648.898
684.239;31741.732;  -14.090;34546.457
684.815;33126.520;   -7.560;35586.375
685.390;33048.105;   -9.910;35821.895
685.966;32212.318;  -11.159;35085.871
686.542;32744.752;  -11.169;34198.230
687.118;31454.994;   -5.959;32847.707
687.693;31315.764;  -10.329;32794.027
688.269;30676.092;  -12.059;33072.367
688.844;31105.801;  -10.909;33141.664
689.420;31895.543;   -8.019;33965.742
689.995;28746.029;   -8.399;34655.523
690.571;27855.387;  -10.949;33576.742
691.146;27223.330;   -9.619;32657.219
691.722;25668.791;   -8.999;32526.979
692.297;25500.518;  -11.589;33014.617
692.872;26229.789;  -11.739;34012.254
693.448;26319.787;  -11.059;34237.434
694.023;28098.082;  -10.139;34142.672
694.598;30343.309;   -9.029;34132.031
695.173;29756.229;  -13.319;34205.250
695.748;27162.404;  -10.169;32882.488
696.323;25332.695;   -8.339;32864.906
696.898;25969.830;   -8.169;33170.004
697.473;28804.543;  -12.309;32432.984
698.048;27561.256;  -10.989;31649.303
698.623;26241.600;   -9.329;30778.141
699.198;27622.322;   -9.849;31140.119
699.773;29109.010;  -12.329;31764.299
700.348;28891.904;  -10.389;31780.816
700.922;27057.178;   -9.269;32046.375
701.497;25927.844;   -9.329;32603.574
702.072;27764.344;  -10.789;34799.871
702.646;27946.094;  -10.839;35793.172
703.221;28881.416;   -9.099;35201.590
703.795;29167.965;  -10.939;34764.527
704.370;27510.781;  -12.859;34307.367
704.944;28695.398;  -11.559;33509.887
705.519;29643.617;   -7.939;31388.584
706.093;30999.846;  -10.499;31340.104
706.668;32012.150;  -11.289;32630.281
707.242;31202.613;  -11.509;32728.779
707.816;30161.633;   -9.639;32947.238
708.390;29684.922;  -11.429;33277.855
708.965;30600.750;  -11.869;33834.336
709.539;30926.658;  -11.689;33709.273
710.113;30907.889;  -10.478;33044.313
710.687;28506.086;  -10.228;31953.992
711.261;27458.287;  -13.698;30505.949
711.835;26960.736;  -13.378;30262.369
712.409;27126.098;   -9.698;31254.447
712.983;26144.602;  -11.898;32754.986
713.557;24798.410;  -15.138;34018.824
714.131;26540.512;  -14.098;34579.625
714.704;26548.951;   -9.958;33890.262
715.278;26182.115;  -10.028;33531.102
715.852;25538.766;  -11.148;33601.660
716.425;24938.576;   -9.068;33515.117
716.999;26156.055;  -10.038;33185.555
717.573;26416.811;   -9.798;33905.996
718.146;27927.029;  -12.378;35199.293
718.720;28714.068;  -11.918;35060.551
719.293;27772.984;   -8.088;34973.230
719.867;26715.162;  -10.888;36394.449
720.440;27566.430;  -11.938;36663.008
721.013;29907.115;  -12.818;35102.426
721.587;31544.701;  -10.298;33985.266
722.160;30968.666;  -10.048;33524.965
722.733;28685.545;  -12.108;32987.043
723.306;26588.859;  -10.818;33066.301
723.880;27115.107;   -8.908;33399.500
724.453;25909.098;   -9.878;33468.297
725.026;25694.641;  -11.188;33816.637
725.599;26127.180;  -11.678;32797.996
726.172;25621.762;   -9.618;33187.434
726.745;26595.938;   -8.258;35136.613
727.318;29467.031;  -12.978;35751.730
727.891;31000.738;  -12.148;35890.430
728.463;31974.717;   -8.968;34822.090
729.036;31916.203;  -10.188;32895.086
729.609;29760.877;  -11.788;31823.225
730.182;28277.863;  -11.788;31445.283
730.754;27764.863;  -10.268;32373.223
731.327;27604.900;   -9.998;33676.820
731.900;26733.162;  -12.228;33417.000
732.472;25745.232;  -13.848;31978.498
733.045;25823.395;   -8.698;30368.777
733.617;25455.539;  -10.607;30574.215
734.190;23457.646;  -11.507;31280.975
734.762;23874.268;  -13.647;31674.412
735.334;25408.820;   -9.767;31247.291
735.907;25022.154;   -9.897;29876.211
736.479;22776.775;  -11.637;29808.488
737.051;22815.496;   -9.567;30233.547
737.623;23668.238;   -8.187;31469.086
738.195;24950.816;  -11.187;31784.225
738.768;25405.371;  -12.337;32120.523
739.340;25172.826;  -12.227;32094.342
739.912;24977.049;  -11.057;31312.680
740.484;25653.889;  -10.207;31946.238
741.056;26914.398;  -10.047;32984.059
741.628;26754.807;  -13.627;33897.715
742.199;27308.416;   -7.177;33213.016
742.771;25411.996;  -10.797;31369.113
743.343;23900.561;  -11.997;31865.473
743.915;23644.861;  -12.867;32388.631
744.487;24067.805;   -7.617;31079.568
745.058;25232.809;   -9.557;30570.107
745.630;24776.160;   -9.877;29970.127
746.201;23272.758;  -14.177;29186.766
746.773;23032.918;   -9.237;28805.723
747.344;23498.207;   -9.847;29591.223
747.916;23205.287;  -11.657;31412.201
748.487;22142.111;  -10.587;32194.898
749.059;22046.344;   -8.707;32533.719
749.630;21195.168;  -10.537;32158.518
750.201;21106.146;  -11.687;30855.395
750.773;21652.570;  -11.647;28622.555
751.344;23259.289;   -7.147;28405.732
751.915;23290.373;   -9.757;28461.551
752.486;23058.809;  -12.427;27842.850
753.057;21739.328;  -12.227;27845.008
753.628;21082.723;  -10.417;27728.107
754.199;20857.717;  -11.767;27381.086
754.770;20308.834;  -11.187;25882.203
755.341;19780.701;  -10.507;25886.184
755.912;19967.869;   -9.387;26050.861
756.483;20373.824;  -10.647;26798.779
757.054;19581.566;  -11.837;27048.238
757.625;17887.564;  -12.716;26294.838
758.195;17633.953;   -9.666;26142.076
758.766;18514.967;   -8.656;26392.234
759.337;18023.818;  -12.856;26334.594
759.907;17144.963;  -13.366;27579.652
760.478;16437.844;   -8.576;28352.770
761.048;16876.607;  -10.526;27325.088
761.619;17416.045;  -11.116;26460.428
762.189;17024.510;  -12.136;26029.826
762.760;16788.777;   -9.456;26430.145
763.330;16797.973;   -7.136;26670.902
763.900;16596.877;  -11.786;26603.021
764.471;16077.564;  -11.546;25542.740
765.041;16001.407;   -8.096;24358.459
765.611;15927.111;   -8.876;23991.297
766.181;16025.503;  -12.196;24470.236
766.751;16945.967;  -11.636;24845.975
767.321;16926.365;  -10.156;24533.633
767.891;16486.932;  -11.766;24916.492
768.461;16221.881;  -14.936;24776.771
769.031;15552.406;  -12.356;24757.988
769.601;15294.777;   -7.526;24181.088
770.171;15448.836;  -10.766;23670.387
770.741;16128.329;  -13.176;22960.045
771.311;15878.517;  -10.616;22917.523
771.880;14586.385;   -9.576;23562.941
772.450;14046.512;  -10.336;24216.500
773.020;14358.982;  -13.516;24140.398
773.589;14569.487;  -13.466;24414.857
774.159;14156.384;   -8.686;23858.717
774.729;13289.739;   -9.476;22942.135
775.298;13172.260;  -13.666;22324.033
775.867;13135.136;  -11.716;21140.313
776.437;12434.189;   -9.906;20838.092
777.006;12302.995;  -12.166;20599.510
777.576;13451.867;  -12.356;20508.809
778.145;13144.779;  -11.646;20732.947
778.714;12531.099;   -8.226;21062.465
779.283;12357.227;   -9.556;20949.664
779.853;12021.180;  -14.116;20508.623
780.422;11795.606;  -11.506;20649.082
780.991;12167.220;   -9.556;21527.520
781.560;12755.929;   -9.095;22632.658
782.129;11902.113;  -12.135;23048.277
782.698;11183.094;  -10.865;23438.555
783.267;10827.978;   -9.335;23267.734
783.836;10969.454;  -11.045;22415.133
784.404;11389.473;  -13.865;20443.152
784.973;11535.774;  -13.095;19699.150
785.542;11334.515;  -11.575;19763.828
786.111;11177.989;   -9.705;20341.408
786.679;11178.432;  -12.105;20207.967
787.248;11177.561;  -12.455;19516.465
787.817;11247.036;  -11.535;18900.363
788.385;11056.934;   -9.765;17879.121
788.954;10928.171;  -14.005;17658.301
789.522;10830.592;  -11.955;17788.879
790.090;10113.003;  -10.135;18118.277
790.659; 9484.195;  -10.975;18338.736
791.227; 9707.665;  -13.375;18508.615
791.795;10143.263;  -12.375;17898.254
792.364;10377.547;  -10.725;17295.133
792.932;10723.251;   -9.715;16822.051
793.500;10769.298;  -12.675;17040.148
794.068;11258.437;  -13.495;17179.787
794.636;11392.947;  -10.885;16664.246
795.204;11156.953;  -11.045;16524.545
795.772;11226.589;  -13.175;17274.564
796.340;10881.944;  -12.445;17891.002
796.908;10893.105;   -9.735;17648.561
797.476;11254.351;   -9.815;17064.080
798.044;11157.318;  -13.985;16672.777
798.612;10513.352;  -13.115;17023.996
799.180; 9616.860;  -10.185;16561.615
799.747; 9577.834;   -9.055;15962.773
800.315;10026.302;  -12.385;15296.992
800.883; 9454.718;  -15.035;14801.771
801.450; 8868.890;  -10.365;14534.430
802.018; 8758.199;   -9.855;14173.248
802.585; 8792.749;  -11.905;14029.547
803.153; 8919.463;  -11.585;13836.846
803.720; 8651.436;   -9.095;13567.324
804.287; 8515.941;   -9.135;13360.622
804.855; 8654.071;  -11.604;13681.981
805.422; 9169.427;  -11.794;13536.560
805.989; 9375.831;  -10.734;13355.958
806.556; 9353.298;  -10.444;13747.896
807.124; 9899.961;  -12.764;13987.376
807.691;10314.757;  -12.964;14038.674
808.258;10261.203;  -11.134;14120.152
808.825;10355.380;   -9.854;13860.111
809.392;10041.336;  -10.504;13268.790
809.959; 9248.859;  -13.054;12680.389
810.526; 8429.843;   -8.294;12427.308
811.093; 7674.844;   -8.394;12030.105
811.659; 7441.100;  -12.304;11653.664
812.226; 7659.061;  -13.944;11637.183
812.793; 8065.184;  -10.484;11611.521
813.360; 8157.986;  -10.144;11885.181
813.926; 8222.403;  -11.684;12770.539
814.493; 8139.722;  -13.644;12677.638
815.060; 8078.311;   -9.724;11974.336
815.626; 8293.738;   -9.854;11594.715
816.193; 8288.414;  -13.254;11579.474
816.759; 7547.781;  -13.204;11666.972
817.325; 7098.735;   -9.434;11325.530
817.892; 6983.491;  -10.134;11105.369
818.458; 7174.681;  -13.474;10843.928
819.024; 7541.482;  -11.854;10714.406
819.591; 7450.745;  -10.244;10469.165
820.157; 7147.842;  -10.704;10235.523
820.723; 7151.614;  -12.324;10847.563
821.289; 7009.536;   -9.444;11040.980
821.855; 7043.873;   -8.374;10357.100
822.421; 7388.441;  -10.234; 9978.918
822.987; 7360.138;  -13.294; 9754.177
823.553; 7081.838;  -10.884;10065.755
824.119; 6782.493;   -8.884;10036.294
824.685; 6161.321;   -6.784;10029.192
825.251; 5931.744;  -12.004;10199.230
825.816; 5571.210;  -11.474; 9820.189
826.382; 5356.833;   -9.174; 9297.248
826.948; 5700.450;   -9.214; 9381.347
827.513; 6089.065;  -10.774; 9450.726
828.079; 6072.576;  -11.924; 9472.444
828.645; 5840.984;  -10.543; 9292.643
829.210; 5666.131;  -10.533; 9065.341
829.776; 5573.300;  -10.753; 9132.620
830.341; 5726.913;  -10.173; 9092.878
830.906; 5758.388;  -10.743; 9078.557
831.472; 5557.710;  -11.113; 8534.535
832.037; 5230.491;  -10.603; 8677.874
832.602; 5072.099;  -13.323; 8628.692
833.167; 4804.395;  -10.823; 8879.031
833.733; 4627.682;  -10.113; 9189.790
834.298; 4411.555;  -13.583; 9052.608
834.863; 4566.240;  -12.703; 8895.087
835.428; 4724.648;  -10.523; 8824.266
835.993; 4643.387;   -6.963; 8845.385
836.558; 4631.821;  -10.763; 8888.563
837.123; 4819.854;   -9.903; 8966.582
837.688; 5221.976;   -9.913; 8617.860
838.253; 5242.144;  -10.283; 8590.699
838.817; 4910.205;  -12.963; 8443.797
839.382; 4802.460;  -14.243; 8799.356
839.947; 4833.306;  -10.733; 8810.595
840.511; 4778.330;   -9.383; 8796.394
841.076; 4628.430;  -12.563; 8347.231
841.641; 4490.797;  -12.953; 8224.330
842.205; 4379.473;   -7.043; 8223.349
842.770; 4157.785;   -8.163; 8622.107
843.334; 4330.507;  -12.503; 8410.386
843.898; 4550.395;  -11.693; 8337.465
844.463; 4126.532;  -10.203; 8506.283
845.027; 3803.561;   -9.533; 8280.962
845.591; 3809.850;  -13.443; 8231.141
846.156; 3821.620;  -13.143; 7969.179
846.720; 3655.158;   -9.433; 7768.278
847.284; 3634.738;  -11.033; 7630.957
847.848; 3711.627;  -10.403; 7472.395
848.412; 3556.880;  -11.553; 7437.394
848.976; 3403.160;   -8.393; 7674.592
849.540; 3370.438;   -8.713; 7836.011
850.104; 3402.157;  -12.463; 7913.669
850.668; 3498.894;  -12.973; 7694.508
851.232; 3462.028;  -10.793; 7756.887
851.796; 3499.346;  -10.662; 7926.545
852.359; 3592.787;  -13.082; 7827.844
852.923; 3597.910;  -12.192; 7641.163
853.487; 3597.064;  -11.912; 7342.501
854.050; 3433.786;  -10.892; 7042.820
854.614; 3532.298;  -13.992; 7151.338
855.177; 3609.721;  -11.732; 7105.077
855.741; 3445.535;   -8.962; 6989.675
856.304; 3281.167;   -9.442; 6596.634
856.868; 3122.745;  -14.192; 6356.272
857.431; 3094.674;  -12.702; 6468.571
857.995; 3177.886;   -9.942; 6373.210
858.558; 3312.254;   -9.112; 6324.448
859.121; 3230.680;  -12.932; 6408.327
859.684; 3123.405;  -13.442; 6347.886
860.247; 3075.309;  -10.632; 6321.264
860.810; 3019.216;  -11.272; 6301.903
861.374; 2932.229;   -9.832; 6607.881
861.937; 2821.248;  -11.762; 6408.200
862.500; 2800.031;   -9.722; 6572.639
863.062; 2751.531;  -10.512; 6387.297
863.625; 2728.186;  -11.232; 6190.836
864.188; 2776.567;  -14.112; 5807.254
864.751; 2809.198;  -11.302; 5682.413
865.314; 2708.850;  -10.112; 5547.492
865.876; 2591.036;  -12.182; 5500.150
866.439; 2463.280;  -10.722; 5415.909
867.002; 2363.990;   -9.252; 5501.567
867.564; 2439.247;   -9.572; 5413.946
868.127; 2475.096;  -13.142; 5160.325
868.689; 2505.316;  -12.902; 5133.183
869.252; 2586.260;   -9.732; 5252.382
869.814; 2521.242;   -9.432; 5297.141
870.377; 2435.392;  -11.552; 5390.919
870.939; 2420.619;   -9.052; 5599.898
871.501; 2348.375;  -10.982; 5248.336
872.063; 2253.538;  -12.292; 4854.235
872.626; 2197.275;  -14.912; 4817.074
873.188; 2111.476;  -13.112; 4987.732
873.750; 2086.631;  -13.442; 4868.651
874.312; 2064.807;   -9.402; 4779.330
874.874; 2041.226;  -11.062; 4866.348
875.436; 1918.241;  -13.931; 4718.887
875.998; 1781.874;   -9.561; 4660.005
876.560; 1758.604;  -11.321; 4462.964
877.122; 1822.076;  -12.221; 4145.042
877.683; 1939.210;  -12.191; 4056.481
878.245; 1989.613;  -12.101; 3950.740
878.807; 2026.913;   -8.971; 4058.958
879.369; 1964.288;  -12.071; 3954.677
879.930; 1814.859;  -14.621; 3941.495
880.492; 1725.107;  -10.311; 4067.014
881.053; 1715.399;  -10.901; 3859.633
881.615; 1678.835;  -14.411; 3776.071
882.176; 1605.063;  -13.761; 3734.750
882.738; 1545.223;   -9.181; 3678.489
883.299; 1538.401;  -11.791; 3405.407
883.860; 1547.664;  -13.121; 3351.106
884.422; 1481.317;  -11.211; 3394.044
884.983; 1390.442;  -10.091; 3166.443
885.544; 1344.926;   -8.461; 3189.802
886.105; 1274.274;  -12.361; 3160.360
886.666; 1207.858;  -14.141; 3093.059
887.227; 1181.385;  -11.361; 2941.957
887.788; 1119.467;  -11.401; 2974.836
888.349; 1015.049;  -13.791; 2721.214
888.910;  970.674;  -13.191; 2696.493
889.471;  942.966;   -9.881; 2560.172
890.032;  949.672;   -9.881; 2558.190
890.593;  927.334;  -10.371; 2567.669
891.153;  832.260;  -13.301; 2460.307
891.714;  733.094;  -11.431; 2372.046
892.275;  693.918;  -11.291; 2309.505
892.835;  697.899;  -11.471; 2382.543
893.396;  679.769;  -11.541; 2295.502
893.956;  652.118;  -11.181; 2162.420
894.517;  609.179;  -11.741; 2125.439
895.077;  554.759;  -11.671; 2086.978
895.638;  517.684;  -11.311; 2126.316
896.198;  508.386;   -9.831; 1838.275
896.758;  495.062;   -8.421; 1892.813
897.319;  471.939;  -12.351; 1792.232
897.879;  449.979;  -13.511; 1762.751
898.439;  413.547;  -12.001; 1661.149
898.999;  389.584;  -10.180; 1781.468
899.559;  384.688;  -12.030; 1703.347
900.119;  373.788;  -15.710; 1537.525
900.679;  359.803;   -8.900; 1638.384
901.239;  338.808;   -8.340; 1527.902
901.799;  309.218;  -13.910; 1456.441
902.359;  288.695;  -13.460; 1357.140
902.919;  282.911;  -11.490; 1331.118
903.479;  282.503;  -12.110; 1317.257
904.038;  274.660;  -11.720; 1262.595
904.598;  264.190;  -13.610; 1152.034
905.158;  252.630;  -11.040; 1240.893
905.717;  237.359;  -10.900; 1233.691
906.277;  229.219;  -15.080; 1217.330
906.836;  227.635;  -13.380; 1222.408
907.396;  224.224;  -10.780; 1193.047
907.955;  215.554;   -8.500; 1182.526
908.515;  210.322;  -12.760; 1099.364
909.074;  210.385;  -11.900; 1092.863
909.633;  209.031;   -8.950; 1069.121
910.192;  206.732;   -8.770; 1196.460
910.752;  194.678;  -12.390; 1029.960
911.311;  184.370;  -13.680; 1009.780
911.870;  174.862;  -12.370;  971.460
912.429;  169.459;  -10.900; 1094.080
912.988;  166.790;  -11.690; 1081.060
913.547;  164.431;  -13.240;  940.380
914.106;  162.977;  -11.990;  999.420
914.665;  161.613;   -9.990;  984.020
915.224;  159.618;  -12.880; 1035.760
915.782;  157.044;  -12.350;  922.560
916.341;  155.820;   -9.110; 1049.840
916.900;  152.846;   -9.270;  925.260
917.458;  150.760;  -13.240;  884.220
918.017;  149.368;  -13.550;  942.600
918.576;  147.432;  -12.320;  904.440
919.134;  145.758;  -11.490;  837.980
919.693;  143.186;  -13.670;  893.060
920.251;  142.561;  -15.470;  876.500
920.809;  142.234;  -11.290;  839.580
921.368;  141.908;  -10.210;  885.360
921.926;  139.168;  -12.140;  842.940
922.484;  136.929;  -13.080;  903.360
923.042;  137.157;  -11.720;  880.340
923.601;  137.423;   -7.480;  998.680
924.159;  135.085;  -11.570;  935.560
924.717;  133.176;  -13.840;  841.080
925.275;  133.251;  -10.640;  903.240
925.833;  132.694;  -11.540;  779.320
926.391;  133.491;  -12.960;  938.380
926.949;  133.624;  -14.130;  857.680
927.506;  132.646;  -11.750;  903.500
928.064;  133.614;  -10.250;  877.580
928.622;  133.214;  -13.030;  880.100
929.180;  134.853;  -13.400;  814.180
929.737;  137.545;  -10.700;  808.540
930.295;  140.251;  -10.070;  928.480
930.853;  140.243;  -11.960;  849.100
931.410;  140.797;  -13.120;  821.120
931.968;  143.371;  -10.770;  940.660
932.525;  142.716;  -10.680;  909.380
933.082;  143.053;  -13.130;  811.440
933.640;  144.461;  -13.210;  925.900
934.197;  143.236;  -11.060;  886.360
934.754;  144.020;   -9.580;  897.780
935.312;  145.174;  -14.000;  863.340
935.869;  147.302;  -10.710; 1012.980
936.426;  145.491;   -9.860;  872.800
936.983;  144.844;   -9.710;  889.020
937.540;  146.301;  -13.990;  838.280
938.097;  150.058;  -14.040;  940.120
938.654;  154.478;  -10.310;  898.860
939.211;  154.572;  -10.560;  952.480
939.768;  154.031;  -13.900;  915.420
940.324;  156.526;  -14.760;  904.200
940.881;  159.673;  -10.370;  878.500
941.438;  164.044;   -8.260; 1021.200
941.995;  162.300;  -12.540;  992.560
942.551;  162.822;  -14.670;  875.620
943.108;  164.523;  -10.450;  937.920
943.664;  164.881;  -10.750;  869.340
944.221;  170.467;  -11.550; 1088.140
944.777;  169.486;  -14.770;  869.680
945.334;  167.033;  -12.820;  884.840
945.890;  162.933;  -10.130;  946.480
946.446;  159.991;  -13.470;  947.020
947.003;  162.278;  -12.120;  964.940
947.559;  162.744;   -9.980; 1063.040
948.115;  159.487;   -9.080; 1026.540
948.671;  156.162;  -10.830;  967.300
949.227;  156.419;  -12.440;  859.560
949.783;  156.214;  -12.910;  858.900
950.339;  162.058;  -10.270;  991.000
950.895;  163.079;  -13.630; 1023.840
951.451;  162.660;  -15.100;  925.280
952.007;  159.406;  -11.330;  998.540
952.563;  154.857;  -10.580;  937.780
953.118;  151.536;  -13.440;  904.940
953.674;  151.008;  -12.710;  935.780
954.230;  154.383;  -10.350;  949.640
954.785;  159.426;   -9.190;  936.640
955.341;  160.584;  -11.200;  998.160
955.897;  155.954;  -16.560;  834.660
956.452;  153.134;  -12.570;  953.840
957.008;  151.330;   -7.970; 1083.640
957.563;  145.765;  -11.940; 1009.540
958.118;  141.591;  -13.450;  877.700
958.674;  140.102;  -12.030;  946.780
959.229;  142.414;   -9.410; 1013.980
959.784;  142.592;  -12.000;  832.400
960.339;  143.779;  -14.780; 1001.280
960.894;  143.285;   -9.860;  963.760
961.449;  139.510;   -9.970;  859.960
962.004;  141.048;  -10.900; 1212.840
962.559;  140.071;  -13.150;  860.140
963.114;  138.147;  -13.740;  742.480
963.669;  136.933;   -9.820;  915.500
964.224;  132.263;  -13.890;  874.340
964.779;  126.581;  -12.600;  828.420
965.334;  119.483;  -10.950; 1017.860
965.888;  109.151;  -11.170;  875.360
966.443;  101.787;  -12.540;  972.380
966.998;   94.595;  -15.780;  819.460
967.552;   93.553;   -9.760;  908.380
968.107;   94.216;   -9.060;  868.300
968.661;   98.001;  -11.950;  922.440
969.216;   99.569;  -12.800;  856.280
969.770;  100.970;  -11.210;  917.200
970.324;  103.764;  -11.610;  923.140
970.879;  105.133;  -11.370;  947.180
971.433;  106.922;  -12.540;  952.720
971.987;  105.494;  -11.320;  895.340
972.541;  104.538;  -10.720;  917.100
973.095;  105.096;   -9.680; 1009.460
973.649;  101.705;  -11.440;  809.480
974.203;  102.078;  -11.210;  829.040
974.757;  102.139;  -10.240;  855.220
975.311;  102.600;  -13.720;  872.600
975.865;  102.996;  -13.770;  881.820
976.419;  100.311;  -11.690;  857.400
976.973;   98.281;   -9.510;  849.620
977.526;   96.757;  -12.620;  949.920
978.080;   93.955;  -12.010;  796.780
978.634;   93.955;  -10.170;  921.320
979.187;   93.735;   -9.020;  905.400
979.741;   96.223;   -9.820; 1018.380
980.294;   93.592;  -14.870;  789.160
980.848;   92.983;  -12.380;  717.220
981.401;   93.367;  -10.350;  816.540
981.955;   92.641;  -13.720;  844.300
982.508;   88.676;  -11.490;  746.340
983.061;   89.195;  -10.000;  915.260
983.615;   87.577;  -11.480;  798.800
984.168;   85.647;  -13.220;  770.080
984.721;   83.524;  -13.960;  880.760
985.274;   82.283;  -10.870;  867.500
985.827;   80.494;   -9.790;  834.220
986.380;   77.941;  -13.120;  721.340
986.933;   77.292;  -12.450;  864.800
987.486;   76.314;  -10.210;  861.920
988.039;   78.349;   -8.430;  863.100
988.591;   76.299;  -10.520;  893.260
989.144;   74.540;  -14.860;  737.260
989.697;   73.402;  -13.080;  758.740
990.250;   72.681;  -10.150;  858.100
990.802;   71.083;  -13.430;  755.860
991.355;   70.853;  -12.750;  974.880
991.907;   68.534;  -12.040;  864.320
992.460;   66.214;  -11.330;  753.760
993.012;   65.983;  -13.610;  749.540
993.565;   63.421;  -13.460;  711.360
994.117;   64.352;   -9.360;  950.780
994.669;   61.362;  -11.300;  701.320
995.221;   61.367;  -13.540;  791.920
995.774;   59.801;  -13.430;  787.580
996.326;   57.878;  -12.520;  740.220
996.878;   58.104;  -10.950;  838.420
997.430;   55.543;  -14.300;  699.860
997.982;   54.604;  -13.760;  750.140
998.534;   54.492;  -11.530;  739.060
999.086;   53.864;  -10.310;  738.220
999.638;   53.129;  -12.530;  661.380
1000.190;   50.655;  -11.840;  699.320
1000.741;   50.648;  -10.260;  742.700
1001.293;   50.371;   -8.860;  686.020
1001.845;   49.198;  -13.700;  676.640
1002.396;   49.219;  -12.100;  743.400
1002.948;   48.484;  -12.760;  737.400
1003.500;   47.506;  -10.380;  723.780
1004.051;   48.183;  -11.900;  907.580
1004.603;   46.608;  -12.250;  791.820
1005.154;   43.465;  -13.210;  608.980
1005.705;   42.553;  -10.950;  723.960
1006.257;   41.825;  -13.880;  707.220
1006.808;   40.132;  -12.840;  685.460
1007.359;   39.569;  -10.570;  763.240
1007.910;   39.556;   -9.620;  646.640
1008.461;   39.045;  -13.630;  732.940
1009.013;   38.148;  -17.200;  588.340
1009.564;   38.967;  -10.200;  793.520
1010.115;   36.809;  -12.570;  597.040
1010.665;   36.997;  -15.150;  602.160
1011.216;   36.432;  -14.480;  667.920
1011.767;   36.384;  -11.340;  697.920
1012.318;   36.854;   -9.780;  736.980
1012.869;   35.051;  -12.380;  679.000
1013.419;   35.063;  -15.560;  603.120
1013.970;   35.556;  -11.010;  666.640
1014.521;   34.918;  -11.610;  620.620
1015.071;   35.056;  -13.450;  670.380
1015.622;   34.821;  -13.870;  635.460
1016.172;   34.157;  -11.610;  596.820
1016.723;   33.719;  -12.120;  614.380
1017.273;   32.886;  -13.620;  604.160
1017.823;   32.321;  -14.140;  650.340
1018.374;   32.734;  -12.800;  611.760
1018.924;   32.244;  -12.340;  716.880
1019.474;   33.283;  -11.410;  718.880
1020.024;   31.074;  -14.770;  657.580
1020.574;   32.622;   -9.780;  726.160
1021.124;   32.718;   -8.560;  673.580
1021.674;   31.556;  -15.190;  559.120
1022.224;   32.031;  -13.530;  708.940
1022.774;   31.290;  -13.280;  668.820
1023.324;   32.304;  -10.690;  753.520
1023.874;   33.038;  -10.240;  875.760
1024.423;   30.738;  -12.540;  613.700
1024.973;   30.394;  -10.010;  610.760
1025.523;   29.850;  -10.550;  620.960
1026.072;   28.989;  -13.560;  606.420
1026.622;   29.246;  -15.120;  675.740
1027.172;   30.430;  -11.260;  715.660
1027.721;   29.590;  -11.410;  601.220
1028.270;   29.528;  -13.530;  663.400
1028.820;   28.924;  -13.680;  638.080
1029.369;   28.696;  -13.520;  612.700
1029.918;   28.849;  -10.980;  649.840
1030.468;   28.708;  -13.530;  564.780
1031.017;   28.373;  -13.170;  634.800
1031.566;   28.027;  -12.200;  608.900
1032.115;   27.965;   -9.960;  694.500
1032.664;   26.859;  -13.210;  596.480
1033.213;   27.748;  -12.500;  735.420
1033.762;   26.127;  -11.910;  635.620
1034.311;   27.294;   -9.640;  677.220
1034.860;   27.183;  -13.310;  691.000
1035.408;   27.355;  -11.830;  722.720
1035.957;   27.010;  -12.000;  719.540
1036.506;   24.805;  -11.690;  530.800
1037.055;   27.675;  -10.990;  844.320
1037.603;   25.665;  -15.120;  664.000
1038.152;   24.880;  -12.450;  534.760
1038.700;   24.945;  -10.560;  585.740
1039.249;   25.479;  -11.080;  681.220
1039.797;   25.122;  -12.540;  633.360
1040.345;   24.977;  -11.920;  705.420
1040.894;   24.199;  -11.410;  625.300
1041.442;   23.995;  -14.320;  632.200
1041.990;   23.238;  -16.240;  559.160
1042.538;   23.109;  -11.680;  536.180
1043.087;   23.322;  -10.760;  570.860
1043.635;   24.695;  -11.850;  670.500
1044.183;   23.378;  -15.480;  586.400
1044.731;   23.001;  -11.770;  576.000
1045.279;   23.646;  -13.090;  674.920
1045.827;   24.719;  -12.440;  892.400
1046.374;   22.130;  -13.840;  515.420
1046.922;   21.170;  -13.220;  590.580
1047.470;   23.405;  -10.230;  691.300
1048.018;   23.623;  -14.590;  647.960
1048.565;   22.723;  -12.050;  708.600
1049.113;   21.003;  -11.650;  557.000
1049.660;   20.972;  -10.510;  629.660
1050.208;   21.852;  -13.310;  675.640
1050.755;   21.121;  -15.900;  606.580
1051.303;   21.595;  -11.430;  686.820
1051.850;   21.599;   -8.480;  635.120
1052.397;   19.707;  -15.010;  473.960
1052.945;   20.619;  -13.960;  617.760
1053.492;   21.612;  -13.150;  741.840
1054.039;   22.178;   -9.630;  720.180
1054.586;   19.883;  -13.680;  557.240
1055.133;   20.614;  -14.570;  693.140
1055.680;   20.642;  -13.820;  646.620
1056.227;   19.602;  -11.730;  542.780
1056.774;   20.986;  -12.480;  794.980
1057.321;   18.886;  -13.930;  523.260
1057.868;   19.638;  -11.690;  651.320
1058.415;   19.326;   -9.520;  651.980
1058.961;   20.273;  -13.160;  678.940
1059.508;   19.341;  -12.920;  643.820
1060.055;   18.868;  -11.920;  581.780
1060.601;   19.984;  -11.500;  624.300
1061.148;   19.011;  -14.330;  616.820
1061.694;   18.002;  -16.870;  592.580
1062.241;   18.654;  -10.330;  596.320
1062.787;   18.645;  -10.620;  663.140
1063.334;   19.734;  -10.110;  808.560
1063.880;   18.432;  -13.400;  668.360
1064.426;   18.211;  -10.680;  706.820
1064.972;   17.485;   -9.920;  601.340
1065.518;   17.116;  -10.980;  566.640
1066.065;   17.900;  -14.890;  624.460
1066.611;   17.155;  -12.870;  598.800
1067.157;   18.029;  -12.950;  641.860
1067.703;   17.587;  -13.540;  668.480
1068.249;   17.118;  -13.540;  605.220
1068.794;   16.561;  -12.600;  626.880
1069.340;   15.679;  -10.620;  578.960
1069.886;   16.971;  -12.830;  590.700
1070.432;   15.427;  -14.870;  541.720
1070.977;   15.518;  -11.980;  601.080
1071.523;   16.474;   -8.200;  573.060
1072.068;   15.697;  -12.330;  582.000
1072.614;   15.902;  -16.370;  527.760
1073.160;   15.911;  -11.100;  687.040
1073.705;   15.555;  -10.480;  572.520
1074.250;   15.171;  -14.520;  559.900
1074.796;   16.237;  -11.460;  655.160
1075.341;   15.293;  -11.950;  664.100
1075.886;   14.927;  -11.460;  594.240
1076.431;   15.053;  -13.770;  649.880
1076.976;   14.334;  -12.680;  639.220
1077.521;   13.941;  -13.170;  583.080
1078.067;   14.224;  -10.860;  579.400
1078.612;   14.477;  -13.920;  661.620
1079.156;   13.942;  -13.880;  601.540
1079.701;   14.810;  -13.120;  693.260
1080.246;   14.866;   -9.940;  696.300
1080.791;   14.081;  -14.740;  625.020
1081.336;   14.073;  -13.750;  659.320
1081.880;   13.842;  -13.400;  649.680
1082.425;   13.393;  -12.220;  573.480
1082.970;   14.812;  -11.610;  717.040
1083.514;   13.904;  -13.580;  597.000
1084.059;   12.433;  -12.810;  586.720
1084.603;   12.525;  -12.320;  565.840
1085.147;   13.064;  -13.190;  645.220
1085.692;   14.171;  -12.480;  716.800
1086.236;   12.448;  -13.020;  503.140
1086.780;   14.009;   -9.190;  751.440
1087.325;   13.489;  -12.480;  654.620
1087.869;   12.163;  -12.450;  610.700
1088.413;   12.747;  -12.240;  705.040
1088.957;   11.416;   -9.020;  543.400
1089.501;   12.945;  -10.320;  766.640
1090.045;   11.570;  -12.720;  726.480
1090.589;   10.486;  -13.690;  569.920
1091.133;   12.456;  -10.020;  673.340
1091.676;   11.697;  -12.330;  591.940
1092.220;   11.546;  -14.970;  600.920
1092.764;   11.886;  -12.430;  706.960
1093.307;   11.802;   -9.800;  673.780
1093.851;   10.409;  -14.970;  556.540
1094.395;   11.619;  -15.310;  683.140
1094.938;   10.896;  -10.370;  632.520
1095.482;   11.003;  -11.050;  559.800
1096.025;   11.293;  -11.840;  710.880
1096.568;   11.600;  -12.840;  779.280
1097.112;   10.021;  -14.700;  508.180
1097.655;   11.067;   -8.720;  603.000
1098.198;    9.860;  -13.610;  600.180
1098.741;   10.382;  -13.350;  612.860
1099.285;   10.695;  -11.230;  657.300
1099.828;    8.460;  -11.840;  439.400
1100.371;    9.769;  -10.840;  608.160
1100.914;    9.852;  -14.190;  682.660
1101.457;    9.185;  -11.240;  679.900
1101.999;    8.672;  -11.270;  584.680
1102.542;    9.953;  -11.480;  641.440
1103.085;    8.930;  -11.750;  658.500
1103.628;    9.684;  -11.400;  762.060
1104.170;    9.027;  -10.490;  588.280
1104.713;    8.995;  -10.600;  646.700
1105.256;    8.080;  -14.360;  557.440
1105.798;    7.950;  -13.210;  499.980
1106.341;    9.836;  -10.270;  728.900
1106.883;    8.111;  -12.200;  521.340
1107.425;    8.215;  -13.110;  668.180
1107.968;    8.095;  -12.840;  612.380
1108.510;    9.089;   -6.480;  684.960
1109.052;    6.913;  -13.940;  612.620
1109.594;    7.539;  -13.690;  554.440
1110.136;    8.575;  -11.880;  643.220
1110.679;    7.754;   -9.500;  633.080
1111.221;    8.207;  -14.160;  604.460
1111.763;    7.021;  -13.980;  559.220
1112.304;    6.368;  -13.880;  547.140
1112.846;    7.598;  -12.210;  666.240
1113.388;   10.426;  -11.390;  942.180
1113.930;    6.968;  -14.540;  694.200
1114.472;    6.672;  -12.640;  606.540
1115.013;    5.302;  -11.620;  551.280
1115.555;    6.187;  -13.640;  587.100
1116.097;    5.531;  -15.380;  579.480
1116.638;    6.654;  -12.640;  684.600
1117.180;    7.307;   -9.850;  667.740
1117.721;    6.380;  -13.690;  568.580
1118.262;    6.774;  -12.680;  677.960
1118.804;    7.234;  -12.530;  637.340
1119.345;    5.610;  -11.690;  578.400
1119.886;    6.684;  -13.380;  704.040
1120.427;    5.297;  -14.070;  589.020
1120.969;    4.879;  -13.500;  597.920
1121.510;    5.283;  -11.480;  563.060
1122.051;    6.163;  -12.830;  723.580
1122.592;    5.564;  -14.290;  655.420
1123.133;    3.705;  -12.400;  547.940
1123.673;    5.903;  -10.130;  706.480
1124.214;    5.497;  -12.930;  612.460
1124.755;    5.280;  -14.380;  639.460
1125.296;    4.994;  -14.000;  627.320
1125.836;    6.343;  -10.070;  691.500
1126.377;    4.665;  -12.640;  599.660
1126.918;    5.167;  -12.960;  614.980
1127.458;    3.600;  -13.350;  622.220
1127.999;    4.902;  -10.750;  656.980
1128.539;    4.955;  -12.350;  694.240
1129.079;    4.065;  -14.860;  632.720
1129.620;    4.022;  -13.840;  558.100
1130.160;    4.105;  -12.330;  539.480
1130.700;    4.598;  -14.530;  640.840
1131.240;    4.719;  -12.530;  643.700
1131.781;    3.313;  -14.450;  619.680
1132.321;    4.020;   -9.790;  599.120
1132.861;    3.264;  -14.860;  564.200
1133.401;    3.180;  -14.290;  593.940
1133.941;    4.219;  -11.750;  626.280
1134.481;    3.532;   -9.920;  597.580
1135.020;    3.253;  -12.290;  609.160
1135.560;    3.839;  -11.650;  674.940
1136.100;    2.886;  -16.270;  501.160
1136.640;    2.940;  -10.890;  510.480
1137.179;    2.524;  -14.180;  537.960
1137.719;    2.751;  -16.250;  605.400
1138.258;    2.636;  -14.230;  587.360
1138.798;    3.294;   -9.090;  663.780
1139.337;    1.640;  -15.130;  482.840
1139.877;    2.398;  -13.680;  642.360
1140.416;    4.349;  -11.320;  878.060
1140.955;    2.188;  -10.860;  535.380
1141.494;    2.453;  -12.920;  669.280
1142.034;    1.557;  -13.930;  583.520
1142.573;    3.014;  -11.440;  646.280
1143.112;    2.342;  -12.000;  553.480
1143.651;    2.331;  -13.670;  536.480
1144.190;    2.813;  -12.730;  691.640
1144.729;    1.962;  -14.560;  607.420
1145.267;    2.772;  -11.830;  584.900
1145.806;    2.558;  -12.230;  637.040
1146.345;    1.829;  -14.130;  635.020
1146.884;    1.190;  -11.590;  622.500
1147.422;    1.181;  -12.550;  533.060
1147.961;    2.853;  -11.180;  708.460
1148.500;    2.502;  -11.510;  669.720
1149.038;    2.310;  -11.640;  632.500
1149.577;    2.592;  -10.130;  698.640
1150.115;   -0.835;  -13.970;  452.280
1150.653;    0.911;  -14.520;  607.340
1151.192;    1.248;  -12.810;  552.920
1151.730;    1.169;   -9.100;  652.560
1152.268;    0.720;  -12.220;  589.520
1152.806;    0.089;  -14.140;  571.180
1153.344;    0.002;  -12.350;  577.640
1153.882;    0.789;   -8.980;  600.060
1154.421;    0.143;  -15.190;  470.620
1154.958;   -0.306;  -15.210;  595.240
1155.496;    0.725;  -12.850;  645.280
1156.034;    0.728;   -9.940;  721.880
1156.572;    1.667;  -13.570;  667.060
1157.110;   -0.840;  -14.590;  473.940
1157.647;    0.800;  -13.030;  676.960
1158.185;    0.196;  -12.140;  564.320
1158.723;   -1.021;  -14.390;  509.200
1159.260;   -0.064;  -14.090;  701.700
1159.798;    0.439;  -11.920;  658.160
1160.335;   -0.173;  -11.110;  631.820

