
Integration time [ms]:   3.276
Averaging Nr. [scans]: 1000
Smoothing Nr. [pixels]: 0
Data measured with spectrometer [name]: 7414430SP
Wave   ;Sample   ;Dark     ;Reference
[nm]   ;[counts] ;[counts] ;[counts] 

288.544;  156.840;    7.793;  793.890
289.143;  160.800;    7.462;  681.602
289.742;  162.012;    8.602;  828.814
290.341;  149.516;    1.321;  789.841
290.940;  139.152;   -0.709;  730.702
291.538;  139.009;    0.881;  881.108
292.137;  139.269;    0.122;  792.581
292.736;  142.026;   -1.929;  975.101
293.335;  138.018;   -8.229;  735.086
293.934;  138.485;   -5.279;  781.677
294.532;  138.329;   -1.369; 1031.958
295.131;  124.659;   -7.641;  834.394
295.730;  124.261;   -8.420;  809.588
296.328;  122.314;   -5.611;  783.442
296.927;  121.992;   -5.781;  779.652
297.525;  123.478;   -6.361;  781.236
298.124;  113.766;  -11.382;  654.009
298.722;  117.912;   -7.641;  761.933
299.321;  116.063;   -6.811;  708.597
299.919;  113.203;   -6.991;  751.918
300.518;  109.448;  -10.362;  689.338
301.116;  110.561;   -9.581;  691.381
301.715;  111.555;   -4.891;  730.222
302.313;  111.172;   -8.801;  704.943
302.911;  106.379;   -8.522;  733.830
303.509;  110.084;   -6.171;  925.627
304.108;  108.062;   -7.311;  760.383
304.706;  108.094;   -8.321;  801.664
305.304;  102.151;  -10.222;  796.707
305.902;  107.370;   -6.021;  784.484
306.500;  103.118;   -4.971;  728.200
307.098;  100.854;   -7.061;  746.560
307.696;   99.797;   -8.801;  780.432
308.294;   99.963;   -6.411;  731.359
308.892;  101.279;   -2.901;  759.769
309.490;   97.808;   -5.041;  712.161
310.088;   95.533;   -5.002;  788.444
310.686;   99.587;   -2.041;  821.749
311.284;   96.095;   -2.351;  766.040
311.882;   93.899;   -4.422;  731.225
312.480;   90.238;   -4.192;  697.167
313.078;   91.896;   -1.172;  808.331
313.675;   92.339;   -2.601;  691.600
314.273;   86.978;   -1.312;  797.837
314.871;   86.627;   -3.942;  589.829
315.468;   84.886;   -2.802;  652.090
316.066;   87.147;   -0.701;  694.427
316.664;   80.018;   -4.362;  656.351
317.261;   83.523;   -2.872;  910.128
317.859;   80.065;   -2.022;  768.735
318.456;   80.003;   -0.531;  830.096
319.054;   76.371;   -3.912;  787.828
319.651;   75.107;   -4.752;  759.928
320.249;   73.472;   -2.602;  810.188
320.846;   72.009;   -0.821;  714.286
321.443;   68.932;   -4.642;  832.135
322.041;   65.915;   -5.002;  812.315
322.638;   62.803;   -3.982;  701.456
323.235;   64.388;   -3.411;  665.683
323.833;   61.461;   -7.361;  740.354
324.430;   57.020;   -8.611;  615.900
325.027;   57.250;   -4.061;  876.855
325.624;   56.993;   -4.031;  644.532
326.221;   53.480;   -7.481;  689.717
326.818;   53.873;   -5.281;  818.332
327.415;   56.581;   -7.460;  748.828
328.012;   55.904;   -5.510;  690.585
328.609;   54.349;   -7.880;  731.389
329.206;   51.326;   -8.331;  778.621
329.803;   52.061;   -5.121;  737.841
330.400;   54.890;   -4.510;  704.260
330.997;   56.651;   -6.441;  817.147
331.594;   55.355;   -8.831;  788.185
332.191;   59.097;   -7.621;  728.722
332.787;   63.329;   -4.591;  844.463
333.384;   63.685;   -7.412;  763.093
333.981;   61.899;   -8.293;  815.687
334.578;   64.933;   -7.052;  708.378
335.174;   66.499;   -3.102;  731.469
335.771;   67.055;   -5.943;  836.456
336.367;   64.073;   -7.393;  710.631
336.964;   67.378;   -4.063;  793.266
337.561;   66.141;   -3.813;  731.112
338.157;   61.781;   -4.654;  911.916
338.754;   60.603;   -7.934;  796.589
339.350;   58.070;   -4.414;  722.493
339.946;   59.254;   -4.664;  773.135
340.543;   52.128;   -6.375;  846.136
341.139;   46.595;   -9.815;  720.836
341.735;   42.866;   -4.526;  772.593
342.332;   42.266;   -4.895;  691.472
342.928;   42.711;   -4.295;  795.394
343.524;   35.170;   -5.476;  761.684
344.120;   30.709;   -5.856;  738.562
344.716;   35.126;   -2.155;  723.717
345.313;   32.994;   -6.275;  795.342
345.909;   26.897;   -8.815;  627.336
346.505;   28.763;   -5.305;  740.247
347.101;   29.417;   -2.674;  827.864
347.697;   29.225;   -4.344;  785.398
348.293;   24.258;   -9.975;  627.244
348.889;   25.198;   -5.774;  745.914
349.485;   24.343;   -5.004;  688.205
350.081;   24.849;   -4.704;  772.592
350.676;   19.924;   -6.635;  691.606
351.272;   23.744;   -4.504;  809.530
351.868;   23.516;   -3.914;  780.497
352.464;   21.769;   -9.044;  723.932
353.059;   18.223;   -8.314;  646.017
353.655;   20.823;   -7.024;  777.063
354.251;   20.968;   -5.343;  759.845
354.846;   16.292;   -8.604;  740.646
355.442;   14.370;   -6.945;  753.071
356.038;   15.956;   -7.564;  751.708
356.633;   15.729;   -5.814;  728.594
357.229;   13.448;   -7.364;  724.757
357.824;   12.263;   -8.024;  703.600
358.420;   11.030;   -9.384;  679.726
359.015;   11.854;   -5.104;  695.357
359.610;   12.907;   -6.854;  763.920
360.206;    6.720;  -10.185;  603.240
360.801;    9.527;   -7.054;  646.503
361.396;   12.065;   -5.034;  725.975
361.992;    6.971;   -8.284;  668.220
362.587;    4.126;   -8.625;  670.160
363.182;    6.274;   -7.674;  689.631
363.777;    7.159;   -5.164;  738.242
364.372;    6.302;   -8.604;  737.314
364.967;    3.029;   -9.055;  680.744
365.563;    7.318;   -6.114;  815.567
366.158;    4.495;   -5.814;  685.161
366.753;    4.507;   -7.854;  649.263
367.348;    3.427;   -7.804;  746.056
367.942;    2.707;   -7.954;  697.298
368.537;    2.141;   -4.984;  754.245
369.132;    1.899;   -8.564;  703.428
369.727;   -1.875;   -8.855;  638.079
370.322;   -0.653;   -6.245;  580.186
370.917;   -1.684;   -6.425;  710.646
371.511;    2.414;   -6.294;  861.834
372.106;   -1.992;   -7.685;  776.964
372.701;   -5.450;   -7.335;  585.988
373.296;    0.665;   -4.564;  863.135
373.890;   -3.880;  -10.235;  647.840
374.485;   -6.285;   -7.885;  691.199
375.079;   -2.258;   -7.324;  738.685
375.674;   -0.681;   -3.494;  812.970
376.268;   -5.546;   -8.525;  691.759
376.863;  -11.037;  -10.086;  580.327
377.457;   -4.842;   -7.025;  662.490
378.052;   -7.015;   -3.585;  764.884
378.646;   -7.630;   -7.595;  741.167
379.240;   -8.180;   -8.335;  721.176
379.835;   -7.343;   -5.785;  636.978
380.429;   -9.399;   -4.335;  562.557
381.023;   -9.274;   -6.805;  779.205
381.617;  -11.853;   -9.195;  680.106
382.212;   -8.335;   -6.905;  685.303
382.806;   -7.476;   -3.745;  760.690
383.400;  -11.853;   -7.745;  672.281
383.994;  -12.550;   -9.765;  664.870
384.588;   -9.236;   -6.564;  697.701
385.182;   -7.463;   -5.344;  726.624
385.776;   -9.166;   -8.514;  706.875
386.370;  -12.177;   -9.555;  681.968
386.964;  -11.744;   -8.715;  684.155
387.558;   -9.844;   -6.174;  598.360
388.152;  -13.143;   -8.725;  681.959
388.745;  -10.506;   -7.965;  814.707
389.339;   -9.839;   -5.924;  747.642
389.933;   -9.083;   -5.524;  695.370
390.527;  -10.478;   -7.114;  859.029
391.120;  -16.771;  -10.725;  595.318
391.714;  -12.944;   -8.035;  711.633
392.308;   -9.578;   -3.574;  780.253
392.901;  -13.501;   -7.245;  642.460
393.495;  -15.306;   -9.285;  595.414
394.089;  -13.553;   -5.895;  760.452
394.682;  -14.148;   -4.295;  697.188
395.275;  -14.964;   -9.875;  719.927
395.869;  -16.031;   -8.485;  667.314
396.462;  -14.746;   -7.455;  616.609
397.056;  -10.959;   -5.424;  776.621
397.649;  -15.219;   -6.605;  731.575
398.242;  -12.362;   -8.224;  712.645
398.836;  -12.225;   -7.474;  766.408
399.429;  -13.293;   -7.094;  631.041
400.022;  -16.425;   -9.475;  665.902
400.615;  -13.825;   -7.145;  805.609
401.208;  -12.645;   -7.174;  691.451
401.802;  -14.610;   -5.515;  699.329
402.395;  -15.662;   -9.875;  683.502
402.988;  -16.355;   -8.845;  696.627
403.581;  -13.464;   -8.874;  646.878
404.174;  -11.270;   -5.324;  686.568
404.767;  -13.970;   -9.575;  638.583
405.360;  -16.629;  -10.965;  621.445
405.953;  -11.259;   -8.764;  759.034
406.545;  -10.537;   -7.514;  725.342
407.138;  -14.548;  -10.025;  618.350
407.731;  -13.924;  -10.034;  613.303
408.324;   -9.945;   -9.374;  660.554
408.917;  -10.737;   -6.534;  681.864
409.509;  -12.516;   -8.004;  740.396
410.102;  -15.421;   -9.875;  643.948
410.695;   -7.979;   -8.604;  665.758
411.287;   -9.836;   -6.794;  599.821
411.880;  -10.346;   -9.334;  585.421
412.472;  -13.790;  -10.254;  613.092
413.065;  -11.000;   -6.714;  629.408
413.657;   -9.005;   -7.234;  576.678
414.250;   -8.835;  -10.544;  646.681
414.842;  -11.319;   -9.744;  676.353
415.434;   -8.380;   -6.994;  570.463
416.027;   -4.204;   -5.893;  652.196
416.619;   -6.206;   -7.264;  713.400
417.211;   -7.587;  -10.374;  599.352
417.804;   -3.523;   -7.993;  628.499
418.396;   -7.002;   -7.234;  607.643
418.988;   -4.880;   -9.443;  659.238
419.580;   -8.572;  -10.724;  568.276
420.172;   -6.774;  -10.323;  536.196
420.764;   -1.797;   -8.793;  672.482
421.356;   -3.595;  -11.143;  636.898
421.948;   -4.431;   -8.293;  677.661
422.540;    1.029;   -7.893;  680.027
423.132;   -0.467;   -7.082;  600.641
423.724;   -3.713;   -8.653;  561.267
424.316;   -2.233;  -10.213;  621.345
424.908;    2.735;   -9.762;  591.517
425.500;    3.287;   -5.572;  647.978
426.092;    4.093;   -8.422;  648.268
426.683;    2.033;   -9.283;  684.836
427.275;    4.795;   -7.852;  641.471
427.867;    5.826;   -5.272;  668.948
428.458;    6.809;   -7.682;  732.344
429.050;    4.666;  -10.612;  680.749
429.642;    7.434;   -9.882;  743.124
430.233;    8.226;   -6.962;  569.356
430.825;    9.333;   -6.842;  724.809
431.416;    7.044;   -9.672;  698.241
432.008;   10.592;   -6.552;  651.723
432.599;   10.691;   -6.891;  656.073
433.190;    8.575;  -10.912;  637.670
433.782;    7.066;  -11.172;  590.395
434.373;   14.457;   -6.061;  884.765
434.964;   13.217;   -8.251;  602.920
435.556;   11.277;   -9.722;  634.537
436.147;   13.022;   -9.082;  758.490
436.738;   13.393;   -8.041;  701.099
437.329;   19.439;   -7.341;  721.723
437.920;   11.954;   -8.162;  666.688
438.511;   11.607;  -11.802;  564.526
439.103;   17.868;  -10.191;  623.998
439.694;   20.488;   -7.601;  681.583
440.285;   21.102;   -8.541;  764.432
440.876;   18.456;   -9.751;  845.738
441.466;   18.457;   -9.401;  575.162
442.057;   23.830;   -7.760;  665.814
442.648;   22.970;   -9.971;  746.255
443.239;   20.709;  -11.001;  620.477
443.830;   25.425;   -7.990;  704.958
444.421;   27.345;   -7.910;  655.474
445.011;   23.827;   -8.131;  693.619
445.602;   23.393;   -7.111;  743.126
446.193;   25.588;  -10.920;  488.117
446.783;   29.643;   -6.500;  640.397
447.374;   25.693;   -8.671;  692.759
447.964;   25.856;  -10.781;  713.770
448.555;   34.245;   -9.650;  822.742
449.145;   31.356;   -8.660;  662.853
449.736;   31.191;   -8.990;  803.179
450.326;   32.023;   -9.500;  713.626
450.917;   36.185;   -8.680;  675.324
451.507;   35.700;   -7.520;  600.661
452.097;   36.249;   -8.590;  746.267
452.688;   36.620;  -11.340;  742.160
453.278;   36.962;  -10.100;  566.840
453.868;   41.761;   -6.019;  793.550
454.458;   39.482;   -9.440;  651.141
455.048;   39.198;  -10.560;  711.783
455.639;   41.599;  -11.799;  567.096
456.229;   44.996;   -6.899;  710.694
456.819;   47.138;   -7.389;  751.158
457.409;   47.196;  -11.119;  773.993
457.999;   48.958;   -9.289;  737.505
458.589;   48.884;   -6.139;  686.606
459.179;   48.654;   -8.729;  717.658
459.769;   46.985;   -9.789;  627.099
460.358;   51.988;  -10.259;  797.262
460.948;   52.319;   -7.299;  689.503
461.538;   53.307;  -10.289;  660.677
462.128;   50.905;  -11.269;  664.934
462.717;   59.146;   -9.368;  710.326
463.307;   61.115;   -7.908;  705.846
463.897;   56.994;   -9.599;  656.942
464.486;   55.628;   -9.769;  837.128
465.076;   60.519;   -8.048;  733.776
465.666;   64.102;   -9.358;  652.900
466.255;   61.954;   -7.919;  785.651
466.845;   60.834;  -11.689;  666.749
467.434;   63.884;   -7.818;  725.873
468.023;   65.237;   -7.678;  658.357
468.613;   62.689;  -10.939;  713.946
469.202;   67.226;  -10.118;  646.507
469.791;   71.107;   -9.108;  737.811
470.381;   73.142;   -6.058;  742.813
470.970;   72.560;  -10.428;  711.099
471.559;   71.383;  -10.268;  733.291
472.148;   75.552;   -8.448;  675.737
472.738;   77.807;   -6.917;  765.466
473.327;   77.621;  -11.978;  637.529
473.916;   76.872;  -11.888;  737.446
474.505;   80.697;   -9.437;  751.703
475.094;   83.974;   -6.747;  806.570
475.683;   83.503;   -9.367;  797.699
476.272;   84.472;  -12.637;  730.632
476.861;   87.099;  -10.027;  706.754
477.449;   92.747;   -8.716;  728.487
478.038;   87.714;   -9.577;  692.513
478.627;   89.682;   -9.718;  714.852
479.216;   96.038;   -8.947;  769.441
479.805;   98.836;   -6.256;  783.375
480.393;   98.596;   -7.937; 1008.945
480.982;   98.164;   -7.717;  874.501
481.571;  103.741;   -9.266;  858.333
482.159;  105.257;   -7.636;  705.386
482.748;  104.803;   -9.667;  821.385
483.336;  109.098;  -10.376;  858.209
483.925;  109.889;   -7.147;  774.373
484.513;  116.428;   -7.996;  758.962
485.102;  114.083;  -10.027;  810.965
485.690;  122.129;  -10.446; 1011.050
486.278;  123.997;   -8.446;  979.329
486.867;  124.432;   -6.356;  809.662
487.455;  127.247;   -9.136;  898.229
488.043;  128.271;  -10.646;  748.361
488.631;  136.897;   -7.456; 1005.079
489.220;  141.473;   -6.636;  908.626
489.808;  140.749;  -11.036;  741.415
490.396;  148.402;  -10.246;  914.645
490.984;  155.063;   -8.556;  830.161
491.572;  166.217;   -5.886;  940.315
492.160;  173.831;   -9.486;  919.081
492.748;  184.507;  -10.976;  884.341
493.336;  206.167;   -8.776; 1019.693
493.924;  236.011;   -5.465;  958.077
494.512;  272.231;   -9.986; 1066.638
495.100;  315.203;  -10.636; 1103.280
495.687;  380.811;  -10.885; 1206.373
496.275;  463.195;   -8.126; 1150.796
496.863;  545.411;  -10.586; 1281.171
497.451;  654.955;  -11.926; 1386.805
498.038;  760.102;  -10.885; 1556.729
498.626;  883.730;   -6.315; 1741.407
499.214; 1091.558;   -7.326; 2016.609
499.801; 1327.617;  -11.906; 2220.633
500.389; 1637.322;  -10.466; 2312.494
500.976; 1912.231;   -5.236; 2744.849
501.564; 2388.573;   -8.936; 3148.565
502.151; 3038.901;  -13.176; 3515.999
502.738; 3430.001;  -10.646; 3971.274
503.326; 3810.104;   -9.525; 4403.796
503.913; 4254.004;  -10.856; 5161.749
504.500; 4736.449;  -11.586; 5986.420
505.088; 5318.845;  -10.336; 6381.201
505.675; 6171.831;   -6.355; 6925.547
506.262; 6730.220;   -9.046; 7619.060
506.849; 7106.751;  -10.416; 8733.969
507.436; 7513.231;  -10.305; 9790.121
508.023; 7883.169;   -5.496; 9985.472
508.610; 8013.296;   -7.856;10434.618
509.197; 8978.142;  -10.097;11198.435
509.784;10297.298;  -10.886;12391.194
510.371;11729.593;   -9.315;13603.713
510.958;12738.018;   -9.936;14426.586
511.545;13236.305;   -9.326;15243.775
512.132;13513.881;  -10.075;15945.876
512.719;14019.385;   -7.796;16340.369
513.305;15230.797;  -10.606;18011.766
513.892;16721.596;  -11.486;19754.971
514.479;18021.490;   -9.126;20967.805
515.066;19453.697;   -6.026;22299.793
515.652;19602.156;   -8.466;22908.660
516.239;20035.523;  -10.886;23798.875
516.825;21276.787;  -11.496;25567.275
517.412;22758.980;   -5.796;28154.959
517.998;23997.744;  -10.506;28344.111
518.585;24876.484;  -10.076;27134.219
519.171;24463.922;   -8.315;27268.576
519.758;25027.764;   -8.596;28964.129
520.344;27411.414;   -8.466;30664.494
520.930;26489.451;  -11.006;32550.605
521.516;24983.990;  -10.495;35422.895
522.103;26690.553;   -5.526;38280.004
522.689;28898.893;   -8.746;37835.117
523.275;29729.527;  -11.376;37288.613
523.861;31323.875;  -11.156;37281.395
524.447;30496.857;   -8.135;37846.949
525.033;29751.986;   -7.896;38321.949
525.619;28539.912;  -12.476;38579.285
526.205;27260.043;   -9.516;40622.875
526.791;28596.762;   -6.926;42258.836
527.377;31148.395;   -8.346;42966.902
527.963;34822.746;   -8.717;42018.949
528.549;36961.309;  -11.016;42476.828
529.135;35541.332;   -8.536;41854.852
529.721;35524.941;   -9.666;41237.711
530.306;34546.867;  -10.066;41259.445
530.892;35477.523;  -11.356;41506.047
531.478;37346.820;   -6.596;43559.613
532.063;39380.500;   -8.836;47695.563
532.649;37647.238;  -10.047;50808.324
533.235;37518.625;   -9.746;51787.500
533.820;39660.625;   -6.566;52145.035
534.406;41116.859;  -10.817;51133.488
534.991;42923.375;   -9.416;49996.805
535.576;41481.027;   -9.036;48882.852
536.162;38724.715;   -6.156;46942.285
536.747;38925.059;  -11.607;45711.746
537.333;41386.172;  -11.787;48510.180
537.918;42131.008;  -12.437;50439.891
538.503;41130.480;   -7.196;50863.711
539.088;41096.785;  -10.556;50906.922
539.673;40839.992;   -8.767;52621.965
540.259;36000.496;  -10.026;52368.094
540.844;33153.203;   -7.416;50879.109
541.429;32217.074;   -9.467;52077.777
542.014;33989.617;   -9.527;52716.695
542.599;40360.594;   -9.946;52363.281
543.184;44460.352;   -7.927;53187.137
543.769;46085.367;   -9.297;54697.605
544.354;46884.523;  -10.127;53913.914
544.938;44727.855;   -9.267;49680.164
545.523;42653.301;   -6.506;47386.277
546.108;44571.332;   -9.787;49151.949
546.693;45668.375;  -11.587;51384.637
547.278;45603.020;  -10.986;51853.254
547.862;45845.637;   -8.206;51173.750
548.447;44113.434;  -10.067;51691.395
549.031;43836.664;   -9.637;52456.703
549.616;44181.707;   -9.926;52714.516
550.201;43341.484;   -6.347;52414.598
550.785;44585.617;   -7.917;52355.059
551.370;45573.996;  -10.867;54589.453
551.954;47511.844;   -9.047;58267.348
552.538;46742.887;   -7.827;59062.176
553.123;44765.824;  -10.287;58115.285
553.707;43922.852;  -12.178;56556.285
554.291;41312.555;   -8.717;56201.668
554.876;42751.672;   -7.457;55335.762
555.460;44951.070;  -10.387;54155.703
556.044;46240.262;   -9.618;53721.484
556.628;46946.102;  -11.567;53731.016
557.212;47579.840;   -8.097;54312.531
557.796;49067.199;  -11.077;53797.773
558.380;47210.844;  -11.108;56145.984
558.964;45548.574;   -9.057;57277.930
559.548;43242.863;   -6.977;56459.641
560.132;39930.484;  -11.457;54434.543
560.716;41259.250;  -11.378;54800.617
561.300;43399.723;   -9.577;57606.945
561.884;42013.672;   -7.127;58972.445
562.467;40582.535;   -7.118;57327.570
563.051;39111.586;  -13.358;54962.434
563.635;37124.441;  -10.178;52594.473
564.219;38998.430;   -7.837;50610.410
564.802;42475.355;  -11.398;49551.180
565.386;42899.648;  -12.788;48370.953
565.969;44110.000;   -9.077;48178.871
566.553;43168.906;   -6.207;49957.305
567.136;41545.801;   -8.568;50369.594
567.720;42698.109;  -11.868;49492.004
568.303;43805.270;   -8.268;50616.352
568.887;42771.371;   -8.698;50727.148
569.470;40173.063;   -6.808;51698.379
570.053;37851.426;  -13.188;52122.078
570.637;35752.613;  -12.037;52536.438
571.220;36169.973;   -8.577;51186.098
571.803;36349.992;   -8.498;51032.762
572.386;38458.254;  -10.498;49609.887
572.969;39313.824;   -9.388;48285.926
573.552;39806.559;   -8.338;47624.285
574.135;39226.648;   -8.518;45498.641
574.718;36073.785;  -13.628;41970.434
575.301;36012.953;  -10.893;41447.137
575.884;35952.121;   -8.158;40923.836
576.467;39876.500;  -10.328;45267.723
577.050;39824.645;  -13.058;48175.543
577.633;38452.773;   -9.458;47729.328
578.216;35155.664;   -8.928;47579.793
578.799;32971.598;   -9.358;47820.996
579.381;34496.387;  -11.388;48115.551
579.964;34763.383;  -11.718;47333.766
580.547;33599.891;   -8.588;46668.969
581.129;34330.953;   -8.859;44466.141
581.712;36190.375;  -10.729;44164.922
582.294;35809.910;  -11.118;46477.855
582.877;36577.508;   -5.218;48244.254
583.459;36769.258;   -8.679;47437.895
584.042;37867.809;  -10.709;46943.219
584.624;35812.230;  -11.669;46792.227
585.206;34593.063;   -8.218;46557.250
585.789;35393.902;  -10.569;45793.773
586.371;35863.648;  -11.859;43836.391
586.953;36933.391;  -10.719;42972.492
587.536;38396.852;   -7.198;42487.211
588.118;37239.918;   -8.720;42086.414
588.700;36008.734;  -10.439;43389.930
589.282;33635.398;   -9.198;43646.039
589.864;31612.025;   -9.199;43438.109
590.446;31527.969;  -11.319;43151.926
591.028;31050.455;  -11.159;42781.867
591.610;31034.754;  -11.779;42839.098
592.192;32302.084;   -7.668;42820.402
592.774;31761.400;  -11.949;40724.277
593.356;30110.219;  -12.129;39874.789
593.937;29998.764;  -10.669;39980.648
594.519;32445.869;   -6.509;42069.633
595.101;32465.352;  -10.849;42976.031
595.683;31071.076;  -11.679;44084.441
596.264;30289.930;   -9.049;43478.797
596.846;30078.980;   -8.849;43803.672
597.427;30109.896;   -9.570;42986.934
598.009;31844.422;  -12.620;42832.219
598.591;31819.371;  -10.039;42580.086
599.172;34018.898;  -10.369;43061.805
599.753;36268.535;   -9.140;41691.469
600.335;35622.602;  -11.430;40692.520
600.916;32992.707;   -9.939;39982.422
601.498;29870.611;   -8.479;40318.617
602.079;29314.139;  -10.920;40670.609
602.660;29011.047;  -11.480;41450.898
603.241;30057.373;  -11.699;41137.738
603.823;30374.072;   -9.579;38868.797
604.404;30005.293;  -10.620;38182.785
604.985;32857.852;  -10.450;38078.047
605.566;33666.797;   -9.129;38056.633
606.147;34651.230;   -7.510;37020.418
606.728;33440.797;  -10.660;37883.359
607.309;31557.309;  -11.740;38748.273
607.890;31120.926;   -9.759;38850.230
608.471;29862.193;   -8.250;37457.918
609.051;30059.709;   -9.240;36066.457
609.632;29879.742;  -12.120;35991.074
610.213;29506.492;   -9.110;37402.641
610.794;30725.930;   -8.030;38383.363
611.374;29631.361;   -8.110;40562.387
611.955;29402.416;  -13.560;38533.727
612.536;30527.697;  -11.400;36951.789
613.116;30086.281;   -8.070;37197.891
613.697;30850.861;  -10.830;38411.125
614.277;30491.270;  -11.641;38673.938
614.858;29739.986;  -13.310;37075.863
615.438;29951.822;   -7.460;35092.906
616.019;28084.104;   -7.601;33666.301
616.599;28741.857;  -12.020;34189.023
617.179;28672.750;  -11.780;36952.047
617.760;27552.861;   -8.570;39582.574
618.340;28076.809;  -11.471;38943.977
618.920;28607.523;  -11.170;37594.156
619.500;29540.137;  -11.071;37866.938
620.080;30030.979;   -7.750;37869.043
620.660;30269.055;  -12.711;36868.617
621.241;31002.963;  -10.211;36352.309
621.821;30529.225;  -10.961;35459.520
622.401;30675.225;   -7.720;35207.414
622.980;32488.361;   -8.981;35980.422
623.560;31217.563;   -9.331;37351.328
624.140;26966.533;   -9.850;34388.582
624.720;23248.844;   -7.451;32368.764
625.300;23055.582;   -9.070;32638.629
625.880;27046.406;  -12.601;34599.035
626.459;30113.373;  -11.751;36831.738
627.039;30202.076;   -9.281;38299.098
627.619;29377.789;   -8.801;38289.574
628.198;29405.803;  -12.071;37220.695
628.778;30019.145;   -9.461;37632.563
629.357;30764.359;   -8.491;38003.012
629.937;30573.930;   -9.721;38402.039
630.516;31359.873;   -9.951;37868.801
631.096;32664.482;  -11.731;35760.410
631.675;34958.992;   -8.572;35225.219
632.254;34767.914;  -11.282;35130.289
632.834;33332.082;  -13.322;35794.570
633.413;34043.488;  -10.301;35788.922
633.992;34282.270;   -8.582;34532.863
634.571;35041.887;   -8.352;33590.113
635.151;34303.211;  -11.912;34943.863
635.730;32032.506;  -10.511;35352.523
636.309;31812.535;   -7.731;35366.605
636.888;31290.002;   -9.952;36165.637
637.467;30724.148;  -11.672;37515.902
638.046;29210.227;   -8.901;39288.695
638.625;28509.604;   -7.912;38279.699
639.204;27674.418;  -10.022;37741.598
639.782;28963.213;  -12.252;38364.551
640.361;31007.340;  -10.041;36740.621
640.940;30670.502;  -11.161;34950.082
641.519;30349.711;   -9.701;34137.398
642.097;31628.506;  -11.271;35654.258
642.676;31581.635;   -8.651;35637.957
643.255;30498.340;   -8.711;36567.074
643.833;30266.385;   -9.581;37809.434
644.412;31213.691;  -13.711;37337.293
644.990;32489.297;  -11.811;37018.531
645.569;35106.680;   -9.411;36518.469
646.147;35669.762;  -10.291;36186.430
646.726;33757.078;  -12.401;36267.688
647.304;32334.811;  -10.411;36647.625
647.882;32953.934;   -9.651;39286.742
648.461;32553.666;   -9.631;39157.703
649.039;30191.527;  -11.881;35412.883
649.617;30101.168;   -9.661;34744.918
650.195;30590.945;   -9.301;35403.098
650.773;29970.094;  -10.511;35053.797
651.352;29848.451;  -11.521;33756.816
651.930;28742.943;  -12.211;31868.773
652.508;27779.820;   -9.171;33121.551
653.086;28977.723;   -9.371;33564.793
653.663;31212.705;  -13.161;34054.668
654.241;30151.348;  -13.031;35693.309
654.819;28215.279;   -9.371;36422.906
655.397;28839.902;  -10.511;38213.484
655.975;29022.395;  -10.371;39507.625
656.553;30055.680;  -10.051;39498.223
657.130;30927.826;  -10.061;40395.480
657.708;27796.074;   -9.561;39242.020
658.286;24863.990;  -11.511;38920.020
658.863;25184.969;  -10.261;40202.898
659.441;28070.344;   -7.531;39677.938
660.018;30689.518;   -9.501;40413.355
660.596;31517.518;  -13.301;39931.414
661.173;34185.617;  -11.211;39604.531
661.750;33144.145;   -9.951;39700.070
662.328;30502.490;   -9.390;39292.809
662.905;29145.105;  -11.330;38235.648
663.482;26325.619;   -9.050;36212.305
664.060;24204.182;   -8.240;35944.945
664.637;28182.576;  -10.050;35170.785
665.214;32678.951;  -11.760;34197.523
665.791;31467.129;  -10.530;34549.520
666.368;31180.074;   -9.690;35118.578
666.945;31736.752;   -9.320;36019.418
667.522;32578.738;  -11.860;36048.438
668.099;31854.723;  -10.770;36243.914
668.676;32123.105;   -6.260;35958.875
669.253;34218.441;   -7.000;37384.730
669.830;34449.031;  -10.190;36779.629
670.407;33146.324;   -9.550;35231.289
670.984;32350.492;   -9.260;35544.270
671.560;30727.441;   -9.280;35466.867
672.137;29146.883;  -11.810;34280.863
672.714;29226.295;  -11.490;34632.863
673.290;30078.277;   -7.740;35135.422
673.867;30525.492;  -10.660;36114.480
674.443;29915.867;  -12.230;36152.859
675.020;28470.561;  -10.450;35327.238
675.596;27111.322;   -9.260;35795.176
676.173;27950.658;  -10.780;35430.355
676.749;28541.320;  -13.690;33549.516
677.326;29576.766;  -11.980;32210.012
677.902;27654.059;   -8.630;32068.871
678.478;25713.406;  -10.730;32583.891
679.054;27475.303;  -10.520;32088.928
679.631;28911.232;  -11.920;30978.848
680.207;30021.592;   -7.490;33160.887
680.783;31181.635;   -9.860;35570.363
681.359;31791.490;  -13.380;36125.184
681.935;30669.777;  -12.480;35240.922
682.511;31310.105;   -7.900;34429.961
683.087;32029.941;   -7.710;34463.680
683.663;32804.660;  -11.480;34648.898
684.239;32226.004;  -14.090;34546.457
684.815;32971.223;   -7.560;35586.375
685.390;32909.965;   -9.910;35821.895
685.966;32469.816;  -11.159;35085.871
686.542;33259.895;  -11.169;34198.230
687.118;31925.934;   -5.959;32847.707
687.693;32078.900;  -10.329;32794.027
688.269;31318.762;  -12.059;33072.367
688.844;32030.484;  -10.909;33141.664
689.420;33389.789;   -8.019;33965.742
689.995;30176.736;   -8.399;34655.523
690.571;29093.729;  -10.949;33576.742
691.146;28271.262;   -9.619;32657.219
691.722;26288.574;   -8.999;32526.979
692.297;25594.971;  -11.589;33014.617
692.872;26554.113;  -11.739;34012.254
693.448;26835.797;  -11.059;34237.434
694.023;28528.367;  -10.139;34142.672
694.598;30564.287;   -9.029;34132.031
695.173;30212.271;  -13.319;34205.250
695.748;27631.135;  -10.169;32882.488
696.323;25324.512;   -8.339;32864.906
696.898;25092.357;   -8.169;33170.004
697.473;28303.582;  -12.309;32432.984
698.048;28249.270;  -10.989;31649.303
698.623;27097.590;   -9.329;30778.141
699.198;28583.361;   -9.849;31140.119
699.773;29960.254;  -12.329;31764.299
700.348;29924.412;  -10.389;31780.816
700.922;28201.045;   -9.269;32046.375
701.497;26423.455;   -9.329;32603.574
702.072;28065.559;  -10.789;34799.871
702.646;28027.715;  -10.839;35793.172
703.221;28593.309;   -9.099;35201.590
703.795;28970.221;  -10.939;34764.527
704.370;27548.779;  -12.859;34307.367
704.944;28893.422;  -11.559;33509.887
705.519;30020.857;   -7.939;31388.584
706.093;31883.547;  -10.499;31340.104
706.668;32821.660;  -11.289;32630.281
707.242;31810.584;  -11.509;32728.779
707.816;30323.746;   -9.639;32947.238
708.390;29889.539;  -11.429;33277.855
708.965;30897.480;  -11.869;33834.336
709.539;30982.033;  -11.689;33709.273
710.113;30536.283;  -10.478;33044.313
710.687;27913.172;  -10.228;31953.992
711.261;27206.602;  -13.698;30505.949
711.835;26910.703;  -13.378;30262.369
712.409;26563.260;   -9.698;31254.447
712.983;26148.262;  -11.898;32754.986
713.557;25053.090;  -15.138;34018.824
714.131;26366.977;  -14.098;34579.625
714.704;26482.686;   -9.958;33890.262
715.278;25819.994;  -10.028;33531.102
715.852;24881.521;  -11.148;33601.660
716.425;24340.496;   -9.068;33515.117
716.999;25996.707;  -10.038;33185.555
717.573;26753.238;   -9.798;33905.996
718.146;27795.938;  -12.378;35199.293
718.720;28119.734;  -11.918;35060.551
719.293;27101.463;   -8.088;34973.230
719.867;26046.092;  -10.888;36394.449
720.440;26723.447;  -11.938;36663.008
721.013;28638.748;  -12.818;35102.426
721.587;30396.943;  -10.298;33985.266
722.160;30525.963;  -10.048;33524.965
722.733;28536.014;  -12.108;32987.043
723.306;26094.355;  -10.818;33066.301
723.880;26367.836;   -8.908;33399.500
724.453;25484.777;   -9.878;33468.297
725.026;25426.449;  -11.188;33816.637
725.599;25792.004;  -11.678;32797.996
726.172;25431.408;   -9.618;33187.434
726.745;26427.863;   -8.258;35136.613
727.318;29081.209;  -12.978;35751.730
727.891;31124.451;  -12.148;35890.430
728.463;32329.459;   -8.968;34822.090
729.036;32463.883;  -10.188;32895.086
729.609;29944.793;  -11.788;31823.225
730.182;28020.035;  -11.788;31445.283
730.754;27368.391;  -10.268;32373.223
731.327;27275.213;   -9.998;33676.820
731.900;26487.914;  -12.228;33417.000
732.472;25491.287;  -13.848;31978.498
733.045;25392.664;   -8.698;30368.777
733.617;24911.510;  -10.607;30574.215
734.190;23538.293;  -11.507;31280.975
734.762;23838.793;  -13.647;31674.412
735.334;25010.041;   -9.767;31247.291
735.907;25154.910;   -9.897;29876.211
736.479;23128.459;  -11.637;29808.488
737.051;22649.117;   -9.567;30233.547
737.623;23576.773;   -8.187;31469.086
738.195;25356.598;  -11.187;31784.225
738.768;25789.189;  -12.337;32120.523
739.340;25243.283;  -12.227;32094.342
739.912;24789.863;  -11.057;31312.680
740.484;25586.066;  -10.207;31946.238
741.056;26811.703;  -10.047;32984.059
741.628;26426.564;  -13.627;33897.715
742.199;27007.293;   -7.177;33213.016
742.771;25340.422;  -10.797;31369.113
743.343;23903.473;  -11.997;31865.473
743.915;24058.271;  -12.867;32388.631
744.487;24541.854;   -7.617;31079.568
745.058;25687.443;   -9.557;30570.107
745.630;25422.334;   -9.877;29970.127
746.201;24259.018;  -14.177;29186.766
746.773;23992.830;   -9.237;28805.723
747.344;24230.180;   -9.847;29591.223
747.916;24335.666;  -11.657;31412.201
748.487;23884.342;  -10.587;32194.898
749.059;23704.836;   -8.707;32533.719
749.630;22640.189;  -10.537;32158.518
750.201;22770.199;  -11.687;30855.395
750.773;22979.311;  -11.647;28622.555
751.344;24308.098;   -7.147;28405.732
751.915;24235.785;   -9.757;28461.551
752.486;23864.955;  -12.427;27842.850
753.057;22340.707;  -12.227;27845.008
753.628;21885.930;  -10.417;27728.107
754.199;21897.322;  -11.767;27381.086
754.770;21325.908;  -11.187;25882.203
755.341;20867.307;  -10.507;25886.184
755.912;21172.150;   -9.387;26050.861
756.483;21540.906;  -10.647;26798.779
757.054;21110.826;  -11.837;27048.238
757.625;19369.197;  -12.716;26294.838
758.195;18967.723;   -9.666;26142.076
758.766;19978.066;   -8.656;26392.234
759.337;19775.555;  -12.856;26334.594
759.907;19140.889;  -13.366;27579.652
760.478;18389.688;   -8.576;28352.770
761.048;18992.729;  -10.526;27325.088
761.619;19550.461;  -11.116;26460.428
762.189;19102.773;  -12.136;26029.826
762.760;19130.420;   -9.456;26430.145
763.330;19322.570;   -7.136;26670.902
763.900;19189.090;  -11.786;26603.021
764.471;18437.295;  -11.546;25542.740
765.041;18282.738;   -8.096;24358.459
765.611;18539.389;   -8.876;23991.297
766.181;18567.309;  -12.196;24470.236
766.751;19147.313;  -11.636;24845.975
767.321;19275.148;  -10.156;24533.633
767.891;19029.564;  -11.766;24916.492
768.461;18755.289;  -14.936;24776.771
769.031;17946.088;  -12.356;24757.988
769.601;17652.154;   -7.526;24181.088
770.171;18080.885;  -10.766;23670.387
770.741;18826.281;  -13.176;22960.045
771.311;18478.074;  -10.616;22917.523
771.880;17053.031;   -9.576;23562.941
772.450;16425.609;  -10.336;24216.500
773.020;16641.146;  -13.516;24140.398
773.589;16567.693;  -13.466;24414.857
774.159;16090.249;   -8.686;23858.717
774.729;15415.420;   -9.476;22942.135
775.298;15410.425;  -13.666;22324.033
775.867;15523.648;  -11.716;21140.313
776.437;14981.478;   -9.906;20838.092
777.006;14846.019;  -12.166;20599.510
777.576;16215.318;  -12.356;20508.809
778.145;15556.723;  -11.646;20732.947
778.714;14200.713;   -8.226;21062.465
779.283;13644.601;   -9.556;20949.664
779.853;13387.996;  -14.116;20508.623
780.422;13718.890;  -11.506;20649.082
780.991;14246.742;   -9.556;21527.520
781.560;14910.660;   -9.095;22632.658
782.129;13764.825;  -12.135;23048.277
782.698;12481.646;  -10.865;23438.555
783.267;11875.406;   -9.335;23267.734
783.836;12159.185;  -11.045;22415.133
784.404;12839.753;  -13.865;20443.152
784.973;13120.263;  -13.095;19699.150
785.542;13082.530;  -11.575;19763.828
786.111;12851.464;   -9.705;20341.408
786.679;12627.112;  -12.105;20207.967
787.248;12317.595;  -12.455;19516.465
787.817;12205.934;  -11.535;18900.363
788.385;12015.789;   -9.765;17879.121
788.954;11828.234;  -14.005;17658.301
789.522;11671.336;  -11.955;17788.879
790.090;10842.074;  -10.135;18118.277
790.659;10030.876;  -10.975;18338.736
791.227;10122.647;  -13.375;18508.615
791.795;10476.478;  -12.375;17898.254
792.364;10638.501;  -10.725;17295.133
792.932;10911.914;   -9.715;16822.051
793.500;10663.150;  -12.675;17040.148
794.068;10948.513;  -13.495;17179.787
794.636;11013.911;  -10.885;16664.246
795.204;10641.456;  -11.045;16524.545
795.772;10612.372;  -13.175;17274.564
796.340;10345.118;  -12.445;17891.002
796.908;10440.524;   -9.735;17648.561
797.476;10790.632;   -9.815;17064.080
798.044;10615.479;  -13.985;16672.777
798.612;10208.283;  -13.115;17023.996
799.180; 9373.817;  -10.185;16561.615
799.747; 9038.096;   -9.055;15962.773
800.315; 9264.234;  -12.385;15296.992
800.883; 8644.799;  -15.035;14801.771
801.450; 7913.184;  -10.365;14534.430
802.018; 7625.912;   -9.855;14173.248
802.585; 7588.505;  -11.905;14029.547
803.153; 7777.168;  -11.585;13836.846
803.720; 7578.038;   -9.095;13567.324
804.287; 7482.877;   -9.135;13360.622
804.855; 7643.417;  -11.604;13681.981
805.422; 8029.825;  -11.794;13536.560
805.989; 8284.495;  -10.734;13355.958
806.556; 8217.771;  -10.444;13747.896
807.124; 8493.741;  -12.764;13987.376
807.691; 8943.719;  -12.964;14038.674
808.258; 9004.544;  -11.134;14120.152
808.825; 8969.406;   -9.854;13860.111
809.392; 8533.242;  -10.504;13268.790
809.959; 7798.371;  -13.054;12680.389
810.526; 7097.791;   -8.294;12427.308
811.093; 6476.490;   -8.394;12030.105
811.659; 6255.729;  -12.304;11653.664
812.226; 6411.734;  -13.944;11637.183
812.793; 6799.440;  -10.484;11611.521
813.360; 6926.917;  -10.144;11885.181
813.926; 6910.199;  -11.684;12770.539
814.493; 6835.863;  -13.644;12677.638
815.060; 6741.102;   -9.724;11974.336
815.626; 6916.650;   -9.854;11594.715
816.193; 6948.663;  -13.254;11579.474
816.759; 6345.536;  -13.204;11666.972
817.325; 5951.285;   -9.434;11325.530
817.892; 5865.504;  -10.134;11105.369
818.458; 6045.743;  -13.474;10843.928
819.024; 6489.422;  -11.854;10714.406
819.591; 6588.706;  -10.244;10469.165
820.157; 6362.746;  -10.704;10235.523
820.723; 6318.269;  -12.324;10847.563
821.289; 6202.527;   -9.444;11040.980
821.855; 6245.842;   -8.374;10357.100
822.421; 6554.577;  -10.234; 9978.918
822.987; 6533.262;  -13.294; 9754.177
823.553; 6249.792;  -10.884;10065.755
824.119; 6030.412;   -8.884;10036.294
824.685; 5582.912;   -6.784;10029.192
825.251; 5510.992;  -12.004;10199.230
825.816; 5283.200;  -11.474; 9820.189
826.382; 5092.638;   -9.174; 9297.248
826.948; 5373.381;   -9.214; 9381.347
827.513; 5787.575;  -10.774; 9450.726
828.079; 5884.841;  -11.924; 9472.444
828.645; 5697.711;  -10.543; 9292.643
829.210; 5578.366;  -10.533; 9065.341
829.776; 5508.752;  -10.753; 9132.620
830.341; 5661.150;  -10.173; 9092.878
830.906; 5703.343;  -10.743; 9078.557
831.472; 5491.949;  -11.113; 8534.535
832.037; 5147.953;  -10.603; 8677.874
832.602; 5021.294;  -13.323; 8628.692
833.167; 4799.816;  -10.823; 8879.031
833.733; 4677.789;  -10.113; 9189.790
834.298; 4540.933;  -13.583; 9052.608
834.863; 4718.254;  -12.703; 8895.087
835.428; 4926.531;  -10.523; 8824.266
835.993; 4845.286;   -6.963; 8845.385
836.558; 4826.275;  -10.763; 8888.563
837.123; 5007.201;   -9.903; 8966.582
837.688; 5389.543;   -9.913; 8617.860
838.253; 5429.797;  -10.283; 8590.699
838.817; 5100.828;  -12.963; 8443.797
839.382; 4993.000;  -14.243; 8799.356
839.947; 5113.598;  -10.733; 8810.595
840.511; 5098.893;   -9.383; 8796.394
841.076; 4940.927;  -12.563; 8347.231
841.641; 4785.618;  -12.953; 8224.330
842.205; 4660.375;   -7.043; 8223.349
842.770; 4464.174;   -8.163; 8622.107
843.334; 4618.889;  -12.503; 8410.386
843.898; 4787.163;  -11.693; 8337.465
844.463; 4372.826;  -10.203; 8506.283
845.027; 4063.511;   -9.533; 8280.962
845.591; 4089.537;  -13.443; 8231.141
846.156; 4144.953;  -13.143; 7969.179
846.720; 3970.756;   -9.433; 7768.278
847.284; 3872.534;  -11.033; 7630.957
847.848; 3846.818;  -10.403; 7472.395
848.412; 3671.126;  -11.553; 7437.394
848.976; 3582.332;   -8.393; 7674.592
849.540; 3555.472;   -8.713; 7836.011
850.104; 3534.209;  -12.463; 7913.669
850.668; 3605.761;  -12.973; 7694.508
851.232; 3596.810;  -10.793; 7756.887
851.796; 3630.048;  -10.662; 7926.545
852.359; 3714.436;  -13.082; 7827.844
852.923; 3678.449;  -12.192; 7641.163
853.487; 3662.355;  -11.912; 7342.501
854.050; 3499.603;  -10.892; 7042.820
854.614; 3544.446;  -13.992; 7151.338
855.177; 3599.775;  -11.732; 7105.077
855.741; 3468.627;   -8.962; 6989.675
856.304; 3334.473;   -9.442; 6596.634
856.868; 3215.944;  -14.192; 6356.272
857.431; 3158.378;  -12.702; 6468.571
857.995; 3163.919;   -9.942; 6373.210
858.558; 3259.424;   -9.112; 6324.448
859.121; 3139.649;  -12.932; 6408.327
859.684; 2967.473;  -13.442; 6347.886
860.247; 2915.542;  -10.632; 6321.264
860.810; 2881.653;  -11.272; 6301.903
861.374; 2812.458;   -9.832; 6607.881
861.937; 2725.648;  -11.762; 6408.200
862.500; 2723.518;   -9.722; 6572.639
863.062; 2700.776;  -10.512; 6387.297
863.625; 2684.140;  -11.232; 6190.836
864.188; 2711.711;  -14.112; 5807.254
864.751; 2721.339;  -11.302; 5682.413
865.314; 2617.202;  -10.112; 5547.492
865.876; 2458.965;  -12.182; 5500.150
866.439; 2309.762;  -10.722; 5415.909
867.002; 2206.059;   -9.252; 5501.567
867.564; 2264.248;   -9.572; 5413.946
868.127; 2309.286;  -13.142; 5160.325
868.689; 2377.898;  -12.902; 5133.183
869.252; 2472.595;   -9.732; 5252.382
869.814; 2403.483;   -9.432; 5297.141
870.377; 2312.617;  -11.552; 5390.919
870.939; 2316.548;   -9.052; 5599.898
871.501; 2272.519;  -10.982; 5248.336
872.063; 2172.343;  -12.292; 4854.235
872.626; 2122.865;  -14.912; 4817.074
873.188; 2034.756;  -13.112; 4987.732
873.750; 2003.325;  -13.442; 4868.651
874.312; 1963.981;   -9.402; 4779.330
874.874; 1917.242;  -11.062; 4866.348
875.436; 1817.942;  -13.931; 4718.887
875.998; 1741.726;   -9.561; 4660.005
876.560; 1828.088;  -11.321; 4462.964
877.122; 2018.512;  -12.221; 4145.042
877.683; 2210.412;  -12.191; 4056.481
878.245; 2131.074;  -12.101; 3950.740
878.807; 1854.136;   -8.971; 4058.958
879.369; 1429.532;  -12.071; 3954.677
879.930; 1068.180;  -14.621; 3941.495
880.492;  946.766;  -10.311; 4067.014
881.053; 1004.018;  -10.901; 3859.633
881.615; 1083.994;  -14.411; 3776.071
882.176; 1109.408;  -13.761; 3734.750
882.738; 1113.440;   -9.181; 3678.489
883.299; 1158.455;  -11.791; 3405.407
883.860; 1219.575;  -13.121; 3351.106
884.422; 1210.451;  -11.211; 3394.044
884.983; 1161.153;  -10.091; 3166.443
885.544; 1144.091;   -8.461; 3189.802
886.105; 1106.337;  -12.361; 3160.360
886.666; 1058.137;  -14.141; 3093.059
887.227; 1032.790;  -11.361; 2941.957
887.788;  988.955;  -11.401; 2974.836
888.349;  909.526;  -13.791; 2721.214
888.910;  875.429;  -13.191; 2696.493
889.471;  845.762;   -9.881; 2560.172
890.032;  854.360;   -9.881; 2558.190
890.593;  848.553;  -10.371; 2567.669
891.153;  768.915;  -13.301; 2460.307
891.714;  668.914;  -11.431; 2372.046
892.275;  626.196;  -11.291; 2309.505
892.835;  638.495;  -11.471; 2382.543
893.396;  629.673;  -11.541; 2295.502
893.956;  605.027;  -11.181; 2162.420
894.517;  571.448;  -11.741; 2125.439
895.077;  524.534;  -11.671; 2086.978
895.638;  487.491;  -11.311; 2126.316
896.198;  475.864;   -9.831; 1838.275
896.758;  463.939;   -8.421; 1892.813
897.319;  443.546;  -12.351; 1792.232
897.879;  425.001;  -13.511; 1762.751
898.439;  392.143;  -12.001; 1661.149
898.999;  373.604;  -10.180; 1781.468
899.559;  369.801;  -12.030; 1703.347
900.119;  360.939;  -15.710; 1537.525
900.679;  347.210;   -8.900; 1638.384
901.239;  327.605;   -8.340; 1527.902
901.799;  300.997;  -13.910; 1456.441
902.359;  278.873;  -13.460; 1357.140
902.919;  271.407;  -11.490; 1331.118
903.479;  271.789;  -12.110; 1317.257
904.038;  266.706;  -11.720; 1262.595
904.598;  259.758;  -13.610; 1152.034
905.158;  247.731;  -11.040; 1240.893
905.717;  232.445;  -10.900; 1233.691
906.277;  224.243;  -15.080; 1217.330
906.836;  221.056;  -13.380; 1222.408
907.396;  218.756;  -10.780; 1193.047
907.955;  212.358;   -8.500; 1182.526
908.515;  207.052;  -12.760; 1099.364
909.074;  206.181;  -11.900; 1092.863
909.633;  205.756;   -8.950; 1069.121
910.192;  203.688;   -8.770; 1196.460
910.752;  193.740;  -12.390; 1029.960
911.311;  182.859;  -13.680; 1009.780
911.870;  173.866;  -12.370;  971.460
912.429;  168.153;  -10.900; 1094.080
912.988;  166.462;  -11.690; 1081.060
913.547;  161.931;  -13.240;  940.380
914.106;  158.616;  -11.990;  999.420
914.665;  155.430;   -9.990;  984.020
915.224;  152.190;  -12.880; 1035.760
915.782;  150.237;  -12.350;  922.560
916.341;  149.839;   -9.110; 1049.840
916.900;  147.830;   -9.270;  925.260
917.458;  147.386;  -13.240;  884.220
918.017;  146.470;  -13.550;  942.600
918.576;  144.163;  -12.320;  904.440
919.134;  143.086;  -11.490;  837.980
919.693;  142.011;  -13.670;  893.060
920.251;  141.506;  -15.470;  876.500
920.809;  141.704;  -11.290;  839.580
921.368;  140.722;  -10.210;  885.360
921.926;  139.050;  -12.140;  842.940
922.484;  135.993;  -13.080;  903.360
923.042;  134.372;  -11.720;  880.340
923.601;  136.163;   -7.480;  998.680
924.159;  132.804;  -11.570;  935.560
924.717;  131.015;  -13.840;  841.080
925.275;  131.655;  -10.640;  903.240
925.833;  131.059;  -11.540;  779.320
926.391;  132.803;  -12.960;  938.380
926.949;  131.988;  -14.130;  857.680
927.506;  131.533;  -11.750;  903.500
928.064;  131.347;  -10.250;  877.580
928.622;  131.491;  -13.030;  880.100
929.180;  134.022;  -13.400;  814.180
929.737;  135.991;  -10.700;  808.540
930.295;  139.243;  -10.070;  928.480
930.853;  138.739;  -11.960;  849.100
931.410;  138.896;  -13.120;  821.120
931.968;  140.729;  -10.770;  940.660
932.525;  141.715;  -10.680;  909.380
933.082;  141.456;  -13.130;  811.440
933.640;  141.585;  -13.210;  925.900
934.197;  140.750;  -11.060;  886.360
934.754;  141.779;   -9.580;  897.780
935.312;  143.126;  -14.000;  863.340
935.869;  144.427;  -10.710; 1012.980
936.426;  141.803;   -9.860;  872.800
936.983;  142.535;   -9.710;  889.020
937.540;  144.192;  -13.990;  838.280
938.097;  149.055;  -14.040;  940.120
938.654;  152.448;  -10.310;  898.860
939.211;  153.653;  -10.560;  952.480
939.768;  154.200;  -13.900;  915.420
940.324;  154.814;  -14.760;  904.200
940.881;  157.593;  -10.370;  878.500
941.438;  161.637;   -8.260; 1021.200
941.995;  160.846;  -12.540;  992.560
942.551;  161.460;  -14.670;  875.620
943.108;  162.393;  -10.450;  937.920
943.664;  162.191;  -10.750;  869.340
944.221;  166.708;  -11.550; 1088.140
944.777;  165.896;  -14.770;  869.680
945.334;  164.008;  -12.820;  884.840
945.890;  159.852;  -10.130;  946.480
946.446;  156.047;  -13.470;  947.020
947.003;  157.775;  -12.120;  964.940
947.559;  158.005;   -9.980; 1063.040
948.115;  154.099;   -9.080; 1026.540
948.671;  152.134;  -10.830;  967.300
949.227;  150.995;  -12.440;  859.560
949.783;  151.069;  -12.910;  858.900
950.339;  155.284;  -10.270;  991.000
950.895;  156.225;  -13.630; 1023.840
951.451;  155.083;  -15.100;  925.280
952.007;  153.751;  -11.330;  998.540
952.563;  150.334;  -10.580;  937.780
953.118;  148.248;  -13.440;  904.940
953.674;  145.945;  -12.710;  935.780
954.230;  148.438;  -10.350;  949.640
954.785;  152.583;   -9.190;  936.640
955.341;  154.182;  -11.200;  998.160
955.897;  149.827;  -16.560;  834.660
956.452;  147.192;  -12.570;  953.840
957.008;  144.943;   -7.970; 1083.640
957.563;  140.809;  -11.940; 1009.540
958.118;  136.802;  -13.450;  877.700
958.674;  135.443;  -12.030;  946.780
959.229;  136.005;   -9.410; 1013.980
959.784;  137.025;  -12.000;  832.400
960.339;  136.642;  -14.780; 1001.280
960.894;  134.459;   -9.860;  963.760
961.449;  131.934;   -9.970;  859.960
962.004;  132.140;  -10.900; 1212.840
962.559;  129.094;  -13.150;  860.140
963.114;  127.256;  -13.740;  742.480
963.669;  126.284;   -9.820;  915.500
964.224;  124.155;  -13.890;  874.340
964.779;  124.007;  -12.600;  828.420
965.334;  125.583;  -10.950; 1017.860
965.888;  124.420;  -11.170;  875.360
966.443;  124.402;  -12.540;  972.380
966.998;  122.027;  -15.780;  819.460
967.552;  120.611;   -9.760;  908.380
968.107;  117.221;   -9.060;  868.300
968.661;  118.145;  -11.950;  922.440
969.216;  115.541;  -12.800;  856.280
969.770;  113.220;  -11.210;  917.200
970.324;  113.832;  -11.610;  923.140
970.879;  115.418;  -11.370;  947.180
971.433;  116.842;  -12.540;  952.720
971.987;  115.015;  -11.320;  895.340
972.541;  114.183;  -10.720;  917.100
973.095;  113.190;   -9.680; 1009.460
973.649;  108.679;  -11.440;  809.480
974.203;  106.400;  -11.210;  829.040
974.757;  106.421;  -10.240;  855.220
975.311;  106.776;  -13.720;  872.600
975.865;  106.120;  -13.770;  881.820
976.419;  103.773;  -11.690;  857.400
976.973;  101.109;   -9.510;  849.620
977.526;  100.549;  -12.620;  949.920
978.080;   98.195;  -12.010;  796.780
978.634;   97.127;  -10.170;  921.320
979.187;   96.844;   -9.020;  905.400
979.741;   97.479;   -9.820; 1018.380
980.294;   94.911;  -14.870;  789.160
980.848;   93.590;  -12.380;  717.220
981.401;   94.852;  -10.350;  816.540
981.955;   94.379;  -13.720;  844.300
982.508;   89.481;  -11.490;  746.340
983.061;   89.723;  -10.000;  915.260
983.615;   87.492;  -11.480;  798.800
984.168;   85.607;  -13.220;  770.080
984.721;   84.717;  -13.960;  880.760
985.274;   82.860;  -10.870;  867.500
985.827;   81.336;   -9.790;  834.220
986.380;   79.669;  -13.120;  721.340
986.933;   79.383;  -12.450;  864.800
987.486;   77.673;  -10.210;  861.920
988.039;   78.480;   -8.430;  863.100
988.591;   78.080;  -10.520;  893.260
989.144;   75.657;  -14.860;  737.260
989.697;   72.881;  -13.080;  758.740
990.250;   74.132;  -10.150;  858.100
990.802;   71.240;  -13.430;  755.860
991.355;   71.355;  -12.750;  974.880
991.907;   69.251;  -12.040;  864.320
992.460;   67.146;  -11.330;  753.760
993.012;   66.382;  -13.610;  749.540
993.565;   63.729;  -13.460;  711.360
994.117;   65.124;   -9.360;  950.780
994.669;   62.369;  -11.300;  701.320
995.221;   61.965;  -13.540;  791.920
995.774;   60.067;  -13.430;  787.580
996.326;   58.452;  -12.520;  740.220
996.878;   58.020;  -10.950;  838.420
997.430;   56.008;  -14.300;  699.860
997.982;   54.691;  -13.760;  750.140
998.534;   53.648;  -11.530;  739.060
999.086;   54.071;  -10.310;  738.220
999.638;   52.837;  -12.530;  661.380
1000.190;   51.045;  -11.840;  699.320
1000.741;   51.195;  -10.260;  742.700
1001.293;   50.954;   -8.860;  686.020
1001.845;   50.211;  -13.700;  676.640
1002.396;   49.558;  -12.100;  743.400
1002.948;   48.895;  -12.760;  737.400
1003.500;   46.972;  -10.380;  723.780
1004.051;   48.042;  -11.900;  907.580
1004.603;   46.056;  -12.250;  791.820
1005.154;   43.375;  -13.210;  608.980
1005.705;   43.111;  -10.950;  723.960
1006.257;   41.926;  -13.880;  707.220
1006.808;   41.367;  -12.840;  685.460
1007.359;   40.974;  -10.570;  763.240
1007.910;   40.693;   -9.620;  646.640
1008.461;   40.135;  -13.630;  732.940
1009.013;   38.111;  -17.200;  588.340
1009.564;   39.641;  -10.200;  793.520
1010.115;   38.345;  -12.570;  597.040
1010.665;   37.594;  -15.150;  602.160
1011.216;   37.751;  -14.480;  667.920
1011.767;   37.146;  -11.340;  697.920
1012.318;   37.087;   -9.780;  736.980
1012.869;   36.640;  -12.380;  679.000
1013.419;   35.049;  -15.560;  603.120
1013.970;   36.424;  -11.010;  666.640
1014.521;   35.489;  -11.610;  620.620
1015.071;   36.377;  -13.450;  670.380
1015.622;   35.281;  -13.870;  635.460
1016.172;   34.892;  -11.610;  596.820
1016.723;   33.919;  -12.120;  614.380
1017.273;   34.021;  -13.620;  604.160
1017.823;   33.553;  -14.140;  650.340
1018.374;   33.034;  -12.800;  611.760
1018.924;   33.100;  -12.340;  716.880
1019.474;   33.813;  -11.410;  718.880
1020.024;   31.765;  -14.770;  657.580
1020.574;   33.090;   -9.780;  726.160
1021.124;   33.221;   -8.560;  673.580
1021.674;   32.012;  -15.190;  559.120
1022.224;   32.266;  -13.530;  708.940
1022.774;   31.655;  -13.280;  668.820
1023.324;   32.762;  -10.690;  753.520
1023.874;   33.533;  -10.240;  875.760
1024.423;   31.265;  -12.540;  613.700
1024.973;   30.281;  -10.010;  610.760
1025.523;   31.075;  -10.550;  620.960
1026.072;   30.363;  -13.560;  606.420
1026.622;   29.685;  -15.120;  675.740
1027.172;   31.016;  -11.260;  715.660
1027.721;   30.103;  -11.410;  601.220
1028.270;   30.297;  -13.530;  663.400
1028.820;   29.356;  -13.680;  638.080
1029.369;   30.040;  -13.520;  612.700
1029.918;   29.283;  -10.980;  649.840
1030.468;   29.045;  -13.530;  564.780
1031.017;   28.669;  -13.170;  634.800
1031.566;   28.114;  -12.200;  608.900
1032.115;   28.735;   -9.960;  694.500
1032.664;   28.090;  -13.210;  596.480
1033.213;   28.116;  -12.500;  735.420
1033.762;   27.145;  -11.910;  635.620
1034.311;   27.520;   -9.640;  677.220
1034.860;   27.864;  -13.310;  691.000
1035.408;   27.866;  -11.830;  722.720
1035.957;   27.293;  -12.000;  719.540
1036.506;   25.704;  -11.690;  530.800
1037.055;   28.201;  -10.990;  844.320
1037.603;   26.752;  -15.120;  664.000
1038.152;   24.896;  -12.450;  534.760
1038.700;   25.774;  -10.560;  585.740
1039.249;   25.787;  -11.080;  681.220
1039.797;   25.322;  -12.540;  633.360
1040.345;   25.706;  -11.920;  705.420
1040.894;   25.040;  -11.410;  625.300
1041.442;   25.267;  -14.320;  632.200
1041.990;   24.350;  -16.240;  559.160
1042.538;   23.179;  -11.680;  536.180
1043.087;   23.461;  -10.760;  570.860
1043.635;   25.009;  -11.850;  670.500
1044.183;   23.672;  -15.480;  586.400
1044.731;   23.505;  -11.770;  576.000
1045.279;   24.116;  -13.090;  674.920
1045.827;   25.738;  -12.440;  892.400
1046.374;   22.616;  -13.840;  515.420
1046.922;   22.300;  -13.220;  590.580
1047.470;   23.379;  -10.230;  691.300
1048.018;   23.695;  -14.590;  647.960
1048.565;   23.952;  -12.050;  708.600
1049.113;   22.345;  -11.650;  557.000
1049.660;   22.415;  -10.510;  629.660
1050.208;   22.686;  -13.310;  675.640
1050.755;   21.249;  -15.900;  606.580
1051.303;   22.005;  -11.430;  686.820
1051.850;   22.216;   -8.480;  635.120
1052.397;   19.966;  -15.010;  473.960
1052.945;   20.541;  -13.960;  617.760
1053.492;   22.273;  -13.150;  741.840
1054.039;   22.302;   -9.630;  720.180
1054.586;   20.501;  -13.680;  557.240
1055.133;   21.722;  -14.570;  693.140
1055.680;   21.527;  -13.820;  646.620
1056.227;   20.885;  -11.730;  542.780
1056.774;   22.342;  -12.480;  794.980
1057.321;   19.659;  -13.930;  523.260
1057.868;   20.516;  -11.690;  651.320
1058.415;   20.523;   -9.520;  651.980
1058.961;   20.458;  -13.160;  678.940
1059.508;   20.817;  -12.920;  643.820
1060.055;   19.805;  -11.920;  581.780
1060.601;   20.418;  -11.500;  624.300
1061.148;   19.734;  -14.330;  616.820
1061.694;   19.022;  -16.870;  592.580
1062.241;   19.072;  -10.330;  596.320
1062.787;   19.034;  -10.620;  663.140
1063.334;   21.350;  -10.110;  808.560
1063.880;   19.314;  -13.400;  668.360
1064.426;   18.839;  -10.680;  706.820
1064.972;   18.082;   -9.920;  601.340
1065.518;   17.411;  -10.980;  566.640
1066.065;   18.394;  -14.890;  624.460
1066.611;   17.750;  -12.870;  598.800
1067.157;   17.851;  -12.950;  641.860
1067.703;   18.401;  -13.540;  668.480
1068.249;   17.714;  -13.540;  605.220
1068.794;   17.052;  -12.600;  626.880
1069.340;   17.080;  -10.620;  578.960
1069.886;   17.037;  -12.830;  590.700
1070.432;   16.055;  -14.870;  541.720
1070.977;   16.289;  -11.980;  601.080
1071.523;   16.817;   -8.200;  573.060
1072.068;   17.028;  -12.330;  582.000
1072.614;   16.350;  -16.370;  527.760
1073.160;   17.133;  -11.100;  687.040
1073.705;   16.505;  -10.480;  572.520
1074.250;   15.816;  -14.520;  559.900
1074.796;   16.700;  -11.460;  655.160
1075.341;   16.404;  -11.950;  664.100
1075.886;   15.424;  -11.460;  594.240
1076.431;   15.459;  -13.770;  649.880
1076.976;   15.592;  -12.680;  639.220
1077.521;   15.129;  -13.170;  583.080
1078.067;   14.849;  -10.860;  579.400
1078.612;   15.790;  -13.920;  661.620
1079.156;   15.314;  -13.880;  601.540
1079.701;   15.133;  -13.120;  693.260
1080.246;   15.484;   -9.940;  696.300
1080.791;   15.711;  -14.740;  625.020
1081.336;   14.747;  -13.750;  659.320
1081.880;   14.229;  -13.400;  649.680
1082.425;   14.253;  -12.220;  573.480
1082.970;   14.825;  -11.610;  717.040
1083.514;   13.812;  -13.580;  597.000
1084.059;   12.931;  -12.810;  586.720
1084.603;   13.095;  -12.320;  565.840
1085.147;   14.742;  -13.190;  645.220
1085.692;   15.209;  -12.480;  716.800
1086.236;   12.356;  -13.020;  503.140
1086.780;   14.725;   -9.190;  751.440
1087.325;   14.439;  -12.480;  654.620
1087.869;   12.956;  -12.450;  610.700
1088.413;   13.991;  -12.240;  705.040
1088.957;   11.964;   -9.020;  543.400
1089.501;   14.045;  -10.320;  766.640
1090.045;   13.022;  -12.720;  726.480
1090.589;   10.896;  -13.690;  569.920
1091.133;   13.221;  -10.020;  673.340
1091.676;   12.318;  -12.330;  591.940
1092.220;   12.462;  -14.970;  600.920
1092.764;   12.829;  -12.430;  706.960
1093.307;   12.778;   -9.800;  673.780
1093.851;   11.287;  -14.970;  556.540
1094.395;   12.326;  -15.310;  683.140
1094.938;   10.846;  -10.370;  632.520
1095.482;   11.415;  -11.050;  559.800
1096.025;   11.914;  -11.840;  710.880
1096.568;   12.364;  -12.840;  779.280
1097.112;    9.410;  -14.700;  508.180
1097.655;   12.040;   -8.720;  603.000
1098.198;    9.979;  -13.610;  600.180
1098.741;   10.367;  -13.350;  612.860
1099.285;   10.970;  -11.230;  657.300
1099.828;    9.134;  -11.840;  439.400
1100.371;   10.212;  -10.840;  608.160
1100.914;   10.137;  -14.190;  682.660
1101.457;   10.353;  -11.240;  679.900
1101.999;    9.077;  -11.270;  584.680
1102.542;   10.322;  -11.480;  641.440
1103.085;    9.812;  -11.750;  658.500
1103.628;   10.522;  -11.400;  762.060
1104.170;    8.680;  -10.490;  588.280
1104.713;   10.146;  -10.600;  646.700
1105.256;    8.858;  -14.360;  557.440
1105.798;    7.557;  -13.210;  499.980
1106.341;    9.967;  -10.270;  728.900
1106.883;    9.158;  -12.200;  521.340
1107.425;    8.608;  -13.110;  668.180
1107.968;    8.726;  -12.840;  612.380
1108.510;    9.562;   -6.480;  684.960
1109.052;    7.861;  -13.940;  612.620
1109.594;    8.196;  -13.690;  554.440
1110.136;    8.745;  -11.880;  643.220
1110.679;    8.463;   -9.500;  633.080
1111.221;    8.742;  -14.160;  604.460
1111.763;    8.129;  -13.980;  559.220
1112.304;    6.761;  -13.880;  547.140
1112.846;    8.089;  -12.210;  666.240
1113.388;   11.079;  -11.390;  942.180
1113.930;    7.509;  -14.540;  694.200
1114.472;    7.319;  -12.640;  606.540
1115.013;    6.067;  -11.620;  551.280
1115.555;    6.413;  -13.640;  587.100
1116.097;    5.630;  -15.380;  579.480
1116.638;    7.602;  -12.640;  684.600
1117.180;    7.340;   -9.850;  667.740
1117.721;    7.459;  -13.690;  568.580
1118.262;    7.651;  -12.680;  677.960
1118.804;    6.728;  -12.530;  637.340
1119.345;    6.555;  -11.690;  578.400
1119.886;    7.371;  -13.380;  704.040
1120.427;    6.326;  -14.070;  589.020
1120.969;    5.805;  -13.500;  597.920
1121.510;    5.920;  -11.480;  563.060
1122.051;    6.073;  -12.830;  723.580
1122.592;    5.976;  -14.290;  655.420
1123.133;    4.386;  -12.400;  547.940
1123.673;    6.736;  -10.130;  706.480
1124.214;    5.646;  -12.930;  612.460
1124.755;    6.311;  -14.380;  639.460
1125.296;    4.608;  -14.000;  627.320
1125.836;    6.184;  -10.070;  691.500
1126.377;    4.926;  -12.640;  599.660
1126.918;    5.614;  -12.960;  614.980
1127.458;    4.222;  -13.350;  622.220
1127.999;    5.611;  -10.750;  656.980
1128.539;    5.603;  -12.350;  694.240
1129.079;    4.305;  -14.860;  632.720
1129.620;    3.803;  -13.840;  558.100
1130.160;    3.735;  -12.330;  539.480
1130.700;    5.030;  -14.530;  640.840
1131.240;    4.796;  -12.530;  643.700
1131.781;    4.150;  -14.450;  619.680
1132.321;    4.600;   -9.790;  599.120
1132.861;    3.310;  -14.860;  564.200
1133.401;    3.213;  -14.290;  593.940
1133.941;    4.585;  -11.750;  626.280
1134.481;    3.463;   -9.920;  597.580
1135.020;    4.212;  -12.290;  609.160
1135.560;    3.979;  -11.650;  674.940
1136.100;    3.302;  -16.270;  501.160
1136.640;    2.903;  -10.890;  510.480
1137.179;    3.340;  -14.180;  537.960
1137.719;    2.800;  -16.250;  605.400
1138.258;    2.429;  -14.230;  587.360
1138.798;    3.438;   -9.090;  663.780
1139.337;    2.112;  -15.130;  482.840
1139.877;    3.377;  -13.680;  642.360
1140.416;    4.947;  -11.320;  878.060
1140.955;    2.197;  -10.860;  535.380
1141.494;    3.554;  -12.920;  669.280
1142.034;    2.428;  -13.930;  583.520
1142.573;    3.331;  -11.440;  646.280
1143.112;    2.219;  -12.000;  553.480
1143.651;    2.713;  -13.670;  536.480
1144.190;    2.556;  -12.730;  691.640
1144.729;    2.364;  -14.560;  607.420
1145.267;    2.071;  -11.830;  584.900
1145.806;    2.607;  -12.230;  637.040
1146.345;    2.313;  -14.130;  635.020
1146.884;    1.883;  -11.590;  622.500
1147.422;    1.510;  -12.550;  533.060
1147.961;    3.693;  -11.180;  708.460
1148.500;    2.263;  -11.510;  669.720
1149.038;    2.623;  -11.640;  632.500
1149.577;    2.438;  -10.130;  698.640
1150.115;    0.356;  -13.970;  452.280
1150.653;    1.812;  -14.520;  607.340
1151.192;    1.374;  -12.810;  552.920
1151.730;    1.356;   -9.100;  652.560
1152.268;    0.763;  -12.220;  589.520
1152.806;    0.977;  -14.140;  571.180
1153.344;   -0.389;  -12.350;  577.640
1153.882;    1.479;   -8.980;  600.060
1154.421;    0.160;  -15.190;  470.620
1154.958;   -0.119;  -15.210;  595.240
1155.496;    0.869;  -12.850;  645.280
1156.034;    1.587;   -9.940;  721.880
1156.572;    1.545;  -13.570;  667.060
1157.110;   -0.282;  -14.590;  473.940
1157.647;    0.617;  -13.030;  676.960
1158.185;    0.017;  -12.140;  564.320
1158.723;   -0.452;  -14.390;  509.200
1159.260;    0.719;  -14.090;  701.700
1159.798;    0.596;  -11.920;  658.160
1160.335;    0.740;  -11.110;  631.820

