
Integration time [ms]:   3.276
Averaging Nr. [scans]: 1000
Smoothing Nr. [pixels]: 0
Data measured with spectrometer [name]: 7414430SP
Wave   ;Sample   ;Dark     ;Reference
[nm]   ;[counts] ;[counts] ;[counts] 

288.544;  152.051;    7.793;  793.890
289.143;  156.501;    7.462;  681.602
289.742;  155.964;    8.602;  828.814
290.341;  141.614;    1.321;  789.841
290.940;  130.488;   -0.709;  730.702
291.538;  131.174;    0.881;  881.108
292.137;  131.242;    0.122;  792.581
292.736;  135.897;   -1.929;  975.101
293.335;  131.993;   -8.229;  735.086
293.934;  133.105;   -5.279;  781.677
294.532;  131.696;   -1.369; 1031.958
295.131;  116.917;   -7.641;  834.394
295.730;  117.567;   -8.420;  809.588
296.328;  116.910;   -5.611;  783.442
296.927;  117.555;   -5.781;  779.652
297.525;  118.435;   -6.361;  781.236
298.124;  107.753;  -11.382;  654.009
298.722;  111.344;   -7.641;  761.933
299.321;  110.269;   -6.811;  708.597
299.919;  108.009;   -6.991;  751.918
300.518;  104.382;  -10.362;  689.338
301.116;  106.398;   -9.581;  691.381
301.715;  106.738;   -4.891;  730.222
302.313;  105.856;   -8.801;  704.943
302.911;  100.465;   -8.522;  733.830
303.509;  105.222;   -6.171;  925.627
304.108;  103.653;   -7.311;  760.383
304.706;  103.378;   -8.321;  801.664
305.304;   96.226;  -10.222;  796.707
305.902;  102.413;   -6.021;  784.484
306.500;   98.404;   -4.971;  728.200
307.098;   96.660;   -7.061;  746.560
307.696;   94.489;   -8.801;  780.432
308.294;   95.033;   -6.411;  731.359
308.892;   98.053;   -2.901;  759.769
309.490;   94.141;   -5.041;  712.161
310.088;   91.541;   -5.002;  788.444
310.686;   95.922;   -2.041;  821.749
311.284;   91.955;   -2.351;  766.040
311.882;   88.466;   -4.422;  731.225
312.480;   86.022;   -4.192;  697.167
313.078;   87.676;   -1.172;  808.331
313.675;   88.985;   -2.601;  691.600
314.273;   83.973;   -1.312;  797.837
314.871;   82.941;   -3.942;  589.829
315.468;   80.639;   -2.802;  652.090
316.066;   83.637;   -0.701;  694.427
316.664;   76.863;   -4.362;  656.351
317.261;   80.763;   -2.872;  910.128
317.859;   76.220;   -2.022;  768.735
318.456;   76.779;   -0.531;  830.096
319.054;   72.123;   -3.912;  787.828
319.651;   71.079;   -4.752;  759.928
320.249;   71.078;   -2.602;  810.188
320.846;   68.518;   -0.821;  714.286
321.443;   65.638;   -4.642;  832.135
322.041;   61.826;   -5.002;  812.315
322.638;   59.522;   -3.982;  701.456
323.235;   61.559;   -3.411;  665.683
323.833;   59.536;   -7.361;  740.354
324.430;   53.883;   -8.611;  615.900
325.027;   55.103;   -4.061;  876.855
325.624;   54.823;   -4.031;  644.532
326.221;   51.598;   -7.481;  689.717
326.818;   51.367;   -5.281;  818.332
327.415;   54.262;   -7.460;  748.828
328.012;   54.623;   -5.510;  690.585
328.609;   52.339;   -7.880;  731.389
329.206;   50.602;   -8.331;  778.621
329.803;   50.681;   -5.121;  737.841
330.400;   53.298;   -4.510;  704.260
330.997;   55.049;   -6.441;  817.147
331.594;   53.325;   -8.831;  788.185
332.191;   58.884;   -7.621;  728.722
332.787;   61.997;   -4.591;  844.463
333.384;   60.519;   -7.412;  763.093
333.981;   58.444;   -8.293;  815.687
334.578;   61.745;   -7.052;  708.378
335.174;   64.634;   -3.102;  731.469
335.771;   64.011;   -5.943;  836.456
336.367;   60.484;   -7.393;  710.631
336.964;   65.428;   -4.063;  793.266
337.561;   62.797;   -3.813;  731.112
338.157;   58.532;   -4.654;  911.916
338.754;   55.759;   -7.934;  796.589
339.350;   53.553;   -4.414;  722.493
339.946;   56.509;   -4.664;  773.135
340.543;   48.002;   -6.375;  846.136
341.139;   42.048;   -9.815;  720.836
341.735;   40.563;   -4.526;  772.593
342.332;   39.010;   -4.895;  691.472
342.928;   39.694;   -4.295;  795.394
343.524;   33.268;   -5.476;  761.684
344.120;   29.043;   -5.856;  738.562
344.716;   32.567;   -2.155;  723.717
345.313;   30.831;   -6.275;  795.342
345.909;   24.219;   -8.815;  627.336
346.505;   26.765;   -5.305;  740.247
347.101;   28.312;   -2.674;  827.864
347.697;   28.274;   -4.344;  785.398
348.293;   21.782;   -9.975;  627.244
348.889;   23.295;   -5.774;  745.914
349.485;   22.525;   -5.004;  688.205
350.081;   22.780;   -4.704;  772.592
350.676;   18.082;   -6.635;  691.606
351.272;   23.045;   -4.504;  809.530
351.868;   23.027;   -3.914;  780.497
352.464;   18.752;   -9.044;  723.932
353.059;   14.831;   -8.314;  646.017
353.655;   18.992;   -7.024;  777.063
354.251;   20.535;   -5.343;  759.845
354.846;   14.913;   -8.604;  740.646
355.442;   12.615;   -6.945;  753.071
356.038;   14.578;   -7.564;  751.708
356.633;   14.613;   -5.814;  728.594
357.229;   12.661;   -7.364;  724.757
357.824;   10.711;   -8.024;  703.600
358.420;   10.576;   -9.384;  679.726
359.015;   10.343;   -5.104;  695.357
359.610;   11.212;   -6.854;  763.920
360.206;    4.613;  -10.185;  603.240
360.801;    7.948;   -7.054;  646.503
361.396;   11.135;   -5.034;  725.975
361.992;    5.729;   -8.284;  668.220
362.587;    3.383;   -8.625;  670.160
363.182;    5.157;   -7.674;  689.631
363.777;    6.413;   -5.164;  738.242
364.372;    5.999;   -8.604;  737.314
364.967;    1.285;   -9.055;  680.744
365.563;    6.396;   -6.114;  815.567
366.158;    3.843;   -5.814;  685.161
366.753;    4.032;   -7.854;  649.263
367.348;    1.717;   -7.804;  746.056
367.942;    1.426;   -7.954;  697.298
368.537;    1.396;   -4.984;  754.245
369.132;    1.020;   -8.564;  703.428
369.727;   -3.426;   -8.855;  638.079
370.322;   -2.192;   -6.245;  580.186
370.917;   -1.350;   -6.425;  710.646
371.511;    1.268;   -6.294;  861.834
372.106;   -2.999;   -7.685;  776.964
372.701;   -5.721;   -7.335;  585.988
373.296;    0.335;   -4.564;  863.135
373.890;   -5.014;  -10.235;  647.840
374.485;   -7.277;   -7.885;  691.199
375.079;   -2.540;   -7.324;  738.685
375.674;   -1.058;   -3.494;  812.970
376.268;   -5.864;   -8.525;  691.759
376.863;  -12.276;  -10.086;  580.327
377.457;   -5.665;   -7.025;  662.490
378.052;   -7.471;   -3.585;  764.884
378.646;   -7.754;   -7.595;  741.167
379.240;   -8.864;   -8.335;  721.176
379.835;   -7.704;   -5.785;  636.978
380.429;   -9.495;   -4.335;  562.557
381.023;  -10.209;   -6.805;  779.205
381.617;  -11.839;   -9.195;  680.106
382.212;   -8.365;   -6.905;  685.303
382.806;   -7.549;   -3.745;  760.690
383.400;  -11.517;   -7.745;  672.281
383.994;  -13.569;   -9.765;  664.870
384.588;   -9.882;   -6.564;  697.701
385.182;   -7.106;   -5.344;  726.624
385.776;   -9.274;   -8.514;  706.875
386.370;  -13.358;   -9.555;  681.968
386.964;  -11.209;   -8.715;  684.155
387.558;   -9.500;   -6.174;  598.360
388.152;  -12.412;   -8.725;  681.959
388.745;  -11.906;   -7.965;  814.707
389.339;  -10.352;   -5.924;  747.642
389.933;   -8.596;   -5.524;  695.370
390.527;   -9.725;   -7.114;  859.029
391.120;  -16.549;  -10.725;  595.318
391.714;  -13.524;   -8.035;  711.633
392.308;   -9.822;   -3.574;  780.253
392.901;  -14.003;   -7.245;  642.460
393.495;  -16.177;   -9.285;  595.414
394.089;  -13.255;   -5.895;  760.452
394.682;  -13.627;   -4.295;  697.188
395.275;  -14.941;   -9.875;  719.927
395.869;  -16.423;   -8.485;  667.314
396.462;  -14.560;   -7.455;  616.609
397.056;  -10.153;   -5.424;  776.621
397.649;  -15.431;   -6.605;  731.575
398.242;  -12.522;   -8.224;  712.645
398.836;  -11.770;   -7.474;  766.408
399.429;  -12.923;   -7.094;  631.041
400.022;  -16.748;   -9.475;  665.902
400.615;  -14.050;   -7.145;  805.609
401.208;  -12.150;   -7.174;  691.451
401.802;  -13.871;   -5.515;  699.329
402.395;  -15.924;   -9.875;  683.502
402.988;  -16.535;   -8.845;  696.627
403.581;  -13.148;   -8.874;  646.878
404.174;  -10.736;   -5.324;  686.568
404.767;  -13.533;   -9.575;  638.583
405.360;  -16.399;  -10.965;  621.445
405.953;  -10.668;   -8.764;  759.034
406.545;  -10.062;   -7.514;  725.342
407.138;  -14.356;  -10.025;  618.350
407.731;  -13.348;  -10.034;  613.303
408.324;   -9.950;   -9.374;  660.554
408.917;   -9.890;   -6.534;  681.864
409.509;  -11.813;   -8.004;  740.396
410.102;  -13.628;   -9.875;  643.948
410.695;   -8.037;   -8.604;  665.758
411.287;   -8.731;   -6.794;  599.821
411.880;  -10.506;   -9.334;  585.421
412.472;  -14.025;  -10.254;  613.092
413.065;  -10.622;   -6.714;  629.408
413.657;   -7.635;   -7.234;  576.678
414.250;   -7.917;  -10.544;  646.681
414.842;  -10.256;   -9.744;  676.353
415.434;   -7.651;   -6.994;  570.463
416.027;   -3.601;   -5.893;  652.196
416.619;   -5.417;   -7.264;  713.400
417.211;   -6.569;  -10.374;  599.352
417.804;   -3.061;   -7.993;  628.499
418.396;   -6.353;   -7.234;  607.643
418.988;   -4.047;   -9.443;  659.238
419.580;   -8.186;  -10.724;  568.276
420.172;   -6.745;  -10.323;  536.196
420.764;   -0.686;   -8.793;  672.482
421.356;   -2.318;  -11.143;  636.898
421.948;   -3.902;   -8.293;  677.661
422.540;    1.539;   -7.893;  680.027
423.132;    1.390;   -7.082;  600.641
423.724;   -2.265;   -8.653;  561.267
424.316;   -0.321;  -10.213;  621.345
424.908;    2.924;   -9.762;  591.517
425.500;    3.777;   -5.572;  647.978
426.092;    4.285;   -8.422;  648.268
426.683;    2.948;   -9.283;  684.836
427.275;    5.652;   -7.852;  641.471
427.867;    8.267;   -5.272;  668.948
428.458;    7.921;   -7.682;  732.344
429.050;    6.629;  -10.612;  680.749
429.642;    9.010;   -9.882;  743.124
430.233;    9.423;   -6.962;  569.356
430.825;   10.458;   -6.842;  724.809
431.416;    7.522;   -9.672;  698.241
432.008;   12.125;   -6.552;  651.723
432.599;   12.991;   -6.891;  656.073
433.190;    9.408;  -10.912;  637.670
433.782;    7.466;  -11.172;  590.395
434.373;   15.804;   -6.061;  884.765
434.964;   14.607;   -8.251;  602.920
435.556;   12.379;   -9.722;  634.537
436.147;   14.747;   -9.082;  758.490
436.738;   15.024;   -8.041;  701.099
437.329;   21.019;   -7.341;  721.723
437.920;   13.360;   -8.162;  666.688
438.511;   13.220;  -11.802;  564.526
439.103;   19.661;  -10.191;  623.998
439.694;   21.935;   -7.601;  681.583
440.285;   22.805;   -8.541;  764.432
440.876;   20.062;   -9.751;  845.738
441.466;   20.163;   -9.401;  575.162
442.057;   25.431;   -7.760;  665.814
442.648;   24.380;   -9.971;  746.255
443.239;   22.217;  -11.001;  620.477
443.830;   27.681;   -7.990;  704.958
444.421;   29.499;   -7.910;  655.474
445.011;   25.633;   -8.131;  693.619
445.602;   25.334;   -7.111;  743.126
446.193;   27.521;  -10.920;  488.117
446.783;   32.322;   -6.500;  640.397
447.374;   26.882;   -8.671;  692.759
447.964;   27.394;  -10.781;  713.770
448.555;   36.426;   -9.650;  822.742
449.145;   32.985;   -8.660;  662.853
449.736;   33.396;   -8.990;  803.179
450.326;   33.098;   -9.500;  713.626
450.917;   38.470;   -8.680;  675.324
451.507;   37.504;   -7.520;  600.661
452.097;   38.487;   -8.590;  746.267
452.688;   39.303;  -11.340;  742.160
453.278;   39.183;  -10.100;  566.840
453.868;   44.161;   -6.019;  793.550
454.458;   41.112;   -9.440;  651.141
455.048;   41.324;  -10.560;  711.783
455.639;   43.506;  -11.799;  567.096
456.229;   47.256;   -6.899;  710.694
456.819;   49.309;   -7.389;  751.158
457.409;   48.753;  -11.119;  773.993
457.999;   52.357;   -9.289;  737.505
458.589;   51.857;   -6.139;  686.606
459.179;   52.095;   -8.729;  717.658
459.769;   49.208;   -9.789;  627.099
460.358;   53.539;  -10.259;  797.262
460.948;   54.378;   -7.299;  689.503
461.538;   56.537;  -10.289;  660.677
462.128;   53.693;  -11.269;  664.934
462.717;   60.339;   -9.368;  710.326
463.307;   64.176;   -7.908;  705.846
463.897;   59.689;   -9.599;  656.942
464.486;   58.983;   -9.769;  837.128
465.076;   63.626;   -8.048;  733.776
465.666;   67.358;   -9.358;  652.900
466.255;   64.555;   -7.919;  785.651
466.845;   62.669;  -11.689;  666.749
467.434;   66.559;   -7.818;  725.873
468.023;   67.925;   -7.678;  658.357
468.613;   65.968;  -10.939;  713.946
469.202;   69.477;  -10.118;  646.507
469.791;   73.438;   -9.108;  737.811
470.381;   76.113;   -6.058;  742.813
470.970;   75.437;  -10.428;  711.099
471.559;   74.984;  -10.268;  733.291
472.148;   78.224;   -8.448;  675.737
472.738;   80.544;   -6.917;  765.466
473.327;   80.140;  -11.978;  637.529
473.916;   80.105;  -11.888;  737.446
474.505;   84.340;   -9.437;  751.703
475.094;   87.781;   -6.747;  806.570
475.683;   86.913;   -9.367;  797.699
476.272;   86.970;  -12.637;  730.632
476.861;   90.465;  -10.027;  706.754
477.449;   97.048;   -8.716;  728.487
478.038;   91.952;   -9.577;  692.513
478.627;   92.480;   -9.718;  714.852
479.216;   99.362;   -8.947;  769.441
479.805;  103.113;   -6.256;  783.375
480.393;  101.919;   -7.937; 1008.945
480.982;  100.944;   -7.717;  874.501
481.571;  107.638;   -9.266;  858.333
482.159;  108.630;   -7.636;  705.386
482.748;  107.867;   -9.667;  821.385
483.336;  111.671;  -10.376;  858.209
483.925;  113.976;   -7.147;  774.373
484.513;  119.734;   -7.996;  758.962
485.102;  117.317;  -10.027;  810.965
485.690;  125.496;  -10.446; 1011.050
486.278;  126.751;   -8.446;  979.329
486.867;  127.468;   -6.356;  809.662
487.455;  130.222;   -9.136;  898.229
488.043;  131.148;  -10.646;  748.361
488.631;  139.853;   -7.456; 1005.079
489.220;  144.393;   -6.636;  908.626
489.808;  144.227;  -11.036;  741.415
490.396;  151.975;  -10.246;  914.645
490.984;  157.911;   -8.556;  830.161
491.572;  167.485;   -5.886;  940.315
492.160;  173.344;   -9.486;  919.081
492.748;  185.560;  -10.976;  884.341
493.336;  208.250;   -8.776; 1019.693
493.924;  234.676;   -5.465;  958.077
494.512;  262.541;   -9.986; 1066.638
495.100;  299.183;  -10.636; 1103.280
495.687;  356.392;  -10.885; 1206.373
496.275;  419.512;   -8.126; 1150.796
496.863;  487.802;  -10.586; 1281.171
497.451;  586.964;  -11.926; 1386.805
498.038;  720.769;  -10.885; 1556.729
498.626;  830.117;   -6.315; 1741.407
499.214;  983.076;   -7.326; 2016.609
499.801; 1181.404;  -11.906; 2220.633
500.389; 1414.491;  -10.466; 2312.494
500.976; 1723.166;   -5.236; 2744.849
501.564; 2154.373;   -8.936; 3148.565
502.151; 2514.568;  -13.176; 3515.999
502.738; 2940.370;  -10.646; 3971.274
503.326; 3330.395;   -9.525; 4403.796
503.913; 3749.799;  -10.856; 5161.749
504.500; 4144.667;  -11.586; 5986.420
505.088; 4534.407;  -10.336; 6381.201
505.675; 5063.931;   -6.355; 6925.547
506.262; 5752.553;   -9.046; 7619.060
506.849; 6502.836;  -10.416; 8733.969
507.436; 7058.353;  -10.305; 9790.121
508.023; 7619.833;   -5.496; 9985.472
508.610; 7813.380;   -7.856;10434.618
509.197; 8419.948;  -10.097;11198.435
509.784; 9733.320;  -10.886;12391.194
510.371;10912.109;   -9.315;13603.713
510.958;11664.229;   -9.936;14426.586
511.545;12327.420;   -9.326;15243.775
512.132;13148.673;  -10.075;15945.876
512.719;13755.070;   -7.796;16340.369
513.305;15001.012;  -10.606;18011.766
513.892;15787.385;  -11.486;19754.971
514.479;16948.000;   -9.126;20967.805
515.066;18226.572;   -6.026;22299.793
515.652;19703.238;   -8.466;22908.660
516.239;21030.680;  -10.886;23798.875
516.825;21977.141;  -11.496;25567.275
517.412;23112.143;   -5.796;28154.959
517.998;23826.559;  -10.506;28344.111
518.585;23684.031;  -10.076;27134.219
519.171;24142.717;   -8.315;27268.576
519.758;26085.916;   -8.596;28964.129
520.344;27972.654;   -8.466;30664.494
520.930;27571.688;  -11.006;32550.605
521.516;28800.215;  -10.495;35422.895
522.103;30766.975;   -5.526;38280.004
522.689;31443.033;   -8.746;37835.117
523.275;30678.799;  -11.376;37288.613
523.861;31987.865;  -11.156;37281.395
524.447;33771.590;   -8.135;37846.949
525.033;33624.930;   -7.896;38321.949
525.619;33780.258;  -12.476;38579.285
526.205;34979.414;   -9.516;40622.875
526.791;37700.285;   -6.926;42258.836
527.377;37378.430;   -8.346;42966.902
527.963;38145.422;   -8.717;42018.949
528.549;37260.195;  -11.016;42476.828
529.135;35717.820;   -8.536;41854.852
529.721;34070.930;   -9.666;41237.711
530.306;31958.270;  -10.066;41259.445
530.892;30143.367;  -11.356;41506.047
531.478;31512.051;   -6.596;43559.613
532.063;36728.902;   -8.836;47695.563
532.649;39388.484;  -10.047;50808.324
533.235;40436.574;   -9.746;51787.500
533.820;40713.230;   -6.566;52145.035
534.406;40976.637;  -10.817;51133.488
534.991;39221.969;   -9.416;49996.805
535.576;35231.852;   -9.036;48882.852
536.162;32955.090;   -6.156;46942.285
536.747;33558.590;  -11.607;45711.746
537.333;39348.172;  -11.787;48510.180
537.918;46126.051;  -12.437;50439.891
538.503;48670.340;   -7.196;50863.711
539.088;47050.637;  -10.556;50906.922
539.673;47844.047;   -8.767;52621.965
540.259;48522.297;  -10.026;52368.094
540.844;45541.348;   -7.416;50879.109
541.429;46961.457;   -9.467;52077.777
542.014;49089.855;   -9.527;52716.695
542.599;48224.332;   -9.946;52363.281
543.184;45025.914;   -7.927;53187.137
543.769;46198.434;   -9.297;54697.605
544.354;46520.770;  -10.127;53913.914
544.938;45096.035;   -9.267;49680.164
545.523;46749.930;   -6.506;47386.277
546.108;49299.953;   -9.787;49151.949
546.693;51217.590;  -11.587;51384.637
547.278;51623.266;  -10.986;51853.254
547.862;48483.492;   -8.206;51173.750
548.447;43678.008;  -10.067;51691.395
549.031;42806.066;   -9.637;52456.703
549.616;47641.324;   -9.926;52714.516
550.201;47389.992;   -6.347;52414.598
550.785;48671.605;   -7.917;52355.059
551.370;47873.105;  -10.867;54589.453
551.954;47516.152;   -9.047;58267.348
552.538;48338.047;   -7.827;59062.176
553.123;46666.781;  -10.287;58115.285
553.707;44644.098;  -12.178;56556.285
554.291;46210.371;   -8.717;56201.668
554.876;49167.031;   -7.457;55335.762
555.460;49115.113;  -10.387;54155.703
556.044;49239.574;   -9.618;53721.484
556.628;47145.836;  -11.567;53731.016
557.212;46139.785;   -8.097;54312.531
557.796;44980.965;  -11.077;53797.773
558.380;44925.246;  -11.108;56145.984
558.964;45129.781;   -9.057;57277.930
559.548;45834.293;   -6.977;56459.641
560.132;43867.664;  -11.457;54434.543
560.716;42596.281;  -11.378;54800.617
561.300;44083.949;   -9.577;57606.945
561.884;45295.891;   -7.127;58972.445
562.467;43299.898;   -7.118;57327.570
563.051;42194.977;  -13.358;54962.434
563.635;43538.340;  -10.178;52594.473
564.219;44633.109;   -7.837;50610.410
564.802;45422.656;  -11.398;49551.180
565.386;44824.266;  -12.788;48370.953
565.969;44229.656;   -9.077;48178.871
566.553;43212.184;   -6.207;49957.305
567.136;44003.590;   -8.568;50369.594
567.720;40511.000;  -11.868;49492.004
568.303;38426.035;   -8.268;50616.352
568.887;38326.594;   -8.698;50727.148
569.470;38909.352;   -6.808;51698.379
570.053;38062.738;  -13.188;52122.078
570.637;35490.281;  -12.037;52536.438
571.220;35163.578;   -8.577;51186.098
571.803;36114.703;   -8.498;51032.762
572.386;38562.832;  -10.498;49609.887
572.969;41192.145;   -9.388;48285.926
573.552;39416.219;   -8.338;47624.285
574.135;37887.539;   -8.518;45498.641
574.718;35295.840;  -13.628;41970.434
575.301;34411.777;  -10.893;41447.137
575.884;33527.715;   -8.158;40923.836
576.467;34716.660;  -10.328;45267.723
577.050;36344.262;  -13.058;48175.543
577.633;37557.285;   -9.458;47729.328
578.216;36703.605;   -8.928;47579.793
578.799;35886.707;   -9.358;47820.996
579.381;34811.438;  -11.388;48115.551
579.964;32795.012;  -11.718;47333.766
580.547;34594.738;   -8.588;46668.969
581.129;35319.043;   -8.859;44466.141
581.712;36080.719;  -10.729;44164.922
582.294;36510.055;  -11.118;46477.855
582.877;36743.270;   -5.218;48244.254
583.459;34975.664;   -8.679;47437.895
584.042;32739.344;  -10.709;46943.219
584.624;32744.881;  -11.669;46792.227
585.206;32701.359;   -8.218;46557.250
585.789;33366.059;  -10.569;45793.773
586.371;35824.176;  -11.859;43836.391
586.953;36389.012;  -10.719;42972.492
587.536;37152.629;   -7.198;42487.211
588.118;37327.977;   -8.720;42086.414
588.700;33619.824;  -10.439;43389.930
589.282;32748.797;   -9.198;43646.039
589.864;33778.242;   -9.199;43438.109
590.446;35011.934;  -11.319;43151.926
591.028;34596.344;  -11.159;42781.867
591.610;33363.133;  -11.779;42839.098
592.192;30908.904;   -7.668;42820.402
592.774;29576.879;  -11.949;40724.277
593.356;28697.035;  -12.129;39874.789
593.937;27797.676;  -10.669;39980.648
594.519;30213.299;   -6.509;42069.633
595.101;32206.744;  -10.849;42976.031
595.683;32222.232;  -11.679;44084.441
596.264;32969.852;   -9.049;43478.797
596.846;32447.846;   -8.849;43803.672
597.427;32090.396;   -9.570;42986.934
598.009;33238.879;  -12.620;42832.219
598.591;33724.578;  -10.039;42580.086
599.172;33349.184;  -10.369;43061.805
599.753;33538.164;   -9.140;41691.469
600.335;34717.977;  -11.430;40692.520
600.916;33026.539;   -9.939;39982.422
601.498;31051.441;   -8.479;40318.617
602.079;29498.426;  -10.920;40670.609
602.660;29324.260;  -11.480;41450.898
603.241;30965.832;  -11.699;41137.738
603.823;29475.494;   -9.579;38868.797
604.404;29071.143;  -10.620;38182.785
604.985;30782.082;  -10.450;38078.047
605.566;30611.785;   -9.129;38056.633
606.147;30720.232;   -7.510;37020.418
606.728;32393.902;  -10.660;37883.359
607.309;30967.543;  -11.740;38748.273
607.890;30579.066;   -9.759;38850.230
608.471;30176.994;   -8.250;37457.918
609.051;29636.420;   -9.240;36066.457
609.632;28416.799;  -12.120;35991.074
610.213;28650.973;   -9.110;37402.641
610.794;29546.004;   -8.030;38383.363
611.374;29665.025;   -8.110;40562.387
611.955;30390.746;  -13.560;38533.727
612.536;31650.115;  -11.400;36951.789
613.116;31455.518;   -8.070;37197.891
613.697;31611.631;  -10.830;38411.125
614.277;29804.652;  -11.641;38673.938
614.858;30622.025;  -13.310;37075.863
615.438;30226.752;   -7.460;35092.906
616.019;27872.582;   -7.601;33666.301
616.599;28041.379;  -12.020;34189.023
617.179;29577.428;  -11.780;36952.047
617.760;30530.090;   -8.570;39582.574
618.340;31271.361;  -11.471;38943.977
618.920;32109.844;  -11.170;37594.156
619.500;32192.270;  -11.071;37866.938
620.080;31490.160;   -7.750;37869.043
620.660;32641.834;  -12.711;36868.617
621.241;34655.695;  -10.211;36352.309
621.821;35044.387;  -10.961;35459.520
622.401;33718.785;   -7.720;35207.414
622.980;32599.326;   -8.981;35980.422
623.560;31027.063;   -9.331;37351.328
624.140;29876.313;   -9.850;34388.582
624.720;25074.166;   -7.451;32368.764
625.300;21617.701;   -9.070;32638.629
625.880;25004.879;  -12.601;34599.035
626.459;29264.379;  -11.751;36831.738
627.039;32215.035;   -9.281;38299.098
627.619;32100.264;   -8.801;38289.574
628.198;30383.092;  -12.071;37220.695
628.778;29249.406;   -9.461;37632.563
629.357;29950.570;   -8.491;38003.012
629.937;30230.891;   -9.721;38402.039
630.516;29790.203;   -9.951;37868.801
631.096;29470.168;  -11.731;35760.410
631.675;31946.137;   -8.572;35225.219
632.254;37130.348;  -11.282;35130.289
632.834;36558.297;  -13.322;35794.570
633.413;34924.898;  -10.301;35788.922
633.992;32183.178;   -8.582;34532.863
634.571;32691.615;   -8.352;33590.113
635.151;35038.176;  -11.912;34943.863
635.730;33686.590;  -10.511;35352.523
636.309;30552.215;   -7.731;35366.605
636.888;28160.092;   -9.952;36165.637
637.467;28784.299;  -11.672;37515.902
638.046;30244.035;   -8.901;39288.695
638.625;33281.473;   -7.912;38279.699
639.204;33181.688;  -10.022;37741.598
639.782;31975.672;  -12.252;38364.551
640.361;27816.213;  -10.041;36740.621
640.940;25118.279;  -11.161;34950.082
641.519;25786.799;   -9.701;34137.398
642.097;28942.225;  -11.271;35654.258
642.676;31802.533;   -8.651;35637.957
643.255;32851.297;   -8.711;36567.074
643.833;32047.967;   -9.581;37809.434
644.412;32129.207;  -13.711;37337.293
644.990;31185.006;  -11.811;37018.531
645.569;31397.748;   -9.411;36518.469
646.147;31081.301;  -10.291;36186.430
646.726;30694.475;  -12.401;36267.688
647.304;31372.668;  -10.411;36647.625
647.882;32919.340;   -9.651;39286.742
648.461;34815.242;   -9.631;39157.703
649.039;33184.867;  -11.881;35412.883
649.617;31954.715;   -9.661;34744.918
650.195;31126.865;   -9.301;35403.098
650.773;29710.605;  -10.511;35053.797
651.352;27607.926;  -11.521;33756.816
651.930;25431.375;  -12.211;31868.773
652.508;23700.795;   -9.171;33121.551
653.086;27693.129;   -9.371;33564.793
653.663;30614.928;  -13.161;34054.668
654.241;29382.447;  -13.031;35693.309
654.819;30870.768;   -9.371;36422.906
655.397;30648.732;  -10.511;38213.484
655.975;30100.334;  -10.371;39507.625
656.553;29613.295;  -10.051;39498.223
657.130;28304.375;  -10.061;40395.480
657.708;27809.479;   -9.561;39242.020
658.286;27839.117;  -11.511;38920.020
658.863;28832.967;  -10.261;40202.898
659.441;32304.029;   -7.531;39677.938
660.018;32389.879;   -9.501;40413.355
660.596;31016.023;  -13.301;39931.414
661.173;32614.182;  -11.211;39604.531
661.750;33144.137;   -9.951;39700.070
662.328;32478.756;   -9.390;39292.809
662.905;31411.037;  -11.330;38235.648
663.482;26602.672;   -9.050;36212.305
664.060;24659.176;   -8.240;35944.945
664.637;27792.813;  -10.050;35170.785
665.214;29338.742;  -11.760;34197.523
665.791;30906.645;  -10.530;34549.520
666.368;29940.838;   -9.690;35118.578
666.945;30409.150;   -9.320;36019.418
667.522;31958.805;  -11.860;36048.438
668.099;31828.604;  -10.770;36243.914
668.676;30356.785;   -6.260;35958.875
669.253;28861.990;   -7.000;37384.730
669.830;29170.684;  -10.190;36779.629
670.407;29331.992;   -9.550;35231.289
670.984;29535.973;   -9.260;35544.270
671.560;30097.301;   -9.280;35466.867
672.137;29093.264;  -11.810;34280.863
672.714;30152.162;  -11.490;34632.863
673.290;31480.025;   -7.740;35135.422
673.867;31528.850;  -10.660;36114.480
674.443;31240.898;  -12.230;36152.859
675.020;29083.049;  -10.450;35327.238
675.596;30144.627;   -9.260;35795.176
676.173;30941.463;  -10.780;35430.355
676.749;30538.652;  -13.690;33549.516
677.326;30156.148;  -11.980;32210.012
677.902;30011.926;   -8.630;32068.871
678.478;29356.336;  -10.730;32583.891
679.054;28551.287;  -10.520;32088.928
679.631;29076.326;  -11.920;30978.848
680.207;30481.182;   -7.490;33160.887
680.783;31917.033;   -9.860;35570.363
681.359;31007.500;  -13.380;36125.184
681.935;30815.635;  -12.480;35240.922
682.511;30656.293;   -7.900;34429.961
683.087;31001.225;   -7.710;34463.680
683.663;30326.201;  -11.480;34648.898
684.239;28913.164;  -14.090;34546.457
684.815;28254.279;   -7.560;35586.375
685.390;28266.461;   -9.910;35821.895
685.966;28675.031;  -11.159;35085.871
686.542;31228.643;  -11.169;34198.230
687.118;33643.516;   -5.959;32847.707
687.693;33982.160;  -10.329;32794.027
688.269;33649.457;  -12.059;33072.367
688.844;31801.473;  -10.909;33141.664
689.420;29860.590;   -8.019;33965.742
689.995;28133.729;   -8.399;34655.523
690.571;26865.629;  -10.949;33576.742
691.146;26881.760;   -9.619;32657.219
691.722;26568.596;   -8.999;32526.979
692.297;26403.385;  -11.589;33014.617
692.872;27695.271;  -11.739;34012.254
693.448;27373.988;  -11.059;34237.434
694.023;26436.463;  -10.139;34142.672
694.598;28588.293;   -9.029;34132.031
695.173;29378.736;  -13.319;34205.250
695.748;28470.393;  -10.169;32882.488
696.323;28130.557;   -8.339;32864.906
696.898;28115.273;   -8.169;33170.004
697.473;28247.475;  -12.309;32432.984
698.048;27450.914;  -10.989;31649.303
698.623;27149.262;   -9.329;30778.141
699.198;28712.986;   -9.849;31140.119
699.773;30205.770;  -12.329;31764.299
700.348;29133.953;  -10.389;31780.816
700.922;29045.611;   -9.269;32046.375
701.497;29875.035;   -9.329;32603.574
702.072;29825.998;  -10.789;34799.871
702.646;28606.805;  -10.839;35793.172
703.221;26779.646;   -9.099;35201.590
703.795;28625.918;  -10.939;34764.527
704.370;28997.441;  -12.859;34307.367
704.944;29162.100;  -11.559;33509.887
705.519;29887.355;   -7.939;31388.584
706.093;31133.354;  -10.499;31340.104
706.668;31469.826;  -11.289;32630.281
707.242;30483.963;  -11.509;32728.779
707.816;29272.158;   -9.639;32947.238
708.390;27625.035;  -11.429;33277.855
708.965;28081.234;  -11.869;33834.336
709.539;28357.291;  -11.689;33709.273
710.113;28433.598;  -10.478;33044.313
710.687;27802.072;  -10.228;31953.992
711.261;26133.303;  -13.698;30505.949
711.835;26155.902;  -13.378;30262.369
712.409;26759.391;   -9.698;31254.447
712.983;28725.670;  -11.898;32754.986
713.557;29959.746;  -15.138;34018.824
714.131;29818.018;  -14.098;34579.625
714.704;28806.682;   -9.958;33890.262
715.278;26245.891;  -10.028;33531.102
715.852;25148.980;  -11.148;33601.660
716.425;26320.447;   -9.068;33515.117
716.999;27457.441;  -10.038;33185.555
717.573;28308.377;   -9.798;33905.996
718.146;29226.572;  -12.378;35199.293
718.720;29156.855;  -11.918;35060.551
719.293;28924.996;   -8.088;34973.230
719.867;31847.340;  -10.888;36394.449
720.440;31519.627;  -11.938;36663.008
721.013;29603.311;  -12.818;35102.426
721.587;28067.309;  -10.298;33985.266
722.160;26899.578;  -10.048;33524.965
722.733;25987.059;  -12.108;32987.043
723.306;26426.648;  -10.818;33066.301
723.880;28443.033;   -8.908;33399.500
724.453;30384.254;   -9.878;33468.297
725.026;29609.172;  -11.188;33816.637
725.599;27054.768;  -11.678;32797.996
726.172;27218.611;   -9.618;33187.434
726.745;28324.340;   -8.258;35136.613
727.318;29714.623;  -12.978;35751.730
727.891;30229.836;  -12.148;35890.430
728.463;29647.607;   -8.968;34822.090
729.036;28264.898;  -10.188;32895.086
729.609;28752.973;  -11.788;31823.225
730.182;25956.650;  -11.788;31445.283
730.754;23585.264;  -10.268;32373.223
731.327;23914.930;   -9.998;33676.820
731.900;24375.277;  -12.228;33417.000
732.472;25195.053;  -13.848;31978.498
733.045;26799.193;   -8.698;30368.777
733.617;26802.746;  -10.607;30574.215
734.190;27002.875;  -11.507;31280.975
734.762;24525.029;  -13.647;31674.412
735.334;22582.225;   -9.767;31247.291
735.907;23012.252;   -9.897;29876.211
736.479;23268.467;  -11.637;29808.488
737.051;23031.506;   -9.567;30233.547
737.623;23613.795;   -8.187;31469.086
738.195;24053.031;  -11.187;31784.225
738.768;26359.199;  -12.337;32120.523
739.340;27153.359;  -12.227;32094.342
739.912;26106.650;  -11.057;31312.680
740.484;24690.799;  -10.207;31946.238
741.056;23163.104;  -10.047;32984.059
741.628;24373.559;  -13.627;33897.715
742.199;26629.865;   -7.177;33213.016
742.771;25289.227;  -10.797;31369.113
743.343;23071.600;  -11.997;31865.473
743.915;22067.922;  -12.867;32388.631
744.487;21949.441;   -7.617;31079.568
745.058;21888.494;   -9.557;30570.107
745.630;22505.479;   -9.877;29970.127
746.201;23807.193;  -14.177;29186.766
746.773;24696.906;   -9.237;28805.723
747.344;24598.828;   -9.847;29591.223
747.916;22818.010;  -11.657;31412.201
748.487;22789.834;  -10.587;32194.898
749.059;24143.721;   -8.707;32533.719
749.630;25051.467;  -10.537;32158.518
750.201;24340.102;  -11.687;30855.395
750.773;22588.957;  -11.647;28622.555
751.344;22229.096;   -7.147;28405.732
751.915;23076.438;   -9.757;28461.551
752.486;23045.754;  -12.427;27842.850
753.057;20993.861;  -12.227;27845.008
753.628;19765.844;  -10.417;27728.107
754.199;20701.078;  -11.767;27381.086
754.770;21818.467;  -11.187;25882.203
755.341;22038.654;  -10.507;25886.184
755.912;22210.854;   -9.387;26050.861
756.483;21842.729;  -10.647;26798.779
757.054;19940.242;  -11.837;27048.238
757.625;18343.779;  -12.716;26294.838
758.195;18226.748;   -9.666;26142.076
758.766;18082.420;   -8.656;26392.234
759.337;18665.646;  -12.856;26334.594
759.907;20099.791;  -13.366;27579.652
760.478;21014.600;   -8.576;28352.770
761.048;20409.666;  -10.526;27325.088
761.619;19332.041;  -11.116;26460.428
762.189;19463.051;  -12.136;26029.826
762.760;20709.428;   -9.456;26430.145
763.330;21818.291;   -7.136;26670.902
763.900;21357.680;  -11.786;26603.021
764.471;18854.211;  -11.546;25542.740
765.041;17249.121;   -8.096;24358.459
765.611;17018.516;   -8.876;23991.297
766.181;17408.652;  -12.196;24470.236
766.751;18728.924;  -11.636;24845.975
767.321;18485.941;  -10.156;24533.633
767.891;16178.010;  -11.766;24916.492
768.461;15492.911;  -14.936;24776.771
769.031;16093.029;  -12.356;24757.988
769.601;17803.178;   -7.526;24181.088
770.171;17918.895;  -10.766;23670.387
770.741;17121.904;  -13.176;22960.045
771.311;17275.090;  -10.616;22917.523
771.880;17839.340;   -9.576;23562.941
772.450;17816.504;  -10.336;24216.500
773.020;17809.609;  -13.516;24140.398
773.589;16890.963;  -13.466;24414.857
774.159;16140.174;   -8.686;23858.717
774.729;15736.411;   -9.476;22942.135
775.298;15350.475;  -13.666;22324.033
775.867;14927.889;  -11.716;21140.313
776.437;15078.105;   -9.906;20838.092
777.006;14855.070;  -12.166;20599.510
777.576;14529.200;  -12.356;20508.809
778.145;14544.727;  -11.646;20732.947
778.714;14647.697;   -8.226;21062.465
779.283;14211.656;   -9.556;20949.664
779.853;13657.886;  -14.116;20508.623
780.422;14035.851;  -11.506;20649.082
780.991;13646.581;   -9.556;21527.520
781.560;12327.270;   -9.095;22632.658
782.129;11991.560;  -12.135;23048.277
782.698;11947.669;  -10.865;23438.555
783.267;11567.081;   -9.335;23267.734
783.836;11551.289;  -11.045;22415.133
784.404;12579.379;  -13.865;20443.152
784.973;13242.927;  -13.095;19699.150
785.542;13326.874;  -11.575;19763.828
786.111;13188.228;   -9.705;20341.408
786.679;12686.530;  -12.105;20207.967
787.248;12424.892;  -12.455;19516.465
787.817;12198.235;  -11.535;18900.363
788.385;11725.536;   -9.765;17879.121
788.954;11090.065;  -14.005;17658.301
789.522;10500.445;  -11.955;17788.879
790.090;10927.629;  -10.135;18118.277
790.659;11534.187;  -10.975;18338.736
791.227;11119.174;  -13.375;18508.615
791.795;11477.807;  -12.375;17898.254
792.364;11764.491;  -10.725;17295.133
792.932;12072.947;   -9.715;16822.051
793.500;12434.530;  -12.675;17040.148
794.068;12805.767;  -13.495;17179.787
794.636;12982.222;  -10.885;16664.246
795.204;12266.411;  -11.045;16524.545
795.772;12224.172;  -13.175;17274.564
796.340;11712.949;  -12.445;17891.002
796.908;11446.694;   -9.735;17648.561
797.476;11358.532;   -9.815;17064.080
798.044;10965.824;  -13.985;16672.777
798.612;10258.760;  -13.115;17023.996
799.180; 9840.698;  -10.185;16561.615
799.747; 9652.535;   -9.055;15962.773
800.315; 9368.694;  -12.385;15296.992
800.883; 9159.400;  -15.035;14801.771
801.450; 9344.068;  -10.365;14534.430
802.018; 9458.956;   -9.855;14173.248
802.585; 9455.695;  -11.905;14029.547
803.153; 9447.731;  -11.585;13836.846
803.720; 9265.483;   -9.095;13567.324
804.287; 8715.434;   -9.135;13360.622
804.855; 8207.131;  -11.604;13681.981
805.422; 8113.715;  -11.794;13536.560
805.989; 8191.445;  -10.734;13355.958
806.556; 8428.474;  -10.444;13747.896
807.124; 8735.013;  -12.764;13987.376
807.691; 8710.148;  -12.964;14038.674
808.258; 8474.895;  -11.134;14120.152
808.825; 8033.773;   -9.854;13860.111
809.392; 8138.096;  -10.504;13268.790
809.959; 7775.269;  -13.054;12680.389
810.526; 7293.809;   -8.294;12427.308
811.093; 7241.612;   -8.394;12030.105
811.659; 7818.411;  -12.304;11653.664
812.226; 8351.431;  -13.944;11637.183
812.793; 8075.134;  -10.484;11611.521
813.360; 7420.661;  -10.144;11885.181
813.926; 7080.044;  -11.684;12770.539
814.493; 6897.633;  -13.644;12677.638
815.060; 6540.662;   -9.724;11974.336
815.626; 6513.868;   -9.854;11594.715
816.193; 6884.240;  -13.254;11579.474
816.759; 6901.458;  -13.204;11666.972
817.325; 6918.697;   -9.434;11325.530
817.892; 7270.191;  -10.134;11105.369
818.458; 7707.676;  -13.474;10843.928
819.024; 7339.330;  -11.854;10714.406
819.591; 7066.893;  -10.244;10469.165
820.157; 6914.152;  -10.704;10235.523
820.723; 6424.299;  -12.324;10847.563
821.289; 6125.996;   -9.444;11040.980
821.855; 6053.361;   -8.374;10357.100
822.421; 5978.314;  -10.234; 9978.918
822.987; 5880.644;  -13.294; 9754.177
823.553; 5496.625;  -10.884;10065.755
824.119; 5330.629;   -8.884;10036.294
824.685; 5504.660;   -6.784;10029.192
825.251; 5636.944;  -12.004;10199.230
825.816; 5606.124;  -11.474; 9820.189
826.382; 5321.762;   -9.174; 9297.248
826.948; 5458.833;   -9.214; 9381.347
827.513; 5852.959;  -10.774; 9450.726
828.079; 5712.728;  -11.924; 9472.444
828.645; 5131.139;  -10.543; 9292.643
829.210; 4963.286;  -10.533; 9065.341
829.776; 4924.253;  -10.753; 9132.620
830.341; 4806.653;  -10.173; 9092.878
830.906; 4966.682;  -10.743; 9078.557
831.472; 5307.957;  -11.113; 8534.535
832.037; 5110.302;  -10.603; 8677.874
832.602; 4585.353;  -13.323; 8628.692
833.167; 4322.768;  -10.823; 8879.031
833.733; 4271.274;  -10.113; 9189.790
834.298; 4403.300;  -13.583; 9052.608
834.863; 4521.546;  -12.703; 8895.087
835.428; 4548.277;  -10.523; 8824.266
835.993; 4422.933;   -6.963; 8845.385
836.558; 4247.558;  -10.763; 8888.563
837.123; 4329.286;   -9.903; 8966.582
837.688; 4587.522;   -9.913; 8617.860
838.253; 4821.854;  -10.283; 8590.699
838.817; 5002.555;  -12.963; 8443.797
839.382; 4938.824;  -14.243; 8799.356
839.947; 4640.920;  -10.733; 8810.595
840.511; 4328.661;   -9.383; 8796.394
841.076; 3930.997;  -12.563; 8347.231
841.641; 3975.978;  -12.953; 8224.330
842.205; 4080.900;   -7.043; 8223.349
842.770; 4107.153;   -8.163; 8622.107
843.334; 4266.267;  -12.503; 8410.386
843.898; 4254.237;  -11.693; 8337.465
844.463; 4262.647;  -10.203; 8506.283
845.027; 4056.699;   -9.533; 8280.962
845.591; 3870.696;  -13.443; 8231.141
846.156; 3866.015;  -13.143; 7969.179
846.720; 3793.306;   -9.433; 7768.278
847.284; 3683.383;  -11.033; 7630.957
847.848; 3528.429;  -10.403; 7472.395
848.412; 3408.131;  -11.553; 7437.394
848.976; 3435.564;   -8.393; 7674.592
849.540; 3366.555;   -8.713; 7836.011
850.104; 3419.013;  -12.463; 7913.669
850.668; 3772.226;  -12.973; 7694.508
851.232; 3936.037;  -10.793; 7756.887
851.796; 3800.000;  -10.662; 7926.545
852.359; 3474.778;  -13.082; 7827.844
852.923; 3301.294;  -12.192; 7641.163
853.487; 3172.849;  -11.912; 7342.501
854.050; 3153.384;  -10.892; 7042.820
854.614; 3278.453;  -13.992; 7151.338
855.177; 3375.398;  -11.732; 7105.077
855.741; 3412.975;   -8.962; 6989.675
856.304; 3335.255;   -9.442; 6596.634
856.868; 3321.244;  -14.192; 6356.272
857.431; 3443.130;  -12.702; 6468.571
857.995; 3576.608;   -9.942; 6373.210
858.558; 3597.915;   -9.112; 6324.448
859.121; 3324.248;  -12.932; 6408.327
859.684; 3145.441;  -13.442; 6347.886
860.247; 3233.777;  -10.632; 6321.264
860.810; 3258.232;  -11.272; 6301.903
861.374; 3014.390;   -9.832; 6607.881
861.937; 2747.183;  -11.762; 6408.200
862.500; 2738.543;   -9.722; 6572.639
863.062; 2891.653;  -10.512; 6387.297
863.625; 3029.699;  -11.232; 6190.836
864.188; 3199.100;  -14.112; 5807.254
864.751; 3308.765;  -11.302; 5682.413
865.314; 3243.482;  -10.112; 5547.492
865.876; 3019.658;  -12.182; 5500.150
866.439; 2986.099;  -10.722; 5415.909
867.002; 2938.724;   -9.252; 5501.567
867.564; 2740.708;   -9.572; 5413.946
868.127; 2512.845;  -13.142; 5160.325
868.689; 2382.271;  -12.902; 5133.183
869.252; 2264.666;   -9.732; 5252.382
869.814; 2156.656;   -9.432; 5297.141
870.377; 2165.230;  -11.552; 5390.919
870.939; 2241.587;   -9.052; 5599.898
871.501; 2327.376;  -10.982; 5248.336
872.063; 2345.037;  -12.292; 4854.235
872.626; 2280.180;  -14.912; 4817.074
873.188; 2271.646;  -13.112; 4987.732
873.750; 2253.933;  -13.442; 4868.651
874.312; 2180.338;   -9.402; 4779.330
874.874; 2099.061;  -11.062; 4866.348
875.436; 2014.929;  -13.931; 4718.887
875.998; 2011.372;   -9.561; 4660.005
876.560; 2044.761;  -11.321; 4462.964
877.122; 1991.852;  -12.221; 4145.042
877.683; 1889.143;  -12.191; 4056.481
878.245; 1802.614;  -12.101; 3950.740
878.807; 1834.982;   -8.971; 4058.958
879.369; 1859.226;  -12.071; 3954.677
879.930; 1779.368;  -14.621; 3941.495
880.492; 1722.288;  -10.311; 4067.014
881.053; 1693.472;  -10.901; 3859.633
881.615; 1588.069;  -14.411; 3776.071
882.176; 1490.414;  -13.761; 3734.750
882.738; 1438.399;   -9.181; 3678.489
883.299; 1412.233;  -11.791; 3405.407
883.860; 1409.375;  -13.121; 3351.106
884.422; 1428.682;  -11.211; 3394.044
884.983; 1449.498;  -10.091; 3166.443
885.544; 1412.639;   -8.461; 3189.802
886.105; 1262.311;  -12.361; 3160.360
886.666; 1014.255;  -14.141; 3093.059
887.227;  766.858;  -11.361; 2941.957
887.788;  610.089;  -11.401; 2974.836
888.349;  548.671;  -13.791; 2721.214
888.910;  562.219;  -13.191; 2696.493
889.471;  596.834;   -9.881; 2560.172
890.032;  616.978;   -9.881; 2558.190
890.593;  625.906;  -10.371; 2567.669
891.153;  632.707;  -13.301; 2460.307
891.714;  619.262;  -11.431; 2372.046
892.275;  607.489;  -11.291; 2309.505
892.835;  590.681;  -11.471; 2382.543
893.396;  554.065;  -11.541; 2295.502
893.956;  510.068;  -11.181; 2162.420
894.517;  477.200;  -11.741; 2125.439
895.077;  474.993;  -11.671; 2086.978
895.638;  481.926;  -11.311; 2126.316
896.198;  459.481;   -9.831; 1838.275
896.758;  422.567;   -8.421; 1892.813
897.319;  396.987;  -12.351; 1792.232
897.879;  383.964;  -13.511; 1762.751
898.439;  361.185;  -12.001; 1661.149
898.999;  338.635;  -10.180; 1781.468
899.559;  329.123;  -12.030; 1703.347
900.119;  325.330;  -15.710; 1537.525
900.679;  322.262;   -8.900; 1638.384
901.239;  309.549;   -8.340; 1527.902
901.799;  299.517;  -13.910; 1456.441
902.359;  293.281;  -13.460; 1357.140
902.919;  287.671;  -11.490; 1331.118
903.479;  276.379;  -12.110; 1317.257
904.038;  256.988;  -11.720; 1262.595
904.598;  241.884;  -13.610; 1152.034
905.158;  239.486;  -11.040; 1240.893
905.717;  233.025;  -10.900; 1233.691
906.277;  221.887;  -15.080; 1217.330
906.836;  211.102;  -13.380; 1222.408
907.396;  202.117;  -10.780; 1193.047
907.955;  193.685;   -8.500; 1182.526
908.515;  188.674;  -12.760; 1099.364
909.074;  183.233;  -11.900; 1092.863
909.633;  178.390;   -8.950; 1069.121
910.192;  175.428;   -8.770; 1196.460
910.752;  169.869;  -12.390; 1029.960
911.311;  165.865;  -13.680; 1009.780
911.870;  164.270;  -12.370;  971.460
912.429;  165.644;  -10.900; 1094.080
912.988;  164.572;  -11.690; 1081.060
913.547;  159.813;  -13.240;  940.380
914.106;  154.712;  -11.990;  999.420
914.665;  153.156;   -9.990;  984.020
915.224;  151.623;  -12.880; 1035.760
915.782;  152.365;  -12.350;  922.560
916.341;  151.396;   -9.110; 1049.840
916.900;  147.029;   -9.270;  925.260
917.458;  144.879;  -13.240;  884.220
918.017;  144.931;  -13.550;  942.600
918.576;  144.330;  -12.320;  904.440
919.134;  143.083;  -11.490;  837.980
919.693;  141.477;  -13.670;  893.060
920.251;  139.807;  -15.470;  876.500
920.809;  139.195;  -11.290;  839.580
921.368;  138.997;  -10.210;  885.360
921.926;  138.050;  -12.140;  842.940
922.484;  135.731;  -13.080;  903.360
923.042;  135.781;  -11.720;  880.340
923.601;  138.940;   -7.480;  998.680
924.159;  137.029;  -11.570;  935.560
924.717;  133.684;  -13.840;  841.080
925.275;  132.660;  -10.640;  903.240
925.833;  133.656;  -11.540;  779.320
926.391;  134.267;  -12.960;  938.380
926.949;  131.755;  -14.130;  857.680
927.506;  132.933;  -11.750;  903.500
928.064;  133.420;  -10.250;  877.580
928.622;  132.577;  -13.030;  880.100
929.180;  131.513;  -13.400;  814.180
929.737;  133.029;  -10.700;  808.540
930.295;  136.092;  -10.070;  928.480
930.853;  137.634;  -11.960;  849.100
931.410;  137.925;  -13.120;  821.120
931.968;  138.591;  -10.770;  940.660
932.525;  138.380;  -10.680;  909.380
933.082;  138.347;  -13.130;  811.440
933.640;  138.811;  -13.210;  925.900
934.197;  137.630;  -11.060;  886.360
934.754;  138.119;   -9.580;  897.780
935.312;  141.025;  -14.000;  863.340
935.869;  145.351;  -10.710; 1012.980
936.426;  145.925;   -9.860;  872.800
936.983;  146.376;   -9.710;  889.020
937.540;  146.449;  -13.990;  838.280
938.097;  146.442;  -14.040;  940.120
938.654;  145.944;  -10.310;  898.860
939.211;  148.470;  -10.560;  952.480
939.768;  151.736;  -13.900;  915.420
940.324;  155.242;  -14.760;  904.200
940.881;  156.435;  -10.370;  878.500
941.438;  158.295;   -8.260; 1021.200
941.995;  153.536;  -12.540;  992.560
942.551;  150.276;  -14.670;  875.620
943.108;  150.254;  -10.450;  937.920
943.664;  152.437;  -10.750;  869.340
944.221;  156.234;  -11.550; 1088.140
944.777;  153.221;  -14.770;  869.680
945.334;  154.641;  -12.820;  884.840
945.890;  156.469;  -10.130;  946.480
946.446;  156.043;  -13.470;  947.020
947.003;  158.319;  -12.120;  964.940
947.559;  160.787;   -9.980; 1063.040
948.115;  160.298;   -9.080; 1026.540
948.671;  157.821;  -10.830;  967.300
949.227;  155.828;  -12.440;  859.560
949.783;  153.269;  -12.910;  858.900
950.339;  155.280;  -10.270;  991.000
950.895;  155.401;  -13.630; 1023.840
951.451;  154.638;  -15.100;  925.280
952.007;  153.661;  -11.330;  998.540
952.563;  154.463;  -10.580;  937.780
953.118;  152.236;  -13.440;  904.940
953.674;  151.526;  -12.710;  935.780
954.230;  151.065;  -10.350;  949.640
954.785;  149.798;   -9.190;  936.640
955.341;  146.424;  -11.200;  998.160
955.897;  145.190;  -16.560;  834.660
956.452;  147.269;  -12.570;  953.840
957.008;  147.714;   -7.970; 1083.640
957.563;  145.763;  -11.940; 1009.540
958.118;  139.670;  -13.450;  877.700
958.674;  140.313;  -12.030;  946.780
959.229;  142.147;   -9.410; 1013.980
959.784;  138.701;  -12.000;  832.400
960.339;  138.168;  -14.780; 1001.280
960.894;  134.677;   -9.860;  963.760
961.449;  130.576;   -9.970;  859.960
962.004;  130.280;  -10.900; 1212.840
962.559;  125.100;  -13.150;  860.140
963.114;  122.306;  -13.740;  742.480
963.669;  122.740;   -9.820;  915.500
964.224;  120.932;  -13.890;  874.340
964.779;  118.289;  -12.600;  828.420
965.334;  119.727;  -10.950; 1017.860
965.888;  119.514;  -11.170;  875.360
966.443;  122.853;  -12.540;  972.380
966.998;  121.657;  -15.780;  819.460
967.552;  121.115;   -9.760;  908.380
968.107;  118.078;   -9.060;  868.300
968.661;  118.862;  -11.950;  922.440
969.216;  118.463;  -12.800;  856.280
969.770;  118.668;  -11.210;  917.200
970.324;  117.726;  -11.610;  923.140
970.879;  115.324;  -11.370;  947.180
971.433;  111.051;  -12.540;  952.720
971.987;  106.398;  -11.320;  895.340
972.541;  103.710;  -10.720;  917.100
973.095;  102.805;   -9.680; 1009.460
973.649;   99.908;  -11.440;  809.480
974.203;  100.369;  -11.210;  829.040
974.757;  100.590;  -10.240;  855.220
975.311;  101.443;  -13.720;  872.600
975.865;  100.291;  -13.770;  881.820
976.419;   98.937;  -11.690;  857.400
976.973;   98.812;   -9.510;  849.620
977.526;  100.462;  -12.620;  949.920
978.080;   98.201;  -12.010;  796.780
978.634;  100.615;  -10.170;  921.320
979.187;   97.833;   -9.020;  905.400
979.741;   95.866;   -9.820; 1018.380
980.294;   90.740;  -14.870;  789.160
980.848;   89.074;  -12.380;  717.220
981.401;   91.373;  -10.350;  816.540
981.955;   92.349;  -13.720;  844.300
982.508;   90.935;  -11.490;  746.340
983.061;   92.496;  -10.000;  915.260
983.615;   88.764;  -11.480;  798.800
984.168;   85.321;  -13.220;  770.080
984.721;   84.895;  -13.960;  880.760
985.274;   83.293;  -10.870;  867.500
985.827;   83.109;   -9.790;  834.220
986.380;   80.930;  -13.120;  721.340
986.933;   79.434;  -12.450;  864.800
987.486;   78.178;  -10.210;  861.920
988.039;   76.905;   -8.430;  863.100
988.591;   75.694;  -10.520;  893.260
989.144;   72.212;  -14.860;  737.260
989.697;   71.660;  -13.080;  758.740
990.250;   72.011;  -10.150;  858.100
990.802;   71.030;  -13.430;  755.860
991.355;   71.998;  -12.750;  974.880
991.907;   70.026;  -12.040;  864.320
992.460;   68.054;  -11.330;  753.760
993.012;   66.786;  -13.610;  749.540
993.565;   65.652;  -13.460;  711.360
994.117;   67.994;   -9.360;  950.780
994.669;   64.980;  -11.300;  701.320
995.221;   62.544;  -13.540;  791.920
995.774;   60.448;  -13.430;  787.580
996.326;   59.253;  -12.520;  740.220
996.878;   58.866;  -10.950;  838.420
997.430;   56.508;  -14.300;  699.860
997.982;   55.865;  -13.760;  750.140
998.534;   55.188;  -11.530;  739.060
999.086;   53.640;  -10.310;  738.220
999.638;   53.224;  -12.530;  661.380
1000.190;   52.090;  -11.840;  699.320
1000.741;   51.915;  -10.260;  742.700
1001.293;   52.125;   -8.860;  686.020
1001.845;   50.598;  -13.700;  676.640
1002.396;   49.668;  -12.100;  743.400
1002.948;   49.747;  -12.760;  737.400
1003.500;   48.841;  -10.380;  723.780
1004.051;   48.488;  -11.900;  907.580
1004.603;   46.585;  -12.250;  791.820
1005.154;   43.759;  -13.210;  608.980
1005.705;   42.799;  -10.950;  723.960
1006.257;   41.843;  -13.880;  707.220
1006.808;   40.847;  -12.840;  685.460
1007.359;   40.767;  -10.570;  763.240
1007.910;   40.485;   -9.620;  646.640
1008.461;   39.458;  -13.630;  732.940
1009.013;   38.187;  -17.200;  588.340
1009.564;   39.399;  -10.200;  793.520
1010.115;   38.041;  -12.570;  597.040
1010.665;   37.125;  -15.150;  602.160
1011.216;   37.111;  -14.480;  667.920
1011.767;   35.852;  -11.340;  697.920
1012.318;   37.081;   -9.780;  736.980
1012.869;   35.626;  -12.380;  679.000
1013.419;   34.960;  -15.560;  603.120
1013.970;   35.479;  -11.010;  666.640
1014.521;   35.990;  -11.610;  620.620
1015.071;   35.829;  -13.450;  670.380
1015.622;   34.764;  -13.870;  635.460
1016.172;   33.819;  -11.610;  596.820
1016.723;   34.599;  -12.120;  614.380
1017.273;   32.709;  -13.620;  604.160
1017.823;   33.724;  -14.140;  650.340
1018.374;   33.195;  -12.800;  611.760
1018.924;   34.007;  -12.340;  716.880
1019.474;   33.225;  -11.410;  718.880
1020.024;   32.203;  -14.770;  657.580
1020.574;   32.692;   -9.780;  726.160
1021.124;   33.313;   -8.560;  673.580
1021.674;   31.715;  -15.190;  559.120
1022.224;   31.922;  -13.530;  708.940
1022.774;   31.779;  -13.280;  668.820
1023.324;   32.799;  -10.690;  753.520
1023.874;   33.372;  -10.240;  875.760
1024.423;   30.669;  -12.540;  613.700
1024.973;   30.608;  -10.010;  610.760
1025.523;   31.021;  -10.550;  620.960
1026.072;   29.531;  -13.560;  606.420
1026.622;   29.005;  -15.120;  675.740
1027.172;   30.554;  -11.260;  715.660
1027.721;   29.778;  -11.410;  601.220
1028.270;   30.094;  -13.530;  663.400
1028.820;   29.279;  -13.680;  638.080
1029.369;   28.940;  -13.520;  612.700
1029.918;   29.794;  -10.980;  649.840
1030.468;   29.009;  -13.530;  564.780
1031.017;   28.707;  -13.170;  634.800
1031.566;   27.724;  -12.200;  608.900
1032.115;   28.937;   -9.960;  694.500
1032.664;   27.168;  -13.210;  596.480
1033.213;   27.683;  -12.500;  735.420
1033.762;   28.065;  -11.910;  635.620
1034.311;   27.589;   -9.640;  677.220
1034.860;   27.643;  -13.310;  691.000
1035.408;   27.181;  -11.830;  722.720
1035.957;   27.647;  -12.000;  719.540
1036.506;   26.069;  -11.690;  530.800
1037.055;   28.172;  -10.990;  844.320
1037.603;   26.004;  -15.120;  664.000
1038.152;   24.839;  -12.450;  534.760
1038.700;   25.744;  -10.560;  585.740
1039.249;   25.148;  -11.080;  681.220
1039.797;   25.474;  -12.540;  633.360
1040.345;   25.664;  -11.920;  705.420
1040.894;   25.008;  -11.410;  625.300
1041.442;   25.105;  -14.320;  632.200
1041.990;   23.039;  -16.240;  559.160
1042.538;   23.457;  -11.680;  536.180
1043.087;   24.118;  -10.760;  570.860
1043.635;   25.857;  -11.850;  670.500
1044.183;   24.037;  -15.480;  586.400
1044.731;   23.228;  -11.770;  576.000
1045.279;   23.802;  -13.090;  674.920
1045.827;   25.071;  -12.440;  892.400
1046.374;   22.600;  -13.840;  515.420
1046.922;   22.103;  -13.220;  590.580
1047.470;   24.049;  -10.230;  691.300
1048.018;   22.843;  -14.590;  647.960
1048.565;   23.127;  -12.050;  708.600
1049.113;   22.192;  -11.650;  557.000
1049.660;   22.658;  -10.510;  629.660
1050.208;   22.209;  -13.310;  675.640
1050.755;   21.533;  -15.900;  606.580
1051.303;   22.043;  -11.430;  686.820
1051.850;   21.758;   -8.480;  635.120
1052.397;   20.299;  -15.010;  473.960
1052.945;   19.899;  -13.960;  617.760
1053.492;   21.990;  -13.150;  741.840
1054.039;   22.338;   -9.630;  720.180
1054.586;   20.648;  -13.680;  557.240
1055.133;   20.852;  -14.570;  693.140
1055.680;   21.319;  -13.820;  646.620
1056.227;   20.127;  -11.730;  542.780
1056.774;   22.259;  -12.480;  794.980
1057.321;   19.262;  -13.930;  523.260
1057.868;   19.977;  -11.690;  651.320
1058.415;   19.523;   -9.520;  651.980
1058.961;   20.536;  -13.160;  678.940
1059.508;   19.193;  -12.920;  643.820
1060.055;   19.240;  -11.920;  581.780
1060.601;   19.673;  -11.500;  624.300
1061.148;   19.832;  -14.330;  616.820
1061.694;   18.006;  -16.870;  592.580
1062.241;   19.011;  -10.330;  596.320
1062.787;   19.696;  -10.620;  663.140
1063.334;   20.546;  -10.110;  808.560
1063.880;   18.656;  -13.400;  668.360
1064.426;   18.659;  -10.680;  706.820
1064.972;   17.619;   -9.920;  601.340
1065.518;   17.027;  -10.980;  566.640
1066.065;   17.866;  -14.890;  624.460
1066.611;   17.598;  -12.870;  598.800
1067.157;   18.761;  -12.950;  641.860
1067.703;   17.740;  -13.540;  668.480
1068.249;   17.586;  -13.540;  605.220
1068.794;   17.370;  -12.600;  626.880
1069.340;   16.664;  -10.620;  578.960
1069.886;   17.211;  -12.830;  590.700
1070.432;   16.147;  -14.870;  541.720
1070.977;   16.395;  -11.980;  601.080
1071.523;   16.915;   -8.200;  573.060
1072.068;   16.082;  -12.330;  582.000
1072.614;   16.070;  -16.370;  527.760
1073.160;   16.570;  -11.100;  687.040
1073.705;   15.535;  -10.480;  572.520
1074.250;   16.559;  -14.520;  559.900
1074.796;   16.353;  -11.460;  655.160
1075.341;   16.769;  -11.950;  664.100
1075.886;   16.610;  -11.460;  594.240
1076.431;   15.462;  -13.770;  649.880
1076.976;   15.084;  -12.680;  639.220
1077.521;   14.624;  -13.170;  583.080
1078.067;   14.748;  -10.860;  579.400
1078.612;   15.440;  -13.920;  661.620
1079.156;   15.081;  -13.880;  601.540
1079.701;   15.301;  -13.120;  693.260
1080.246;   15.695;   -9.940;  696.300
1080.791;   15.144;  -14.740;  625.020
1081.336;   14.405;  -13.750;  659.320
1081.880;   14.464;  -13.400;  649.680
1082.425;   14.146;  -12.220;  573.480
1082.970;   15.678;  -11.610;  717.040
1083.514;   13.279;  -13.580;  597.000
1084.059;   13.002;  -12.810;  586.720
1084.603;   13.774;  -12.320;  565.840
1085.147;   14.126;  -13.190;  645.220
1085.692;   13.842;  -12.480;  716.800
1086.236;   12.218;  -13.020;  503.140
1086.780;   15.330;   -9.190;  751.440
1087.325;   13.847;  -12.480;  654.620
1087.869;   12.758;  -12.450;  610.700
1088.413;   13.980;  -12.240;  705.040
1088.957;   12.070;   -9.020;  543.400
1089.501;   13.845;  -10.320;  766.640
1090.045;   12.523;  -12.720;  726.480
1090.589;   10.529;  -13.690;  569.920
1091.133;   12.646;  -10.020;  673.340
1091.676;   12.850;  -12.330;  591.940
1092.220;   11.098;  -14.970;  600.920
1092.764;   12.860;  -12.430;  706.960
1093.307;   12.397;   -9.800;  673.780
1093.851;   11.102;  -14.970;  556.540
1094.395;   11.321;  -15.310;  683.140
1094.938;   11.342;  -10.370;  632.520
1095.482;   11.622;  -11.050;  559.800
1096.025;   12.297;  -11.840;  710.880
1096.568;   12.171;  -12.840;  779.280
1097.112;    9.442;  -14.700;  508.180
1097.655;   11.875;   -8.720;  603.000
1098.198;   10.735;  -13.610;  600.180
1098.741;    9.491;  -13.350;  612.860
1099.285;   10.904;  -11.230;  657.300
1099.828;    9.027;  -11.840;  439.400
1100.371;   11.085;  -10.840;  608.160
1100.914;    9.908;  -14.190;  682.660
1101.457;   10.422;  -11.240;  679.900
1101.999;    9.946;  -11.270;  584.680
1102.542;   10.066;  -11.480;  641.440
1103.085;    9.102;  -11.750;  658.500
1103.628;   10.150;  -11.400;  762.060
1104.170;    9.442;  -10.490;  588.280
1104.713;    9.251;  -10.600;  646.700
1105.256;    8.876;  -14.360;  557.440
1105.798;    7.901;  -13.210;  499.980
1106.341;   10.790;  -10.270;  728.900
1106.883;    9.084;  -12.200;  521.340
1107.425;    9.095;  -13.110;  668.180
1107.968;    8.731;  -12.840;  612.380
1108.510;   10.046;   -6.480;  684.960
1109.052;    7.335;  -13.940;  612.620
1109.594;    7.849;  -13.690;  554.440
1110.136;    9.123;  -11.880;  643.220
1110.679;    7.580;   -9.500;  633.080
1111.221;    8.598;  -14.160;  604.460
1111.763;    7.497;  -13.980;  559.220
1112.304;    7.779;  -13.880;  547.140
1112.846;    8.133;  -12.210;  666.240
1113.388;   11.086;  -11.390;  942.180
1113.930;    8.286;  -14.540;  694.200
1114.472;    7.603;  -12.640;  606.540
1115.013;    7.253;  -11.620;  551.280
1115.555;    6.781;  -13.640;  587.100
1116.097;    5.997;  -15.380;  579.480
1116.638;    6.810;  -12.640;  684.600
1117.180;    7.785;   -9.850;  667.740
1117.721;    7.642;  -13.690;  568.580
1118.262;    7.478;  -12.680;  677.960
1118.804;    7.011;  -12.530;  637.340
1119.345;    6.665;  -11.690;  578.400
1119.886;    7.438;  -13.380;  704.040
1120.427;    5.441;  -14.070;  589.020
1120.969;    4.899;  -13.500;  597.920
1121.510;    5.989;  -11.480;  563.060
1122.051;    6.414;  -12.830;  723.580
1122.592;    5.126;  -14.290;  655.420
1123.133;    4.406;  -12.400;  547.940
1123.673;    7.279;  -10.130;  706.480
1124.214;    5.482;  -12.930;  612.460
1124.755;    6.250;  -14.380;  639.460
1125.296;    5.422;  -14.000;  627.320
1125.836;    6.266;  -10.070;  691.500
1126.377;    5.359;  -12.640;  599.660
1126.918;    5.410;  -12.960;  614.980
1127.458;    4.796;  -13.350;  622.220
1127.999;    6.043;  -10.750;  656.980
1128.539;    5.300;  -12.350;  694.240
1129.079;    4.663;  -14.860;  632.720
1129.620;    4.292;  -13.840;  558.100
1130.160;    5.169;  -12.330;  539.480
1130.700;    4.853;  -14.530;  640.840
1131.240;    5.366;  -12.530;  643.700
1131.781;    4.245;  -14.450;  619.680
1132.321;    4.285;   -9.790;  599.120
1132.861;    3.117;  -14.860;  564.200
1133.401;    2.780;  -14.290;  593.940
1133.941;    4.110;  -11.750;  626.280
1134.481;    3.508;   -9.920;  597.580
1135.020;    3.620;  -12.290;  609.160
1135.560;    3.260;  -11.650;  674.940
1136.100;    2.687;  -16.270;  501.160
1136.640;    3.777;  -10.890;  510.480
1137.179;    3.596;  -14.180;  537.960
1137.719;    3.407;  -16.250;  605.400
1138.258;    3.476;  -14.230;  587.360
1138.798;    4.089;   -9.090;  663.780
1139.337;    2.181;  -15.130;  482.840
1139.877;    3.247;  -13.680;  642.360
1140.416;    5.189;  -11.320;  878.060
1140.955;    2.384;  -10.860;  535.380
1141.494;    2.794;  -12.920;  669.280
1142.034;    1.924;  -13.930;  583.520
1142.573;    3.273;  -11.440;  646.280
1143.112;    2.605;  -12.000;  553.480
1143.651;    2.959;  -13.670;  536.480
1144.190;    3.069;  -12.730;  691.640
1144.729;    2.350;  -14.560;  607.420
1145.267;    2.540;  -11.830;  584.900
1145.806;    3.080;  -12.230;  637.040
1146.345;    1.132;  -14.130;  635.020
1146.884;    2.349;  -11.590;  622.500
1147.422;    1.145;  -12.550;  533.060
1147.961;    3.176;  -11.180;  708.460
1148.500;    2.250;  -11.510;  669.720
1149.038;    2.853;  -11.640;  632.500
1149.577;    2.359;  -10.130;  698.640
1150.115;    0.546;  -13.970;  452.280
1150.653;    1.608;  -14.520;  607.340
1151.192;    1.769;  -12.810;  552.920
1151.730;    2.274;   -9.100;  652.560
1152.268;    0.717;  -12.220;  589.520
1152.806;    0.554;  -14.140;  571.180
1153.344;   -0.572;  -12.350;  577.640
1153.882;    1.080;   -8.980;  600.060
1154.421;   -0.452;  -15.190;  470.620
1154.958;    0.056;  -15.210;  595.240
1155.496;    1.234;  -12.850;  645.280
1156.034;    1.123;   -9.940;  721.880
1156.572;    2.074;  -13.570;  667.060
1157.110;   -0.244;  -14.590;  473.940
1157.647;    1.252;  -13.030;  676.960
1158.185;   -0.543;  -12.140;  564.320
1158.723;   -0.468;  -14.390;  509.200
1159.260;   -0.216;  -14.090;  701.700
1159.798;    0.805;  -11.920;  658.160
1160.335;    0.370;  -11.110;  631.820

