
Integration time [ms]:   3.276
Averaging Nr. [scans]: 1000
Smoothing Nr. [pixels]: 0
Data measured with spectrometer [name]: 7414430SP
Wave   ;Sample   ;Dark     ;Reference
[nm]   ;[counts] ;[counts] ;[counts] 

288.544;  152.420;    7.793;  793.890
289.143;  155.116;    7.462;  681.602
289.742;  155.386;    8.602;  828.814
290.341;  141.343;    1.321;  789.841
290.940;  130.570;   -0.709;  730.702
291.538;  130.312;    0.881;  881.108
292.137;  130.078;    0.122;  792.581
292.736;  135.318;   -1.929;  975.101
293.335;  132.499;   -8.229;  735.086
293.934;  131.819;   -5.279;  781.677
294.532;  130.492;   -1.369; 1031.958
295.131;  115.942;   -7.641;  834.394
295.730;  116.463;   -8.420;  809.588
296.328;  115.075;   -5.611;  783.442
296.927;  116.575;   -5.781;  779.652
297.525;  117.448;   -6.361;  781.236
298.124;  108.030;  -11.382;  654.009
298.722;  111.615;   -7.641;  761.933
299.321;  110.355;   -6.811;  708.597
299.919;  108.275;   -6.991;  751.918
300.518;  104.689;  -10.362;  689.338
301.116;  105.558;   -9.581;  691.381
301.715;  105.316;   -4.891;  730.222
302.313;  104.834;   -8.801;  704.943
302.911;  100.618;   -8.522;  733.830
303.509;  105.355;   -6.171;  925.627
304.108;  103.070;   -7.311;  760.383
304.706;  102.747;   -8.321;  801.664
305.304;   97.244;  -10.222;  796.707
305.902;  102.738;   -6.021;  784.484
306.500;   97.231;   -4.971;  728.200
307.098;   97.596;   -7.061;  746.560
307.696;   94.866;   -8.801;  780.432
308.294;   94.373;   -6.411;  731.359
308.892;   97.491;   -2.901;  759.769
309.490;   94.039;   -5.041;  712.161
310.088;   91.858;   -5.002;  788.444
310.686;   95.583;   -2.041;  821.749
311.284;   91.941;   -2.351;  766.040
311.882;   90.344;   -4.422;  731.225
312.480;   86.309;   -4.192;  697.167
313.078;   87.926;   -1.172;  808.331
313.675;   87.803;   -2.601;  691.600
314.273;   83.307;   -1.312;  797.837
314.871;   83.023;   -3.942;  589.829
315.468;   80.859;   -2.802;  652.090
316.066;   83.052;   -0.701;  694.427
316.664;   77.550;   -4.362;  656.351
317.261;   80.606;   -2.872;  910.128
317.859;   75.423;   -2.022;  768.735
318.456;   76.074;   -0.531;  830.096
319.054;   73.497;   -3.912;  787.828
319.651;   72.756;   -4.752;  759.928
320.249;   70.672;   -2.602;  810.188
320.846;   68.392;   -0.821;  714.286
321.443;   65.684;   -4.642;  832.135
322.041;   63.099;   -5.002;  812.315
322.638;   60.264;   -3.982;  701.456
323.235;   61.958;   -3.411;  665.683
323.833;   59.542;   -7.361;  740.354
324.430;   54.505;   -8.611;  615.900
325.027;   55.237;   -4.061;  876.855
325.624;   54.634;   -4.031;  644.532
326.221;   52.561;   -7.481;  689.717
326.818;   51.431;   -5.281;  818.332
327.415;   54.097;   -7.460;  748.828
328.012;   54.091;   -5.510;  690.585
328.609;   53.676;   -7.880;  731.389
329.206;   51.731;   -8.331;  778.621
329.803;   51.791;   -5.121;  737.841
330.400;   53.333;   -4.510;  704.260
330.997;   55.217;   -6.441;  817.147
331.594;   54.667;   -8.831;  788.185
332.191;   59.873;   -7.621;  728.722
332.787;   62.646;   -4.591;  844.463
333.384;   61.194;   -7.412;  763.093
333.981;   59.456;   -8.293;  815.687
334.578;   61.467;   -7.052;  708.378
335.174;   65.027;   -3.102;  731.469
335.771;   64.444;   -5.943;  836.456
336.367;   61.015;   -7.393;  710.631
336.964;   64.980;   -4.063;  793.266
337.561;   62.855;   -3.813;  731.112
338.157;   58.690;   -4.654;  911.916
338.754;   56.606;   -7.934;  796.589
339.350;   54.978;   -4.414;  722.493
339.946;   56.146;   -4.664;  773.135
340.543;   48.520;   -6.375;  846.136
341.139;   42.951;   -9.815;  720.836
341.735;   40.895;   -4.526;  772.593
342.332;   39.976;   -4.895;  691.472
342.928;   39.633;   -4.295;  795.394
343.524;   34.298;   -5.476;  761.684
344.120;   30.402;   -5.856;  738.562
344.716;   33.293;   -2.155;  723.717
345.313;   32.340;   -6.275;  795.342
345.909;   26.659;   -8.815;  627.336
346.505;   27.738;   -5.305;  740.247
347.101;   28.579;   -2.674;  827.864
347.697;   29.321;   -4.344;  785.398
348.293;   24.027;   -9.975;  627.244
348.889;   24.666;   -5.774;  745.914
349.485;   23.967;   -5.004;  688.205
350.081;   24.194;   -4.704;  772.592
350.676;   19.120;   -6.635;  691.606
351.272;   23.077;   -4.504;  809.530
351.868;   23.164;   -3.914;  780.497
352.464;   21.277;   -9.044;  723.932
353.059;   16.974;   -8.314;  646.017
353.655;   20.946;   -7.024;  777.063
354.251;   21.283;   -5.343;  759.845
354.846;   16.473;   -8.604;  740.646
355.442;   14.299;   -6.945;  753.071
356.038;   15.472;   -7.564;  751.708
356.633;   16.033;   -5.814;  728.594
357.229;   13.874;   -7.364;  724.757
357.824;   12.478;   -8.024;  703.600
358.420;   11.893;   -9.384;  679.726
359.015;   11.627;   -5.104;  695.357
359.610;   13.714;   -6.854;  763.920
360.206;    7.075;  -10.185;  603.240
360.801;    9.901;   -7.054;  646.503
361.396;   11.270;   -5.034;  725.975
361.992;    7.937;   -8.284;  668.220
362.587;    5.071;   -8.625;  670.160
363.182;    6.279;   -7.674;  689.631
363.777;    6.943;   -5.164;  738.242
364.372;    8.011;   -8.604;  737.314
364.967;    3.270;   -9.055;  680.744
365.563;    8.095;   -6.114;  815.567
366.158;    5.064;   -5.814;  685.161
366.753;    5.840;   -7.854;  649.263
367.348;    3.511;   -7.804;  746.056
367.942;    3.687;   -7.954;  697.298
368.537;    2.789;   -4.984;  754.245
369.132;    3.032;   -8.564;  703.428
369.727;   -0.218;   -8.855;  638.079
370.322;   -0.219;   -6.245;  580.186
370.917;    0.255;   -6.425;  710.646
371.511;    3.241;   -6.294;  861.834
372.106;   -0.723;   -7.685;  776.964
372.701;   -3.917;   -7.335;  585.988
373.296;    2.079;   -4.564;  863.135
373.890;   -2.763;  -10.235;  647.840
374.485;   -4.739;   -7.885;  691.199
375.079;   -1.193;   -7.324;  738.685
375.674;    1.133;   -3.494;  812.970
376.268;   -4.434;   -8.525;  691.759
376.863;   -9.648;  -10.086;  580.327
377.457;   -3.730;   -7.025;  662.490
378.052;   -5.048;   -3.585;  764.884
378.646;   -6.008;   -7.595;  741.167
379.240;   -6.241;   -8.335;  721.176
379.835;   -6.244;   -5.785;  636.978
380.429;   -7.796;   -4.335;  562.557
381.023;   -7.460;   -6.805;  779.205
381.617;   -9.643;   -9.195;  680.106
382.212;   -6.749;   -6.905;  685.303
382.806;   -6.588;   -3.745;  760.690
383.400;   -9.514;   -7.745;  672.281
383.994;  -10.248;   -9.765;  664.870
384.588;   -6.954;   -6.564;  697.701
385.182;   -5.880;   -5.344;  726.624
385.776;   -6.841;   -8.514;  706.875
386.370;   -9.669;   -9.555;  681.968
386.964;   -8.424;   -8.715;  684.155
387.558;   -7.445;   -6.174;  598.360
388.152;  -10.727;   -8.725;  681.959
388.745;   -8.320;   -7.965;  814.707
389.339;   -7.140;   -5.924;  747.642
389.933;   -6.508;   -5.524;  695.370
390.527;   -6.999;   -7.114;  859.029
391.120;  -13.185;  -10.725;  595.318
391.714;  -11.004;   -8.035;  711.633
392.308;   -8.011;   -3.574;  780.253
392.901;  -11.309;   -7.245;  642.460
393.495;  -13.251;   -9.285;  595.414
394.089;  -10.811;   -5.895;  760.452
394.682;  -11.879;   -4.295;  697.188
395.275;  -11.132;   -9.875;  719.927
395.869;  -13.005;   -8.485;  667.314
396.462;  -11.972;   -7.455;  616.609
397.056;   -7.647;   -5.424;  776.621
397.649;  -12.666;   -6.605;  731.575
398.242;   -8.985;   -8.224;  712.645
398.836;   -8.540;   -7.474;  766.408
399.429;  -10.166;   -7.094;  631.041
400.022;  -13.465;   -9.475;  665.902
400.615;  -10.592;   -7.145;  805.609
401.208;   -9.205;   -7.174;  691.451
401.802;  -11.433;   -5.515;  699.329
402.395;  -12.174;   -9.875;  683.502
402.988;  -12.797;   -8.845;  696.627
403.581;   -9.931;   -8.874;  646.878
404.174;   -7.456;   -5.324;  686.568
404.767;  -10.690;   -9.575;  638.583
405.360;  -12.368;  -10.965;  621.445
405.953;   -7.467;   -8.764;  759.034
406.545;   -6.872;   -7.514;  725.342
407.138;  -10.960;  -10.025;  618.350
407.731;  -10.105;  -10.034;  613.303
408.324;   -7.172;   -9.374;  660.554
408.917;   -7.347;   -6.534;  681.864
409.509;   -8.985;   -8.004;  740.396
410.102;  -10.355;   -9.875;  643.948
410.695;   -5.467;   -8.604;  665.758
411.287;   -6.108;   -6.794;  599.821
411.880;   -6.774;   -9.334;  585.421
412.472;   -9.988;  -10.254;  613.092
413.065;   -7.280;   -6.714;  629.408
413.657;   -4.285;   -7.234;  576.678
414.250;   -4.738;  -10.544;  646.681
414.842;   -7.047;   -9.744;  676.353
415.434;   -4.510;   -6.994;  570.463
416.027;    0.005;   -5.893;  652.196
416.619;   -2.360;   -7.264;  713.400
417.211;   -3.472;  -10.374;  599.352
417.804;    0.645;   -7.993;  628.499
418.396;   -3.006;   -7.234;  607.643
418.988;   -0.345;   -9.443;  659.238
419.580;   -3.392;  -10.724;  568.276
420.172;   -2.180;  -10.323;  536.196
420.764;    2.391;   -8.793;  672.482
421.356;    1.261;  -11.143;  636.898
421.948;    0.303;   -8.293;  677.661
422.540;    5.291;   -7.893;  680.027
423.132;    4.564;   -7.082;  600.641
423.724;    1.202;   -8.653;  561.267
424.316;    3.845;  -10.213;  621.345
424.908;    7.399;   -9.762;  591.517
425.500;    7.860;   -5.572;  647.978
426.092;    7.452;   -8.422;  648.268
426.683;    6.596;   -9.283;  684.836
427.275;    9.276;   -7.852;  641.471
427.867;   11.137;   -5.272;  668.948
428.458;   12.387;   -7.682;  732.344
429.050;   10.617;  -10.612;  680.749
429.642;   12.214;   -9.882;  743.124
430.233;   13.161;   -6.962;  569.356
430.825;   14.776;   -6.842;  724.809
431.416;   11.517;   -9.672;  698.241
432.008;   15.545;   -6.552;  651.723
432.599;   16.218;   -6.891;  656.073
433.190;   13.627;  -10.912;  637.670
433.782;   13.402;  -11.172;  590.395
434.373;   19.996;   -6.061;  884.765
434.964;   18.266;   -8.251;  602.920
435.556;   16.006;   -9.722;  634.537
436.147;   19.897;   -9.082;  758.490
436.738;   19.549;   -8.041;  701.099
437.329;   25.030;   -7.341;  721.723
437.920;   17.281;   -8.162;  666.688
438.511;   18.473;  -11.802;  564.526
439.103;   24.245;  -10.191;  623.998
439.694;   25.442;   -7.601;  681.583
440.285;   27.373;   -8.541;  764.432
440.876;   24.551;   -9.751;  845.738
441.466;   24.568;   -9.401;  575.162
442.057;   29.380;   -7.760;  665.814
442.648;   29.209;   -9.971;  746.255
443.239;   26.704;  -11.001;  620.477
443.830;   31.900;   -7.990;  704.958
444.421;   34.310;   -7.910;  655.474
445.011;   29.991;   -8.131;  693.619
445.602;   30.269;   -7.111;  743.126
446.193;   31.591;  -10.920;  488.117
446.783;   35.629;   -6.500;  640.397
447.374;   31.607;   -8.671;  692.759
447.964;   32.641;  -10.781;  713.770
448.555;   40.777;   -9.650;  822.742
449.145;   37.342;   -8.660;  662.853
449.736;   38.033;   -8.990;  803.179
450.326;   38.505;   -9.500;  713.626
450.917;   42.661;   -8.680;  675.324
451.507;   42.015;   -7.520;  600.661
452.097;   43.026;   -8.590;  746.267
452.688;   44.166;  -11.340;  742.160
453.278;   44.160;  -10.100;  566.840
453.868;   48.418;   -6.019;  793.550
454.458;   46.812;   -9.440;  651.141
455.048;   47.044;  -10.560;  711.783
455.639;   48.614;  -11.799;  567.096
456.229;   51.820;   -6.899;  710.694
456.819;   53.855;   -7.389;  751.158
457.409;   53.561;  -11.119;  773.993
457.999;   56.904;   -9.289;  737.505
458.589;   56.713;   -6.139;  686.606
459.179;   56.734;   -8.729;  717.658
459.769;   55.180;   -9.789;  627.099
460.358;   60.467;  -10.259;  797.262
460.948;   59.548;   -7.299;  689.503
461.538;   61.509;  -10.289;  660.677
462.128;   59.634;  -11.269;  664.934
462.717;   65.828;   -9.368;  710.326
463.307;   68.714;   -7.908;  705.846
463.897;   64.860;   -9.599;  656.942
464.486;   64.960;   -9.769;  837.128
465.076;   68.299;   -8.048;  733.776
465.666;   72.602;   -9.358;  652.900
466.255;   70.586;   -7.919;  785.651
466.845;   69.876;  -11.689;  666.749
467.434;   72.245;   -7.818;  725.873
468.023;   73.441;   -7.678;  658.357
468.613;   71.675;  -10.939;  713.946
469.202;   75.737;  -10.118;  646.507
469.791;   79.511;   -9.108;  737.811
470.381;   81.697;   -6.058;  742.813
470.970;   81.990;  -10.428;  711.099
471.559;   81.695;  -10.268;  733.291
472.148;   84.385;   -8.448;  675.737
472.738;   86.548;   -6.917;  765.466
473.327;   86.594;  -11.978;  637.529
473.916;   86.474;  -11.888;  737.446
474.505;   91.182;   -9.437;  751.703
475.094;   94.156;   -6.747;  806.570
475.683;   93.860;   -9.367;  797.699
476.272;   95.197;  -12.637;  730.632
476.861;   97.421;  -10.027;  706.754
477.449;  103.515;   -8.716;  728.487
478.038;   98.901;   -9.577;  692.513
478.627;  100.292;   -9.718;  714.852
479.216;  105.792;   -8.947;  769.441
479.805;  109.072;   -6.256;  783.375
480.393;  109.455;   -7.937; 1008.945
480.982;  108.427;   -7.717;  874.501
481.571;  114.523;   -9.266;  858.333
482.159;  115.103;   -7.636;  705.386
482.748;  116.385;   -9.667;  821.385
483.336;  120.305;  -10.376;  858.209
483.925;  120.546;   -7.147;  774.373
484.513;  128.045;   -7.996;  758.962
485.102;  124.677;  -10.027;  810.965
485.690;  133.363;  -10.446; 1011.050
486.278;  135.498;   -8.446;  979.329
486.867;  136.112;   -6.356;  809.662
487.455;  137.887;   -9.136;  898.229
488.043;  138.856;  -10.646;  748.361
488.631;  149.193;   -7.456; 1005.079
489.220;  152.548;   -6.636;  908.626
489.808;  153.923;  -11.036;  741.415
490.396;  161.597;  -10.246;  914.645
490.984;  168.388;   -8.556;  830.161
491.572;  178.734;   -5.886;  940.315
492.160;  185.618;   -9.486;  919.081
492.748;  198.350;  -10.976;  884.341
493.336;  222.285;   -8.776; 1019.693
493.924;  250.886;   -5.465;  958.077
494.512;  282.244;   -9.986; 1066.638
495.100;  324.356;  -10.636; 1103.280
495.687;  384.061;  -10.885; 1206.373
496.275;  452.453;   -8.126; 1150.796
496.863;  527.427;  -10.586; 1281.171
497.451;  635.238;  -11.926; 1386.805
498.038;  780.186;  -10.885; 1556.729
498.626;  895.362;   -6.315; 1741.407
499.214; 1058.311;   -7.326; 2016.609
499.801; 1276.414;  -11.906; 2220.633
500.389; 1524.087;  -10.466; 2312.494
500.976; 1860.471;   -5.236; 2744.849
501.564; 2316.286;   -8.936; 3148.565
502.151; 2711.263;  -13.176; 3515.999
502.738; 3185.311;  -10.646; 3971.274
503.326; 3592.505;   -9.525; 4403.796
503.913; 4038.742;  -10.856; 5161.749
504.500; 4457.347;  -11.586; 5986.420
505.088; 4864.019;  -10.336; 6381.201
505.675; 5422.909;   -6.355; 6925.547
506.262; 6170.554;   -9.046; 7619.060
506.849; 6959.449;  -10.416; 8733.969
507.436; 7561.842;  -10.305; 9790.121
508.023; 8184.575;   -5.496; 9985.472
508.610; 8387.973;   -7.856;10434.618
509.197; 9023.508;  -10.097;11198.435
509.784;10439.898;  -10.886;12391.194
510.371;11662.601;   -9.315;13603.713
510.958;12415.906;   -9.936;14426.586
511.545;13143.419;   -9.326;15243.775
512.132;14105.011;  -10.075;15945.876
512.719;14832.886;   -7.796;16340.369
513.305;16135.223;  -10.606;18011.766
513.892;16989.410;  -11.486;19754.971
514.479;18186.090;   -9.126;20967.805
515.066;19449.816;   -6.026;22299.793
515.652;21018.436;   -8.466;22908.660
516.239;22558.750;  -10.886;23798.875
516.825;23647.381;  -11.496;25567.275
517.412;24944.338;   -5.796;28154.959
517.998;25729.813;  -10.506;28344.111
518.585;25482.266;  -10.076;27134.219
519.171;25937.590;   -8.315;27268.576
519.758;28191.127;   -8.596;28964.129
520.344;30228.549;   -8.466;30664.494
520.930;29737.777;  -11.006;32550.605
521.516;31299.994;  -10.495;35422.895
522.103;33472.430;   -5.526;38280.004
522.689;34290.914;   -8.746;37835.117
523.275;33341.586;  -11.376;37288.613
523.861;34518.648;  -11.156;37281.395
524.447;36448.645;   -8.135;37846.949
525.033;36352.027;   -7.896;38321.949
525.619;36619.094;  -12.476;38579.285
526.205;38064.938;   -9.516;40622.875
526.791;41021.570;   -6.926;42258.836
527.377;40733.715;   -8.346;42966.902
527.963;41992.148;   -8.717;42018.949
528.549;41204.301;  -11.016;42476.828
529.135;39895.199;   -8.536;41854.852
529.721;38926.488;   -9.666;41237.711
530.306;38457.680;  -10.066;41259.445
530.892;38269.047;  -11.356;41506.047
531.478;39130.293;   -6.596;43559.613
532.063;42489.914;   -8.836;47695.563
532.649;43347.219;  -10.047;50808.324
533.235;44246.949;   -9.746;51787.500
533.820;45272.164;   -6.566;52145.035
534.406;46475.340;  -10.817;51133.488
534.991;46288.164;   -9.416;49996.805
535.576;44670.863;   -9.036;48882.852
536.162;45281.594;   -6.156;46942.285
536.747;46732.324;  -11.607;45711.746
537.333;49810.305;  -11.787;48510.180
537.918;52205.402;  -12.437;50439.891
538.503;51320.500;   -7.196;50863.711
539.088;48442.660;  -10.556;50906.922
539.673;49038.027;   -8.767;52621.965
540.259;49468.230;  -10.026;52368.094
540.844;46337.344;   -7.416;50879.109
541.429;47688.543;   -9.467;52077.777
542.014;50101.086;   -9.527;52716.695
542.599;49374.605;   -9.946;52363.281
543.184;46072.254;   -7.927;53187.137
543.769;47448.816;   -9.297;54697.605
544.354;47771.691;  -10.127;53913.914
544.938;46224.488;   -9.267;49680.164
545.523;47802.828;   -6.506;47386.277
546.108;50253.285;   -9.787;49151.949
546.693;52463.969;  -11.587;51384.637
547.278;53001.570;  -10.986;51853.254
547.862;49559.523;   -8.206;51173.750
548.447;44573.176;  -10.067;51691.395
549.031;44005.117;   -9.637;52456.703
549.616;49086.129;   -9.926;52714.516
550.201;48436.859;   -6.347;52414.598
550.785;49690.883;   -7.917;52355.059
551.370;49128.508;  -10.867;54589.453
551.954;49215.363;   -9.047;58267.348
552.538;49973.813;   -7.827;59062.176
553.123;48143.492;  -10.287;58115.285
553.707;46255.145;  -12.178;56556.285
554.291;47805.480;   -8.717;56201.668
554.876;50563.566;   -7.457;55335.762
555.460;50627.305;  -10.387;54155.703
556.044;50865.332;   -9.618;53721.484
556.628;48586.285;  -11.567;53731.016
557.212;47388.531;   -8.097;54312.531
557.796;46218.844;  -11.077;53797.773
558.380;46053.559;  -11.108;56145.984
558.964;46221.551;   -9.057;57277.930
559.548;46754.863;   -6.977;56459.641
560.132;44918.723;  -11.457;54434.543
560.716;43880.438;  -11.378;54800.617
561.300;45552.398;   -9.577;57606.945
561.884;46611.930;   -7.127;58972.445
562.467;44566.758;   -7.118;57327.570
563.051;43314.645;  -13.358;54962.434
563.635;44444.750;  -10.178;52594.473
564.219;45746.316;   -7.837;50610.410
564.802;46589.996;  -11.398;49551.180
565.386;46025.930;  -12.788;48370.953
565.969;45447.371;   -9.077;48178.871
566.553;44679.043;   -6.207;49957.305
567.136;45339.477;   -8.568;50369.594
567.720;41575.188;  -11.868;49492.004
568.303;39565.648;   -8.268;50616.352
568.887;39508.020;   -8.698;50727.148
569.470;40040.699;   -6.808;51698.379
570.053;39135.063;  -13.188;52122.078
570.637;36557.211;  -12.037;52536.438
571.220;35991.871;   -8.577;51186.098
571.803;36755.066;   -8.498;51032.762
572.386;39459.992;  -10.498;49609.887
572.969;42118.488;   -9.388;48285.926
573.552;40199.043;   -8.338;47624.285
574.135;38761.266;   -8.518;45498.641
574.718;36055.391;  -13.628;41970.434
575.301;35021.207;  -10.893;41447.137
575.884;33987.023;   -8.158;40923.836
576.467;35338.922;  -10.328;45267.723
577.050;37316.461;  -13.058;48175.543
577.633;38451.965;   -9.458;47729.328
578.216;37426.035;   -8.928;47579.793
578.799;36535.738;   -9.358;47820.996
579.381;35272.445;  -11.388;48115.551
579.964;33456.309;  -11.718;47333.766
580.547;35313.598;   -8.588;46668.969
581.129;36088.883;   -8.859;44466.141
581.712;36818.629;  -10.729;44164.922
582.294;37318.313;  -11.118;46477.855
582.877;37526.066;   -5.218;48244.254
583.459;35624.262;   -8.679;47437.895
584.042;33375.016;  -10.709;46943.219
584.624;33586.621;  -11.669;46792.227
585.206;33466.527;   -8.218;46557.250
585.789;34256.535;  -10.569;45793.773
586.371;36729.871;  -11.859;43836.391
586.953;37107.168;  -10.719;42972.492
587.536;37915.543;   -7.198;42487.211
588.118;37882.340;   -8.720;42086.414
588.700;34258.098;  -10.439;43389.930
589.282;33443.340;   -9.198;43646.039
589.864;34591.523;   -9.199;43438.109
590.446;35727.480;  -11.319;43151.926
591.028;35092.324;  -11.159;42781.867
591.610;33853.086;  -11.779;42839.098
592.192;31512.096;   -7.668;42820.402
592.774;30235.555;  -11.949;40724.277
593.356;29294.541;  -12.129;39874.789
593.937;28510.891;  -10.669;39980.648
594.519;31124.752;   -6.509;42069.633
595.101;33051.570;  -10.849;42976.031
595.683;32965.449;  -11.679;44084.441
596.264;33808.711;   -9.049;43478.797
596.846;33114.137;   -8.849;43803.672
597.427;32667.508;   -9.570;42986.934
598.009;33832.629;  -12.620;42832.219
598.591;34145.648;  -10.039;42580.086
599.172;33596.488;  -10.369;43061.805
599.753;33738.941;   -9.140;41691.469
600.335;35060.156;  -11.430;40692.520
600.916;33545.188;   -9.939;39982.422
601.498;31652.922;   -8.479;40318.617
602.079;30083.375;  -10.920;40670.609
602.660;30072.471;  -11.480;41450.898
603.241;31667.602;  -11.699;41137.738
603.823;30052.832;   -9.579;38868.797
604.404;29926.914;  -10.620;38182.785
604.985;31544.783;  -10.450;38078.047
605.566;31135.129;   -9.129;38056.633
606.147;31192.975;   -7.510;37020.418
606.728;32884.695;  -10.660;37883.359
607.309;31481.691;  -11.740;38748.273
607.890;31084.100;   -9.759;38850.230
608.471;30725.471;   -8.250;37457.918
609.051;30127.445;   -9.240;36066.457
609.632;28853.541;  -12.120;35991.074
610.213;29230.910;   -9.110;37402.641
610.794;30030.545;   -8.030;38383.363
611.374;30115.936;   -8.110;40562.387
611.955;30750.920;  -13.560;38533.727
612.536;31950.381;  -11.400;36951.789
613.116;31830.484;   -8.070;37197.891
613.697;31852.264;  -10.830;38411.125
614.277;30201.684;  -11.641;38673.938
614.858;31208.650;  -13.310;37075.863
615.438;30731.406;   -7.460;35092.906
616.019;28149.195;   -7.601;33666.301
616.599;28316.922;  -12.020;34189.023
617.179;29888.813;  -11.780;36952.047
617.760;30816.898;   -8.570;39582.574
618.340;31573.365;  -11.471;38943.977
618.920;32426.045;  -11.170;37594.156
619.500;32594.725;  -11.071;37866.938
620.080;31989.615;   -7.750;37869.043
620.660;33260.797;  -12.711;36868.617
621.241;35288.344;  -10.211;36352.309
621.821;35540.426;  -10.961;35459.520
622.401;34122.156;   -7.720;35207.414
622.980;32932.359;   -8.981;35980.422
623.560;31424.588;   -9.331;37351.328
624.140;30441.170;   -9.850;34388.582
624.720;25418.613;   -7.451;32368.764
625.300;21859.818;   -9.070;32638.629
625.880;25271.240;  -12.601;34599.035
626.459;29587.211;  -11.751;36831.738
627.039;32584.311;   -9.281;38299.098
627.619;32410.561;   -8.801;38289.574
628.198;30616.352;  -12.071;37220.695
628.778;29459.281;   -9.461;37632.563
629.357;30207.521;   -8.491;38003.012
629.937;30582.066;   -9.721;38402.039
630.516;30156.184;   -9.951;37868.801
631.096;29666.004;  -11.731;35760.410
631.675;32441.688;   -8.572;35225.219
632.254;37668.250;  -11.282;35130.289
632.834;37073.832;  -13.322;35794.570
633.413;35318.797;  -10.301;35788.922
633.992;32328.252;   -8.582;34532.863
634.571;32920.574;   -8.352;33590.113
635.151;35182.094;  -11.912;34943.863
635.730;33728.652;  -10.511;35352.523
636.309;30702.254;   -7.731;35366.605
636.888;28495.900;   -9.952;36165.637
637.467;29315.693;  -11.672;37515.902
638.046;30782.566;   -8.901;39288.695
638.625;33783.992;   -7.912;38279.699
639.204;33636.426;  -10.022;37741.598
639.782;32455.775;  -12.252;38364.551
640.361;28172.881;  -10.041;36740.621
640.940;25426.609;  -11.161;34950.082
641.519;26049.033;   -9.701;34137.398
642.097;29205.334;  -11.271;35654.258
642.676;32020.410;   -8.651;35637.957
643.255;32916.781;   -8.711;36567.074
643.833;32112.936;   -9.581;37809.434
644.412;32363.605;  -13.711;37337.293
644.990;31483.906;  -11.811;37018.531
645.569;31798.531;   -9.411;36518.469
646.147;31366.557;  -10.291;36186.430
646.726;30807.285;  -12.401;36267.688
647.304;31309.871;  -10.411;36647.625
647.882;32976.379;   -9.651;39286.742
648.461;34835.691;   -9.631;39157.703
649.039;33059.785;  -11.881;35412.883
649.617;31882.160;   -9.661;34744.918
650.195;31151.035;   -9.301;35403.098
650.773;29714.051;  -10.511;35053.797
651.352;27738.635;  -11.521;33756.816
651.930;25657.799;  -12.211;31868.773
652.508;23806.059;   -9.171;33121.551
653.086;27733.395;   -9.371;33564.793
653.663;30527.486;  -13.161;34054.668
654.241;29485.125;  -13.031;35693.309
654.819;31042.107;   -9.371;36422.906
655.397;30688.924;  -10.511;38213.484
655.975;30196.006;  -10.371;39507.625
656.553;29657.189;  -10.051;39498.223
657.130;28291.990;  -10.061;40395.480
657.708;27972.406;   -9.561;39242.020
658.286;28020.080;  -11.511;38920.020
658.863;28917.465;  -10.261;40202.898
659.441;32342.535;   -7.531;39677.938
660.018;32263.395;   -9.501;40413.355
660.596;30852.859;  -13.301;39931.414
661.173;32524.762;  -11.211;39604.531
661.750;33105.984;   -9.951;39700.070
662.328;32618.539;   -9.390;39292.809
662.905;31543.412;  -11.330;38235.648
663.482;26474.889;   -9.050;36212.305
664.060;24599.621;   -8.240;35944.945
664.637;27759.410;  -10.050;35170.785
665.214;29332.084;  -11.760;34197.523
665.791;30792.348;  -10.530;34549.520
666.368;29693.701;   -9.690;35118.578
666.945;30319.801;   -9.320;36019.418
667.522;31801.418;  -11.860;36048.438
668.099;31699.689;  -10.770;36243.914
668.676;30320.840;   -6.260;35958.875
669.253;28849.727;   -7.000;37384.730
669.830;29113.195;  -10.190;36779.629
670.407;29170.670;   -9.550;35231.289
670.984;29537.631;   -9.260;35544.270
671.560;30071.174;   -9.280;35466.867
672.137;28989.432;  -11.810;34280.863
672.714;30080.699;  -11.490;34632.863
673.290;31209.299;   -7.740;35135.422
673.867;31363.330;  -10.660;36114.480
674.443;30866.951;  -12.230;36152.859
675.020;28697.207;  -10.450;35327.238
675.596;29956.029;   -9.260;35795.176
676.173;30751.469;  -10.780;35430.355
676.749;30378.508;  -13.690;33549.516
677.326;30084.230;  -11.980;32210.012
677.902;29969.371;   -8.630;32068.871
678.478;29269.563;  -10.730;32583.891
679.054;28535.939;  -10.520;32088.928
679.631;29011.838;  -11.920;30978.848
680.207;30351.572;   -7.490;33160.887
680.783;31742.012;   -9.860;35570.363
681.359;30831.258;  -13.380;36125.184
681.935;30692.473;  -12.480;35240.922
682.511;30421.355;   -7.900;34429.961
683.087;30761.152;   -7.710;34463.680
683.663;30178.568;  -11.480;34648.898
684.239;28633.578;  -14.090;34546.457
684.815;27936.242;   -7.560;35586.375
685.390;28010.543;   -9.910;35821.895
685.966;28411.033;  -11.159;35085.871
686.542;31075.314;  -11.169;34198.230
687.118;33403.891;   -5.959;32847.707
687.693;33538.121;  -10.329;32794.027
688.269;33132.984;  -12.059;33072.367
688.844;31217.992;  -10.909;33141.664
689.420;29238.184;   -8.019;33965.742
689.995;27476.355;   -8.399;34655.523
690.571;26290.984;  -10.949;33576.742
691.146;26409.076;   -9.619;32657.219
691.722;26059.951;   -8.999;32526.979
692.297;26127.350;  -11.589;33014.617
692.872;27527.959;  -11.739;34012.254
693.448;27083.066;  -11.059;34237.434
694.023;26155.285;  -10.139;34142.672
694.598;28353.926;   -9.029;34132.031
695.173;28995.434;  -13.319;34205.250
695.748;28071.744;  -10.169;32882.488
696.323;27568.961;   -8.339;32864.906
696.898;27571.506;   -8.169;33170.004
697.473;27742.480;  -12.309;32432.984
698.048;27035.299;  -10.989;31649.303
698.623;26876.555;   -9.329;30778.141
699.198;28566.869;   -9.849;31140.119
699.773;29892.486;  -12.329;31764.299
700.348;28774.291;  -10.389;31780.816
700.922;28594.408;   -9.269;32046.375
701.497;29237.469;   -9.329;32603.574
702.072;29141.340;  -10.789;34799.871
702.646;27992.906;  -10.839;35793.172
703.221;26405.238;   -9.099;35201.590
703.795;28162.602;  -10.939;34764.527
704.370;28375.480;  -12.859;34307.367
704.944;28598.355;  -11.559;33509.887
705.519;29419.855;   -7.939;31388.584
706.093;30719.826;  -10.499;31340.104
706.668;30846.693;  -11.289;32630.281
707.242;29867.215;  -11.509;32728.779
707.816;28739.576;   -9.639;32947.238
708.390;27170.650;  -11.429;33277.855
708.965;27802.887;  -11.869;33834.336
709.539;28309.791;  -11.689;33709.273
710.113;28279.418;  -10.478;33044.313
710.687;27394.592;  -10.228;31953.992
711.261;25690.189;  -13.698;30505.949
711.835;25742.205;  -13.378;30262.369
712.409;26410.809;   -9.698;31254.447
712.983;28239.977;  -11.898;32754.986
713.557;29356.371;  -15.138;34018.824
714.131;29285.730;  -14.098;34579.625
714.704;28364.836;   -9.958;33890.262
715.278;25833.463;  -10.028;33531.102
715.852;24871.113;  -11.148;33601.660
716.425;26097.207;   -9.068;33515.117
716.999;27163.539;  -10.038;33185.555
717.573;28024.465;   -9.798;33905.996
718.146;28914.389;  -12.378;35199.293
718.720;28753.854;  -11.918;35060.551
719.293;28558.432;   -8.088;34973.230
719.867;31424.402;  -10.888;36394.449
720.440;30862.572;  -11.938;36663.008
721.013;28909.486;  -12.818;35102.426
721.587;27523.971;  -10.298;33985.266
722.160;26512.318;  -10.048;33524.965
722.733;25683.000;  -12.108;32987.043
723.306;26146.363;  -10.818;33066.301
723.880;28025.129;   -8.908;33399.500
724.453;29661.557;   -9.878;33468.297
725.026;28770.785;  -11.188;33816.637
725.599;26429.510;  -11.678;32797.996
726.172;26826.594;   -9.618;33187.434
726.745;28003.934;   -8.258;35136.613
727.318;29441.814;  -12.978;35751.730
727.891;29798.188;  -12.148;35890.430
728.463;29063.545;   -8.968;34822.090
729.036;27738.191;  -10.188;32895.086
729.609;28245.584;  -11.788;31823.225
730.182;25455.416;  -11.788;31445.283
730.754;23229.455;  -10.268;32373.223
731.327;23698.520;   -9.998;33676.820
731.900;24300.133;  -12.228;33417.000
732.472;25138.621;  -13.848;31978.498
733.045;26483.889;   -8.698;30368.777
733.617;26413.965;  -10.607;30574.215
734.190;26535.025;  -11.507;31280.975
734.762;23929.758;  -13.647;31674.412
735.334;22094.471;   -9.767;31247.291
735.907;22667.387;   -9.897;29876.211
736.479;22812.979;  -11.637;29808.488
737.051;22496.604;   -9.567;30233.547
737.623;23068.656;   -8.187;31469.086
738.195;23664.563;  -11.187;31784.225
738.768;26011.328;  -12.337;32120.523
739.340;26486.010;  -12.227;32094.342
739.912;25320.098;  -11.057;31312.680
740.484;23968.605;  -10.207;31946.238
741.056;22624.430;  -10.047;32984.059
741.628;23873.629;  -13.627;33897.715
742.199;26131.756;   -7.177;33213.016
742.771;24908.203;  -10.797;31369.113
743.343;22787.807;  -11.997;31865.473
743.915;21819.936;  -12.867;32388.631
744.487;21760.055;   -7.617;31079.568
745.058;21632.434;   -9.557;30570.107
745.630;22176.115;   -9.877;29970.127
746.201;23326.406;  -14.177;29186.766
746.773;24012.533;   -9.237;28805.723
747.344;23894.098;   -9.847;29591.223
747.916;22287.375;  -11.657;31412.201
748.487;22440.428;  -10.587;32194.898
749.059;23816.371;   -8.707;32533.719
749.630;24696.891;  -10.537;32158.518
750.201;24009.004;  -11.687;30855.395
750.773;22229.316;  -11.647;28622.555
751.344;21841.543;   -7.147;28405.732
751.915;22630.730;   -9.757;28461.551
752.486;22420.178;  -12.427;27842.850
753.057;20460.580;  -12.227;27845.008
753.628;19356.434;  -10.417;27728.107
754.199;20283.924;  -11.767;27381.086
754.770;21321.611;  -11.187;25882.203
755.341;21531.180;  -10.507;25886.184
755.912;21596.002;   -9.387;26050.861
756.483;21169.424;  -10.647;26798.779
757.054;19274.916;  -11.837;27048.238
757.625;17762.742;  -12.716;26294.838
758.195;17714.781;   -9.666;26142.076
758.766;17608.994;   -8.656;26392.234
759.337;18185.490;  -12.856;26334.594
759.907;19659.117;  -13.366;27579.652
760.478;20489.262;   -8.576;28352.770
761.048;19784.336;  -10.526;27325.088
761.619;18770.471;  -11.116;26460.428
762.189;19000.779;  -12.136;26029.826
762.760;20319.236;   -9.456;26430.145
763.330;21298.342;   -7.136;26670.902
763.900;20736.320;  -11.786;26603.021
764.471;18238.428;  -11.546;25542.740
765.041;16672.316;   -8.096;24358.459
765.611;16470.387;   -8.876;23991.297
766.181;16899.563;  -12.196;24470.236
766.751;18169.947;  -11.636;24845.975
767.321;17850.662;  -10.156;24533.633
767.891;15561.558;  -11.766;24916.492
768.461;14947.732;  -14.936;24776.771
769.031;15569.896;  -12.356;24757.988
769.601;17195.855;   -7.526;24181.088
770.171;17281.439;  -10.766;23670.387
770.741;16637.520;  -13.176;22960.045
771.311;16883.576;  -10.616;22917.523
771.880;17372.807;   -9.576;23562.941
772.450;17305.172;  -10.336;24216.500
773.020;17342.906;  -13.516;24140.398
773.589;16508.057;  -13.466;24414.857
774.159;15839.966;   -8.686;23858.717
774.729;15467.984;   -9.476;22942.135
775.298;15034.198;  -13.666;22324.033
775.867;14564.939;  -11.716;21140.313
776.437;14637.449;   -9.906;20838.092
777.006;14388.276;  -12.166;20599.510
777.576;14086.312;  -12.356;20508.809
778.145;14158.875;  -11.646;20732.947
778.714;14235.521;   -8.226;21062.465
779.283;13787.035;   -9.556;20949.664
779.853;13291.863;  -14.116;20508.623
780.422;13675.941;  -11.506;20649.082
780.991;13270.729;   -9.556;21527.520
781.560;12012.482;   -9.095;22632.658
782.129;11710.976;  -12.135;23048.277
782.698;11663.381;  -10.865;23438.555
783.267;11288.158;   -9.335;23267.734
783.836;11299.410;  -11.045;22415.133
784.404;12309.925;  -13.865;20443.152
784.973;12909.020;  -13.095;19699.150
785.542;13003.051;  -11.575;19763.828
786.111;12908.391;   -9.705;20341.408
786.679;12389.138;  -12.105;20207.967
787.248;12111.183;  -12.455;19516.465
787.817;11872.991;  -11.535;18900.363
788.385;11384.215;   -9.765;17879.121
788.954;10764.423;  -14.005;17658.301
789.522;10218.451;  -11.955;17788.879
790.090;10646.812;  -10.135;18118.277
790.659;11186.778;  -10.975;18338.736
791.227;10787.616;  -13.375;18508.615
791.795;11175.883;  -12.375;17898.254
792.364;11415.842;  -10.725;17295.133
792.932;11650.410;   -9.715;16822.051
793.500;11992.765;  -12.675;17040.148
794.068;12385.689;  -13.495;17179.787
794.636;12527.976;  -10.885;16664.246
795.204;11881.741;  -11.045;16524.545
795.772;11844.418;  -13.175;17274.564
796.340;11335.371;  -12.445;17891.002
796.908;11106.378;   -9.735;17648.561
797.476;10995.672;   -9.815;17064.080
798.044;10604.828;  -13.985;16672.777
798.612; 9925.288;  -13.115;17023.996
799.180; 9530.188;  -10.185;16561.615
799.747; 9350.137;   -9.055;15962.773
800.315; 9069.699;  -12.385;15296.992
800.883; 8840.474;  -15.035;14801.771
801.450; 8980.455;  -10.365;14534.430
802.018; 9062.160;   -9.855;14173.248
802.585; 9060.650;  -11.905;14029.547
803.153; 9089.847;  -11.585;13836.846
803.720; 8943.230;   -9.095;13567.324
804.287; 8422.951;   -9.135;13360.622
804.855; 7947.050;  -11.604;13681.981
805.422; 7858.526;  -11.794;13536.560
805.989; 7905.731;  -10.734;13355.958
806.556; 8153.524;  -10.444;13747.896
807.124; 8478.507;  -12.764;13987.376
807.691; 8450.059;  -12.964;14038.674
808.258; 8204.781;  -11.134;14120.152
808.825; 7756.232;   -9.854;13860.111
809.392; 7849.915;  -10.504;13268.790
809.959; 7511.138;  -13.054;12680.389
810.526; 7084.760;   -8.294;12427.308
811.093; 7065.225;   -8.394;12030.105
811.659; 7584.342;  -12.304;11653.664
812.226; 8040.310;  -13.944;11637.183
812.793; 7725.452;  -10.484;11611.521
813.360; 7088.849;  -10.144;11885.181
813.926; 6792.444;  -11.684;12770.539
814.493; 6638.735;  -13.644;12677.638
815.060; 6315.618;   -9.724;11974.336
815.626; 6309.575;   -9.854;11594.715
816.193; 6662.933;  -13.254;11579.474
816.759; 6680.243;  -13.204;11666.972
817.325; 6736.458;   -9.434;11325.530
817.892; 7102.149;  -10.134;11105.369
818.458; 7506.181;  -13.474;10843.928
819.024; 7114.367;  -11.854;10714.406
819.591; 6841.332;  -10.244;10469.165
820.157; 6684.513;  -10.704;10235.523
820.723; 6238.085;  -12.324;10847.563
821.289; 5970.844;   -9.444;11040.980
821.855; 5877.548;   -8.374;10357.100
822.421; 5757.994;  -10.234; 9978.918
822.987; 5636.164;  -13.294; 9754.177
823.553; 5282.815;  -10.884;10065.755
824.119; 5150.048;   -8.884;10036.294
824.685; 5313.191;   -6.784;10029.192
825.251; 5435.887;  -12.004;10199.230
825.816; 5400.096;  -11.474; 9820.189
826.382; 5150.962;   -9.174; 9297.248
826.948; 5316.434;   -9.214; 9381.347
827.513; 5671.075;  -10.774; 9450.726
828.079; 5498.958;  -11.924; 9472.444
828.645; 4947.218;  -10.543; 9292.643
829.210; 4818.232;  -10.533; 9065.341
829.776; 4779.986;  -10.753; 9132.620
830.341; 4656.436;  -10.173; 9092.878
830.906; 4822.850;  -10.743; 9078.557
831.472; 5143.820;  -11.113; 8534.535
832.037; 4922.708;  -10.603; 8677.874
832.602; 4400.656;  -13.323; 8628.692
833.167; 4153.752;  -10.823; 8879.031
833.733; 4101.696;  -10.113; 9189.790
834.298; 4224.213;  -13.583; 9052.608
834.863; 4332.000;  -12.703; 8895.087
835.428; 4358.003;  -10.523; 8824.266
835.993; 4245.904;   -6.963; 8845.385
836.558; 4094.031;  -10.763; 8888.563
837.123; 4182.193;   -9.903; 8966.582
837.688; 4424.792;   -9.913; 8617.860
838.253; 4626.510;  -10.283; 8590.699
838.817; 4792.896;  -12.963; 8443.797
839.382; 4738.076;  -14.243; 8799.356
839.947; 4451.831;  -10.733; 8810.595
840.511; 4148.829;   -9.383; 8796.394
841.076; 3778.359;  -12.563; 8347.231
841.641; 3835.367;  -12.953; 8224.330
842.205; 3922.111;   -7.043; 8223.349
842.770; 3959.694;   -8.163; 8622.107
843.334; 4123.309;  -12.503; 8410.386
843.898; 4122.638;  -11.693; 8337.465
844.463; 4124.687;  -10.203; 8506.283
845.027; 3922.600;   -9.533; 8280.962
845.591; 3745.837;  -13.443; 8231.141
846.156; 3728.740;  -13.143; 7969.179
846.720; 3647.370;   -9.433; 7768.278
847.284; 3533.560;  -11.033; 7630.957
847.848; 3384.569;  -10.403; 7472.395
848.412; 3267.879;  -11.553; 7437.394
848.976; 3285.079;   -8.393; 7674.592
849.540; 3224.352;   -8.713; 7836.011
850.104; 3290.381;  -12.463; 7913.669
850.668; 3621.845;  -12.973; 7694.508
851.232; 3760.226;  -10.793; 7756.887
851.796; 3624.886;  -10.662; 7926.545
852.359; 3315.291;  -13.082; 7827.844
852.923; 3165.564;  -12.192; 7641.163
853.487; 3046.127;  -11.912; 7342.501
854.050; 3025.109;  -10.892; 7042.820
854.614; 3134.868;  -13.992; 7151.338
855.177; 3217.487;  -11.732; 7105.077
855.741; 3247.583;   -8.962; 6989.675
856.304; 3176.727;   -9.442; 6596.634
856.868; 3161.719;  -14.192; 6356.272
857.431; 3282.685;  -12.702; 6468.571
857.995; 3416.696;   -9.942; 6373.210
858.558; 3440.220;   -9.112; 6324.448
859.121; 3179.730;  -12.932; 6408.327
859.684; 3015.406;  -13.442; 6347.886
860.247; 3092.397;  -10.632; 6321.264
860.810; 3107.326;  -11.272; 6301.903
861.374; 2865.095;   -9.832; 6607.881
861.937; 2611.200;  -11.762; 6408.200
862.500; 2612.834;   -9.722; 6572.639
863.062; 2760.193;  -10.512; 6387.297
863.625; 2890.010;  -11.232; 6190.836
864.188; 3052.380;  -14.112; 5807.254
864.751; 3149.394;  -11.302; 5682.413
865.314; 3074.947;  -10.112; 5547.492
865.876; 2868.641;  -12.182; 5500.150
866.439; 2843.541;  -10.722; 5415.909
867.002; 2793.412;   -9.252; 5501.567
867.564; 2594.843;   -9.572; 5413.946
868.127; 2374.786;  -13.142; 5160.325
868.689; 2253.000;  -12.902; 5133.183
869.252; 2135.193;   -9.732; 5252.382
869.814; 2026.457;   -9.432; 5297.141
870.377; 2037.419;  -11.552; 5390.919
870.939; 2116.572;   -9.052; 5599.898
871.501; 2192.454;  -10.982; 5248.336
872.063; 2202.182;  -12.292; 4854.235
872.626; 2141.501;  -14.912; 4817.074
873.188; 2138.567;  -13.112; 4987.732
873.750; 2115.373;  -13.442; 4868.651
874.312; 2049.916;   -9.402; 4779.330
874.874; 1973.426;  -11.062; 4866.348
875.436; 1890.797;  -13.931; 4718.887
875.998; 1882.602;   -9.561; 4660.005
876.560; 1901.757;  -11.321; 4462.964
877.122; 1847.841;  -12.221; 4145.042
877.683; 1757.898;  -12.191; 4056.481
878.245; 1681.025;  -12.101; 3950.740
878.807; 1710.719;   -8.971; 4058.958
879.369; 1731.132;  -12.071; 3954.677
879.930; 1648.583;  -14.621; 3941.495
880.492; 1594.344;  -10.311; 4067.014
881.053; 1551.372;  -10.901; 3859.633
881.615; 1442.459;  -14.411; 3776.071
882.176; 1354.669;  -13.761; 3734.750
882.738; 1313.072;   -9.181; 3678.489
883.299; 1292.619;  -11.791; 3405.407
883.860; 1284.834;  -13.121; 3351.106
884.422; 1270.561;  -11.211; 3394.044
884.983; 1225.160;  -10.091; 3166.443
885.544; 1153.723;   -8.461; 3189.802
886.105; 1084.366;  -12.361; 3160.360
886.666; 1024.447;  -14.141; 3093.059
887.227;  968.100;  -11.361; 2941.957
887.788;  908.482;  -11.401; 2974.836
888.349;  843.303;  -13.791; 2721.214
888.910;  838.645;  -13.191; 2696.493
889.471;  841.385;   -9.881; 2560.172
890.032;  817.852;   -9.881; 2558.190
890.593;  790.693;  -10.371; 2567.669
891.153;  767.483;  -13.301; 2460.307
891.714;  725.268;  -11.431; 2372.046
892.275;  688.618;  -11.291; 2309.505
892.835;  652.458;  -11.471; 2382.543
893.396;  599.570;  -11.541; 2295.502
893.956;  541.388;  -11.181; 2162.420
894.517;  503.199;  -11.741; 2125.439
895.077;  498.857;  -11.671; 2086.978
895.638;  501.492;  -11.311; 2126.316
896.198;  473.962;   -9.831; 1838.275
896.758;  433.575;   -8.421; 1892.813
897.319;  405.322;  -12.351; 1792.232
897.879;  390.317;  -13.511; 1762.751
898.439;  366.354;  -12.001; 1661.149
898.999;  341.155;  -10.180; 1781.468
899.559;  330.320;  -12.030; 1703.347
900.119;  325.207;  -15.710; 1537.525
900.679;  320.516;   -8.900; 1638.384
901.239;  307.856;   -8.340; 1527.902
901.799;  298.307;  -13.910; 1456.441
902.359;  292.486;  -13.460; 1357.140
902.919;  286.224;  -11.490; 1331.118
903.479;  272.175;  -12.110; 1317.257
904.038;  253.800;  -11.720; 1262.595
904.598;  239.240;  -13.610; 1152.034
905.158;  234.693;  -11.040; 1240.893
905.717;  229.489;  -10.900; 1233.691
906.277;  219.280;  -15.080; 1217.330
906.836;  208.842;  -13.380; 1222.408
907.396;  200.181;  -10.780; 1193.047
907.955;  194.453;   -8.500; 1182.526
908.515;  188.701;  -12.760; 1099.364
909.074;  182.713;  -11.900; 1092.863
909.633;  177.574;   -8.950; 1069.121
910.192;  173.130;   -8.770; 1196.460
910.752;  168.278;  -12.390; 1029.960
911.311;  163.524;  -13.680; 1009.780
911.870;  161.364;  -12.370;  971.460
912.429;  162.463;  -10.900; 1094.080
912.988;  162.177;  -11.690; 1081.060
913.547;  157.734;  -13.240;  940.380
914.106;  152.697;  -11.990;  999.420
914.665;  149.695;   -9.990;  984.020
915.224;  149.403;  -12.880; 1035.760
915.782;  149.097;  -12.350;  922.560
916.341;  148.325;   -9.110; 1049.840
916.900;  144.193;   -9.270;  925.260
917.458;  142.935;  -13.240;  884.220
918.017;  142.044;  -13.550;  942.600
918.576;  141.269;  -12.320;  904.440
919.134;  139.024;  -11.490;  837.980
919.693;  138.379;  -13.670;  893.060
920.251;  136.716;  -15.470;  876.500
920.809;  135.610;  -11.290;  839.580
921.368;  134.813;  -10.210;  885.360
921.926;  133.592;  -12.140;  842.940
922.484;  133.310;  -13.080;  903.360
923.042;  132.307;  -11.720;  880.340
923.601;  136.103;   -7.480;  998.680
924.159;  133.774;  -11.570;  935.560
924.717;  131.191;  -13.840;  841.080
925.275;  129.607;  -10.640;  903.240
925.833;  129.426;  -11.540;  779.320
926.391;  130.526;  -12.960;  938.380
926.949;  129.146;  -14.130;  857.680
927.506;  129.129;  -11.750;  903.500
928.064;  129.218;  -10.250;  877.580
928.622;  128.856;  -13.030;  880.100
929.180;  128.064;  -13.400;  814.180
929.737;  128.584;  -10.700;  808.540
930.295;  132.889;  -10.070;  928.480
930.853;  134.380;  -11.960;  849.100
931.410;  135.089;  -13.120;  821.120
931.968;  134.335;  -10.770;  940.660
932.525;  133.695;  -10.680;  909.380
933.082;  134.232;  -13.130;  811.440
933.640;  136.838;  -13.210;  925.900
934.197;  133.868;  -11.060;  886.360
934.754;  134.808;   -9.580;  897.780
935.312;  137.876;  -14.000;  863.340
935.869;  142.765;  -10.710; 1012.980
936.426;  141.228;   -9.860;  872.800
936.983;  143.324;   -9.710;  889.020
937.540;  143.132;  -13.990;  838.280
938.097;  141.494;  -14.040;  940.120
938.654;  141.631;  -10.310;  898.860
939.211;  144.583;  -10.560;  952.480
939.768;  147.359;  -13.900;  915.420
940.324;  150.898;  -14.760;  904.200
940.881;  152.540;  -10.370;  878.500
941.438;  153.467;   -8.260; 1021.200
941.995;  148.694;  -12.540;  992.560
942.551;  146.643;  -14.670;  875.620
943.108;  146.116;  -10.450;  937.920
943.664;  148.943;  -10.750;  869.340
944.221;  152.160;  -11.550; 1088.140
944.777;  149.889;  -14.770;  869.680
945.334;  150.167;  -12.820;  884.840
945.890;  151.505;  -10.130;  946.480
946.446;  151.515;  -13.470;  947.020
947.003;  153.752;  -12.120;  964.940
947.559;  155.988;   -9.980; 1063.040
948.115;  156.151;   -9.080; 1026.540
948.671;  153.258;  -10.830;  967.300
949.227;  151.762;  -12.440;  859.560
949.783;  149.019;  -12.910;  858.900
950.339;  151.866;  -10.270;  991.000
950.895;  152.137;  -13.630; 1023.840
951.451;  150.703;  -15.100;  925.280
952.007;  149.965;  -11.330;  998.540
952.563;  149.439;  -10.580;  937.780
953.118;  147.875;  -13.440;  904.940
953.674;  147.214;  -12.710;  935.780
954.230;  146.418;  -10.350;  949.640
954.785;  144.789;   -9.190;  936.640
955.341;  143.353;  -11.200;  998.160
955.897;  141.917;  -16.560;  834.660
956.452;  143.677;  -12.570;  953.840
957.008;  142.457;   -7.970; 1083.640
957.563;  140.918;  -11.940; 1009.540
958.118;  136.033;  -13.450;  877.700
958.674;  136.810;  -12.030;  946.780
959.229;  137.667;   -9.410; 1013.980
959.784;  136.129;  -12.000;  832.400
960.339;  134.992;  -14.780; 1001.280
960.894;  130.952;   -9.860;  963.760
961.449;  126.294;   -9.970;  859.960
962.004;  127.072;  -10.900; 1212.840
962.559;  121.740;  -13.150;  860.140
963.114;  118.679;  -13.740;  742.480
963.669;  119.040;   -9.820;  915.500
964.224;  117.903;  -13.890;  874.340
964.779;  116.312;  -12.600;  828.420
965.334;  117.238;  -10.950; 1017.860
965.888;  115.967;  -11.170;  875.360
966.443;  119.571;  -12.540;  972.380
966.998;  118.844;  -15.780;  819.460
967.552;  117.403;   -9.760;  908.380
968.107;  114.129;   -9.060;  868.300
968.661;  116.206;  -11.950;  922.440
969.216;  115.818;  -12.800;  856.280
969.770;  115.997;  -11.210;  917.200
970.324;  114.940;  -11.610;  923.140
970.879;  112.285;  -11.370;  947.180
971.433;  108.599;  -12.540;  952.720
971.987;  103.098;  -11.320;  895.340
972.541;  100.692;  -10.720;  917.100
973.095;  100.335;   -9.680; 1009.460
973.649;   98.865;  -11.440;  809.480
974.203;   97.676;  -11.210;  829.040
974.757;   98.306;  -10.240;  855.220
975.311;   98.439;  -13.720;  872.600
975.865;   97.560;  -13.770;  881.820
976.419;   96.093;  -11.690;  857.400
976.973;   96.227;   -9.510;  849.620
977.526;   97.616;  -12.620;  949.920
978.080;   96.168;  -12.010;  796.780
978.634;   97.209;  -10.170;  921.320
979.187;   94.748;   -9.020;  905.400
979.741;   92.694;   -9.820; 1018.380
980.294;   88.540;  -14.870;  789.160
980.848;   86.492;  -12.380;  717.220
981.401;   88.101;  -10.350;  816.540
981.955;   90.692;  -13.720;  844.300
982.508;   88.776;  -11.490;  746.340
983.061;   88.919;  -10.000;  915.260
983.615;   86.186;  -11.480;  798.800
984.168;   83.506;  -13.220;  770.080
984.721;   82.217;  -13.960;  880.760
985.274;   81.320;  -10.870;  867.500
985.827;   80.583;   -9.790;  834.220
986.380;   78.670;  -13.120;  721.340
986.933;   78.211;  -12.450;  864.800
987.486;   76.304;  -10.210;  861.920
988.039;   75.102;   -8.430;  863.100
988.591;   73.405;  -10.520;  893.260
989.144;   70.684;  -14.860;  737.260
989.697;   69.824;  -13.080;  758.740
990.250;   70.215;  -10.150;  858.100
990.802;   69.270;  -13.430;  755.860
991.355;   70.930;  -12.750;  974.880
991.907;   68.233;  -12.040;  864.320
992.460;   65.537;  -11.330;  753.760
993.012;   65.154;  -13.610;  749.540
993.565;   64.387;  -13.460;  711.360
994.117;   65.590;   -9.360;  950.780
994.669;   62.218;  -11.300;  701.320
995.221;   60.814;  -13.540;  791.920
995.774;   59.084;  -13.430;  787.580
996.326;   57.438;  -12.520;  740.220
996.878;   57.080;  -10.950;  838.420
997.430;   55.362;  -14.300;  699.860
997.982;   53.697;  -13.760;  750.140
998.534;   54.029;  -11.530;  739.060
999.086;   52.379;  -10.310;  738.220
999.638;   51.461;  -12.530;  661.380
1000.190;   50.668;  -11.840;  699.320
1000.741;   50.570;  -10.260;  742.700
1001.293;   49.762;   -8.860;  686.020
1001.845;   48.736;  -13.700;  676.640
1002.396;   48.928;  -12.100;  743.400
1002.948;   47.932;  -12.760;  737.400
1003.500;   46.472;  -10.380;  723.780
1004.051;   46.857;  -11.900;  907.580
1004.603;   45.663;  -12.250;  791.820
1005.154;   41.938;  -13.210;  608.980
1005.705;   41.511;  -10.950;  723.960
1006.257;   40.955;  -13.880;  707.220
1006.808;   40.424;  -12.840;  685.460
1007.359;   39.593;  -10.570;  763.240
1007.910;   38.648;   -9.620;  646.640
1008.461;   38.968;  -13.630;  732.940
1009.013;   36.804;  -17.200;  588.340
1009.564;   39.034;  -10.200;  793.520
1010.115;   35.851;  -12.570;  597.040
1010.665;   36.597;  -15.150;  602.160
1011.216;   36.219;  -14.480;  667.920
1011.767;   35.228;  -11.340;  697.920
1012.318;   35.505;   -9.780;  736.980
1012.869;   34.935;  -12.380;  679.000
1013.419;   33.969;  -15.560;  603.120
1013.970;   34.254;  -11.010;  666.640
1014.521;   33.992;  -11.610;  620.620
1015.071;   34.382;  -13.450;  670.380
1015.622;   33.504;  -13.870;  635.460
1016.172;   33.065;  -11.610;  596.820
1016.723;   32.557;  -12.120;  614.380
1017.273;   32.446;  -13.620;  604.160
1017.823;   32.828;  -14.140;  650.340
1018.374;   31.122;  -12.800;  611.760
1018.924;   32.046;  -12.340;  716.880
1019.474;   32.322;  -11.410;  718.880
1020.024;   31.299;  -14.770;  657.580
1020.574;   31.468;   -9.780;  726.160
1021.124;   32.039;   -8.560;  673.580
1021.674;   30.546;  -15.190;  559.120
1022.224;   31.379;  -13.530;  708.940
1022.774;   31.331;  -13.280;  668.820
1023.324;   31.025;  -10.690;  753.520
1023.874;   32.353;  -10.240;  875.760
1024.423;   29.398;  -12.540;  613.700
1024.973;   29.594;  -10.010;  610.760
1025.523;   29.487;  -10.550;  620.960
1026.072;   29.197;  -13.560;  606.420
1026.622;   28.257;  -15.120;  675.740
1027.172;   29.467;  -11.260;  715.660
1027.721;   27.652;  -11.410;  601.220
1028.270;   29.165;  -13.530;  663.400
1028.820;   28.117;  -13.680;  638.080
1029.369;   28.204;  -13.520;  612.700
1029.918;   27.785;  -10.980;  649.840
1030.468;   27.675;  -13.530;  564.780
1031.017;   27.758;  -13.170;  634.800
1031.566;   26.870;  -12.200;  608.900
1032.115;   26.977;   -9.960;  694.500
1032.664;   25.510;  -13.210;  596.480
1033.213;   27.497;  -12.500;  735.420
1033.762;   26.359;  -11.910;  635.620
1034.311;   25.963;   -9.640;  677.220
1034.860;   26.694;  -13.310;  691.000
1035.408;   26.689;  -11.830;  722.720
1035.957;   26.612;  -12.000;  719.540
1036.506;   24.329;  -11.690;  530.800
1037.055;   27.559;  -10.990;  844.320
1037.603;   25.108;  -15.120;  664.000
1038.152;   23.933;  -12.450;  534.760
1038.700;   24.301;  -10.560;  585.740
1039.249;   24.640;  -11.080;  681.220
1039.797;   24.911;  -12.540;  633.360
1040.345;   24.138;  -11.920;  705.420
1040.894;   24.448;  -11.410;  625.300
1041.442;   24.052;  -14.320;  632.200
1041.990;   23.074;  -16.240;  559.160
1042.538;   22.500;  -11.680;  536.180
1043.087;   22.470;  -10.760;  570.860
1043.635;   24.363;  -11.850;  670.500
1044.183;   21.966;  -15.480;  586.400
1044.731;   21.886;  -11.770;  576.000
1045.279;   22.501;  -13.090;  674.920
1045.827;   24.620;  -12.440;  892.400
1046.374;   21.741;  -13.840;  515.420
1046.922;   21.387;  -13.220;  590.580
1047.470;   22.846;  -10.230;  691.300
1048.018;   23.157;  -14.590;  647.960
1048.565;   22.807;  -12.050;  708.600
1049.113;   20.768;  -11.650;  557.000
1049.660;   20.750;  -10.510;  629.660
1050.208;   21.988;  -13.310;  675.640
1050.755;   20.822;  -15.900;  606.580
1051.303;   21.830;  -11.430;  686.820
1051.850;   20.254;   -8.480;  635.120
1052.397;   19.451;  -15.010;  473.960
1052.945;   20.064;  -13.960;  617.760
1053.492;   20.999;  -13.150;  741.840
1054.039;   21.378;   -9.630;  720.180
1054.586;   20.084;  -13.680;  557.240
1055.133;   20.772;  -14.570;  693.140
1055.680;   20.169;  -13.820;  646.620
1056.227;   19.544;  -11.730;  542.780
1056.774;   20.992;  -12.480;  794.980
1057.321;   18.632;  -13.930;  523.260
1057.868;   19.238;  -11.690;  651.320
1058.415;   18.521;   -9.520;  651.980
1058.961;   19.668;  -13.160;  678.940
1059.508;   18.932;  -12.920;  643.820
1060.055;   18.502;  -11.920;  581.780
1060.601;   19.472;  -11.500;  624.300
1061.148;   18.256;  -14.330;  616.820
1061.694;   17.739;  -16.870;  592.580
1062.241;   17.605;  -10.330;  596.320
1062.787;   18.078;  -10.620;  663.140
1063.334;   19.862;  -10.110;  808.560
1063.880;   17.910;  -13.400;  668.360
1064.426;   17.851;  -10.680;  706.820
1064.972;   16.970;   -9.920;  601.340
1065.518;   16.365;  -10.980;  566.640
1066.065;   17.541;  -14.890;  624.460
1066.611;   16.602;  -12.870;  598.800
1067.157;   17.281;  -12.950;  641.860
1067.703;   17.811;  -13.540;  668.480
1068.249;   16.858;  -13.540;  605.220
1068.794;   15.966;  -12.600;  626.880
1069.340;   15.463;  -10.620;  578.960
1069.886;   16.152;  -12.830;  590.700
1070.432;   15.495;  -14.870;  541.720
1070.977;   14.970;  -11.980;  601.080
1071.523;   15.406;   -8.200;  573.060
1072.068;   16.039;  -12.330;  582.000
1072.614;   16.218;  -16.370;  527.760
1073.160;   16.544;  -11.100;  687.040
1073.705;   14.715;  -10.480;  572.520
1074.250;   14.845;  -14.520;  559.900
1074.796;   15.934;  -11.460;  655.160
1075.341;   16.363;  -11.950;  664.100
1075.886;   15.219;  -11.460;  594.240
1076.431;   14.601;  -13.770;  649.880
1076.976;   14.474;  -12.680;  639.220
1077.521;   14.041;  -13.170;  583.080
1078.067;   13.530;  -10.860;  579.400
1078.612;   14.922;  -13.920;  661.620
1079.156;   14.776;  -13.880;  601.540
1079.701;   14.942;  -13.120;  693.260
1080.246;   14.756;   -9.940;  696.300
1080.791;   14.073;  -14.740;  625.020
1081.336;   14.290;  -13.750;  659.320
1081.880;   13.942;  -13.400;  649.680
1082.425;   13.401;  -12.220;  573.480
1082.970;   14.539;  -11.610;  717.040
1083.514;   13.720;  -13.580;  597.000
1084.059;   12.116;  -12.810;  586.720
1084.603;   12.650;  -12.320;  565.840
1085.147;   12.738;  -13.190;  645.220
1085.692;   14.026;  -12.480;  716.800
1086.236;   11.221;  -13.020;  503.140
1086.780;   13.958;   -9.190;  751.440
1087.325;   13.150;  -12.480;  654.620
1087.869;   12.800;  -12.450;  610.700
1088.413;   12.889;  -12.240;  705.040
1088.957;   11.263;   -9.020;  543.400
1089.501;   12.864;  -10.320;  766.640
1090.045;   12.077;  -12.720;  726.480
1090.589;   10.066;  -13.690;  569.920
1091.133;   12.495;  -10.020;  673.340
1091.676;   11.676;  -12.330;  591.940
1092.220;   10.986;  -14.970;  600.920
1092.764;   12.083;  -12.430;  706.960
1093.307;   12.056;   -9.800;  673.780
1093.851;   10.596;  -14.970;  556.540
1094.395;   11.634;  -15.310;  683.140
1094.938;   10.211;  -10.370;  632.520
1095.482;   10.392;  -11.050;  559.800
1096.025;   11.859;  -11.840;  710.880
1096.568;   11.559;  -12.840;  779.280
1097.112;    9.316;  -14.700;  508.180
1097.655;   10.422;   -8.720;  603.000
1098.198;    9.333;  -13.610;  600.180
1098.741;    9.564;  -13.350;  612.860
1099.285;   10.954;  -11.230;  657.300
1099.828;    8.217;  -11.840;  439.400
1100.371;    9.695;  -10.840;  608.160
1100.914;    9.777;  -14.190;  682.660
1101.457;    9.754;  -11.240;  679.900
1101.999;    8.976;  -11.270;  584.680
1102.542;    9.411;  -11.480;  641.440
1103.085;    9.219;  -11.750;  658.500
1103.628;    9.555;  -11.400;  762.060
1104.170;    9.046;  -10.490;  588.280
1104.713;    9.238;  -10.600;  646.700
1105.256;    8.430;  -14.360;  557.440
1105.798;    8.056;  -13.210;  499.980
1106.341;    9.061;  -10.270;  728.900
1106.883;    8.095;  -12.200;  521.340
1107.425;    8.544;  -13.110;  668.180
1107.968;    7.285;  -12.840;  612.380
1108.510;    8.746;   -6.480;  684.960
1109.052;    7.532;  -13.940;  612.620
1109.594;    7.799;  -13.690;  554.440
1110.136;    7.900;  -11.880;  643.220
1110.679;    7.210;   -9.500;  633.080
1111.221;    8.234;  -14.160;  604.460
1111.763;    6.868;  -13.980;  559.220
1112.304;    6.559;  -13.880;  547.140
1112.846;    7.463;  -12.210;  666.240
1113.388;    9.525;  -11.390;  942.180
1113.930;    7.425;  -14.540;  694.200
1114.472;    6.254;  -12.640;  606.540
1115.013;    5.229;  -11.620;  551.280
1115.555;    5.983;  -13.640;  587.100
1116.097;    5.255;  -15.380;  579.480
1116.638;    6.577;  -12.640;  684.600
1117.180;    6.519;   -9.850;  667.740
1117.721;    7.078;  -13.690;  568.580
1118.262;    7.565;  -12.680;  677.960
1118.804;    7.211;  -12.530;  637.340
1119.345;    6.052;  -11.690;  578.400
1119.886;    7.150;  -13.380;  704.040
1120.427;    5.697;  -14.070;  589.020
1120.969;    4.786;  -13.500;  597.920
1121.510;    4.850;  -11.480;  563.060
1122.051;    5.974;  -12.830;  723.580
1122.592;    5.584;  -14.290;  655.420
1123.133;    3.379;  -12.400;  547.940
1123.673;    5.854;  -10.130;  706.480
1124.214;    5.457;  -12.930;  612.460
1124.755;    6.333;  -14.380;  639.460
1125.296;    5.139;  -14.000;  627.320
1125.836;    5.988;  -10.070;  691.500
1126.377;    4.309;  -12.640;  599.660
1126.918;    5.394;  -12.960;  614.980
1127.458;    3.762;  -13.350;  622.220
1127.999;    5.369;  -10.750;  656.980
1128.539;    4.640;  -12.350;  694.240
1129.079;    4.384;  -14.860;  632.720
1129.620;    2.929;  -13.840;  558.100
1130.160;    3.682;  -12.330;  539.480
1130.700;    4.374;  -14.530;  640.840
1131.240;    5.328;  -12.530;  643.700
1131.781;    3.679;  -14.450;  619.680
1132.321;    3.504;   -9.790;  599.120
1132.861;    2.764;  -14.860;  564.200
1133.401;    2.510;  -14.290;  593.940
1133.941;    3.397;  -11.750;  626.280
1134.481;    2.822;   -9.920;  597.580
1135.020;    3.357;  -12.290;  609.160
1135.560;    3.932;  -11.650;  674.940
1136.100;    2.199;  -16.270;  501.160
1136.640;    2.316;  -10.890;  510.480
1137.179;    3.163;  -14.180;  537.960
1137.719;    3.609;  -16.250;  605.400
1138.258;    2.694;  -14.230;  587.360
1138.798;    3.565;   -9.090;  663.780
1139.337;    2.040;  -15.130;  482.840
1139.877;    2.586;  -13.680;  642.360
1140.416;    4.304;  -11.320;  878.060
1140.955;    1.844;  -10.860;  535.380
1141.494;    2.710;  -12.920;  669.280
1142.034;    2.416;  -13.930;  583.520
1142.573;    2.652;  -11.440;  646.280
1143.112;    1.635;  -12.000;  553.480
1143.651;    2.607;  -13.670;  536.480
1144.190;    3.066;  -12.730;  691.640
1144.729;    2.006;  -14.560;  607.420
1145.267;    1.931;  -11.830;  584.900
1145.806;    3.019;  -12.230;  637.040
1146.345;    1.546;  -14.130;  635.020
1146.884;    1.347;  -11.590;  622.500
1147.422;    1.091;  -12.550;  533.060
1147.961;    3.251;  -11.180;  708.460
1148.500;    2.971;  -11.510;  669.720
1149.038;    2.527;  -11.640;  632.500
1149.577;    1.784;  -10.130;  698.640
1150.115;   -0.078;  -13.970;  452.280
1150.653;    1.884;  -14.520;  607.340
1151.192;    1.055;  -12.810;  552.920
1151.730;    1.808;   -9.100;  652.560
1152.268;    0.323;  -12.220;  589.520
1152.806;    1.288;  -14.140;  571.180
1153.344;   -0.504;  -12.350;  577.640
1153.882;    0.272;   -8.980;  600.060
1154.421;   -0.712;  -15.190;  470.620
1154.958;   -0.147;  -15.210;  595.240
1155.496;    1.363;  -12.850;  645.280
1156.034;    0.690;   -9.940;  721.880
1156.572;    1.533;  -13.570;  667.060
1157.110;   -0.110;  -14.590;  473.940
1157.647;    0.303;  -13.030;  676.960
1158.185;   -0.406;  -12.140;  564.320
1158.723;   -1.302;  -14.390;  509.200
1159.260;    0.450;  -14.090;  701.700
1159.798;    0.077;  -11.920;  658.160
1160.335;   -0.464;  -11.110;  631.820

