
Integration time [ms]:   3.882
Averaging Nr. [scans]: 1000
Smoothing Nr. [pixels]: 0
Data measured with spectrometer [name]: 7414430SP
Wave   ;Sample   ;Dark     ;Reference
[nm]   ;[counts] ;[counts] ;[counts] 

288.544;  139.855;    7.153;  793.890
289.143;  143.613;    8.402;  681.602
289.742;  145.490;    7.062;  828.814
290.341;  131.258;    0.191;  789.841
290.940;  121.392;    0.321;  730.702
291.538;  122.752;    3.811;  881.108
292.137;  121.894;   -3.438;  792.581
292.736;  125.133;   -2.809;  975.101
293.335;  121.205;   -5.239;  735.086
293.934;  122.389;   -4.939;  781.677
294.532;  123.079;   -2.199; 1031.958
295.131;  108.808;   -6.831;  834.394
295.730;  107.270;   -6.620;  809.588
296.328;  105.926;   -6.471;  783.442
296.927;  105.649;   -6.571;  779.652
297.525;  107.786;   -7.391;  781.236
298.124;   97.757;   -9.402;  654.009
298.722;  102.277;   -5.781;  761.933
299.321;  101.163;   -6.351;  708.597
299.919;   98.672;   -8.661;  751.918
300.518;   93.724;  -11.922;  689.338
301.116;   95.408;   -6.941;  691.381
301.715;   96.320;   -5.471;  730.222
302.313;   95.064;   -8.361;  704.943
302.911;   90.326;   -9.082;  733.830
303.509;   96.263;   -4.571;  925.627
304.108;   94.005;   -7.111;  760.383
304.706;   92.944;   -7.681;  801.664
305.304;   86.968;   -9.162;  796.707
305.902;   92.254;   -6.761;  784.484
306.500;   89.020;   -6.921;  728.200
307.098;   86.311;   -6.491;  746.560
307.696;   84.912;   -6.941;  780.432
308.294;   85.182;   -6.301;  731.359
308.892;   88.379;   -4.771;  759.769
309.490;   83.158;   -5.141;  712.161
310.088;   82.125;   -2.912;  788.444
310.686;   86.589;   -0.421;  821.749
311.284;   82.362;   -3.461;  766.040
311.882;   79.885;   -6.282;  731.225
312.480;   77.268;   -3.632;  697.167
313.078;   78.509;   -2.112;  808.331
313.675;   79.987;   -1.931;  691.600
314.273;   75.270;   -1.442;  797.837
314.871;   73.652;   -3.002;  589.829
315.468;   72.070;   -2.252;  652.090
316.066;   75.895;   -1.091;  694.427
316.664;   67.981;   -4.512;  656.351
317.261;   72.493;   -0.062;  910.128
317.859;   67.720;   -0.952;  768.735
318.456;   69.630;    0.719;  830.096
319.054;   64.295;   -4.002;  787.828
319.651;   63.557;   -4.972;  759.928
320.249;   63.510;   -1.162;  810.188
320.846;   61.257;   -2.651;  714.286
321.443;   58.413;   -3.832;  832.135
322.041;   55.408;   -4.312;  812.315
322.638;   53.314;   -3.872;  701.456
323.235;   56.610;   -4.361;  665.683
323.833;   52.917;   -4.821;  740.354
324.430;   47.728;   -6.971;  615.900
325.027;   49.757;   -4.361;  876.855
325.624;   49.887;   -5.581;  644.532
326.221;   46.527;   -6.601;  689.717
326.818;   45.874;   -7.301;  818.332
327.415;   48.491;   -6.180;  748.828
328.012;   48.720;   -5.920;  690.585
328.609;   46.915;   -8.390;  731.389
329.206;   44.045;   -6.121;  778.621
329.803;   44.206;   -5.241;  737.841
330.400;   47.583;   -7.420;  704.260
330.997;   47.199;   -5.931;  817.147
331.594;   44.617;   -5.641;  788.185
332.191;   50.979;   -6.451;  728.722
332.787;   53.805;   -4.651;  844.463
333.384;   51.290;   -5.472;  763.093
333.981;   49.993;   -6.303;  815.687
334.578;   52.035;   -5.892;  708.378
335.174;   54.859;   -4.102;  731.469
335.771;   53.491;   -8.053;  836.456
336.367;   50.086;   -7.363;  710.631
336.964;   54.869;   -6.243;  793.266
337.561;   54.847;   -5.653;  731.112
338.157;   49.554;   -7.074;  911.916
338.754;   47.143;   -5.474;  796.589
339.350;   45.007;   -5.624;  722.493
339.946;   47.768;   -5.054;  773.135
340.543;   39.988;   -6.695;  846.136
341.139;   34.353;   -6.215;  720.836
341.735;   33.433;   -5.746;  772.593
342.332;   32.353;   -7.335;  691.472
342.928;   31.447;   -4.835;  795.394
343.524;   25.356;   -4.586;  761.684
344.120;   22.785;   -3.946;  738.562
344.716;   25.986;   -4.835;  723.717
345.313;   24.663;   -5.325;  795.342
345.909;   19.103;   -6.535;  627.336
346.505;   21.242;   -4.725;  740.247
347.101;   22.663;   -4.164;  827.864
347.697;   22.270;   -5.274;  785.398
348.293;   16.210;   -7.145;  627.244
348.889;   17.562;   -4.364;  745.914
349.485;   17.893;   -6.404;  688.205
350.081;   18.182;   -7.534;  772.592
350.676;   12.499;   -6.995;  691.606
351.272;   17.329;   -3.544;  809.530
351.868;   17.767;   -5.324;  780.497
352.464;   15.074;   -7.204;  723.932
353.059;   10.939;   -6.894;  646.017
353.655;   14.578;   -3.754;  777.063
354.251;   16.215;   -6.143;  759.845
354.846;    9.871;   -9.464;  740.646
355.442;    7.640;   -7.555;  753.071
356.038;   10.131;   -5.474;  751.708
356.633;   10.473;   -5.914;  728.594
357.229;    7.372;   -8.944;  724.757
357.824;    5.489;   -6.794;  703.600
358.420;    5.439;   -5.754;  679.726
359.015;    6.473;   -5.664;  695.357
359.610;    7.158;   -8.004;  763.920
360.206;    0.380;   -8.815;  603.240
360.801;    3.371;   -8.834;  646.503
361.396;    6.676;   -6.274;  725.975
361.992;    1.566;   -8.574;  668.220
362.587;   -1.219;   -9.265;  670.160
363.182;    0.649;   -5.484;  689.631
363.777;    2.156;   -5.164;  738.242
364.372;    1.128;   -6.954;  737.314
364.967;   -2.822;   -7.065;  680.744
365.563;    2.252;   -5.684;  815.567
366.158;   -0.527;   -6.484;  685.161
366.753;    0.282;   -8.004;  649.263
367.348;   -2.027;  -10.114;  746.056
367.942;   -1.475;   -7.764;  697.298
368.537;   -1.908;   -4.554;  754.245
369.132;   -2.022;   -7.664;  703.428
369.727;   -5.970;   -8.905;  638.079
370.322;   -5.561;   -4.945;  580.186
370.917;   -5.115;   -7.095;  710.646
371.511;   -2.458;   -6.574;  861.834
372.106;   -6.088;   -6.515;  776.964
372.701;   -8.852;   -8.225;  585.988
373.296;   -3.413;   -4.494;  863.135
373.890;   -8.233;   -7.965;  647.840
374.485;  -10.971;   -9.745;  691.199
375.079;   -6.360;   -5.554;  738.685
375.674;   -3.718;   -4.724;  812.970
376.268;   -9.237;   -8.365;  691.759
376.863;  -15.832;   -8.126;  580.327
377.457;   -8.348;   -6.045;  662.490
378.052;  -10.314;   -6.835;  764.884
378.646;  -10.686;   -9.375;  741.167
379.240;  -12.087;   -6.185;  721.176
379.835;  -10.615;   -6.135;  636.978
380.429;  -12.605;   -8.365;  562.557
381.023;  -12.499;   -7.935;  779.205
381.617;  -15.560;   -8.325;  680.106
382.212;  -12.344;   -7.405;  685.303
382.806;   -9.199;   -4.155;  760.690
383.400;  -14.982;   -8.945;  672.281
383.994;  -15.686;   -8.365;  664.870
384.588;  -11.856;   -7.824;  697.701
385.182;   -9.830;   -7.984;  726.624
385.776;  -11.442;  -10.404;  706.875
386.370;  -15.722;   -7.335;  681.968
386.964;  -14.302;   -7.485;  684.155
387.558;  -11.746;   -8.174;  598.360
388.152;  -16.383;  -10.415;  681.959
388.745;  -13.211;   -9.595;  814.707
389.339;  -12.284;   -6.454;  747.642
389.933;  -11.066;   -5.804;  695.370
390.527;  -11.698;   -6.854;  859.029
391.120;  -19.128;   -7.665;  595.318
391.714;  -14.779;   -7.245;  711.633
392.308;  -12.505;   -4.514;  780.253
392.901;  -16.403;   -7.935;  642.460
393.495;  -17.922;   -8.585;  595.414
394.089;  -15.383;   -5.245;  760.452
394.682;  -15.921;   -6.305;  697.188
395.275;  -17.017;   -9.335;  719.927
395.869;  -18.570;   -7.375;  667.314
396.462;  -16.980;   -7.055;  616.609
397.056;  -12.400;   -5.434;  776.621
397.649;  -16.661;   -9.525;  731.575
398.242;  -14.836;   -7.574;  712.645
398.836;  -13.313;   -5.134;  766.408
399.429;  -14.806;   -6.544;  631.041
400.022;  -18.350;   -9.215;  665.902
400.615;  -16.520;   -8.105;  805.609
401.208;  -13.690;   -7.614;  691.451
401.802;  -15.753;   -8.085;  699.329
402.395;  -17.353;   -9.575;  683.502
402.988;  -18.836;   -9.285;  696.627
403.581;  -15.409;   -7.514;  646.878
404.174;  -12.312;   -6.404;  686.568
404.767;  -16.294;   -8.775;  638.583
405.360;  -18.160;   -7.415;  621.445
405.953;  -12.043;   -5.624;  759.034
406.545;  -11.756;   -6.474;  725.342
407.138;  -17.079;   -8.445;  618.350
407.731;  -16.060;  -10.044;  613.303
408.324;  -11.258;   -8.484;  660.554
408.917;  -12.435;   -7.624;  681.864
409.509;  -14.388;   -8.304;  740.396
410.102;  -16.635;   -8.495;  643.948
410.695;   -9.915;   -7.824;  665.758
411.287;  -10.351;   -7.754;  599.821
411.880;  -11.884;   -9.294;  585.421
412.472;  -15.245;   -8.814;  613.092
413.065;  -12.588;   -6.674;  629.408
413.657;  -10.289;   -9.664;  576.678
414.250;   -9.412;  -10.264;  646.681
414.842;  -12.087;   -8.664;  676.353
415.434;  -10.045;   -8.584;  570.463
416.027;   -5.111;   -9.423;  652.196
416.619;   -7.740;  -10.764;  713.400
417.211;   -9.101;   -7.404;  599.352
417.804;   -4.182;   -7.383;  628.499
418.396;   -8.101;   -8.334;  607.643
418.988;   -6.133;   -9.633;  659.238
419.580;  -10.320;  -10.554;  568.276
420.172;   -7.615;   -8.683;  536.196
420.764;   -2.651;   -9.713;  672.482
421.356;   -4.016;  -11.303;  636.898
421.948;   -5.672;   -8.453;  677.661
422.540;   -0.846;   -5.793;  680.027
423.132;   -1.378;   -7.162;  600.641
423.724;   -4.882;   -7.933;  561.267
424.316;   -3.060;   -9.083;  621.345
424.908;    1.010;   -8.392;  591.517
425.500;    2.351;   -8.062;  647.978
426.092;    2.240;   -9.692;  648.268
426.683;    0.345;   -8.223;  684.836
427.275;    4.177;   -8.602;  641.471
427.867;    5.649;   -8.382;  668.948
428.458;    5.866;  -10.472;  732.344
429.050;    4.014;   -9.112;  680.749
429.642;    6.951;   -7.752;  743.124
430.233;    7.461;   -8.832;  569.356
430.825;    8.191;   -8.292;  724.809
431.416;    5.515;   -7.522;  698.241
432.008;    9.383;   -9.262;  651.723
432.599;   10.042;   -6.441;  656.073
433.190;    6.689;   -9.222;  637.670
433.782;    5.649;  -11.832;  590.395
434.373;   14.248;   -7.121;  884.765
434.964;   12.185;   -9.141;  602.920
435.556;    9.739;   -9.332;  634.537
436.147;   13.104;   -8.892;  758.490
436.738;   12.782;   -8.151;  701.099
437.329;   18.671;   -8.281;  721.723
437.920;   11.186;   -9.062;  666.688
438.511;   10.645;  -11.182;  564.526
439.103;   17.733;   -7.461;  623.998
439.694;   19.608;   -8.541;  681.583
440.285;   20.471;   -7.351;  764.432
440.876;   17.408;   -8.201;  845.738
441.466;   17.074;  -10.381;  575.162
442.057;   22.471;   -7.620;  665.814
442.648;   21.784;   -8.461;  746.255
443.239;   19.355;   -8.991;  620.477
443.830;   24.398;   -7.910;  704.958
444.421;   27.137;   -7.340;  655.474
445.011;   23.075;   -8.981;  693.619
445.602;   21.993;   -9.341;  743.126
446.193;   24.170;  -11.390;  488.117
446.783;   29.730;  -11.240;  640.397
447.374;   24.667;   -8.471;  692.759
447.964;   24.740;   -8.471;  713.770
448.555;   33.623;   -6.590;  822.742
449.145;   29.411;   -8.200;  662.853
449.736;   30.613;  -11.040;  803.179
450.326;   30.489;   -9.640;  713.626
450.917;   34.892;   -9.480;  675.324
451.507;   35.232;   -8.020;  600.661
452.097;   35.539;  -10.210;  746.267
452.688;   36.263;   -7.810;  742.160
453.278;   36.316;   -9.360;  566.840
453.868;   41.397;   -8.669;  793.550
454.458;   38.231;  -10.950;  651.141
455.048;   38.322;  -10.200;  711.783
455.639;   39.640;   -9.369;  567.096
456.229;   44.022;   -7.739;  710.694
456.819;   45.478;   -8.939;  751.158
457.409;   45.155;   -7.169;  773.993
457.999;   47.985;   -7.779;  737.505
458.589;   48.753;   -7.039;  686.606
459.179;   47.637;   -9.019;  717.658
459.769;   45.099;   -8.909;  627.099
460.358;   51.122;   -8.659;  797.262
460.948;   51.018;   -8.209;  689.503
461.538;   52.986;   -9.879;  660.677
462.128;   50.478;   -9.379;  664.934
462.717;   57.300;   -9.158;  710.326
463.307;   60.461;   -8.638;  705.846
463.897;   56.187;   -8.869;  656.942
464.486;   55.231;   -7.409;  837.128
465.076;   59.881;   -9.618;  733.776
465.666;   63.432;   -7.578;  652.900
466.255;   61.116;   -9.369;  785.651
466.845;   58.940;  -10.049;  666.749
467.434;   62.591;   -8.168;  725.873
468.023;   64.049;   -9.188;  658.357
468.613;   61.260;   -9.849;  713.946
469.202;   65.729;  -12.958;  646.507
469.791;   70.353;   -9.488;  737.811
470.381;   71.703;   -6.468;  742.813
470.970;   71.656;  -10.248;  711.099
471.559;   71.149;  -11.428;  733.291
472.148;   73.766;   -9.738;  675.737
472.738;   77.091;   -7.877;  765.466
473.327;   75.868;  -11.868;  637.529
473.916;   75.334;   -8.578;  737.446
474.505;   80.380;  -11.137;  751.703
475.094;   83.049;   -9.407;  806.570
475.683;   82.404;   -9.977;  797.699
476.272;   82.675;  -10.807;  730.632
476.861;   86.028;  -11.017;  706.754
477.449;   92.642;  -10.316;  728.487
478.038;   86.145;  -10.187;  692.513
478.627;   87.325;  -12.458;  714.852
479.216;   93.709;  -10.127;  769.441
479.805;   97.740;   -6.256;  783.375
480.393;   96.703;   -8.737; 1008.945
480.982;   95.050;   -9.087;  874.501
481.571;  101.592;   -7.806;  858.333
482.159;  102.904;  -10.596;  705.386
482.748;  102.126;  -11.507;  821.385
483.336;  105.844;   -8.366;  858.209
483.925;  106.307;   -7.497;  774.373
484.513;  113.348;   -8.326;  758.962
485.102;  110.004;  -10.277;  810.965
485.690;  118.351;   -8.256; 1011.050
486.278;  119.584;   -7.146;  979.329
486.867;  121.253;   -7.986;  809.662
487.455;  122.206;   -9.926;  898.229
488.043;  122.321;  -10.026;  748.361
488.631;  132.366;   -7.226; 1005.079
489.220;  135.660;   -8.696;  908.626
489.808;  135.250;  -12.276;  741.415
490.396;  141.870;   -9.386;  914.645
490.984;  147.301;   -8.506;  830.161
491.572;  157.369;   -8.226;  940.315
492.160;  162.670;   -9.836;  919.081
492.748;  172.182;  -10.316;  884.341
493.336;  191.398;   -7.146; 1019.693
493.924;  212.894;   -7.965;  958.077
494.512;  236.287;  -10.316; 1066.638
495.100;  268.059;  -10.186; 1103.280
495.687;  317.519;   -7.805; 1206.373
496.275;  376.865;   -9.686; 1150.796
496.863;  450.000;  -11.566; 1281.171
497.451;  538.193;  -11.406; 1386.805
498.038;  655.312;   -8.235; 1556.729
498.626;  766.158;   -7.485; 1741.407
499.214;  913.483;   -8.646; 2016.609
499.801; 1137.965;   -9.936; 2220.633
500.389; 1327.629;   -8.056; 2312.494
500.976; 1499.132;   -6.166; 2744.849
501.564; 1686.362;   -9.126; 3148.565
502.151; 1983.703;  -12.456; 3515.999
502.738; 2368.338;  -10.056; 3971.274
503.326; 2746.735;  -10.605; 4403.796
503.913; 3081.411;  -10.576; 5161.749
504.500; 3545.458;   -9.056; 5986.420
505.088; 3999.122;  -10.136; 6381.201
505.675; 4746.436;   -9.075; 6925.547
506.262; 5192.685;  -11.346; 7619.060
506.849; 5767.948;   -9.376; 8733.969
507.436; 6313.190;   -7.365; 9790.121
508.023; 6654.869;   -8.686; 9985.472
508.610; 7050.416;   -8.846;10434.618
509.197; 7941.537;   -9.077;11198.435
509.784; 9216.582;  -10.246;12391.194
510.371; 9701.650;   -9.825;13603.713
510.958;10399.303;  -10.896;14426.586
511.545;11101.410;   -9.006;15243.775
512.132;11730.270;   -8.765;15945.876
512.719;12772.381;   -8.286;16340.369
513.305;14675.584;   -9.256;18011.766
513.892;16843.531;  -11.106;19754.971
514.479;18569.020;   -8.576;20967.805
515.066;19927.125;   -9.046;22299.793
515.652;20366.615;  -10.676;22908.660
516.239;21536.557;  -10.166;23798.875
516.825;21918.133;  -11.266;25567.275
517.412;21429.199;   -7.446;28154.959
517.998;21562.545;  -10.916;28344.111
518.585;20811.889;   -9.166;27134.219
519.171;20519.166;  -10.135;27268.576
519.758;21696.836;   -8.806;28964.129
520.344;24164.189;   -6.716;30664.494
520.930;24843.598;  -10.166;32550.605
521.516;23244.309;   -9.615;35422.895
522.103;23435.037;   -8.656;38280.004
522.689;27046.090;   -9.646;37835.117
523.275;30646.371;  -10.786;37288.613
523.861;33274.605;   -9.266;37281.395
524.447;33735.629;   -8.285;37846.949
525.033;34079.402;   -9.426;38321.949
525.619;33731.484;   -9.836;38579.285
526.205;34549.574;   -8.136;40622.875
526.791;35415.430;   -9.986;42258.836
527.377;36992.539;   -8.236;42966.902
527.963;35256.379;  -12.117;42018.949
528.549;33606.758;   -8.376;42476.828
529.135;34933.922;   -8.696;41854.852
529.721;36646.414;   -9.686;41237.711
530.306;38612.949;   -8.616;41259.445
530.892;42124.313;   -9.396;41506.047
531.478;42847.219;   -9.926;43559.613
532.063;43880.375;  -10.236;47695.563
532.649;45790.535;   -8.257;50808.324
533.235;46997.984;  -11.476;51787.500
533.820;45910.270;   -8.156;52145.035
534.406;45138.242;  -12.257;51133.488
534.991;43465.004;   -8.686;49996.805
535.576;41095.895;   -9.426;48882.852
536.162;40519.945;   -8.436;46942.285
536.747;39242.023;  -10.957;45711.746
537.333;38713.523;  -13.147;48510.180
537.918;41132.723;   -9.027;50439.891
538.503;42113.320;   -8.256;50863.711
539.088;45369.980;  -10.576;50906.922
539.673;47325.164;  -10.907;52621.965
540.259;47955.922;   -9.126;52368.094
540.844;45067.980;   -9.026;50879.109
541.429;46434.379;   -9.597;52077.777
542.014;49789.961;  -11.447;52716.695
542.599;50223.816;   -9.236;52363.281
543.184;48034.430;  -12.267;53187.137
543.769;48303.301;  -10.367;54697.605
544.354;46329.422;  -10.887;53913.914
544.938;38385.973;  -11.687;49680.164
545.523;32865.594;   -8.286;47386.277
546.108;34750.078;   -9.317;49151.949
546.693;39131.652;  -10.187;51384.637
547.278;41282.965;   -9.926;51853.254
547.862;42585.254;   -9.196;51173.750
548.447;42798.047;   -9.657;51691.395
549.031;43581.625;   -9.127;52456.703
549.616;46945.207;  -10.836;52714.516
550.201;50127.703;   -8.507;52414.598
550.785;50716.270;  -10.537;52355.059
551.370;50996.547;  -11.727;54589.453
551.954;50715.488;   -9.457;58267.348
552.538;49682.930;   -8.147;59062.176
553.123;48438.355;   -9.397;58115.285
553.707;46483.266;   -9.558;56556.285
554.291;46871.750;   -9.417;56201.668
554.876;46967.336;   -7.627;55335.762
555.460;45474.414;  -10.457;54155.703
556.044;43664.203;  -10.078;53721.484
556.628;44374.961;   -9.407;53731.016
557.212;44284.047;   -7.957;54312.531
557.796;44027.754;  -11.327;53797.773
558.380;48285.070;  -10.868;56145.984
558.964;48733.121;   -9.637;57277.930
559.548;47051.801;   -8.807;56459.641
560.132;48138.340;  -10.187;54434.543
560.716;47305.125;   -9.868;54800.617
561.300;48401.898;  -10.217;57606.945
561.884;48854.555;   -4.947;58972.445
562.467;47814.914;   -9.588;57327.570
563.051;45909.105;  -11.138;54962.434
563.635;43974.559;   -9.358;52594.473
564.219;43527.395;   -9.797;50610.410
564.802;44223.816;   -9.918;49551.180
565.386;42047.031;  -10.838;48370.953
565.969;41047.660;   -8.037;48178.871
566.553;40484.902;   -5.667;49957.305
567.136;39668.953;   -8.258;50369.594
567.720;38631.313;  -11.278;49492.004
568.303;40657.879;   -9.028;50616.352
568.887;40733.934;   -7.508;50727.148
569.470;39503.422;  -11.068;51698.379
570.053;39400.098;  -10.028;52122.078
570.637;38049.301;  -11.077;52536.438
571.220;38051.680;   -8.747;51186.098
571.803;39920.535;   -8.868;51032.762
572.386;41902.805;  -10.608;49609.887
572.969;41075.914;  -10.548;48285.926
573.552;38625.781;   -7.898;47624.285
574.135;39969.883;   -9.918;45498.641
574.718;35999.270;  -10.328;41970.434
575.301;33012.438;   -9.548;41447.137
575.884;30025.605;   -8.768;40923.836
576.467;33438.047;   -9.858;45267.723
577.050;34065.148;  -11.018;48175.543
577.633;35324.188;  -10.048;47729.328
578.216;34820.277;  -10.268;47579.793
578.799;32235.916;  -11.808;47820.996
579.381;31751.791;   -7.338;48115.551
579.964;34388.297;   -9.728;47333.766
580.547;35656.230;   -8.928;46668.969
581.129;36666.793;   -9.149;44466.141
581.712;36785.859;  -11.359;44164.922
582.294;34427.492;  -10.738;46477.855
582.877;33292.531;   -8.788;48244.254
583.459;33938.758;   -9.859;47437.895
584.042;36152.371;   -9.649;46943.219
584.624;35952.770;  -10.529;46792.227
585.206;34560.340;  -10.298;46557.250
585.789;33757.680;  -11.029;45793.773
586.371;32196.768;   -9.359;43836.391
586.953;31633.029;   -8.799;42972.492
587.536;31233.143;   -8.928;42487.211
588.118;31529.145;   -9.180;42086.414
588.700;31086.008;  -10.519;43389.930
589.282;29986.145;   -8.098;43646.039
589.864;29656.967;   -8.139;43438.109
590.446;31561.807;  -10.509;43151.926
591.028;32546.213;  -11.119;42781.867
591.610;33950.344;  -10.019;42839.098
592.192;33549.984;   -8.838;42820.402
592.774;30516.453;  -11.549;40724.277
593.356;27630.029;  -11.609;39874.789
593.937;27136.707;  -10.019;39980.648
594.519;29568.166;   -7.839;42069.633
595.101;31993.893;  -10.779;42976.031
595.683;33026.066;  -10.049;44084.441
596.264;32451.977;   -9.969;43478.797
596.846;32004.396;   -9.699;43803.672
597.427;30865.574;  -10.970;42986.934
598.009;30405.705;  -13.090;42832.219
598.591;30036.945;   -9.509;42580.086
599.172;30213.773;   -9.019;43061.805
599.753;30799.309;  -13.310;41691.469
600.335;31704.666;  -11.010;40692.520
600.916;31363.350;  -10.309;39982.422
601.498;30325.896;   -8.209;40318.617
602.079;29751.217;  -11.440;40670.609
602.660;31519.262;   -8.690;41450.898
603.241;32859.266;  -12.759;41137.738
603.823;31385.316;  -10.409;38868.797
604.404;30788.369;  -11.790;38182.785
604.985;32377.127;  -10.280;38078.047
605.566;33702.570;   -8.059;38056.633
606.147;31173.420;   -8.960;37020.418
606.728;29327.342;  -10.710;37883.359
607.309;28664.678;  -12.760;38748.273
607.890;27057.650;   -9.959;38850.230
608.471;27355.533;   -9.780;37457.918
609.051;29214.838;   -8.940;36066.457
609.632;30589.230;  -12.070;35991.074
610.213;30371.328;   -9.610;37402.641
610.794;30051.803;   -8.750;38383.363
611.374;30376.992;  -11.100;40562.387
611.955;30953.361;  -12.200;38533.727
612.536;31201.439;  -10.410;36951.789
613.116;30520.770;  -10.010;37197.891
613.697;28985.449;  -10.480;38411.125
614.277;28681.186;  -12.751;38673.938
614.858;27933.166;  -11.600;37075.863
615.438;28213.426;   -8.190;35092.906
616.019;26989.529;   -8.941;33666.301
616.599;28673.285;  -13.540;34189.023
617.179;30983.838;  -10.890;36952.047
617.760;30122.412;   -7.610;39582.574
618.340;28401.965;  -14.441;38943.977
618.920;28130.209;   -9.180;37594.156
619.500;30400.049;  -11.881;37866.938
620.080;32088.297;   -9.870;37869.043
620.660;30894.938;  -13.211;36868.617
621.241;29394.895;  -11.921;36352.309
621.821;28651.018;  -10.271;35459.520
622.401;29321.924;   -8.200;35207.414
622.980;30915.305;  -11.141;35980.422
623.560;30755.643;  -14.321;37351.328
624.140;29456.580;   -9.360;34388.582
624.720;25487.568;   -7.481;32368.764
625.300;23284.182;  -12.730;32638.629
625.880;27489.441;  -11.441;34599.035
626.459;30963.762;  -10.971;36831.738
627.039;34152.398;   -9.011;38299.098
627.619;34329.938;   -8.521;38289.574
628.198;32895.738;   -9.861;37220.695
628.778;31982.053;   -8.841;37632.563
629.357;31896.949;   -9.891;38003.012
629.937;31582.430;  -11.871;38402.039
630.516;31233.537;  -10.641;37868.801
631.096;33526.777;  -11.391;35760.410
631.675;35159.145;   -6.622;35225.219
632.254;32365.529;  -13.002;35130.289
632.834;31096.830;  -11.622;35794.570
633.413;31938.805;   -8.321;35788.922
633.992;30109.178;   -7.732;34532.863
634.571;30348.238;  -10.992;33590.113
635.151;29887.205;  -10.422;34943.863
635.730;30527.828;  -11.511;35352.523
636.309;30264.357;   -7.901;35366.605
636.888;29606.289;  -11.452;36165.637
637.467;28999.164;  -10.672;37515.902
638.046;29789.176;   -9.301;39288.695
638.625;31163.963;  -11.452;38279.699
639.204;31769.064;  -12.262;37741.598
639.782;32043.117;  -11.892;38364.551
640.361;30458.123;  -11.411;36740.621
640.940;25749.242;  -11.501;34950.082
641.519;27862.756;  -10.921;34137.398
642.097;31400.422;  -10.101;35654.258
642.676;30007.096;  -10.821;35637.957
643.255;31308.072;   -8.631;36567.074
643.833;33892.395;  -11.411;37809.434
644.412;36435.590;  -12.021;37337.293
644.990;36806.762;  -12.271;37018.531
645.569;35634.273;   -9.741;36518.469
646.147;33125.023;   -9.051;36186.430
646.726;32892.426;  -13.861;36267.688
647.304;33055.238;   -9.461;36647.625
647.882;32416.336;  -13.171;39286.742
648.461;32539.920;  -11.911;39157.703
649.039;31665.859;   -9.541;35412.883
649.617;31341.744;   -8.901;34744.918
650.195;29056.096;   -8.591;35403.098
650.773;28504.682;  -13.031;35053.797
651.352;27963.279;  -12.211;33756.816
651.930;25687.344;  -11.361;31868.773
652.508;22589.645;   -8.601;33121.551
653.086;25417.334;   -9.991;33564.793
653.663;29667.885;  -11.931;34054.668
654.241;32154.184;  -10.821;35693.309
654.819;33748.352;   -9.341;36422.906
655.397;31528.441;  -10.851;38213.484
655.975;29990.676;  -11.461;39507.625
656.553;29976.805;   -8.841;39498.223
657.130;29302.904;  -10.371;40395.480
657.708;29867.893;  -11.071;39242.020
658.286;29288.299;  -11.141;38920.020
658.863;30502.822;  -10.861;40202.898
659.441;35062.160;  -11.181;39677.938
660.018;35466.465;  -10.851;40413.355
660.596;35021.660;  -12.571;39931.414
661.173;35644.598;  -12.141;39604.531
661.750;35078.031;  -11.571;39700.070
662.328;32420.561;  -10.780;39292.809
662.905;30023.027;  -10.750;38235.648
663.482;27182.547;  -11.320;36212.305
664.060;26383.094;  -10.160;35944.945
664.637;31227.004;  -13.120;35170.785
665.214;33102.992;  -11.500;34197.523
665.791;30956.637;  -12.430;34549.520
666.368;28570.484;   -9.840;35118.578
666.945;27615.996;  -11.290;36019.418
667.522;28202.959;  -13.540;36048.438
668.099;29039.939;  -10.250;36243.914
668.676;28063.672;  -11.270;35958.875
669.253;26922.248;   -8.210;37384.730
669.830;26070.641;   -9.710;36779.629
670.407;25782.813;   -9.700;35231.289
670.984;26520.383;   -9.190;35544.270
671.560;25860.734;   -9.560;35466.867
672.137;25714.863;  -11.820;34280.863
672.714;28575.980;  -12.460;34632.863
673.290;32868.363;  -10.940;35135.422
673.867;33263.004;  -10.510;36114.480
674.443;30178.285;  -12.110;36152.859
675.020;31256.264;  -11.760;35327.238
675.596;31995.018;   -9.380;35795.176
676.173;30852.004;  -11.120;35430.355
676.749;29672.604;  -13.390;33549.516
677.326;28784.092;  -12.600;32210.012
677.902;27884.320;  -10.830;32068.871
678.478;27910.414;  -12.400;32583.891
679.054;29463.260;   -8.610;32088.928
679.631;29538.916;  -11.640;30978.848
680.207;29670.129;   -8.140;33160.887
680.783;30328.578;  -12.300;35570.363
681.359;29401.434;  -10.910;36125.184
681.935;29838.887;  -11.040;35240.922
682.511;30326.375;  -11.130;34429.961
683.087;30414.914;  -11.080;34463.680
683.663;32611.748;  -10.530;34648.898
684.239;32259.320;  -12.120;34546.457
684.815;29767.828;   -8.870;35586.375
685.390;28724.824;   -8.940;35821.895
685.966;28526.859;  -12.109;35085.871
686.542;27658.529;  -13.539;34198.230
687.118;27708.045;  -10.379;32847.707
687.693;28052.502;  -10.189;32794.027
688.269;26724.270;  -12.939;33072.367
688.844;25696.480;   -8.679;33141.664
689.420;26675.297;  -10.919;33965.742
689.995;27183.020;   -7.489;34655.523
690.571;26843.654;  -12.199;33576.742
691.146;27295.805;   -8.979;32657.219
691.722;28767.232;   -9.119;32526.979
692.297;27181.510;  -10.519;33014.617
692.872;26557.031;  -10.629;34012.254
693.448;26944.191;  -12.119;34237.434
694.023;27377.498;   -8.219;34142.672
694.598;25512.207;  -13.209;34132.031
695.173;24780.180;  -11.879;34205.250
695.748;25640.859;  -12.039;32882.488
696.323;25575.586;  -11.779;32864.906
696.898;26337.998;  -10.219;33170.004
697.473;27417.967;  -13.639;32432.984
698.048;27976.996;  -11.239;31649.303
698.623;30043.656;  -10.859;30778.141
699.198;31756.984;  -13.379;31140.119
699.773;32415.658;  -13.409;31764.299
700.348;32587.443;  -12.329;31780.816
700.922;32953.672;   -8.749;32046.375
701.497;33273.668;  -12.449;32603.574
702.072;31579.820;   -8.879;34799.871
702.646;29482.447;  -10.719;35793.172
703.221;28332.475;   -8.469;35201.590
703.795;28002.262;  -11.389;34764.527
704.370;27521.973;  -12.499;34307.367
704.944;27365.734;  -11.449;33509.887
705.519;26700.793;  -10.659;31388.584
706.093;26269.717;  -12.909;31340.104
706.668;26963.619;  -13.509;32630.281
707.242;26719.068;  -10.049;32728.779
707.816;24887.566;  -10.629;32947.238
708.390;24155.328;  -11.829;33277.855
708.965;24491.982;  -11.159;33834.336
709.539;25082.959;  -11.069;33709.273
710.113;24219.963;  -10.908;33044.313
710.687;22778.723;   -9.488;31953.992
711.261;23388.971;  -13.068;30505.949
711.835;26619.115;  -12.748;30262.369
712.409;27530.406;  -10.678;31254.447
712.983;26003.813;  -11.658;32754.986
713.557;26170.084;  -13.718;34018.824
714.131;26655.027;  -13.388;34579.625
714.704;27614.725;   -9.818;33890.262
715.278;28882.035;  -11.818;33531.102
715.852;29910.891;  -11.328;33601.660
716.425;30164.453;   -9.118;33515.117
716.999;30082.496;  -10.188;33185.555
717.573;30085.408;   -9.808;33905.996
718.146;32448.418;  -11.478;35199.293
718.720;32126.365;  -10.998;35060.551
719.293;30304.025;   -9.508;34973.230
719.867;30028.846;  -12.138;36394.449
720.440;29143.248;  -11.288;36663.008
721.013;32087.686;  -11.428;35102.426
721.587;33587.488;  -11.698;33985.266
722.160;34374.063;  -11.608;33524.965
722.733;32889.551;  -11.428;32987.043
723.306;31352.143;  -12.518;33066.301
723.880;31048.139;   -7.408;33399.500
724.453;29881.594;  -11.048;33468.297
725.026;28371.777;  -11.678;33816.637
725.599;27313.100;  -10.978;32797.996
726.172;26435.520;   -8.838;33187.434
726.745;27386.453;  -11.438;35136.613
727.318;28422.611;   -9.828;35751.730
727.891;27412.557;  -10.868;35890.430
728.463;25713.719;  -11.348;34822.090
729.036;24105.449;  -11.608;32895.086
729.609;24055.539;  -14.738;31823.225
730.182;25249.365;   -8.448;31445.283
730.754;26452.879;  -11.228;32373.223
731.327;26753.209;  -12.018;33676.820
731.900;28494.074;  -13.748;33417.000
732.472;28716.547;  -10.928;31978.498
733.045;27208.133;   -9.478;30368.777
733.617;25374.867;  -12.967;30574.215
734.190;24365.734;  -11.707;31280.975
734.762;23367.252;  -11.067;31674.412
735.334;22710.941;  -10.587;31247.291
735.907;21878.791;  -11.947;29876.211
736.479;22555.980;  -11.667;29808.488
737.051;25119.740;  -10.187;30233.547
737.623;27423.100;   -6.887;31469.086
738.195;30386.943;  -12.117;31784.225
738.768;32247.996;  -14.077;32120.523
739.340;31007.580;  -12.207;32094.342
739.912;27551.725;   -8.977;31312.680
740.484;25898.420;  -11.017;31946.238
741.056;26984.561;  -13.517;32984.059
741.628;28933.283;  -11.507;33897.715
742.199;29258.518;   -7.597;33213.016
742.771;29951.201;  -12.227;31369.113
743.343;29322.826;  -12.427;31865.473
743.915;27586.447;   -9.827;32388.631
744.487;26443.516;  -10.007;31079.568
745.058;24784.973;  -11.887;30570.107
745.630;24010.670;  -10.787;29970.127
746.201;23323.568;  -10.887;29186.766
746.773;23535.744;   -9.707;28805.723
747.344;24462.441;  -11.137;29591.223
747.916;24628.619;  -11.887;31412.201
748.487;24074.166;   -9.707;32194.898
749.059;23374.406;  -10.027;32533.719
749.630;23097.568;  -11.787;32158.518
750.201;22109.107;  -12.767;30855.395
750.773;21690.590;  -11.497;28622.555
751.344;22540.381;   -9.937;28405.732
751.915;22845.486;  -11.567;28461.551
752.486;22066.967;  -13.267;27842.850
753.057;20169.932;  -10.627;27845.008
753.628;18928.764;  -11.657;27728.107
754.199;21209.100;  -12.097;27381.086
754.770;22793.334;  -11.447;25882.203
755.341;22675.646;  -11.997;25886.184
755.912;20655.820;  -10.207;26050.861
756.483;19027.287;  -10.937;26798.779
757.054;19014.902;  -11.527;27048.238
757.625;19234.805;  -12.886;26294.838
758.195;19509.871;  -11.226;26142.076
758.766;19523.373;  -12.366;26392.234
759.337;18296.422;  -11.946;26334.594
759.907;18341.820;  -13.856;27579.652
760.478;19307.854;   -9.606;28352.770
761.048;19443.047;  -11.606;27325.088
761.619;19669.416;  -11.036;26460.428
762.189;19068.848;  -12.206;26029.826
762.760;20254.172;   -9.666;26430.145
763.330;21090.686;   -9.796;26670.902
763.900;19232.605;  -10.896;26603.021
764.471;17766.039;  -11.726;25542.740
765.041;18319.797;   -9.656;24358.459
765.611;19123.777;  -11.276;23991.297
766.181;18671.979;  -12.116;24470.236
766.751;18030.588;  -12.376;24845.975
767.321;18047.795;  -11.626;24533.633
767.891;18307.650;  -10.426;24916.492
768.461;17094.170;  -13.456;24776.771
769.031;15117.099;  -11.616;24757.988
769.601;15038.964;  -11.356;24181.088
770.171;15314.757;  -11.586;23670.387
770.741;15714.341;  -12.696;22960.045
771.311;15901.590;  -10.226;22917.523
771.880;15659.511;  -11.146;23562.941
772.450;16384.102;  -11.716;24216.500
773.020;16672.055;  -13.226;24140.398
773.589;16251.220;  -12.586;24414.857
774.159;15943.924;  -10.246;23858.717
774.729;15491.115;  -11.586;22942.135
775.298;14749.794;  -15.926;22324.033
775.867;14854.810;  -10.426;21140.313
776.437;14608.886;  -11.416;20838.092
777.006;13117.542;  -12.766;20599.510
777.576;13327.652;  -13.666;20508.809
778.145;13968.563;  -10.066;20732.947
778.714;13602.968;  -10.276;21062.465
779.283;13908.368;  -12.086;20949.664
779.853;15183.564;  -14.016;20508.623
780.422;15490.538;  -12.376;20649.082
780.991;14499.640;   -9.246;21527.520
781.560;13656.585;   -9.775;22632.658
782.129;13376.922;  -12.495;23048.277
782.698;13065.141;  -11.775;23438.555
783.267;13286.765;  -10.065;23267.734
783.836;13883.800;  -12.455;22415.133
784.404;14580.126;  -13.385;20443.152
784.973;15326.991;  -11.045;19699.150
785.542;14954.220;   -9.505;19763.828
786.111;13918.408;   -9.385;20341.408
786.679;13700.242;  -13.475;20207.967
787.248;13748.295;  -11.245;19516.465
787.817;11978.629;  -12.485;18900.363
788.385;10308.016;  -11.165;17879.121
788.954;10835.344;  -11.755;17658.301
789.522;11600.941;   -9.625;17788.879
790.090;11380.942;   -9.665;18118.277
790.659;11050.128;   -9.295;18338.736
791.227;12074.147;  -12.175;18508.615
791.795;13512.287;  -12.145;17898.254
792.364;13362.262;  -11.575;17295.133
792.932;12058.392;  -11.085;16822.051
793.500;10941.719;  -11.345;17040.148
794.068;10844.612;  -12.565;17179.787
794.636;11887.677;  -12.105;16664.246
795.204;12452.698;  -11.995;16524.545
795.772;11837.900;  -12.615;17274.564
796.340;11367.818;  -12.425;17891.002
796.908;11133.339;  -11.455;17648.561
797.476;10505.974;  -12.165;17064.080
798.044;10121.937;  -15.795;16672.777
798.612;10299.738;  -10.985;17023.996
799.180;11066.740;  -12.055;16561.615
799.747;11443.525;  -12.525;15962.773
800.315;10302.513;  -14.765;15296.992
800.883; 9072.305;  -12.435;14801.771
801.450; 8922.490;  -11.295;14534.430
802.018; 9306.502;  -11.185;14173.248
802.585; 9266.686;  -11.625;14029.547
803.153; 8332.625;  -10.665;13836.846
803.720; 7939.422;  -10.275;13567.324
804.287; 7860.593;  -12.865;13360.622
804.855; 8088.608;  -12.324;13681.981
805.422; 8381.789;  -11.574;13536.560
805.989; 8165.685;  -11.004;13355.958
806.556; 8379.544;  -12.214;13747.896
807.124; 8791.812;  -13.304;13987.376
807.691; 8461.477;  -12.034;14038.674
808.258; 7804.214;  -11.014;14120.152
808.825; 7674.210;  -11.804;13860.111
809.392; 7595.348;  -11.544;13268.790
809.959; 7519.176;  -14.954;12680.389
810.526; 7862.077;  -10.214;12427.308
811.093; 8281.892;  -10.754;12030.105
811.659; 7913.916;  -12.194;11653.664
812.226; 6797.896;   -9.194;11637.183
812.793; 6514.646;   -9.644;11611.521
813.360; 7328.596;  -11.544;11885.181
813.926; 8170.731;  -12.814;12770.539
814.493; 8104.072;  -11.524;12677.638
815.060; 7774.785;  -12.254;11974.336
815.626; 7312.819;  -12.114;11594.715
816.193; 6983.481;  -11.994;11579.474
816.759; 6881.545;  -11.464;11666.972
817.325; 6577.679;  -10.444;11325.530
817.892; 6257.487;  -11.124;11105.369
818.458; 6171.473;  -11.864;10843.928
819.024; 6516.976;  -10.634;10714.406
819.591; 6599.694;  -10.554;10469.165
820.157; 6779.492;  -13.334;10235.523
820.723; 6997.354;  -13.044;10847.563
821.289; 7104.468;   -9.664;11040.980
821.855; 7312.865;  -10.994;10357.100
822.421; 7414.879;  -11.784; 9978.918
822.987; 7432.165;  -12.554; 9754.177
823.553; 7755.868;  -12.554;10065.755
824.119; 7571.066;   -8.544;10036.294
824.685; 6621.233;  -12.144;10029.192
825.251; 6049.810;  -12.754;10199.230
825.816; 5601.139;  -11.354; 9820.189
826.382; 5289.027;  -11.004; 9297.248
826.948; 5281.065;  -11.004; 9381.347
827.513; 5198.454;  -12.474; 9450.726
828.079; 5196.020;  -13.084; 9472.444
828.645; 5381.931;  -10.813; 9292.643
829.210; 5216.649;  -11.593; 9065.341
829.776; 5183.217;  -12.633; 9132.620
830.341; 5219.152;  -10.473; 9092.878
830.906; 5009.081;   -8.763; 9078.557
831.472; 4710.228;  -13.453; 8534.535
832.037; 4117.583;  -12.173; 8677.874
832.602; 3908.148;  -14.093; 8628.692
833.167; 4185.995;  -13.593; 8879.031
833.733; 4702.686;  -10.793; 9189.790
834.298; 5047.911;  -14.783; 9052.608
834.863; 4634.120;  -11.023; 8895.087
835.428; 4399.467;  -11.113; 8824.266
835.993; 4839.497;   -9.983; 8845.385
836.558; 5085.668;  -13.003; 8888.563
837.123; 4891.084;  -10.733; 8966.582
837.688; 4489.583;   -9.683; 8617.860
838.253; 4328.806;  -12.253; 8590.699
838.817; 4369.439;  -11.643; 8443.797
839.382; 4364.830;  -11.953; 8799.356
839.947; 4439.668;  -11.443; 8810.595
840.511; 4740.305;  -10.843; 8796.394
841.076; 4971.671;  -13.533; 8347.231
841.641; 4784.335;  -11.743; 8224.330
842.205; 4254.904;  -10.013; 8223.349
842.770; 3971.102;  -11.023; 8622.107
843.334; 4073.297;  -14.273; 8410.386
843.898; 4466.440;  -11.323; 8337.465
844.463; 4854.230;  -10.263; 8506.283
845.027; 5026.400;  -10.353; 8280.962
845.591; 4959.881;  -12.163; 8231.141
846.156; 4798.011;  -12.263; 7969.179
846.720; 4788.238;  -11.553; 7768.278
847.284; 4579.839;  -12.393; 7630.957
847.848; 3793.415;  -12.623; 7472.395
848.412; 3210.461;  -11.863; 7437.394
848.976; 3150.024;  -10.203; 7674.592
849.540; 3345.850;  -10.603; 7836.011
850.104; 3540.401;  -12.423; 7913.669
850.668; 3551.163;  -14.613; 7694.508
851.232; 3539.490;  -12.873; 7756.887
851.796; 3754.160;  -14.192; 7926.545
852.359; 3951.211;  -13.652; 7827.844
852.923; 3888.254;  -11.402; 7641.163
853.487; 3595.556;  -12.022; 7342.501
854.050; 3436.913;  -15.202; 7042.820
854.614; 3460.365;  -14.592; 7151.338
855.177; 3452.857;  -12.572; 7105.077
855.741; 3483.301;   -9.932; 6989.675
856.304; 3437.484;  -12.192; 6596.634
856.868; 3324.521;  -13.462; 6356.272
857.431; 3316.290;  -11.542; 6468.571
857.995; 3395.232;  -12.062; 6373.210
858.558; 3198.847;  -11.142; 6324.448
859.121; 3046.189;  -11.742; 6408.327
859.684; 3080.885;  -10.332; 6347.886
860.247; 3181.494;  -11.962; 6321.264
860.810; 3258.147;  -12.332; 6301.903
861.374; 3144.958;  -10.292; 6607.881
861.937; 2974.429;  -12.062; 6408.200
862.500; 3015.765;  -11.702; 6572.639
863.062; 3194.976;  -13.852; 6387.297
863.625; 3284.051;  -12.972; 6190.836
864.188; 3225.897;  -10.292; 5807.254
864.751; 3138.861;  -12.382; 5682.413
865.314; 2905.353;  -13.232; 5547.492
865.876; 2589.952;  -12.772; 5500.150
866.439; 2348.366;  -11.952; 5415.909
867.002; 2412.774;   -9.332; 5501.567
867.564; 2807.805;  -11.712; 5413.946
868.127; 3142.243;  -12.012; 5160.325
868.689; 2981.394;  -11.882; 5133.183
869.252; 2667.752;  -11.572; 5252.382
869.814; 2532.973;  -10.692; 5297.141
870.377; 2410.439;  -12.392; 5390.919
870.939; 2057.809;  -10.582; 5599.898
871.501; 1614.095;  -12.782; 5248.336
872.063; 1344.917;  -15.612; 4854.235
872.626; 1336.700;  -13.922; 4817.074
873.188; 1436.914;  -13.832; 4987.732
873.750; 1564.442;  -10.962; 4868.651
874.312; 1729.938;  -11.022; 4779.330
874.874; 1866.040;  -13.152; 4866.348
875.436; 1898.794;  -13.401; 4718.887
875.998; 1872.029;   -8.891; 4660.005
876.560; 1833.605;  -12.591; 4462.964
877.122; 1801.231;  -14.531; 4145.042
877.683; 1781.568;  -10.781; 4056.481
878.245; 1707.176;  -14.281; 3950.740
878.807; 1663.083;  -10.311; 4058.958
879.369; 1629.884;  -13.201; 3954.677
879.930; 1608.410;  -12.061; 3941.495
880.492; 1611.601;   -9.181; 4067.014
881.053; 1627.651;  -12.051; 3859.633
881.615; 1589.510;  -11.501; 3776.071
882.176; 1496.857;  -12.221; 3734.750
882.738; 1395.949;   -8.931; 3678.489
883.299; 1334.290;  -13.571; 3405.407
883.860; 1352.036;  -12.331; 3351.106
884.422; 1300.650;  -10.201; 3394.044
884.983; 1171.735;  -12.521; 3166.443
885.544; 1055.388;  -12.291; 3189.802
886.105; 1005.525;  -12.991; 3160.360
886.666;  998.877;  -12.901; 3093.059
887.227;  992.647;  -12.061; 2941.957
887.788;  957.739;  -11.641; 2974.836
888.349;  906.317;  -14.691; 2721.214
888.910;  859.878;   -9.681; 2696.493
889.471;  853.827;   -9.971; 2560.172
890.032;  862.421;  -13.151; 2558.190
890.593;  842.735;  -12.051; 2567.669
891.153;  804.815;  -12.841; 2460.307
891.714;  778.372;  -13.561; 2372.046
892.275;  751.783;  -12.401; 2309.505
892.835;  715.857;  -13.191; 2382.543
893.396;  677.083;  -12.551; 2295.502
893.956;  658.040;  -11.981; 2162.420
894.517;  644.351;  -12.221; 2125.439
895.077;  608.165;  -12.021; 2086.978
895.638;  545.664;  -10.891; 2126.316
896.198;  488.814;  -13.171; 1838.275
896.758;  452.284;  -11.891; 1892.813
897.319;  423.539;  -12.491; 1792.232
897.879;  408.820;  -12.401; 1762.751
898.439;  382.280;  -13.431; 1661.149
898.999;  365.870;  -11.340; 1781.468
899.559;  357.428;  -13.930; 1703.347
900.119;  335.917;  -13.730; 1537.525
900.679;  319.413;   -9.210; 1638.384
901.239;  303.829;  -10.860; 1527.902
901.799;  285.101;  -11.450; 1456.441
902.359;  266.470;  -13.800; 1357.140
902.919;  260.749;  -12.130; 1331.118
903.479;  262.118;  -12.650; 1317.257
904.038;  253.970;  -16.110; 1262.595
904.598;  240.202;  -13.690; 1152.034
905.158;  227.995;  -10.290; 1240.893
905.717;  222.498;  -10.670; 1233.691
906.277;  219.568;  -14.040; 1217.330
906.836;  220.674;  -13.510; 1222.408
907.396;  214.679;  -11.530; 1193.047
907.955;  204.708;  -13.190; 1182.526
908.515;  191.257;  -12.950; 1099.364
909.074;  183.479;  -12.390; 1092.863
909.633;  179.510;  -10.340; 1069.121
910.192;  177.708;  -11.170; 1196.460
910.752;  171.632;  -14.200; 1029.960
911.311;  167.703;  -13.810; 1009.780
911.870;  165.066;  -12.750;  971.460
912.429;  164.271;  -12.380; 1094.080
912.988;  161.267;  -11.930; 1081.060
913.547;  155.102;  -10.990;  940.380
914.106;  152.922;  -11.200;  999.420
914.665;  151.219;  -13.150;  984.020
915.224;  148.578;  -13.310; 1035.760
915.782;  146.401;  -13.340;  922.560
916.341;  146.575;  -10.710; 1049.840
916.900;  144.239;  -12.980;  925.260
917.458;  141.801;  -13.060;  884.220
918.017;  139.568;  -10.900;  942.600
918.576;  139.132;  -11.630;  904.440
919.134;  139.646;  -12.860;  837.980
919.693;  139.543;  -15.160;  893.060
920.251;  138.702;  -13.470;  876.500
920.809;  138.695;  -13.700;  839.580
921.368;  139.988;  -13.420;  885.360
921.926;  138.761;  -14.710;  842.940
922.484;  136.769;  -12.560;  903.360
923.042;  135.070;  -11.930;  880.340
923.601;  135.696;  -10.270;  998.680
924.159;  132.306;  -12.960;  935.560
924.717;  131.795;  -13.040;  841.080
925.275;  135.338;  -12.560;  903.240
925.833;  136.486;  -13.040;  779.320
926.391;  137.241;  -13.360;  938.380
926.949;  137.208;  -13.940;  857.680
927.506;  138.842;   -9.400;  903.500
928.064;  139.075;  -10.940;  877.580
928.622;  138.360;  -13.180;  880.100
929.180;  138.651;  -12.730;  814.180
929.737;  140.448;  -12.840;  808.540
930.295;  143.903;  -11.810;  928.480
930.853;  146.387;  -13.650;  849.100
931.410;  148.445;  -13.580;  821.120
931.968;  150.525;  -12.020;  940.660
932.525;  151.508;  -13.320;  909.380
933.082;  152.427;  -13.800;  811.440
933.640;  157.807;  -11.380;  925.900
934.197;  159.879;  -11.480;  886.360
934.754;  163.850;  -13.220;  897.780
935.312;  162.854;  -14.950;  863.340
935.869;  159.619;  -10.940; 1012.980
936.426;  155.471;  -12.100;  872.800
936.983;  156.115;  -12.930;  889.020
937.540;  155.908;  -14.250;  838.280
938.097;  160.100;  -12.600;  940.120
938.654;  166.676;  -11.260;  898.860
939.211;  170.698;  -13.020;  952.480
939.768;  171.632;  -15.760;  915.420
940.324;  173.592;  -13.920;  904.200
940.881;  169.284;  -11.620;  878.500
941.438;  166.809;   -9.870; 1021.200
941.995;  163.435;  -13.920;  992.560
942.551;  162.187;  -12.830;  875.620
943.108;  164.346;  -11.980;  937.920
943.664;  168.961;  -13.740;  869.340
944.221;  174.200;  -12.670; 1088.140
944.777;  171.369;  -13.250;  869.680
945.334;  170.122;  -13.000;  884.840
945.890;  170.146;  -13.020;  946.480
946.446;  169.657;  -13.880;  947.020
947.003;  171.373;  -12.660;  964.940
947.559;  173.249;   -8.730; 1063.040
948.115;  170.018;  -11.960; 1026.540
948.671;  166.287;  -12.360;  967.300
949.227;  162.723;  -12.700;  859.560
949.783;  159.629;  -13.450;  858.900
950.339;  158.793;  -10.620;  991.000
950.895;  154.849;  -14.770; 1023.840
951.451;  151.880;  -13.650;  925.280
952.007;  152.658;  -11.180;  998.540
952.563;  152.104;  -11.680;  937.780
953.118;  151.062;  -13.280;  904.940
953.674;  153.355;  -12.510;  935.780
954.230;  154.653;  -12.220;  949.640
954.785;  149.971;  -12.190;  936.640
955.341;  144.303;  -12.270;  998.160
955.897;  138.642;  -14.900;  834.660
956.452;  139.109;  -12.520;  953.840
957.008;  139.853;   -9.410; 1083.640
957.563;  137.579;  -11.280; 1009.540
958.118;  133.702;  -13.470;  877.700
958.674;  136.284;  -12.190;  946.780
959.229;  139.345;  -12.760; 1013.980
959.784;  143.519;  -15.710;  832.400
960.339;  149.511;  -12.540; 1001.280
960.894;  150.870;  -11.680;  963.760
961.449;  146.688;  -11.410;  859.960
962.004;  144.105;  -10.430; 1212.840
962.559;  139.128;  -14.040;  860.140
963.114;  135.696;  -14.270;  742.480
963.669;  137.941;  -11.320;  915.500
964.224;  135.649;  -14.620;  874.340
964.779;  133.637;  -14.150;  828.420
965.334;  133.666;  -10.850; 1017.860
965.888;  133.757;  -14.530;  875.360
966.443;  134.599;  -13.520;  972.380
966.998;  129.875;  -13.370;  819.460
967.552;  127.652;   -9.960;  908.380
968.107;  123.389;  -12.360;  868.300
968.661;  123.962;  -12.270;  922.440
969.216;  122.404;  -12.140;  856.280
969.770;  123.193;  -11.860;  917.200
970.324;  123.895;  -12.170;  923.140
970.879;  122.807;  -14.160;  947.180
971.433;  119.754;  -12.940;  952.720
971.987;  116.943;  -10.180;  895.340
972.541;  116.401;  -12.130;  917.100
973.095;  115.643;  -14.980; 1009.460
973.649;  113.829;  -14.480;  809.480
974.203;  116.212;  -13.530;  829.040
974.757;  118.002;  -12.060;  855.220
975.311;  114.732;  -13.240;  872.600
975.865;  111.796;  -12.550;  881.820
976.419;  110.623;  -13.180;  857.400
976.973;  110.263;  -14.100;  849.620
977.526;  108.517;  -13.330;  949.920
978.080;  105.736;  -15.390;  796.780
978.634;  105.936;  -11.670;  921.320
979.187;  104.129;  -10.640;  905.400
979.741;  102.681;  -13.330; 1018.380
980.294;   98.986;  -14.480;  789.160
980.848;   97.239;  -13.420;  717.220
981.401;   96.552;  -12.360;  816.540
981.955;   93.442;  -12.480;  844.300
982.508;   89.561;  -14.000;  746.340
983.061;   90.053;  -10.440;  915.260
983.615;   86.849;  -14.340;  798.800
984.168;   83.342;  -14.950;  770.080
984.721;   84.012;  -13.270;  880.760
985.274;   81.699;  -12.240;  867.500
985.827;   80.014;  -12.720;  834.220
986.380;   75.751;  -14.920;  721.340
986.933;   75.135;  -12.860;  864.800
987.486;   74.653;  -10.440;  861.920
988.039;   73.796;  -11.820;  863.100
988.591;   72.251;  -13.760;  893.260
989.144;   70.295;  -14.080;  737.260
989.697;   70.825;  -13.440;  758.740
990.250;   72.571;  -12.050;  858.100
990.802;   70.791;  -14.550;  755.860
991.355;   71.142;  -10.770;  974.880
991.907;   69.041;  -11.710;  864.320
992.460;   66.940;  -12.650;  753.760
993.012;   64.604;  -13.860;  749.540
993.565;   62.683;  -14.310;  711.360
994.117;   63.630;   -9.920;  950.780
994.669;   60.024;  -13.420;  701.320
995.221;   59.241;  -14.200;  791.920
995.774;   58.019;  -13.400;  787.580
996.326;   58.111;  -11.850;  740.220
996.878;   57.719;  -12.230;  838.420
997.430;   55.094;  -14.260;  699.860
997.982;   54.212;  -11.430;  750.140
998.534;   55.097;  -11.590;  739.060
999.086;   53.690;  -11.960;  738.220
999.638;   52.859;  -13.640;  661.380
1000.190;   51.991;  -13.660;  699.320
1000.741;   51.418;   -9.980;  742.700
1001.293;   51.738;  -11.860;  686.020
1001.845;   49.455;  -14.280;  676.640
1002.396;   49.946;  -12.270;  743.400
1002.948;   49.230;  -13.670;  737.400
1003.500;   49.475;  -12.010;  723.780
1004.051;   49.044;  -11.890;  907.580
1004.603;   47.539;  -11.220;  791.820
1005.154;   44.898;  -13.210;  608.980
1005.705;   43.816;  -11.850;  723.960
1006.257;   43.308;  -13.670;  707.220
1006.808;   42.388;  -12.060;  685.460
1007.359;   42.542;  -10.250;  763.240
1007.910;   41.801;  -13.440;  646.640
1008.461;   41.417;  -13.170;  732.940
1009.013;   38.868;  -14.590;  588.340
1009.564;   40.609;  -12.100;  793.520
1010.115;   39.243;  -14.000;  597.040
1010.665;   38.144;  -15.020;  602.160
1011.216;   38.010;  -12.560;  667.920
1011.767;   38.321;  -11.330;  697.920
1012.318;   38.578;  -11.450;  736.980
1012.869;   37.414;  -11.000;  679.000
1013.419;   36.389;  -11.760;  603.120
1013.970;   36.962;  -11.800;  666.640
1014.521;   36.148;  -14.750;  620.620
1015.071;   36.882;  -14.430;  670.380
1015.622;   35.740;  -14.170;  635.460
1016.172;   35.604;  -11.700;  596.820
1016.723;   35.095;  -13.230;  614.380
1017.273;   35.581;  -16.120;  604.160
1017.823;   34.888;  -13.360;  650.340
1018.374;   34.965;  -13.710;  611.760
1018.924;   35.374;  -11.050;  716.880
1019.474;   34.998;  -14.120;  718.880
1020.024;   33.309;  -12.990;  657.580
1020.574;   34.403;  -12.010;  726.160
1021.124;   34.838;  -12.080;  673.580
1021.674;   32.432;  -15.860;  559.120
1022.224;   33.074;  -11.710;  708.940
1022.774;   33.264;  -13.030;  668.820
1023.324;   34.347;  -11.000;  753.520
1023.874;   34.616;  -13.270;  875.760
1024.423;   31.144;  -14.570;  613.700
1024.973;   31.652;  -12.620;  610.760
1025.523;   31.434;  -12.630;  620.960
1026.072;   30.576;  -14.110;  606.420
1026.622;   30.104;  -15.390;  675.740
1027.172;   31.757;   -9.090;  715.660
1027.721;   29.748;  -12.250;  601.220
1028.270;   30.666;  -15.590;  663.400
1028.820;   29.297;  -13.840;  638.080
1029.369;   29.589;  -13.170;  612.700
1029.918;   30.224;  -14.080;  649.840
1030.468;   29.178;  -13.860;  564.780
1031.017;   29.295;  -12.970;  634.800
1031.566;   28.626;  -12.320;  608.900
1032.115;   29.770;  -13.140;  694.500
1032.664;   28.233;  -14.560;  596.480
1033.213;   29.244;  -11.620;  735.420
1033.762;   28.463;  -13.190;  635.620
1034.311;   28.875;  -13.460;  677.220
1034.860;   28.998;  -15.770;  691.000
1035.408;   28.241;  -13.100;  722.720
1035.957;   29.578;  -12.880;  719.540
1036.506;   27.162;  -13.640;  530.800
1037.055;   29.299;  -12.420;  844.320
1037.603;   28.014;  -13.740;  664.000
1038.152;   26.272;  -13.840;  534.760
1038.700;   26.564;  -10.770;  585.740
1039.249;   26.729;  -13.520;  681.220
1039.797;   25.950;  -13.060;  633.360
1040.345;   26.638;  -11.760;  705.420
1040.894;   26.454;  -10.790;  625.300
1041.442;   25.599;  -15.420;  632.200
1041.990;   23.940;  -14.550;  559.160
1042.538;   24.547;  -15.620;  536.180
1043.087;   24.554;  -14.940;  570.860
1043.635;   25.960;  -12.100;  670.500
1044.183;   24.486;  -13.200;  586.400
1044.731;   24.816;  -11.630;  576.000
1045.279;   24.326;  -14.200;  674.920
1045.827;   26.731;  -12.510;  892.400
1046.374;   22.478;  -14.960;  515.420
1046.922;   22.620;  -11.850;  590.580
1047.470;   24.608;  -13.770;  691.300
1048.018;   23.867;  -15.380;  647.960
1048.565;   24.382;  -14.010;  708.600
1049.113;   22.510;  -14.620;  557.000
1049.660;   23.786;  -14.940;  629.660
1050.208;   23.348;  -14.540;  675.640
1050.755;   22.161;  -13.710;  606.580
1051.303;   23.497;  -11.880;  686.820
1051.850;   22.902;  -12.160;  635.120
1052.397;   20.260;  -15.110;  473.960
1052.945;   21.465;  -14.770;  617.760
1053.492;   22.699;  -12.320;  741.840
1054.039;   22.616;  -13.290;  720.180
1054.586;   21.243;  -15.210;  557.240
1055.133;   21.893;  -12.920;  693.140
1055.680;   22.286;  -12.610;  646.620
1056.227;   21.087;  -12.620;  542.780
1056.774;   23.108;  -13.010;  794.980
1057.321;   19.550;  -16.180;  523.260
1057.868;   21.133;  -11.230;  651.320
1058.415;   21.446;  -10.890;  651.980
1058.961;   20.930;  -12.530;  678.940
1059.508;   19.623;  -14.120;  643.820
1060.055;   20.245;  -13.340;  581.780
1060.601;   21.244;  -12.920;  624.300
1061.148;   20.422;  -14.430;  616.820
1061.694;   19.313;  -14.140;  592.580
1062.241;   19.698;  -12.550;  596.320
1062.787;   20.781;  -13.370;  663.140
1063.334;   22.285;  -12.260;  808.560
1063.880;   19.882;  -10.800;  668.360
1064.426;   19.853;   -9.920;  706.820
1064.972;   18.714;  -12.970;  601.340
1065.518;   17.695;  -14.440;  566.640
1066.065;   18.820;  -12.680;  624.460
1066.611;   18.310;  -13.520;  598.800
1067.157;   19.330;  -11.100;  641.860
1067.703;   18.368;  -14.100;  668.480
1068.249;   17.352;  -13.750;  605.220
1068.794;   18.033;  -11.070;  626.880
1069.340;   17.986;  -13.210;  578.960
1069.886;   17.708;  -14.850;  590.700
1070.432;   16.186;  -14.580;  541.720
1070.977;   16.704;  -12.930;  601.080
1071.523;   17.256;  -11.970;  573.060
1072.068;   17.381;  -13.730;  582.000
1072.614;   16.204;  -14.550;  527.760
1073.160;   17.461;  -13.690;  687.040
1073.705;   16.266;  -14.780;  572.520
1074.250;   15.662;  -15.430;  559.900
1074.796;   16.785;  -11.620;  655.160
1075.341;   17.082;  -11.580;  664.100
1075.886;   16.876;  -13.190;  594.240
1076.431;   16.154;  -13.630;  649.880
1076.976;   15.537;  -11.670;  639.220
1077.521;   15.463;  -11.600;  583.080
1078.067;   15.609;  -13.920;  579.400
1078.612;   15.870;  -12.910;  661.620
1079.156;   15.299;  -15.340;  601.540
1079.701;   15.802;  -12.560;  693.260
1080.246;   16.452;  -12.490;  696.300
1080.791;   15.563;  -14.550;  625.020
1081.336;   15.686;  -15.210;  659.320
1081.880;   15.216;  -11.280;  649.680
1082.425;   14.761;  -12.830;  573.480
1082.970;   16.486;  -11.680;  717.040
1083.514;   14.308;  -15.500;  597.000
1084.059;   13.739;  -11.770;  586.720
1084.603;   14.682;  -13.480;  565.840
1085.147;   14.125;  -13.940;  645.220
1085.692;   15.119;  -13.170;  716.800
1086.236;   11.728;  -15.740;  503.140
1086.780;   15.986;  -10.750;  751.440
1087.325;   13.774;  -14.900;  654.620
1087.869;   13.918;  -15.160;  610.700
1088.413;   14.383;  -11.030;  705.040
1088.957;   12.821;  -15.210;  543.400
1089.501;   14.923;  -12.310;  766.640
1090.045;   13.575;  -12.790;  726.480
1090.589;   11.937;  -14.040;  569.920
1091.133;   13.258;  -12.800;  673.340
1091.676;   13.533;  -13.600;  591.940
1092.220;   12.522;  -12.960;  600.920
1092.764;   13.368;  -10.830;  706.960
1093.307;   13.782;  -12.390;  673.780
1093.851;   11.294;  -15.850;  556.540
1094.395;   12.844;  -12.980;  683.140
1094.938;   12.146;  -13.670;  632.520
1095.482;   12.162;  -12.740;  559.800
1096.025;   13.424;  -13.340;  710.880
1096.568;   13.082;  -10.500;  779.280
1097.112;    9.895;  -13.500;  508.180
1097.655;   12.476;  -13.060;  603.000
1098.198;   10.228;  -13.240;  600.180
1098.741;   10.129;  -15.490;  612.860
1099.285;   11.359;  -13.410;  657.300
1099.828;    9.488;  -15.640;  439.400
1100.371;   10.995;  -13.980;  608.160
1100.914;   10.925;  -13.990;  682.660
1101.457;   11.325;  -15.030;  679.900
1101.999;   10.884;  -12.480;  584.680
1102.542;   11.248;  -12.410;  641.440
1103.085;   10.105;  -14.730;  658.500
1103.628;   11.190;  -12.190;  762.060
1104.170;    9.829;  -12.360;  588.280
1104.713;   10.446;  -13.350;  646.700
1105.256;    9.057;  -14.930;  557.440
1105.798;    8.024;  -15.150;  499.980
1106.341;   11.850;  -13.230;  728.900
1106.883;    8.956;  -14.680;  521.340
1107.425;    9.502;  -14.810;  668.180
1107.968;    9.362;  -12.940;  612.380
1108.510;   10.808;  -10.550;  684.960
1109.052;    8.183;  -15.640;  612.620
1109.594;    8.494;  -14.440;  554.440
1110.136;    8.754;  -11.380;  643.220
1110.679;    8.886;  -13.090;  633.080
1111.221;    9.173;  -14.230;  604.460
1111.763;    7.894;  -14.260;  559.220
1112.304;    7.980;  -14.510;  547.140
1112.846;    9.230;  -14.700;  666.240
1113.388;   11.571;  -12.270;  942.180
1113.930;    8.853;  -13.340;  694.200
1114.472;    7.819;  -12.560;  606.540
1115.013;    6.996;  -14.280;  551.280
1115.555;    6.826;  -14.010;  587.100
1116.097;    6.281;  -14.730;  579.480
1116.638;    7.671;  -12.160;  684.600
1117.180;    8.495;  -14.320;  667.740
1117.721;    7.021;  -15.730;  568.580
1118.262;    7.268;  -13.480;  677.960
1118.804;    8.159;  -11.530;  637.340
1119.345;    6.640;  -13.540;  578.400
1119.886;    8.488;  -14.470;  704.040
1120.427;    5.996;  -13.030;  589.020
1120.969;    7.105;  -13.150;  597.920
1121.510;    7.104;  -13.940;  563.060
1122.051;    7.144;  -12.310;  723.580
1122.592;    5.483;  -13.870;  655.420
1123.133;    4.715;  -12.890;  547.940
1123.673;    6.692;  -13.300;  706.480
1124.214;    6.166;  -14.000;  612.460
1124.755;    6.697;  -13.210;  639.460
1125.296;    6.013;  -13.450;  627.320
1125.836;    7.721;  -12.610;  691.500
1126.377;    5.795;  -15.840;  599.660
1126.918;    7.347;  -11.830;  614.980
1127.458;    4.835;  -11.830;  622.220
1127.999;    6.760;  -11.490;  656.980
1128.539;    6.407;  -12.900;  694.240
1129.079;    4.673;  -14.910;  632.720
1129.620;    4.474;  -12.920;  558.100
1130.160;    5.081;  -14.640;  539.480
1130.700;    5.730;  -13.270;  640.840
1131.240;    5.359;  -14.110;  643.700
1131.781;    5.026;  -13.130;  619.680
1132.321;    4.809;  -15.220;  599.120
1132.861;    3.909;  -15.670;  564.200
1133.401;    3.806;  -13.970;  593.940
1133.941;    4.564;  -13.740;  626.280
1134.481;    4.708;  -13.200;  597.580
1135.020;    4.191;  -14.830;  609.160
1135.560;    4.086;  -14.590;  674.940
1136.100;    2.255;  -13.730;  501.160
1136.640;    3.904;  -15.240;  510.480
1137.179;    3.181;  -14.710;  537.960
1137.719;    3.543;  -14.090;  605.400
1138.258;    4.072;  -12.470;  587.360
1138.798;    5.518;  -12.580;  663.780
1139.337;    3.448;  -16.480;  482.840
1139.877;    3.641;  -13.970;  642.360
1140.416;    5.278;   -9.870;  878.060
1140.955;    2.710;  -14.860;  535.380
1141.494;    3.486;  -14.530;  669.280
1142.034;    2.614;  -13.940;  583.520
1142.573;    3.441;  -11.160;  646.280
1143.112;    3.009;  -15.050;  553.480
1143.651;    2.821;  -15.390;  536.480
1144.190;    3.639;  -12.990;  691.640
1144.729;    2.330;  -12.220;  607.420
1145.267;    3.278;  -14.020;  584.900
1145.806;    3.823;  -12.740;  637.040
1146.345;    2.187;  -14.810;  635.020
1146.884;    2.603;  -12.920;  622.500
1147.422;    2.354;  -13.930;  533.060
1147.961;    4.349;  -11.830;  708.460
1148.500;    2.891;  -12.710;  669.720
1149.038;    3.211;  -14.420;  632.500
1149.577;    3.162;  -13.920;  698.640
1150.115;    0.220;  -17.050;  452.280
1150.653;    1.207;  -14.890;  607.340
1151.192;    2.043;  -15.270;  552.920
1151.730;    2.407;  -13.160;  652.560
1152.268;    2.198;  -15.430;  589.520
1152.806;    0.884;  -15.880;  571.180
1153.344;    0.387;  -13.240;  577.640
1153.882;    2.698;  -13.010;  600.060
1154.421;   -0.171;  -16.180;  470.620
1154.958;    0.465;  -13.880;  595.240
1155.496;    1.409;  -13.590;  645.280
1156.034;    2.144;  -11.910;  721.880
1156.572;    2.243;  -12.010;  667.060
1157.110;   -0.233;  -16.250;  473.940
1157.647;    1.084;  -15.230;  676.960
1158.185;    0.835;  -13.770;  564.320
1158.723;   -0.721;  -15.300;  509.200
1159.260;    1.323;  -13.130;  701.700
1159.798;    1.934;  -11.300;  658.160
1160.335;    1.790;  -13.210;  631.820

