
Integration time [ms]:   3.276
Averaging Nr. [scans]: 1000
Smoothing Nr. [pixels]: 0
Data measured with spectrometer [name]: 7414430SP
Wave   ;Sample   ;Dark     ;Reference
[nm]   ;[counts] ;[counts] ;[counts] 

288.544;  150.868;    7.793;  793.890
289.143;  153.874;    7.462;  681.602
289.742;  154.401;    8.602;  828.814
290.341;  140.715;    1.321;  789.841
290.940;  129.055;   -0.709;  730.702
291.538;  129.898;    0.881;  881.108
292.137;  130.145;    0.122;  792.581
292.736;  134.824;   -1.929;  975.101
293.335;  131.734;   -8.229;  735.086
293.934;  130.526;   -5.279;  781.677
294.532;  130.378;   -1.369; 1031.958
295.131;  116.491;   -7.641;  834.394
295.730;  116.454;   -8.420;  809.588
296.328;  115.010;   -5.611;  783.442
296.927;  115.730;   -5.781;  779.652
297.525;  116.906;   -6.361;  781.236
298.124;  107.441;  -11.382;  654.009
298.722;  110.793;   -7.641;  761.933
299.321;  109.117;   -6.811;  708.597
299.919;  106.802;   -6.991;  751.918
300.518;  103.804;  -10.362;  689.338
301.116;  105.454;   -9.581;  691.381
301.715;  105.613;   -4.891;  730.222
302.313;  104.214;   -8.801;  704.943
302.911;  100.657;   -8.522;  733.830
303.509;  105.604;   -6.171;  925.627
304.108;  102.638;   -7.311;  760.383
304.706;  102.144;   -8.321;  801.664
305.304;   96.186;  -10.222;  796.707
305.902;  101.396;   -6.021;  784.484
306.500;   97.983;   -4.971;  728.200
307.098;   96.235;   -7.061;  746.560
307.696;   93.937;   -8.801;  780.432
308.294;   94.578;   -6.411;  731.359
308.892;   96.215;   -2.901;  759.769
309.490;   91.892;   -5.041;  712.161
310.088;   91.249;   -5.002;  788.444
310.686;   95.071;   -2.041;  821.749
311.284;   90.771;   -2.351;  766.040
311.882;   88.733;   -4.422;  731.225
312.480;   86.404;   -4.192;  697.167
313.078;   87.003;   -1.172;  808.331
313.675;   87.621;   -2.601;  691.600
314.273;   82.736;   -1.312;  797.837
314.871;   82.381;   -3.942;  589.829
315.468;   80.619;   -2.802;  652.090
316.066;   83.417;   -0.701;  694.427
316.664;   75.874;   -4.362;  656.351
317.261;   79.422;   -2.872;  910.128
317.859;   74.802;   -2.022;  768.735
318.456;   76.151;   -0.531;  830.096
319.054;   71.685;   -3.912;  787.828
319.651;   70.714;   -4.752;  759.928
320.249;   69.093;   -2.602;  810.188
320.846;   67.115;   -0.821;  714.286
321.443;   65.311;   -4.642;  832.135
322.041;   62.039;   -5.002;  812.315
322.638;   59.497;   -3.982;  701.456
323.235;   60.889;   -3.411;  665.683
323.833;   57.808;   -7.361;  740.354
324.430;   53.772;   -8.611;  615.900
325.027;   54.758;   -4.061;  876.855
325.624;   54.401;   -4.031;  644.532
326.221;   51.773;   -7.481;  689.717
326.818;   51.513;   -5.281;  818.332
327.415;   53.594;   -7.460;  748.828
328.012;   53.326;   -5.510;  690.585
328.609;   51.671;   -7.880;  731.389
329.206;   50.079;   -8.331;  778.621
329.803;   50.019;   -5.121;  737.841
330.400;   52.620;   -4.510;  704.260
330.997;   54.298;   -6.441;  817.147
331.594;   52.697;   -8.831;  788.185
332.191;   57.575;   -7.621;  728.722
332.787;   60.935;   -4.591;  844.463
333.384;   59.445;   -7.412;  763.093
333.981;   57.574;   -8.293;  815.687
334.578;   61.130;   -7.052;  708.378
335.174;   64.063;   -3.102;  731.469
335.771;   63.146;   -5.943;  836.456
336.367;   59.849;   -7.393;  710.631
336.964;   63.625;   -4.063;  793.266
337.561;   62.463;   -3.813;  731.112
338.157;   58.345;   -4.654;  911.916
338.754;   55.533;   -7.934;  796.589
339.350;   53.186;   -4.414;  722.493
339.946;   55.539;   -4.664;  773.135
340.543;   47.306;   -6.375;  846.136
341.139;   42.232;   -9.815;  720.836
341.735;   39.772;   -4.526;  772.593
342.332;   38.058;   -4.895;  691.472
342.928;   39.050;   -4.295;  795.394
343.524;   32.801;   -5.476;  761.684
344.120;   28.913;   -5.856;  738.562
344.716;   32.295;   -2.155;  723.717
345.313;   30.449;   -6.275;  795.342
345.909;   25.574;   -8.815;  627.336
346.505;   26.259;   -5.305;  740.247
347.101;   27.455;   -2.674;  827.864
347.697;   27.651;   -4.344;  785.398
348.293;   22.461;   -9.975;  627.244
348.889;   22.588;   -5.774;  745.914
349.485;   22.385;   -5.004;  688.205
350.081;   22.910;   -4.704;  772.592
350.676;   18.470;   -6.635;  691.606
351.272;   21.908;   -4.504;  809.530
351.868;   21.872;   -3.914;  780.497
352.464;   19.658;   -9.044;  723.932
353.059;   16.115;   -8.314;  646.017
353.655;   18.768;   -7.024;  777.063
354.251;   19.631;   -5.343;  759.845
354.846;   14.504;   -8.604;  740.646
355.442;   11.880;   -6.945;  753.071
356.038;   13.779;   -7.564;  751.708
356.633;   14.261;   -5.814;  728.594
357.229;   11.279;   -7.364;  724.757
357.824;   10.847;   -8.024;  703.600
358.420;    9.437;   -9.384;  679.726
359.015;   11.150;   -5.104;  695.357
359.610;   11.108;   -6.854;  763.920
360.206;    5.583;  -10.185;  603.240
360.801;    7.714;   -7.054;  646.503
361.396;   10.417;   -5.034;  725.975
361.992;    5.637;   -8.284;  668.220
362.587;    2.814;   -8.625;  670.160
363.182;    4.747;   -7.674;  689.631
363.777;    5.597;   -5.164;  738.242
364.372;    5.331;   -8.604;  737.314
364.967;    2.339;   -9.055;  680.744
365.563;    5.606;   -6.114;  815.567
366.158;    2.533;   -5.814;  685.161
366.753;    3.055;   -7.854;  649.263
367.348;    1.542;   -7.804;  746.056
367.942;    1.586;   -7.954;  697.298
368.537;    1.217;   -4.984;  754.245
369.132;    0.875;   -8.564;  703.428
369.727;   -3.250;   -8.855;  638.079
370.322;   -1.832;   -6.245;  580.186
370.917;   -1.902;   -6.425;  710.646
371.511;    1.067;   -6.294;  861.834
372.106;   -2.772;   -7.685;  776.964
372.701;   -5.931;   -7.335;  585.988
373.296;    0.173;   -4.564;  863.135
373.890;   -5.183;  -10.235;  647.840
374.485;   -7.646;   -7.885;  691.199
375.079;   -3.690;   -7.324;  738.685
375.674;   -2.111;   -3.494;  812.970
376.268;   -6.315;   -8.525;  691.759
376.863;  -11.823;  -10.086;  580.327
377.457;   -5.539;   -7.025;  662.490
378.052;   -7.729;   -3.585;  764.884
378.646;   -9.050;   -7.595;  741.167
379.240;   -8.946;   -8.335;  721.176
379.835;   -8.013;   -5.785;  636.978
380.429;  -10.294;   -4.335;  562.557
381.023;  -10.294;   -6.805;  779.205
381.617;  -12.442;   -9.195;  680.106
382.212;   -9.230;   -6.905;  685.303
382.806;   -7.747;   -3.745;  760.690
383.400;  -12.076;   -7.745;  672.281
383.994;  -13.121;   -9.765;  664.870
384.588;   -9.778;   -6.564;  697.701
385.182;   -7.823;   -5.344;  726.624
385.776;  -10.244;   -8.514;  706.875
386.370;  -12.585;   -9.555;  681.968
386.964;  -12.350;   -8.715;  684.155
387.558;  -10.124;   -6.174;  598.360
388.152;  -13.356;   -8.725;  681.959
388.745;  -12.073;   -7.965;  814.707
389.339;  -10.187;   -5.924;  747.642
389.933;   -8.693;   -5.524;  695.370
390.527;  -10.262;   -7.114;  859.029
391.120;  -16.804;  -10.725;  595.318
391.714;  -13.528;   -8.035;  711.633
392.308;  -10.982;   -3.574;  780.253
392.901;  -13.680;   -7.245;  642.460
393.495;  -15.416;   -9.285;  595.414
394.089;  -13.906;   -5.895;  760.452
394.682;  -15.205;   -4.295;  697.188
395.275;  -15.413;   -9.875;  719.927
395.869;  -16.706;   -8.485;  667.314
396.462;  -15.347;   -7.455;  616.609
397.056;  -10.768;   -5.424;  776.621
397.649;  -15.037;   -6.605;  731.575
398.242;  -12.593;   -8.224;  712.645
398.836;  -11.761;   -7.474;  766.408
399.429;  -13.264;   -7.094;  631.041
400.022;  -16.940;   -9.475;  665.902
400.615;  -13.734;   -7.145;  805.609
401.208;  -12.333;   -7.174;  691.451
401.802;  -14.499;   -5.515;  699.329
402.395;  -15.153;   -9.875;  683.502
402.988;  -16.796;   -8.845;  696.627
403.581;  -13.850;   -8.874;  646.878
404.174;  -11.649;   -5.324;  686.568
404.767;  -14.800;   -9.575;  638.583
405.360;  -16.951;  -10.965;  621.445
405.953;  -11.369;   -8.764;  759.034
406.545;  -10.988;   -7.514;  725.342
407.138;  -14.815;  -10.025;  618.350
407.731;  -12.958;  -10.034;  613.303
408.324;   -9.835;   -9.374;  660.554
408.917;  -10.333;   -6.534;  681.864
409.509;  -12.532;   -8.004;  740.396
410.102;  -14.671;   -9.875;  643.948
410.695;   -8.914;   -8.604;  665.758
411.287;   -9.862;   -6.794;  599.821
411.880;  -10.393;   -9.334;  585.421
412.472;  -13.232;  -10.254;  613.092
413.065;  -10.381;   -6.714;  629.408
413.657;   -9.037;   -7.234;  576.678
414.250;   -9.304;  -10.544;  646.681
414.842;  -11.118;   -9.744;  676.353
415.434;   -9.072;   -6.994;  570.463
416.027;   -4.759;   -5.893;  652.196
416.619;   -5.493;   -7.264;  713.400
417.211;   -6.840;  -10.374;  599.352
417.804;   -3.274;   -7.993;  628.499
418.396;   -7.375;   -7.234;  607.643
418.988;   -4.934;   -9.443;  659.238
419.580;   -8.485;  -10.724;  568.276
420.172;   -5.900;  -10.323;  536.196
420.764;   -1.943;   -8.793;  672.482
421.356;   -2.929;  -11.143;  636.898
421.948;   -3.349;   -8.293;  677.661
422.540;    0.903;   -7.893;  680.027
423.132;    0.992;   -7.082;  600.641
423.724;   -2.572;   -8.653;  561.267
424.316;   -1.062;  -10.213;  621.345
424.908;    2.218;   -9.762;  591.517
425.500;    3.231;   -5.572;  647.978
426.092;    3.384;   -8.422;  648.268
426.683;    2.262;   -9.283;  684.836
427.275;    4.683;   -7.852;  641.471
427.867;    6.450;   -5.272;  668.948
428.458;    7.615;   -7.682;  732.344
429.050;    5.510;  -10.612;  680.749
429.642;    7.387;   -9.882;  743.124
430.233;    7.954;   -6.962;  569.356
430.825;   10.076;   -6.842;  724.809
431.416;    7.169;   -9.672;  698.241
432.008;    9.937;   -6.552;  651.723
432.599;   11.158;   -6.891;  656.073
433.190;    8.151;  -10.912;  637.670
433.782;    7.447;  -11.172;  590.395
434.373;   14.859;   -6.061;  884.765
434.964;   13.326;   -8.251;  602.920
435.556;   10.952;   -9.722;  634.537
436.147;   14.379;   -9.082;  758.490
436.738;   14.172;   -8.041;  701.099
437.329;   18.801;   -7.341;  721.723
437.920;   11.807;   -8.162;  666.688
438.511;   12.587;  -11.802;  564.526
439.103;   19.576;  -10.191;  623.998
439.694;   20.703;   -7.601;  681.583
440.285;   21.388;   -8.541;  764.432
440.876;   20.133;   -9.751;  845.738
441.466;   18.872;   -9.401;  575.162
442.057;   24.340;   -7.760;  665.814
442.648;   22.873;   -9.971;  746.255
443.239;   21.257;  -11.001;  620.477
443.830;   26.397;   -7.990;  704.958
444.421;   27.617;   -7.910;  655.474
445.011;   24.631;   -8.131;  693.619
445.602;   24.515;   -7.111;  743.126
446.193;   25.774;  -10.920;  488.117
446.783;   30.090;   -6.500;  640.397
447.374;   26.229;   -8.671;  692.759
447.964;   26.530;  -10.781;  713.770
448.555;   35.338;   -9.650;  822.742
449.145;   31.684;   -8.660;  662.853
449.736;   32.159;   -8.990;  803.179
450.326;   32.681;   -9.500;  713.626
450.917;   36.416;   -8.680;  675.324
451.507;   36.336;   -7.520;  600.661
452.097;   37.611;   -8.590;  746.267
452.688;   37.912;  -11.340;  742.160
453.278;   37.220;  -10.100;  566.840
453.868;   41.772;   -6.019;  793.550
454.458;   39.368;   -9.440;  651.141
455.048;   39.822;  -10.560;  711.783
455.639;   41.984;  -11.799;  567.096
456.229;   45.278;   -6.899;  710.694
456.819;   47.841;   -7.389;  751.158
457.409;   47.344;  -11.119;  773.993
457.999;   50.229;   -9.289;  737.505
458.589;   49.836;   -6.139;  686.606
459.179;   50.346;   -8.729;  717.658
459.769;   48.097;   -9.789;  627.099
460.358;   53.318;  -10.259;  797.262
460.948;   52.485;   -7.299;  689.503
461.538;   53.794;  -10.289;  660.677
462.128;   51.707;  -11.269;  664.934
462.717;   58.385;   -9.368;  710.326
463.307;   61.576;   -7.908;  705.846
463.897;   57.291;   -9.599;  656.942
464.486;   57.568;   -9.769;  837.128
465.076;   61.338;   -8.048;  733.776
465.666;   64.843;   -9.358;  652.900
466.255;   62.691;   -7.919;  785.651
466.845;   61.305;  -11.689;  666.749
467.434;   64.123;   -7.818;  725.873
468.023;   65.638;   -7.678;  658.357
468.613;   63.129;  -10.939;  713.946
469.202;   68.031;  -10.118;  646.507
469.791;   71.342;   -9.108;  737.811
470.381;   73.339;   -6.058;  742.813
470.970;   72.476;  -10.428;  711.099
471.559;   73.386;  -10.268;  733.291
472.148;   76.219;   -8.448;  675.737
472.738;   78.564;   -6.917;  765.466
473.327;   78.257;  -11.978;  637.529
473.916;   77.867;  -11.888;  737.446
474.505;   81.709;   -9.437;  751.703
475.094;   85.435;   -6.747;  806.570
475.683;   84.272;   -9.367;  797.699
476.272;   84.939;  -12.637;  730.632
476.861;   88.431;  -10.027;  706.754
477.449;   94.288;   -8.716;  728.487
478.038;   89.310;   -9.577;  692.513
478.627;   90.733;   -9.718;  714.852
479.216;   96.490;   -8.947;  769.441
479.805;   99.126;   -6.256;  783.375
480.393;   99.068;   -7.937; 1008.945
480.982;   98.075;   -7.717;  874.501
481.571;  104.479;   -9.266;  858.333
482.159;  104.561;   -7.636;  705.386
482.748;  104.560;   -9.667;  821.385
483.336;  109.727;  -10.376;  858.209
483.925;  109.759;   -7.147;  774.373
484.513;  116.598;   -7.996;  758.962
485.102;  112.846;  -10.027;  810.965
485.690;  122.158;  -10.446; 1011.050
486.278;  123.738;   -8.446;  979.329
486.867;  123.897;   -6.356;  809.662
487.455;  125.890;   -9.136;  898.229
488.043;  127.618;  -10.646;  748.361
488.631;  136.141;   -7.456; 1005.079
489.220;  139.983;   -6.636;  908.626
489.808;  139.458;  -11.036;  741.415
490.396;  147.507;  -10.246;  914.645
490.984;  153.420;   -8.556;  830.161
491.572;  163.461;   -5.886;  940.315
492.160;  168.858;   -9.486;  919.081
492.748;  180.554;  -10.976;  884.341
493.336;  203.438;   -8.776; 1019.693
493.924;  229.835;   -5.465;  958.077
494.512;  257.123;   -9.986; 1066.638
495.100;  294.564;  -10.636; 1103.280
495.687;  348.390;  -10.885; 1206.373
496.275;  407.397;   -8.126; 1150.796
496.863;  470.732;  -10.586; 1281.171
497.451;  570.415;  -11.926; 1386.805
498.038;  704.078;  -10.885; 1556.729
498.626;  806.875;   -6.315; 1741.407
499.214;  940.953;   -7.326; 2016.609
499.801; 1131.573;  -11.906; 2220.633
500.389; 1372.421;  -10.466; 2312.494
500.976; 1687.515;   -5.236; 2744.849
501.564; 2083.999;   -8.936; 3148.565
502.151; 2447.385;  -13.176; 3515.999
502.738; 2907.820;  -10.646; 3971.274
503.326; 3275.078;   -9.525; 4403.796
503.913; 3635.808;  -10.856; 5161.749
504.500; 3957.458;  -11.586; 5986.420
505.088; 4391.045;  -10.336; 6381.201
505.675; 4887.188;   -6.355; 6925.547
506.262; 5505.193;   -9.046; 7619.060
506.849; 6207.665;  -10.416; 8733.969
507.436; 6671.821;  -10.305; 9790.121
508.023; 7207.859;   -5.496; 9985.472
508.610; 7462.119;   -7.856;10434.618
509.197; 8060.728;  -10.097;11198.435
509.784; 9396.183;  -10.886;12391.194
510.371;10341.536;   -9.315;13603.713
510.958;11044.787;   -9.936;14426.586
511.545;11802.360;   -9.326;15243.775
512.132;12694.493;  -10.075;15945.876
512.719;13267.874;   -7.796;16340.369
513.305;14121.963;  -10.606;18011.766
513.892;14922.445;  -11.486;19754.971
514.479;16318.313;   -9.126;20967.805
515.066;17674.797;   -6.026;22299.793
515.652;18672.910;   -8.466;22908.660
516.239;19857.178;  -10.886;23798.875
516.825;20952.453;  -11.496;25567.275
517.412;22008.051;   -5.796;28154.959
517.998;22841.551;  -10.506;28344.111
518.585;22778.650;  -10.076;27134.219
519.171;22918.713;   -8.315;27268.576
519.758;24030.832;   -8.596;28964.129
520.344;25690.225;   -8.466;30664.494
520.930;26046.947;  -11.006;32550.605
521.516;27850.055;  -10.495;35422.895
522.103;30293.998;   -5.526;38280.004
522.689;31013.906;   -8.746;37835.117
523.275;30466.900;  -11.376;37288.613
523.861;30721.121;  -11.156;37281.395
524.447;31514.910;   -8.135;37846.949
525.033;30719.787;   -7.896;38321.949
525.619;30722.645;  -12.476;38579.285
526.205;31593.846;   -9.516;40622.875
526.791;32265.139;   -6.926;42258.836
527.377;30341.168;   -8.346;42966.902
527.963;32950.113;   -8.717;42018.949
528.549;34887.383;  -11.016;42476.828
529.135;35615.820;   -8.536;41854.852
529.721;36015.762;   -9.666;41237.711
530.306;35819.664;  -10.066;41259.445
530.892;35830.375;  -11.356;41506.047
531.478;37053.738;   -6.596;43559.613
532.063;39198.477;   -8.836;47695.563
532.649;39120.824;  -10.047;50808.324
533.235;40369.523;   -9.746;51787.500
533.820;41950.824;   -6.566;52145.035
534.406;42783.387;  -10.817;51133.488
534.991;42138.895;   -9.416;49996.805
535.576;40636.289;   -9.036;48882.852
536.162;40595.539;   -6.156;46942.285
536.747;41385.156;  -11.607;45711.746
537.333;44178.168;  -11.787;48510.180
537.918;46097.547;  -12.437;50439.891
538.503;43043.723;   -7.196;50863.711
539.088;37801.906;  -10.556;50906.922
539.673;36138.645;   -8.767;52621.965
540.259;36794.777;  -10.026;52368.094
540.844;37271.164;   -7.416;50879.109
541.429;40858.734;   -9.467;52077.777
542.014;46299.328;   -9.527;52716.695
542.599;47309.563;   -9.946;52363.281
543.184;44744.789;   -7.927;53187.137
543.769;45847.250;   -9.297;54697.605
544.354;45291.063;  -10.127;53913.914
544.938;44387.820;   -9.267;49680.164
545.523;46403.344;   -6.506;47386.277
546.108;48238.406;   -9.787;49151.949
546.693;50627.922;  -11.587;51384.637
547.278;50716.797;  -10.986;51853.254
547.862;47349.789;   -8.206;51173.750
548.447;42640.438;  -10.067;51691.395
549.031;42119.391;   -9.637;52456.703
549.616;46591.832;   -9.926;52714.516
550.201;45403.523;   -6.347;52414.598
550.785;46177.332;   -7.917;52355.059
551.370;45833.320;  -10.867;54589.453
551.954;46317.633;   -9.047;58267.348
552.538;47809.102;   -7.827;59062.176
553.123;46232.098;  -10.287;58115.285
553.707;44038.613;  -12.178;56556.285
554.291;44366.797;   -8.717;56201.668
554.876;45808.988;   -7.457;55335.762
555.460;46586.520;  -10.387;54155.703
556.044;48550.918;   -9.618;53721.484
556.628;46682.090;  -11.567;53731.016
557.212;45117.480;   -8.097;54312.531
557.796;43153.859;  -11.077;53797.773
558.380;43142.887;  -11.108;56145.984
558.964;44314.508;   -9.057;57277.930
559.548;45205.508;   -6.977;56459.641
560.132;43365.734;  -11.457;54434.543
560.716;42314.070;  -11.378;54800.617
561.300;43073.672;   -9.577;57606.945
561.884;44148.313;   -7.127;58972.445
562.467;43255.590;   -7.118;57327.570
563.051;42549.410;  -13.358;54962.434
563.635;42909.141;  -10.178;52594.473
564.219;43493.160;   -7.837;50610.410
564.802;44281.918;  -11.398;49551.180
565.386;44572.262;  -12.788;48370.953
565.969;44296.016;   -9.077;48178.871
566.553;43593.109;   -6.207;49957.305
567.136;43501.297;   -8.568;50369.594
567.720;39543.727;  -11.868;49492.004
568.303;37943.391;   -8.268;50616.352
568.887;38065.863;   -8.698;50727.148
569.470;38231.250;   -6.808;51698.379
570.053;37187.199;  -13.188;52122.078
570.637;35678.801;  -12.037;52536.438
571.220;35078.555;   -8.577;51186.098
571.803;35123.828;   -8.498;51032.762
572.386;37224.004;  -10.498;49609.887
572.969;39887.707;   -9.388;48285.926
573.552;38509.285;   -8.338;47624.285
574.135;37553.543;   -8.518;45498.641
574.718;35006.938;  -13.628;41970.434
575.301;33578.355;  -10.893;41447.137
575.884;32149.773;   -8.158;40923.836
576.467;33451.852;  -10.328;45267.723
577.050;35985.352;  -13.058;48175.543
577.633;37664.207;   -9.458;47729.328
578.216;36422.227;   -8.928;47579.793
578.799;35366.301;   -9.358;47820.996
579.381;33740.191;  -11.388;48115.551
579.964;32232.535;  -11.718;47333.766
580.547;33615.391;   -8.588;46668.969
581.129;34586.676;   -8.859;44466.141
581.712;34988.195;  -10.729;44164.922
582.294;35800.223;  -11.118;46477.855
582.877;36074.414;   -5.218;48244.254
583.459;33998.113;   -8.679;47437.895
584.042;32328.633;  -10.709;46943.219
584.624;32945.352;  -11.669;46792.227
585.206;32438.299;   -8.218;46557.250
585.789;32666.576;  -10.569;45793.773
586.371;35619.172;  -11.859;43836.391
586.953;36337.605;  -10.719;42972.492
587.536;37051.371;   -7.198;42487.211
588.118;36547.234;   -8.720;42086.414
588.700;33252.520;  -10.439;43389.930
589.282;32453.729;   -9.198;43646.039
589.864;33354.434;   -9.199;43438.109
590.446;34671.699;  -11.319;43151.926
591.028;34469.582;  -11.159;42781.867
591.610;33432.301;  -11.779;42839.098
592.192;30664.545;   -7.668;42820.402
592.774;29051.424;  -11.949;40724.277
593.356;27986.752;  -12.129;39874.789
593.937;27693.953;  -10.669;39980.648
594.519;29834.859;   -6.509;42069.633
595.101;31941.268;  -10.849;42976.031
595.683;32035.701;  -11.679;44084.441
596.264;33068.305;   -9.049;43478.797
596.846;31834.107;   -8.849;43803.672
597.427;31118.605;   -9.570;42986.934
598.009;32889.047;  -12.620;42832.219
598.591;33133.281;  -10.039;42580.086
599.172;32133.842;  -10.369;43061.805
599.753;32178.107;   -9.140;41691.469
600.335;34043.660;  -11.430;40692.520
600.916;32849.227;   -9.939;39982.422
601.498;30372.207;   -8.479;40318.617
602.079;29135.266;  -10.920;40670.609
602.660;29202.293;  -11.480;41450.898
603.241;30301.664;  -11.699;41137.738
603.823;29126.834;   -9.579;38868.797
604.404;29041.471;  -10.620;38182.785
604.985;30224.906;  -10.450;38078.047
605.566;29465.818;   -9.129;38056.633
606.147;29442.105;   -7.510;37020.418
606.728;31690.625;  -10.660;37883.359
607.309;30712.238;  -11.740;38748.273
607.890;29746.992;   -9.759;38850.230
608.471;29654.992;   -8.250;37457.918
609.051;29143.965;   -9.240;36066.457
609.632;28187.848;  -12.120;35991.074
610.213;28941.447;   -9.110;37402.641
610.794;29295.008;   -8.030;38383.363
611.374;28624.902;   -8.110;40562.387
611.955;29023.852;  -13.560;38533.727
612.536;30502.277;  -11.400;36951.789
613.116;30331.709;   -8.070;37197.891
613.697;30527.980;  -10.830;38411.125
614.277;29113.322;  -11.641;38673.938
614.858;30011.414;  -13.310;37075.863
615.438;29411.375;   -7.460;35092.906
616.019;26559.395;   -7.601;33666.301
616.599;27214.699;  -12.020;34189.023
617.179;29130.730;  -11.780;36952.047
617.760;29577.438;   -8.570;39582.574
618.340;30640.893;  -11.471;38943.977
618.920;32344.803;  -11.170;37594.156
619.500;32188.703;  -11.071;37866.938
620.080;31393.801;   -7.750;37869.043
620.660;32318.615;  -12.711;36868.617
621.241;33315.195;  -10.211;36352.309
621.821;33428.316;  -10.961;35459.520
622.401;33008.344;   -7.720;35207.414
622.980;31961.398;   -8.981;35980.422
623.560;30376.285;   -9.331;37351.328
624.140;29789.523;   -9.850;34388.582
624.720;25046.352;   -7.451;32368.764
625.300;21400.125;   -9.070;32638.629
625.880;24583.539;  -12.601;34599.035
626.459;28403.914;  -11.751;36831.738
627.039;31530.367;   -9.281;38299.098
627.619;31538.078;   -8.801;38289.574
628.198;29668.455;  -12.071;37220.695
628.778;28735.275;   -9.461;37632.563
629.357;29490.174;   -8.491;38003.012
629.937;29670.924;   -9.721;38402.039
630.516;29137.668;   -9.951;37868.801
631.096;28868.850;  -11.731;35760.410
631.675;32027.072;   -8.572;35225.219
632.254;37249.051;  -11.282;35130.289
632.834;36568.012;  -13.322;35794.570
633.413;34533.742;  -10.301;35788.922
633.992;31406.586;   -8.582;34532.863
634.571;32504.072;   -8.352;33590.113
635.151;35058.258;  -11.912;34943.863
635.730;33619.930;  -10.511;35352.523
636.309;30496.791;   -7.731;35366.605
636.888;28074.074;   -9.952;36165.637
637.467;28945.973;  -11.672;37515.902
638.046;30904.736;   -8.901;39288.695
638.625;34013.402;   -7.912;38279.699
639.204;33569.531;  -10.022;37741.598
639.782;31558.500;  -12.252;38364.551
640.361;27812.109;  -10.041;36740.621
640.940;25051.906;  -11.161;34950.082
641.519;25441.740;   -9.701;34137.398
642.097;27964.287;  -11.271;35654.258
642.676;30675.635;   -8.651;35637.957
643.255;31734.004;   -8.711;36567.074
643.833;30942.791;   -9.581;37809.434
644.412;31528.852;  -13.711;37337.293
644.990;31064.941;  -11.811;37018.531
645.569;31150.010;   -9.411;36518.469
646.147;29871.961;  -10.291;36186.430
646.726;28693.195;  -12.401;36267.688
647.304;29620.240;  -10.411;36647.625
647.882;31747.213;   -9.651;39286.742
648.461;33470.004;   -9.631;39157.703
649.039;31920.549;  -11.881;35412.883
649.617;31274.166;   -9.661;34744.918
650.195;30993.143;   -9.301;35403.098
650.773;29895.445;  -10.511;35053.797
651.352;27525.785;  -11.521;33756.816
651.930;25339.863;  -12.211;31868.773
652.508;23701.002;   -9.171;33121.551
653.086;27549.146;   -9.371;33564.793
653.663;30405.705;  -13.161;34054.668
654.241;29246.293;  -13.031;35693.309
654.819;30823.025;   -9.371;36422.906
655.397;30684.148;  -10.511;38213.484
655.975;30657.938;  -10.371;39507.625
656.553;30649.598;  -10.051;39498.223
657.130;28961.230;  -10.061;40395.480
657.708;28523.734;   -9.561;39242.020
658.286;28444.441;  -11.511;38920.020
658.863;29362.598;  -10.261;40202.898
659.441;32086.867;   -7.531;39677.938
660.018;31275.611;   -9.501;40413.355
660.596;30255.977;  -13.301;39931.414
661.173;32209.963;  -11.211;39604.531
661.750;32519.414;   -9.951;39700.070
662.328;31924.926;   -9.390;39292.809
662.905;31067.320;  -11.330;38235.648
663.482;26319.193;   -9.050;36212.305
664.060;24327.332;   -8.240;35944.945
664.637;27152.320;  -10.050;35170.785
665.214;29120.732;  -11.760;34197.523
665.791;30798.676;  -10.530;34549.520
666.368;29219.129;   -9.690;35118.578
666.945;29849.982;   -9.320;36019.418
667.522;31438.896;  -11.860;36048.438
668.099;31931.666;  -10.770;36243.914
668.676;31343.861;   -6.260;35958.875
669.253;29463.105;   -7.000;37384.730
669.830;29796.531;  -10.190;36779.629
670.407;29529.324;   -9.550;35231.289
670.984;29989.143;   -9.260;35544.270
671.560;30145.049;   -9.280;35466.867
672.137;28624.008;  -11.810;34280.863
672.714;29359.504;  -11.490;34632.863
673.290;29662.797;   -7.740;35135.422
673.867;29982.545;  -10.660;36114.480
674.443;30266.482;  -12.230;36152.859
675.020;28732.906;  -10.450;35327.238
675.596;29740.773;   -9.260;35795.176
676.173;30150.523;  -10.780;35430.355
676.749;29872.859;  -13.690;33549.516
677.326;30180.752;  -11.980;32210.012
677.902;30371.770;   -8.630;32068.871
678.478;29514.615;  -10.730;32583.891
679.054;29353.002;  -10.520;32088.928
679.631;30106.262;  -11.920;30978.848
680.207;30981.180;   -7.490;33160.887
680.783;32126.203;   -9.860;35570.363
681.359;31298.396;  -13.380;36125.184
681.935;30450.496;  -12.480;35240.922
682.511;29319.896;   -7.900;34429.961
683.087;29334.404;   -7.710;34463.680
683.663;29347.225;  -11.480;34648.898
684.239;28531.914;  -14.090;34546.457
684.815;28180.311;   -7.560;35586.375
685.390;28560.336;   -9.910;35821.895
685.966;28997.264;  -11.159;35085.871
686.542;31808.766;  -11.169;34198.230
687.118;33798.180;   -5.959;32847.707
687.693;33688.332;  -10.329;32794.027
688.269;32835.988;  -12.059;33072.367
688.844;30589.193;  -10.909;33141.664
689.420;28590.561;   -8.019;33965.742
689.995;26326.779;   -8.399;34655.523
690.571;25126.928;  -10.949;33576.742
691.146;25792.916;   -9.619;32657.219
691.722;25140.719;   -8.999;32526.979
692.297;25219.221;  -11.589;33014.617
692.872;27258.652;  -11.739;34012.254
693.448;26601.344;  -11.059;34237.434
694.023;25851.547;  -10.139;34142.672
694.598;28163.965;   -9.029;34132.031
695.173;28387.955;  -13.319;34205.250
695.748;27863.313;  -10.169;32882.488
696.323;27479.713;   -8.339;32864.906
696.898;27405.848;   -8.169;33170.004
697.473;27211.908;  -12.309;32432.984
698.048;26956.369;  -10.989;31649.303
698.623;27421.143;   -9.329;30778.141
699.198;29417.885;   -9.849;31140.119
699.773;30185.746;  -12.329;31764.299
700.348;28649.363;  -10.389;31780.816
700.922;28694.008;   -9.269;32046.375
701.497;29043.277;   -9.329;32603.574
702.072;29039.959;  -10.789;34799.871
702.646;28235.762;  -10.839;35793.172
703.221;26494.211;   -9.099;35201.590
703.795;28415.637;  -10.939;34764.527
704.370;28698.594;  -12.859;34307.367
704.944;29071.172;  -11.559;33509.887
705.519;30315.385;   -7.939;31388.584
706.093;31566.758;  -10.499;31340.104
706.668;31558.600;  -11.289;32630.281
707.242;30178.537;  -11.509;32728.779
707.816;28602.438;   -9.639;32947.238
708.390;27196.139;  -11.429;33277.855
708.965;28356.461;  -11.869;33834.336
709.539;29279.295;  -11.689;33709.273
710.113;29797.020;  -10.478;33044.313
710.687;28819.678;  -10.228;31953.992
711.261;26404.037;  -13.698;30505.949
711.835;26146.811;  -13.378;30262.369
712.409;27164.846;   -9.698;31254.447
712.983;28615.693;  -11.898;32754.986
713.557;29412.244;  -15.138;34018.824
714.131;29365.154;  -14.098;34579.625
714.704;28642.105;   -9.958;33890.262
715.278;26243.338;  -10.028;33531.102
715.852;25737.781;  -11.148;33601.660
716.425;26649.096;   -9.068;33515.117
716.999;27174.797;  -10.038;33185.555
717.573;28345.045;   -9.798;33905.996
718.146;29623.939;  -12.378;35199.293
718.720;28901.195;  -11.918;35060.551
719.293;28144.172;   -8.088;34973.230
719.867;31000.074;  -10.888;36394.449
720.440;30823.748;  -11.938;36663.008
721.013;29371.977;  -12.818;35102.426
721.587;28083.402;  -10.298;33985.266
722.160;26420.840;  -10.048;33524.965
722.733;25312.842;  -12.108;32987.043
723.306;26016.932;  -10.818;33066.301
723.880;28221.957;   -8.908;33399.500
724.453;29836.631;   -9.878;33468.297
725.026;28714.824;  -11.188;33816.637
725.599;26327.004;  -11.678;32797.996
726.172;27044.914;   -9.618;33187.434
726.745;28502.529;   -8.258;35136.613
727.318;30260.139;  -12.978;35751.730
727.891;30760.223;  -12.148;35890.430
728.463;30533.857;   -8.968;34822.090
729.036;29455.248;  -10.188;32895.086
729.609;29552.994;  -11.788;31823.225
730.182;26236.715;  -11.788;31445.283
730.754;23807.975;  -10.268;32373.223
731.327;23834.695;   -9.998;33676.820
731.900;23994.355;  -12.228;33417.000
732.472;25459.080;  -13.848;31978.498
733.045;27532.143;   -8.698;30368.777
733.617;27513.217;  -10.607;30574.215
734.190;26866.975;  -11.507;31280.975
734.762;23831.426;  -13.647;31674.412
735.334;22357.521;   -9.767;31247.291
735.907;22951.959;   -9.897;29876.211
736.479;22618.176;  -11.637;29808.488
737.051;22180.230;   -9.567;30233.547
737.623;23624.139;   -8.187;31469.086
738.195;24942.416;  -11.187;31784.225
738.768;26852.477;  -12.337;32120.523
739.340;26392.189;  -12.227;32094.342
739.912;24904.000;  -11.057;31312.680
740.484;23910.484;  -10.207;31946.238
741.056;23072.232;  -10.047;32984.059
741.628;24867.996;  -13.627;33897.715
742.199;27295.600;   -7.177;33213.016
742.771;25570.592;  -10.797;31369.113
743.343;23033.818;  -11.997;31865.473
743.915;21872.502;  -12.867;32388.631
744.487;22096.766;   -7.617;31079.568
745.058;22293.598;   -9.557;30570.107
745.630;23063.846;   -9.877;29970.127
746.201;23833.371;  -14.177;29186.766
746.773;23901.281;   -9.237;28805.723
747.344;23804.045;   -9.847;29591.223
747.916;22530.162;  -11.657;31412.201
748.487;22586.820;  -10.587;32194.898
749.059;23896.047;   -8.707;32533.719
749.630;25060.115;  -10.537;32158.518
750.201;24268.156;  -11.687;30855.395
750.773;22557.457;  -11.647;28622.555
751.344;22499.059;   -7.147;28405.732
751.915;23302.725;   -9.757;28461.551
752.486;22245.688;  -12.427;27842.850
753.057;20001.197;  -12.227;27845.008
753.628;19101.752;  -10.417;27728.107
754.199;20478.145;  -11.767;27381.086
754.770;21663.365;  -11.187;25882.203
755.341;21610.584;  -10.507;25886.184
755.912;21683.801;   -9.387;26050.861
756.483;20898.416;  -10.647;26798.779
757.054;18902.584;  -11.837;27048.238
757.625;17671.990;  -12.716;26294.838
758.195;17611.119;   -9.666;26142.076
758.766;17359.648;   -8.656;26392.234
759.337;18276.895;  -12.856;26334.594
759.907;20296.934;  -13.366;27579.652
760.478;21122.643;   -8.576;28352.770
761.048;20400.168;  -10.526;27325.088
761.619;19603.400;  -11.116;26460.428
762.189;19581.338;  -12.136;26029.826
762.760;20773.766;   -9.456;26430.145
763.330;21854.520;   -7.136;26670.902
763.900;21079.240;  -11.786;26603.021
764.471;18236.410;  -11.546;25542.740
765.041;16971.795;   -8.096;24358.459
765.611;17243.391;   -8.876;23991.297
766.181;17805.518;  -12.196;24470.236
766.751;18643.820;  -11.636;24845.975
767.321;18440.840;  -10.156;24533.633
767.891;16324.471;  -11.766;24916.492
768.461;15736.562;  -14.936;24776.771
769.031;16225.227;  -12.356;24757.988
769.601;17853.891;   -7.526;24181.088
770.171;17789.170;  -10.766;23670.387
770.741;17003.469;  -13.176;22960.045
771.311;17320.947;  -10.616;22917.523
771.880;17611.115;   -9.576;23562.941
772.450;17089.178;  -10.336;24216.500
773.020;17072.289;  -13.516;24140.398
773.589;16727.736;  -13.466;24414.857
774.159;16278.720;   -8.686;23858.717
774.729;15859.855;   -9.476;22942.135
775.298;15321.890;  -13.666;22324.033
775.867;14947.082;  -11.716;21140.313
776.437;14924.670;   -9.906;20838.092
777.006;14505.724;  -12.166;20599.510
777.576;14469.950;  -12.356;20508.809
778.145;14833.869;  -11.646;20732.947
778.714;14746.996;   -8.226;21062.465
779.283;13882.042;   -9.556;20949.664
779.853;13458.967;  -14.116;20508.623
780.422;13872.622;  -11.506;20649.082
780.991;13467.704;   -9.556;21527.520
781.560;12463.238;   -9.095;22632.658
782.129;12241.862;  -12.135;23048.277
782.698;12215.651;  -10.865;23438.555
783.267;11875.370;   -9.335;23267.734
783.836;11896.210;  -11.045;22415.133
784.404;12863.567;  -13.865;20443.152
784.973;13189.957;  -13.095;19699.150
785.542;13057.000;  -11.575;19763.828
786.111;13009.857;   -9.705;20341.408
786.679;12594.899;  -12.105;20207.967
787.248;12342.761;  -12.455;19516.465
787.817;12103.063;  -11.535;18900.363
788.385;11613.386;   -9.765;17879.121
788.954;10967.611;  -14.005;17658.301
789.522;10562.393;  -11.955;17788.879
790.090;11165.357;  -10.135;18118.277
790.659;11521.327;  -10.975;18338.736
791.227;10911.056;  -13.375;18508.615
791.795;11394.194;  -12.375;17898.254
792.364;11759.543;  -10.725;17295.133
792.932;11967.224;   -9.715;16822.051
793.500;12184.457;  -12.675;17040.148
794.068;12514.870;  -13.495;17179.787
794.636;12637.637;  -10.885;16664.246
795.204;12172.341;  -11.045;16524.545
795.772;12176.412;  -13.175;17274.564
796.340;11654.327;  -12.445;17891.002
796.908;11476.196;   -9.735;17648.561
797.476;11459.541;   -9.815;17064.080
798.044;11047.964;  -13.985;16672.777
798.612;10198.599;  -13.115;17023.996
799.180; 9831.228;  -10.185;16561.615
799.747; 9724.647;   -9.055;15962.773
800.315; 9434.787;  -12.385;15296.992
800.883; 9060.927;  -15.035;14801.771
801.450; 8954.940;  -10.365;14534.430
802.018; 8967.581;   -9.855;14173.248
802.585; 9020.149;  -11.905;14029.547
803.153; 9114.085;  -11.585;13836.846
803.720; 9122.963;   -9.095;13567.324
804.287; 8842.872;   -9.135;13360.622
804.855; 8401.658;  -11.604;13681.981
805.422; 8213.377;  -11.794;13536.560
805.989; 8141.474;  -10.734;13355.958
806.556; 8308.891;  -10.444;13747.896
807.124; 8640.938;  -12.764;13987.376
807.691; 8581.223;  -12.964;14038.674
808.258; 8346.487;  -11.134;14120.152
808.825; 7975.548;   -9.854;13860.111
809.392; 8011.934;  -10.504;13268.790
809.959; 7577.009;  -13.054;12680.389
810.526; 7216.691;   -8.294;12427.308
811.093; 7306.467;   -8.394;12030.105
811.659; 7875.682;  -12.304;11653.664
812.226; 8251.372;  -13.944;11637.183
812.793; 7858.638;  -10.484;11611.521
813.360; 7208.781;  -10.144;11885.181
813.926; 6836.547;  -11.684;12770.539
814.493; 6596.813;  -13.644;12677.638
815.060; 6260.237;   -9.724;11974.336
815.626; 6350.438;   -9.854;11594.715
816.193; 6782.543;  -13.254;11579.474
816.759; 6835.463;  -13.204;11666.972
817.325; 6992.735;   -9.434;11325.530
817.892; 7360.224;  -10.134;11105.369
818.458; 7753.443;  -13.474;10843.928
819.024; 7385.572;  -11.854;10714.406
819.591; 7020.609;  -10.244;10469.165
820.157; 6764.023;  -10.704;10235.523
820.723; 6273.506;  -12.324;10847.563
821.289; 5986.965;   -9.444;11040.980
821.855; 5878.128;   -8.374;10357.100
822.421; 5858.945;  -10.234; 9978.918
822.987; 5802.303;  -13.294; 9754.177
823.553; 5503.241;  -10.884;10065.755
824.119; 5372.426;   -8.884;10036.294
824.685; 5467.171;   -6.784;10029.192
825.251; 5548.792;  -12.004;10199.230
825.816; 5498.563;  -11.474; 9820.189
826.382; 5298.364;   -9.174; 9297.248
826.948; 5538.078;   -9.214; 9381.347
827.513; 5915.422;  -10.774; 9450.726
828.079; 5705.698;  -11.924; 9472.444
828.645; 5174.580;  -10.543; 9292.643
829.210; 5108.586;  -10.533; 9065.341
829.776; 5065.224;  -10.753; 9132.620
830.341; 4909.451;  -10.173; 9092.878
830.906; 5089.717;  -10.743; 9078.557
831.472; 5444.982;  -11.113; 8534.535
832.037; 5175.257;  -10.603; 8677.874
832.602; 4599.974;  -13.323; 8628.692
833.167; 4295.910;  -10.823; 8879.031
833.733; 4252.067;  -10.113; 9189.790
834.298; 4350.641;  -13.583; 9052.608
834.863; 4338.981;  -12.703; 8895.087
835.428; 4302.283;  -10.523; 8824.266
835.993; 4258.531;   -6.963; 8845.385
836.558; 4171.452;  -10.763; 8888.563
837.123; 4305.393;   -9.903; 8966.582
837.688; 4491.052;   -9.913; 8617.860
838.253; 4658.921;  -10.283; 8590.699
838.817; 4863.333;  -12.963; 8443.797
839.382; 4793.776;  -14.243; 8799.356
839.947; 4482.658;  -10.733; 8810.595
840.511; 4172.978;   -9.383; 8796.394
841.076; 3819.395;  -12.563; 8347.231
841.641; 3880.385;  -12.953; 8224.330
842.205; 3967.239;   -7.043; 8223.349
842.770; 4099.486;   -8.163; 8622.107
843.334; 4356.762;  -12.503; 8410.386
843.898; 4391.337;  -11.693; 8337.465
844.463; 4424.526;  -10.203; 8506.283
845.027; 4157.204;   -9.533; 8280.962
845.591; 3941.040;  -13.443; 8231.141
846.156; 3934.803;  -13.143; 7969.179
846.720; 3809.328;   -9.433; 7768.278
847.284; 3668.322;  -11.033; 7630.957
847.848; 3487.037;  -10.403; 7472.395
848.412; 3383.970;  -11.553; 7437.394
848.976; 3432.558;   -8.393; 7674.592
849.540; 3397.085;   -8.713; 7836.011
850.104; 3505.307;  -12.463; 7913.669
850.668; 3841.395;  -12.973; 7694.508
851.232; 3950.204;  -10.793; 7756.887
851.796; 3770.441;  -10.662; 7926.545
852.359; 3455.521;  -13.082; 7827.844
852.923; 3311.133;  -12.192; 7641.163
853.487; 3149.199;  -11.912; 7342.501
854.050; 3068.633;  -10.892; 7042.820
854.614; 3186.516;  -13.992; 7151.338
855.177; 3292.768;  -11.732; 7105.077
855.741; 3350.329;   -8.962; 6989.675
856.304; 3254.839;   -9.442; 6596.634
856.868; 3185.249;  -14.192; 6356.272
857.431; 3307.761;  -12.702; 6468.571
857.995; 3423.625;   -9.942; 6373.210
858.558; 3438.374;   -9.112; 6324.448
859.121; 3179.505;  -12.932; 6408.327
859.684; 3072.803;  -13.442; 6347.886
860.247; 3197.161;  -10.632; 6321.264
860.810; 3171.336;  -11.272; 6301.903
861.374; 2915.956;   -9.832; 6607.881
861.937; 2662.333;  -11.762; 6408.200
862.500; 2641.115;   -9.722; 6572.639
863.062; 2808.031;  -10.512; 6387.297
863.625; 2992.939;  -11.232; 6190.836
864.188; 3165.613;  -14.112; 5807.254
864.751; 3227.529;  -11.302; 5682.413
865.314; 3110.401;  -10.112; 5547.492
865.876; 2934.448;  -12.182; 5500.150
866.439; 2948.910;  -10.722; 5415.909
867.002; 2899.478;   -9.252; 5501.567
867.564; 2664.899;   -9.572; 5413.946
868.127; 2431.224;  -13.142; 5160.325
868.689; 2345.804;  -12.902; 5133.183
869.252; 2275.448;   -9.732; 5252.382
869.814; 2188.827;   -9.432; 5297.141
870.377; 2208.974;  -11.552; 5390.919
870.939; 2293.307;   -9.052; 5599.898
871.501; 2347.929;  -10.982; 5248.336
872.063; 2348.217;  -12.292; 4854.235
872.626; 2307.690;  -14.912; 4817.074
873.188; 2317.607;  -13.112; 4987.732
873.750; 2277.396;  -13.442; 4868.651
874.312; 2196.693;   -9.402; 4779.330
874.874; 2110.501;  -11.062; 4866.348
875.436; 2030.937;  -13.931; 4718.887
875.998; 2020.634;   -9.561; 4660.005
876.560; 2023.561;  -11.321; 4462.964
877.122; 1962.938;  -12.221; 4145.042
877.683; 1874.934;  -12.191; 4056.481
878.245; 1827.021;  -12.101; 3950.740
878.807; 1938.893;   -8.971; 4058.958
879.369; 2081.970;  -12.071; 3954.677
879.930; 2070.046;  -14.621; 3941.495
880.492; 1956.476;  -10.311; 4067.014
881.053; 1680.995;  -10.901; 3859.633
881.615; 1246.072;  -14.411; 3776.071
882.176;  934.312;  -13.761; 3734.750
882.738;  829.754;   -9.181; 3678.489
883.299;  850.736;  -11.791; 3405.407
883.860;  917.003;  -13.121; 3351.106
884.422;  979.457;  -11.211; 3394.044
884.983;  996.440;  -10.091; 3166.443
885.544;  967.438;   -8.461; 3189.802
886.105;  942.127;  -12.361; 3160.360
886.666;  917.920;  -14.141; 3093.059
887.227;  891.134;  -11.361; 2941.957
887.788;  847.346;  -11.401; 2974.836
888.349;  800.481;  -13.791; 2721.214
888.910;  809.889;  -13.191; 2696.493
889.471;  825.846;   -9.881; 2560.172
890.032;  814.618;   -9.881; 2558.190
890.593;  794.352;  -10.371; 2567.669
891.153;  771.365;  -13.301; 2460.307
891.714;  727.079;  -11.431; 2372.046
892.275;  692.393;  -11.291; 2309.505
892.835;  656.049;  -11.471; 2382.543
893.396;  601.510;  -11.541; 2295.502
893.956;  546.922;  -11.181; 2162.420
894.517;  514.379;  -11.741; 2125.439
895.077;  512.287;  -11.671; 2086.978
895.638;  514.350;  -11.311; 2126.316
896.198;  485.610;   -9.831; 1838.275
896.758;  446.333;   -8.421; 1892.813
897.319;  414.921;  -12.351; 1792.232
897.879;  397.855;  -13.511; 1762.751
898.439;  371.786;  -12.001; 1661.149
898.999;  347.029;  -10.180; 1781.468
899.559;  337.875;  -12.030; 1703.347
900.119;  333.384;  -15.710; 1537.525
900.679;  331.251;   -8.900; 1638.384
901.239;  318.840;   -8.340; 1527.902
901.799;  308.529;  -13.910; 1456.441
902.359;  304.165;  -13.460; 1357.140
902.919;  296.124;  -11.490; 1331.118
903.479;  282.493;  -12.110; 1317.257
904.038;  261.916;  -11.720; 1262.595
904.598;  245.790;  -13.610; 1152.034
905.158;  241.962;  -11.040; 1240.893
905.717;  234.179;  -10.900; 1233.691
906.277;  223.763;  -15.080; 1217.330
906.836;  213.923;  -13.380; 1222.408
907.396;  207.025;  -10.780; 1193.047
907.955;  200.122;   -8.500; 1182.526
908.515;  194.782;  -12.760; 1099.364
909.074;  188.634;  -11.900; 1092.863
909.633;  182.308;   -8.950; 1069.121
910.192;  177.683;   -8.770; 1196.460
910.752;  172.464;  -12.390; 1029.960
911.311;  165.761;  -13.680; 1009.780
911.870;  163.086;  -12.370;  971.460
912.429;  161.240;  -10.900; 1094.080
912.988;  159.098;  -11.690; 1081.060
913.547;  154.420;  -13.240;  940.380
914.106;  150.786;  -11.990;  999.420
914.665;  149.059;   -9.990;  984.020
915.224;  148.860;  -12.880; 1035.760
915.782;  148.334;  -12.350;  922.560
916.341;  148.141;   -9.110; 1049.840
916.900;  145.631;   -9.270;  925.260
917.458;  143.324;  -13.240;  884.220
918.017;  143.671;  -13.550;  942.600
918.576;  143.257;  -12.320;  904.440
919.134;  140.829;  -11.490;  837.980
919.693;  139.191;  -13.670;  893.060
920.251;  137.760;  -15.470;  876.500
920.809;  136.436;  -11.290;  839.580
921.368;  135.985;  -10.210;  885.360
921.926;  135.474;  -12.140;  842.940
922.484;  133.777;  -13.080;  903.360
923.042;  133.674;  -11.720;  880.340
923.601;  136.614;   -7.480;  998.680
924.159;  134.453;  -11.570;  935.560
924.717;  131.266;  -13.840;  841.080
925.275;  130.985;  -10.640;  903.240
925.833;  131.662;  -11.540;  779.320
926.391;  131.780;  -12.960;  938.380
926.949;  130.011;  -14.130;  857.680
927.506;  130.642;  -11.750;  903.500
928.064;  130.776;  -10.250;  877.580
928.622;  129.238;  -13.030;  880.100
929.180;  129.127;  -13.400;  814.180
929.737;  130.884;  -10.700;  808.540
930.295;  135.048;  -10.070;  928.480
930.853;  135.754;  -11.960;  849.100
931.410;  136.981;  -13.120;  821.120
931.968;  135.680;  -10.770;  940.660
932.525;  135.885;  -10.680;  909.380
933.082;  135.877;  -13.130;  811.440
933.640;  136.924;  -13.210;  925.900
934.197;  135.372;  -11.060;  886.360
934.754;  135.409;   -9.580;  897.780
935.312;  138.711;  -14.000;  863.340
935.869;  143.558;  -10.710; 1012.980
936.426;  142.978;   -9.860;  872.800
936.983;  144.222;   -9.710;  889.020
937.540;  143.059;  -13.990;  838.280
938.097;  141.971;  -14.040;  940.120
938.654;  142.864;  -10.310;  898.860
939.211;  145.386;  -10.560;  952.480
939.768;  148.398;  -13.900;  915.420
940.324;  151.982;  -14.760;  904.200
940.881;  152.277;  -10.370;  878.500
941.438;  152.505;   -8.260; 1021.200
941.995;  148.966;  -12.540;  992.560
942.551;  146.216;  -14.670;  875.620
943.108;  146.691;  -10.450;  937.920
943.664;  149.213;  -10.750;  869.340
944.221;  153.104;  -11.550; 1088.140
944.777;  150.605;  -14.770;  869.680
945.334;  152.630;  -12.820;  884.840
945.890;  153.950;  -10.130;  946.480
946.446;  154.563;  -13.470;  947.020
947.003;  155.558;  -12.120;  964.940
947.559;  157.761;   -9.980; 1063.040
948.115;  157.074;   -9.080; 1026.540
948.671;  155.271;  -10.830;  967.300
949.227;  152.483;  -12.440;  859.560
949.783;  149.903;  -12.910;  858.900
950.339;  150.767;  -10.270;  991.000
950.895;  151.896;  -13.630; 1023.840
951.451;  151.093;  -15.100;  925.280
952.007;  152.085;  -11.330;  998.540
952.563;  153.500;  -10.580;  937.780
953.118;  152.565;  -13.440;  904.940
953.674;  151.323;  -12.710;  935.780
954.230;  151.292;  -10.350;  949.640
954.785;  149.111;   -9.190;  936.640
955.341;  147.062;  -11.200;  998.160
955.897;  145.527;  -16.560;  834.660
956.452;  146.436;  -12.570;  953.840
957.008;  145.532;   -7.970; 1083.640
957.563;  143.337;  -11.940; 1009.540
958.118;  137.978;  -13.450;  877.700
958.674;  139.832;  -12.030;  946.780
959.229;  140.910;   -9.410; 1013.980
959.784;  138.247;  -12.000;  832.400
960.339;  136.709;  -14.780; 1001.280
960.894;  132.011;   -9.860;  963.760
961.449;  128.788;   -9.970;  859.960
962.004;  129.185;  -10.900; 1212.840
962.559;  124.508;  -13.150;  860.140
963.114;  122.315;  -13.740;  742.480
963.669;  121.278;   -9.820;  915.500
964.224;  120.244;  -13.890;  874.340
964.779;  119.198;  -12.600;  828.420
965.334;  121.368;  -10.950; 1017.860
965.888;  120.258;  -11.170;  875.360
966.443;  122.930;  -12.540;  972.380
966.998;  120.630;  -15.780;  819.460
967.552;  120.807;   -9.760;  908.380
968.107;  116.533;   -9.060;  868.300
968.661;  117.527;  -11.950;  922.440
969.216;  118.324;  -12.800;  856.280
969.770;  118.958;  -11.210;  917.200
970.324;  117.314;  -11.610;  923.140
970.879;  114.482;  -11.370;  947.180
971.433;  111.115;  -12.540;  952.720
971.987;  105.753;  -11.320;  895.340
972.541;  102.321;  -10.720;  917.100
973.095;  103.475;   -9.680; 1009.460
973.649;  101.439;  -11.440;  809.480
974.203;  100.490;  -11.210;  829.040
974.757;  100.757;  -10.240;  855.220
975.311;  100.883;  -13.720;  872.600
975.865;  100.337;  -13.770;  881.820
976.419;   98.526;  -11.690;  857.400
976.973;   98.745;   -9.510;  849.620
977.526;  100.302;  -12.620;  949.920
978.080;  100.010;  -12.010;  796.780
978.634;  102.004;  -10.170;  921.320
979.187;   98.278;   -9.020;  905.400
979.741;   95.813;   -9.820; 1018.380
980.294;   91.299;  -14.870;  789.160
980.848;   89.013;  -12.380;  717.220
981.401;   91.303;  -10.350;  816.540
981.955;   93.623;  -13.720;  844.300
982.508;   91.879;  -11.490;  746.340
983.061;   91.858;  -10.000;  915.260
983.615;   89.375;  -11.480;  798.800
984.168;   86.099;  -13.220;  770.080
984.721;   85.177;  -13.960;  880.760
985.274;   84.274;  -10.870;  867.500
985.827;   83.102;   -9.790;  834.220
986.380;   81.443;  -13.120;  721.340
986.933;   79.870;  -12.450;  864.800
987.486;   77.416;  -10.210;  861.920
988.039;   76.511;   -8.430;  863.100
988.591;   75.263;  -10.520;  893.260
989.144;   72.564;  -14.860;  737.260
989.697;   71.467;  -13.080;  758.740
990.250;   72.826;  -10.150;  858.100
990.802;   72.277;  -13.430;  755.860
991.355;   72.888;  -12.750;  974.880
991.907;   70.550;  -12.040;  864.320
992.460;   68.213;  -11.330;  753.760
993.012;   67.093;  -13.610;  749.540
993.565;   66.180;  -13.460;  711.360
994.117;   67.788;   -9.360;  950.780
994.669;   63.876;  -11.300;  701.320
995.221;   62.057;  -13.540;  791.920
995.774;   60.374;  -13.430;  787.580
996.326;   58.674;  -12.520;  740.220
996.878;   59.157;  -10.950;  838.420
997.430;   56.465;  -14.300;  699.860
997.982;   55.491;  -13.760;  750.140
998.534;   54.852;  -11.530;  739.060
999.086;   53.902;  -10.310;  738.220
999.638;   52.748;  -12.530;  661.380
1000.190;   52.186;  -11.840;  699.320
1000.741;   51.441;  -10.260;  742.700
1001.293;   51.856;   -8.860;  686.020
1001.845;   49.684;  -13.700;  676.640
1002.396;   49.779;  -12.100;  743.400
1002.948;   49.183;  -12.760;  737.400
1003.500;   47.997;  -10.380;  723.780
1004.051;   48.549;  -11.900;  907.580
1004.603;   46.678;  -12.250;  791.820
1005.154;   43.263;  -13.210;  608.980
1005.705;   42.357;  -10.950;  723.960
1006.257;   42.015;  -13.880;  707.220
1006.808;   41.361;  -12.840;  685.460
1007.359;   40.411;  -10.570;  763.240
1007.910;   39.768;   -9.620;  646.640
1008.461;   39.900;  -13.630;  732.940
1009.013;   38.106;  -17.200;  588.340
1009.564;   39.589;  -10.200;  793.520
1010.115;   37.299;  -12.570;  597.040
1010.665;   36.883;  -15.150;  602.160
1011.216;   37.467;  -14.480;  667.920
1011.767;   36.637;  -11.340;  697.920
1012.318;   36.374;   -9.780;  736.980
1012.869;   35.989;  -12.380;  679.000
1013.419;   34.464;  -15.560;  603.120
1013.970;   35.090;  -11.010;  666.640
1014.521;   35.296;  -11.610;  620.620
1015.071;   35.383;  -13.450;  670.380
1015.622;   35.039;  -13.870;  635.460
1016.172;   33.228;  -11.610;  596.820
1016.723;   34.027;  -12.120;  614.380
1017.273;   32.976;  -13.620;  604.160
1017.823;   33.710;  -14.140;  650.340
1018.374;   32.747;  -12.800;  611.760
1018.924;   32.968;  -12.340;  716.880
1019.474;   33.200;  -11.410;  718.880
1020.024;   32.261;  -14.770;  657.580
1020.574;   31.989;   -9.780;  726.160
1021.124;   32.565;   -8.560;  673.580
1021.674;   31.715;  -15.190;  559.120
1022.224;   32.401;  -13.530;  708.940
1022.774;   31.915;  -13.280;  668.820
1023.324;   32.626;  -10.690;  753.520
1023.874;   34.124;  -10.240;  875.760
1024.423;   31.075;  -12.540;  613.700
1024.973;   30.102;  -10.010;  610.760
1025.523;   30.055;  -10.550;  620.960
1026.072;   29.994;  -13.560;  606.420
1026.622;   29.603;  -15.120;  675.740
1027.172;   30.069;  -11.260;  715.660
1027.721;   29.157;  -11.410;  601.220
1028.270;   29.710;  -13.530;  663.400
1028.820;   29.466;  -13.680;  638.080
1029.369;   28.637;  -13.520;  612.700
1029.918;   28.958;  -10.980;  649.840
1030.468;   28.864;  -13.530;  564.780
1031.017;   28.904;  -13.170;  634.800
1031.566;   27.198;  -12.200;  608.900
1032.115;   27.968;   -9.960;  694.500
1032.664;   27.265;  -13.210;  596.480
1033.213;   28.129;  -12.500;  735.420
1033.762;   27.998;  -11.910;  635.620
1034.311;   26.842;   -9.640;  677.220
1034.860;   27.376;  -13.310;  691.000
1035.408;   27.591;  -11.830;  722.720
1035.957;   27.909;  -12.000;  719.540
1036.506;   26.036;  -11.690;  530.800
1037.055;   28.004;  -10.990;  844.320
1037.603;   26.737;  -15.120;  664.000
1038.152;   24.999;  -12.450;  534.760
1038.700;   25.351;  -10.560;  585.740
1039.249;   25.440;  -11.080;  681.220
1039.797;   25.673;  -12.540;  633.360
1040.345;   25.437;  -11.920;  705.420
1040.894;   24.745;  -11.410;  625.300
1041.442;   24.380;  -14.320;  632.200
1041.990;   23.252;  -16.240;  559.160
1042.538;   23.592;  -11.680;  536.180
1043.087;   23.353;  -10.760;  570.860
1043.635;   25.066;  -11.850;  670.500
1044.183;   23.644;  -15.480;  586.400
1044.731;   23.259;  -11.770;  576.000
1045.279;   23.521;  -13.090;  674.920
1045.827;   25.266;  -12.440;  892.400
1046.374;   22.421;  -13.840;  515.420
1046.922;   21.771;  -13.220;  590.580
1047.470;   23.743;  -10.230;  691.300
1048.018;   23.439;  -14.590;  647.960
1048.565;   23.914;  -12.050;  708.600
1049.113;   22.089;  -11.650;  557.000
1049.660;   21.898;  -10.510;  629.660
1050.208;   22.209;  -13.310;  675.640
1050.755;   22.135;  -15.900;  606.580
1051.303;   22.299;  -11.430;  686.820
1051.850;   21.742;   -8.480;  635.120
1052.397;   19.522;  -15.010;  473.960
1052.945;   21.045;  -13.960;  617.760
1053.492;   22.061;  -13.150;  741.840
1054.039;   22.215;   -9.630;  720.180
1054.586;   20.289;  -13.680;  557.240
1055.133;   21.653;  -14.570;  693.140
1055.680;   20.976;  -13.820;  646.620
1056.227;   20.116;  -11.730;  542.780
1056.774;   21.982;  -12.480;  794.980
1057.321;   19.063;  -13.930;  523.260
1057.868;   19.576;  -11.690;  651.320
1058.415;   19.678;   -9.520;  651.980
1058.961;   19.592;  -13.160;  678.940
1059.508;   19.855;  -12.920;  643.820
1060.055;   19.558;  -11.920;  581.780
1060.601;   19.929;  -11.500;  624.300
1061.148;   19.600;  -14.330;  616.820
1061.694;   18.619;  -16.870;  592.580
1062.241;   19.591;  -10.330;  596.320
1062.787;   19.060;  -10.620;  663.140
1063.334;   20.359;  -10.110;  808.560
1063.880;   18.623;  -13.400;  668.360
1064.426;   19.121;  -10.680;  706.820
1064.972;   18.046;   -9.920;  601.340
1065.518;   16.955;  -10.980;  566.640
1066.065;   18.803;  -14.890;  624.460
1066.611;   17.570;  -12.870;  598.800
1067.157;   18.190;  -12.950;  641.860
1067.703;   17.749;  -13.540;  668.480
1068.249;   17.721;  -13.540;  605.220
1068.794;   17.387;  -12.600;  626.880
1069.340;   16.295;  -10.620;  578.960
1069.886;   17.720;  -12.830;  590.700
1070.432;   15.752;  -14.870;  541.720
1070.977;   15.527;  -11.980;  601.080
1071.523;   16.503;   -8.200;  573.060
1072.068;   16.440;  -12.330;  582.000
1072.614;   16.187;  -16.370;  527.760
1073.160;   16.499;  -11.100;  687.040
1073.705;   15.675;  -10.480;  572.520
1074.250;   15.148;  -14.520;  559.900
1074.796;   16.626;  -11.460;  655.160
1075.341;   16.612;  -11.950;  664.100
1075.886;   15.980;  -11.460;  594.240
1076.431;   15.445;  -13.770;  649.880
1076.976;   15.293;  -12.680;  639.220
1077.521;   15.158;  -13.170;  583.080
1078.067;   14.614;  -10.860;  579.400
1078.612;   14.980;  -13.920;  661.620
1079.156;   15.565;  -13.880;  601.540
1079.701;   14.892;  -13.120;  693.260
1080.246;   15.383;   -9.940;  696.300
1080.791;   15.083;  -14.740;  625.020
1081.336;   15.362;  -13.750;  659.320
1081.880;   14.833;  -13.400;  649.680
1082.425;   12.917;  -12.220;  573.480
1082.970;   15.202;  -11.610;  717.040
1083.514;   14.183;  -13.580;  597.000
1084.059;   13.012;  -12.810;  586.720
1084.603;   12.974;  -12.320;  565.840
1085.147;   14.076;  -13.190;  645.220
1085.692;   14.765;  -12.480;  716.800
1086.236;   12.341;  -13.020;  503.140
1086.780;   15.203;   -9.190;  751.440
1087.325;   14.081;  -12.480;  654.620
1087.869;   13.432;  -12.450;  610.700
1088.413;   13.459;  -12.240;  705.040
1088.957;   12.157;   -9.020;  543.400
1089.501;   13.518;  -10.320;  766.640
1090.045;   13.373;  -12.720;  726.480
1090.589;   10.955;  -13.690;  569.920
1091.133;   12.881;  -10.020;  673.340
1091.676;   12.906;  -12.330;  591.940
1092.220;   11.731;  -14.970;  600.920
1092.764;   12.590;  -12.430;  706.960
1093.307;   12.486;   -9.800;  673.780
1093.851;   10.710;  -14.970;  556.540
1094.395;   11.744;  -15.310;  683.140
1094.938;   11.186;  -10.370;  632.520
1095.482;   11.720;  -11.050;  559.800
1096.025;   12.151;  -11.840;  710.880
1096.568;   13.208;  -12.840;  779.280
1097.112;    9.511;  -14.700;  508.180
1097.655;   11.333;   -8.720;  603.000
1098.198;   10.223;  -13.610;  600.180
1098.741;    9.883;  -13.350;  612.860
1099.285;   11.608;  -11.230;  657.300
1099.828;    9.183;  -11.840;  439.400
1100.371;   10.868;  -10.840;  608.160
1100.914;   10.138;  -14.190;  682.660
1101.457;   10.616;  -11.240;  679.900
1101.999;    9.290;  -11.270;  584.680
1102.542;    9.322;  -11.480;  641.440
1103.085;    9.897;  -11.750;  658.500
1103.628;    9.855;  -11.400;  762.060
1104.170;    9.464;  -10.490;  588.280
1104.713;    9.947;  -10.600;  646.700
1105.256;    8.952;  -14.360;  557.440
1105.798;    8.089;  -13.210;  499.980
1106.341;   10.376;  -10.270;  728.900
1106.883;    8.948;  -12.200;  521.340
1107.425;    9.372;  -13.110;  668.180
1107.968;    9.281;  -12.840;  612.380
1108.510;    9.398;   -6.480;  684.960
1109.052;    7.957;  -13.940;  612.620
1109.594;    7.652;  -13.690;  554.440
1110.136;    8.971;  -11.880;  643.220
1110.679;    7.734;   -9.500;  633.080
1111.221;    7.869;  -14.160;  604.460
1111.763;    8.402;  -13.980;  559.220
1112.304;    7.835;  -13.880;  547.140
1112.846;    8.586;  -12.210;  666.240
1113.388;   10.637;  -11.390;  942.180
1113.930;    7.644;  -14.540;  694.200
1114.472;    7.434;  -12.640;  606.540
1115.013;    6.291;  -11.620;  551.280
1115.555;    6.805;  -13.640;  587.100
1116.097;    6.222;  -15.380;  579.480
1116.638;    6.826;  -12.640;  684.600
1117.180;    7.503;   -9.850;  667.740
1117.721;    6.765;  -13.690;  568.580
1118.262;    7.673;  -12.680;  677.960
1118.804;    7.494;  -12.530;  637.340
1119.345;    6.015;  -11.690;  578.400
1119.886;    7.471;  -13.380;  704.040
1120.427;    6.644;  -14.070;  589.020
1120.969;    5.385;  -13.500;  597.920
1121.510;    5.361;  -11.480;  563.060
1122.051;    7.009;  -12.830;  723.580
1122.592;    5.949;  -14.290;  655.420
1123.133;    4.585;  -12.400;  547.940
1123.673;    6.553;  -10.130;  706.480
1124.214;    6.109;  -12.930;  612.460
1124.755;    6.009;  -14.380;  639.460
1125.296;    6.027;  -14.000;  627.320
1125.836;    6.403;  -10.070;  691.500
1126.377;    5.210;  -12.640;  599.660
1126.918;    6.036;  -12.960;  614.980
1127.458;    4.841;  -13.350;  622.220
1127.999;    5.386;  -10.750;  656.980
1128.539;    6.021;  -12.350;  694.240
1129.079;    5.112;  -14.860;  632.720
1129.620;    3.569;  -13.840;  558.100
1130.160;    4.661;  -12.330;  539.480
1130.700;    5.125;  -14.530;  640.840
1131.240;    4.814;  -12.530;  643.700
1131.781;    4.678;  -14.450;  619.680
1132.321;    4.660;   -9.790;  599.120
1132.861;    3.412;  -14.860;  564.200
1133.401;    3.286;  -14.290;  593.940
1133.941;    4.117;  -11.750;  626.280
1134.481;    3.594;   -9.920;  597.580
1135.020;    3.606;  -12.290;  609.160
1135.560;    4.344;  -11.650;  674.940
1136.100;    3.192;  -16.270;  501.160
1136.640;    3.894;  -10.890;  510.480
1137.179;    3.178;  -14.180;  537.960
1137.719;    4.256;  -16.250;  605.400
1138.258;    3.163;  -14.230;  587.360
1138.798;    3.739;   -9.090;  663.780
1139.337;    2.498;  -15.130;  482.840
1139.877;    4.206;  -13.680;  642.360
1140.416;    4.717;  -11.320;  878.060
1140.955;    2.971;  -10.860;  535.380
1141.494;    2.513;  -12.920;  669.280
1142.034;    2.026;  -13.930;  583.520
1142.573;    3.281;  -11.440;  646.280
1143.112;    2.381;  -12.000;  553.480
1143.651;    2.995;  -13.670;  536.480
1144.190;    3.667;  -12.730;  691.640
1144.729;    1.932;  -14.560;  607.420
1145.267;    2.728;  -11.830;  584.900
1145.806;    2.919;  -12.230;  637.040
1146.345;    1.762;  -14.130;  635.020
1146.884;    1.520;  -11.590;  622.500
1147.422;    1.733;  -12.550;  533.060
1147.961;    3.140;  -11.180;  708.460
1148.500;    2.696;  -11.510;  669.720
1149.038;    3.142;  -11.640;  632.500
1149.577;    2.982;  -10.130;  698.640
1150.115;    0.623;  -13.970;  452.280
1150.653;    2.533;  -14.520;  607.340
1151.192;    2.346;  -12.810;  552.920
1151.730;    1.857;   -9.100;  652.560
1152.268;    0.952;  -12.220;  589.520
1152.806;    1.439;  -14.140;  571.180
1153.344;    0.717;  -12.350;  577.640
1153.882;    1.133;   -8.980;  600.060
1154.421;    0.062;  -15.190;  470.620
1154.958;    0.426;  -15.210;  595.240
1155.496;    1.685;  -12.850;  645.280
1156.034;    1.350;   -9.940;  721.880
1156.572;    2.531;  -13.570;  667.060
1157.110;    0.165;  -14.590;  473.940
1157.647;    1.012;  -13.030;  676.960
1158.185;   -0.072;  -12.140;  564.320
1158.723;   -1.048;  -14.390;  509.200
1159.260;    1.524;  -14.090;  701.700
1159.798;    0.854;  -11.920;  658.160
1160.335;    0.360;  -11.110;  631.820

