source_1
Integration time [ms]: 3468.598
Averaging Nr. [scans]: 10
Smoothing Nr. [pixels]: 0
Data measured with spectrometer [name]: 7414430SP
Wave   ;Sample   ;Dark     ;Reference
[nm]   ;[counts] ;[counts] ;[counts] 

288.544; 5217.544; 4983.385;    6.613
289.143; 4312.894; 4054.288;   14.216
289.742; 5563.887; 5296.867;   11.816
290.341; 5312.600; 5071.188;   -4.936
290.940; 4881.697; 4633.392;    0.852
291.538; 6112.333; 5870.872;    1.792
292.137; 5446.021; 5171.827;    6.262
292.736; 7019.400; 6773.389;    8.164
293.335; 4988.986; 4733.773;   -6.418
293.934; 5376.360; 5105.711;   -2.904
294.532; 7555.230; 7282.726;   -5.162
295.131; 5974.957; 5726.518;  -10.283
295.730; 5790.619; 5546.961;  -16.141
296.328; 5586.074; 5353.235;  -14.740
296.927; 5571.217; 5314.389;   -8.768
297.525; 5529.145; 5271.474;  -15.255
298.124; 4502.591; 4280.530;  -22.063
298.722; 5417.292; 5165.127;  -14.796
299.321; 4996.881; 4751.758;  -10.466
299.919; 5348.238; 5105.331;  -10.979
300.518; 4924.817; 4674.793;  -12.077
301.116; 4888.357; 4680.521;  -13.509
301.715; 5181.013; 4971.916;  -11.939
302.313; 5003.296; 4778.250;  -15.424
302.911; 5328.458; 5092.749;  -19.833
303.509; 6942.372; 6712.962;   -3.567
304.108; 5519.931; 5252.457;   -9.553
304.706; 5859.666; 5641.515;   -8.582
305.304; 5949.313; 5735.520;  -12.348
305.902; 5671.601; 5445.572;  -14.411
306.500; 5318.478; 5061.710;   -7.194
307.098; 5482.452; 5250.898;   -9.322
307.696; 5836.549; 5572.651;  -19.192
308.294; 5397.608; 5156.146;   -9.736
308.892; 5612.951; 5383.022;  -15.482
309.490; 5168.735; 4946.583;  -14.107
310.088; 5917.246; 5709.054;  -15.862
310.686; 6083.490; 5862.354;  -10.781
311.284; 5731.000; 5498.425;  -14.878
311.882; 5331.590; 5091.407;   -9.948
312.480; 5118.400; 4933.328;  -15.503
313.078; 6163.153; 5942.025;  -17.262
313.675; 5098.478; 4875.110;   -3.694
314.273; 6048.561; 5857.348;  -18.246
314.871; 4251.805; 4039.000;  -15.190
315.468; 4836.458; 4617.749;  -12.633
316.066; 5150.750; 4944.624;   -5.765
316.664; 4839.641; 4640.783;  -14.317
317.261; 7016.647; 6802.427;   -8.677
317.859; 5940.369; 5734.268;  -11.804
318.456; 6422.250; 6212.525;   -3.107
319.054; 6057.031; 5840.912;   -3.062
319.651; 5760.583; 5547.735;   -6.706
320.249; 6280.583; 6109.685;   -5.206
320.846; 5462.346; 5266.352;   -4.679
321.443; 6520.746; 6334.103;   -7.920
322.041; 6361.529; 6195.737;  -14.105
322.638; 5462.399; 5261.052;   -6.263
323.235; 5059.496; 4863.250;   -7.424
323.833; 5772.458; 5567.545;  -14.765
324.430; 4612.926; 4435.237;  -10.550
325.027; 6904.002; 6712.098;   -9.951
325.624; 4823.269; 4616.812;   -3.712
326.221; 5195.103; 4968.497;   -9.368
326.818; 6329.861; 6091.093;   -5.637
327.415; 5595.289; 5355.476;   -6.699
328.012; 5111.583; 4863.679;   -5.713
328.609; 5401.672; 5162.610;   -9.983
329.206; 5884.769; 5645.363;   -7.154
329.803; 5454.043; 5211.901;   -1.682
330.400; 5141.111; 4900.641;   -2.741
330.997; 6073.598; 5817.924;   -4.339
331.594; 5877.786; 5646.983;  -10.278
332.191; 5237.687; 4995.754;   -6.967
332.787; 6246.044; 5969.677;   -0.480
333.384; 5518.681; 5257.662;  -10.333
333.981; 6020.558; 5771.552;  -19.900
334.578; 5064.527; 4783.916;  -19.816
335.174; 5254.132; 4998.339;  -15.844
335.771; 6207.432; 5919.491;  -12.670
336.367; 5182.374; 4916.472;  -21.124
336.964; 5923.911; 5640.552;  -18.226
337.561; 5371.779; 5090.344;  -13.311
338.157; 6948.460; 6657.257;  -19.006
338.754; 5963.910; 5671.309;  -19.418
339.350; 5319.512; 5050.082;  -29.433
339.946; 5673.438; 5393.192;  -16.622
340.543; 6379.210; 6090.361;  -16.744
341.139; 5350.928; 5095.704;  -21.841
341.735; 5870.070; 5610.534;  -25.012
342.332; 5157.122; 4912.607;  -19.156
342.928; 5987.727; 5749.129;  -20.443
343.524; 5816.584; 5588.802;  -14.397
344.120; 5630.870; 5379.784;  -20.654
344.716; 5328.354; 5094.014;   -5.730
345.313; 6040.139; 5839.472;  -10.929
345.909; 4634.949; 4381.842;  -19.843
346.505; 5608.901; 5364.214;  -19.645
347.101; 6314.265; 6056.932;   -9.618
347.697; 5971.922; 5751.302;  -10.305
348.293; 4591.530; 4347.975;  -23.189
348.889; 5657.395; 5446.116;  -18.418
349.485; 5124.395; 4872.965;  -10.476
350.081; 5884.494; 5670.291;  -17.320
350.676; 5240.792; 5000.419;  -21.088
351.272; 6208.692; 5950.016;  -12.821
351.868; 5864.852; 5612.910;  -13.165
352.464; 5441.645; 5204.664;  -12.464
353.059; 4804.853; 4613.287;  -22.547
353.655; 5970.954; 5722.059;   -9.379
354.251; 5719.419; 5519.300;   -8.266
354.846; 5638.630; 5425.623;  -17.705
355.442; 5685.612; 5447.184;   -9.317
356.038; 5673.244; 5455.090;  -11.049
356.633; 5495.398; 5254.163;  -10.006
357.229; 5471.278; 5228.999;  -13.120
357.824; 5342.215; 5095.231;  -15.647
358.420; 5090.669; 4871.454;  -19.204
359.015; 5190.069; 4953.653;  -12.263
359.610; 5862.062; 5623.981;  -16.421
360.206; 4442.828; 4244.451;  -20.074
360.801; 4784.033; 4567.671;  -13.277
361.396; 5514.738; 5273.642;   -5.822
361.992; 5038.915; 4822.082;  -11.247
362.587; 5056.502; 4866.389;  -21.502
363.182; 5241.963; 5012.657;   -7.461
363.777; 5701.163; 5452.306;   -8.719
364.372; 5636.221; 5417.878;  -14.590
364.967; 5203.878; 4998.401;  -15.145
365.563; 6281.234; 6062.795;   -7.192
366.158; 5168.154; 4955.311;   -5.662
366.753; 4876.394; 4656.940;   -8.378
367.348; 5739.383; 5508.222;  -14.990
367.942; 5306.022; 5090.001;   -6.005
368.537; 5793.809; 5566.585;  -11.504
369.132; 5372.857; 5163.560;  -10.576
369.727; 4793.067; 4572.582;  -12.573
370.322; 4437.518; 4212.081;  -11.560
370.917; 5487.192; 5272.619;  -10.388
371.511; 6805.086; 6595.170;   -9.161
372.106; 6073.478; 5869.301;  -10.245
372.701; 4435.858; 4245.487;  -10.158
373.296; 6721.556; 6521.885;   -4.719
373.890; 4988.603; 4797.689;  -11.802
374.485; 5384.781; 5206.901;  -13.500
375.079; 5802.234; 5582.247;   -6.276
375.674; 6372.645; 6178.866;   -0.447
376.268; 5315.258; 5119.886;   -6.916
376.863; 4463.250; 4325.718;  -14.483
377.457; 5141.994; 4959.743;   -6.903
378.052; 5999.317; 5812.932;   -9.844
378.646; 5858.549; 5688.691;  -12.601
379.240; 5676.075; 5483.954;  -14.715
379.835; 5004.575; 4791.252;  -12.331
380.429; 4350.706; 4139.587;   -9.074
381.023; 6179.401; 6023.366;   -1.729
381.617; 5371.084; 5193.600;  -13.714
382.212; 5380.295; 5199.617;   -7.060
382.806; 6019.593; 5856.393;   -2.303
383.400; 5365.560; 5194.861;   -0.815
383.994; 5303.286; 5127.624;   -4.429
384.588; 5567.333; 5394.073;   -6.261
385.182; 5816.012; 5638.881;    0.008
385.776; 5688.130; 5545.624;   -3.247
386.370; 5420.184; 5300.699;   -1.030
386.964; 5495.069; 5324.055;   -1.346
387.558; 4729.201; 4587.712;   -2.020
388.152; 5486.993; 5338.543;   -5.345
388.745; 6614.336; 6478.322;   -2.774
389.339; 5926.729; 5769.749;    3.510
389.933; 5461.031; 5325.146;    5.280
390.527; 7037.375; 6889.151;    2.610
391.120; 4772.237; 4663.248;   -7.914
391.714; 5688.956; 5553.737;   -1.903
392.308; 6352.002; 6199.287;    6.023
392.901; 5188.763; 5082.758;   -4.103
393.495; 4838.113; 4713.759;    3.284
394.089; 6289.986; 6189.122;    8.655
394.682; 5742.654; 5610.813;    2.312
395.275; 5900.510; 5792.710;   -7.402
395.869; 5491.422; 5370.055;   -1.072
396.462; 5035.524; 4932.678;    6.454
397.056; 6332.845; 6202.715;    8.494
397.649; 6054.957; 5922.913;    1.599
398.242; 5858.399; 5768.239;    3.153
398.836; 6296.792; 6167.017;   11.395
399.429; 5120.785; 5014.096;   14.695
400.022; 5487.729; 5395.776;    3.627
400.615; 6713.089; 6618.121;    8.383
401.208; 5627.615; 5498.181;   13.295
401.802; 5781.314; 5681.382;    6.211
402.395; 5682.830; 5596.026;    7.227
402.988; 5740.688; 5664.872;    2.700
403.581; 5213.027; 5136.675;   11.225
404.174; 5547.979; 5480.048;   18.922
404.767; 5160.260; 5071.610;   14.169
405.360; 5161.626; 5064.078;    8.999
405.953; 6246.947; 6154.089;   13.138
406.545; 5991.415; 5915.479;   13.937
407.138; 5055.968; 4989.331;   10.869
407.731; 5052.121; 4971.279;   12.768
408.324; 5382.385; 5308.193;   22.921
408.917; 5636.112; 5555.781;   15.308
409.509; 6111.648; 6066.265;   12.239
410.102; 5349.019; 5291.206;   13.741
410.695; 5480.896; 5394.863;   20.249
411.287; 4971.066; 4872.253;   21.793
411.880; 4800.141; 4750.541;   22.965
412.472; 5057.672; 4994.453;   15.082
413.065; 5274.418; 5211.779;   23.423
413.657; 4759.821; 4700.924;   21.077
414.250; 5313.318; 5250.026;   12.349
414.842; 5592.663; 5521.505;   20.423
415.434; 4740.071; 4676.125;   19.906
416.027; 5328.241; 5250.987;   26.574
416.619; 5934.209; 5860.780;   15.705
417.211; 4918.357; 4856.906;   17.791
417.804; 5145.499; 5078.208;   30.244
418.396; 5051.706; 4972.632;   24.177
418.988; 5435.308; 5394.105;   24.904
419.580; 4684.282; 4639.345;   20.692
420.172; 4473.220; 4422.949;   22.275
420.764; 5479.886; 5436.114;   26.773
421.356; 5302.194; 5234.536;   25.731
421.948; 5551.805; 5520.057;   24.876
422.540; 5565.127; 5486.917;   30.042
423.132; 4918.899; 4874.056;   32.728
423.724; 4570.020; 4547.598;   21.317
424.316; 5124.728; 5074.269;   29.359
424.908; 4878.709; 4818.475;   28.798
425.500; 5300.953; 5270.527;   30.512
426.092; 5294.449; 5262.205;   26.741
426.683; 5733.153; 5674.779;   27.029
427.275; 5242.067; 5220.344;   32.611
427.867; 5408.361; 5381.797;   33.796
428.458; 6019.329; 5979.088;   34.453
429.050; 5593.393; 5560.808;   34.255
429.642; 6108.895; 6064.581;   39.082
430.233; 4507.238; 4497.833;   41.138
430.825; 6018.140; 5978.757;   31.581
431.416; 5726.385; 5693.486;   35.755
432.008; 5262.272; 5234.766;   40.566
432.599; 5298.493; 5254.004;   46.322
433.190; 5192.862; 5165.022;   46.897
433.782; 4568.082; 4558.587;   41.069
434.373; 7152.237; 7136.306;   48.778
434.964; 4831.652; 4799.398;   50.078
435.556; 5119.047; 5104.428;   52.381
436.147; 6140.535; 6134.034;   38.251
436.738; 5684.822; 5644.065;   47.237
437.329; 5799.122; 5767.012;   61.304
437.920; 5300.444; 5283.781;   48.611
438.511; 4495.082; 4484.836;   44.910
439.103; 4955.077; 4948.235;   62.404
439.694; 5464.557; 5438.619;   63.075
440.285; 5981.157; 5937.420;   61.033
440.876; 6884.364; 6875.643;   57.249
441.466; 4528.201; 4531.124;   61.306
442.057; 5279.608; 5215.991;   65.773
442.648; 6009.889; 5976.379;   65.676
443.239; 4940.946; 4920.651;   55.963
443.830; 5638.023; 5610.384;   69.631
444.421; 5165.904; 5137.718;   69.943
445.011; 5513.795; 5510.426;   72.791
445.602; 5913.033; 5907.933;   68.848
446.193; 3740.105; 3709.493;   80.044
446.783; 4938.079; 4895.904;   82.599
447.374; 5402.121; 5405.238;   77.419
447.964; 5672.269; 5641.364;   72.605
448.555; 6508.033; 6454.327;   82.041
449.145; 5195.500; 5148.146;   76.230
449.736; 6366.368; 6313.438;   75.545
450.326; 5592.875; 5572.809;   67.945
450.917; 5250.447; 5214.044;   77.598
451.507; 4624.089; 4629.224;   68.027
452.097; 5867.322; 5859.108;   67.771
452.688; 5757.219; 5714.359;   62.884
453.278; 4184.845; 4175.920;   65.512
453.868; 6275.053; 6226.240;   71.796
454.458; 5013.954; 4998.066;   60.956
455.048; 5523.816; 5505.911;   62.356
455.639; 4306.017; 4270.608;   58.782
456.229; 5480.280; 5442.075;   65.209
456.819; 5788.356; 5737.538;   61.466
457.409; 6007.411; 5988.460;   59.967
457.999; 5634.950; 5608.689;   58.093
458.589; 5172.359; 5144.935;   59.536
459.179; 5515.482; 5490.749;   55.994
459.769; 4720.848; 4700.417;   43.624
460.358; 6137.644; 6079.692;   46.978
460.948; 5227.353; 5199.387;   49.821
461.538; 4930.259; 4915.584;   54.678
462.128; 4996.280; 4979.425;   49.309
462.717; 5318.310; 5271.431;   52.774
463.307; 5314.296; 5279.012;   48.101
463.897; 4842.070; 4840.453;   45.606
464.486; 6466.435; 6435.799;   45.010
465.076; 5520.127; 5508.673;   45.519
465.666; 4764.202; 4710.358;   50.058
466.255; 5971.191; 5932.642;   44.463
466.845; 4860.077; 4845.475;   41.206
467.434; 5432.831; 5385.521;   44.847
468.023; 4744.258; 4736.857;   46.760
468.613; 5284.559; 5274.485;   39.736
469.202; 4688.127; 4667.222;   46.461
469.791; 5377.950; 5351.184;   47.944
470.381; 5380.029; 5350.895;   47.529
470.970; 5171.023; 5136.348;   43.773
471.559; 5390.329; 5390.396;   41.646
472.148; 4794.131; 4762.518;   37.914
472.738; 5554.852; 5495.057;   48.071
473.327; 4469.814; 4456.801;   47.871
473.916; 5333.179; 5287.146;   37.716
474.505; 5437.146; 5393.509;   40.256
475.094; 5925.896; 5865.358;   43.269
475.683; 5744.270; 5701.447;   36.499
476.272; 5170.572; 5158.572;   44.542
476.861; 4945.707; 4900.277;   42.297
477.449; 5107.159; 5016.748;   46.878
478.038; 4788.016; 4744.075;   35.156
478.627; 4945.446; 4943.110;   42.514
479.216; 5369.982; 5325.338;   43.937
479.805; 5412.949; 5371.653;   51.393
480.393; 7353.946; 7300.708;   53.239
480.982; 6252.884; 6238.065;   38.955
481.571; 6048.896; 6005.705;   45.436
482.159; 4662.023; 4618.991;   51.007
482.748; 5686.897; 5641.481;   49.695
483.336; 5952.360; 5872.924;   48.280
483.925; 5039.140; 4993.409;   47.166
484.513; 5027.821; 4970.040;   55.404
485.102; 5428.407; 5368.277;   54.238
485.690; 7083.377; 7009.038;   55.748
486.278; 6807.333; 6745.635;   55.934
486.867; 5294.799; 5215.002;   57.106
487.455; 6014.221; 5939.843;   56.979
488.043; 4671.369; 4629.218;   57.564
488.631; 6806.624; 6732.188;   57.432
489.220; 5927.013; 5888.118;   63.646
489.808; 4474.701; 4399.126;   65.449
490.396; 5871.157; 5816.073;   61.977
490.984; 5026.025; 4951.264;   68.834
491.572; 5896.248; 5823.526;   70.775
492.160; 5551.869; 5484.568;   67.564
492.748; 5117.578; 5103.664;   66.808
493.336; 5970.760; 5918.320;   79.747
493.924; 5141.913; 5054.267;   88.688
494.512; 5896.659; 5817.397;   84.120
495.100; 5727.025; 5691.016;   86.250
495.687; 6082.546; 6014.601;  103.074
496.275; 4954.618; 4878.941;  108.717
496.863; 5124.934; 5065.160;  107.035
497.451; 5045.780; 5034.038;  117.993
498.038; 5362.432; 5313.558;  120.116
498.626; 5161.918; 5086.890;  143.059
499.214; 5522.633; 5471.485;  153.434
499.801; 5359.313; 5322.221;  175.121
500.389; 4418.855; 4364.446;  185.617
500.976; 5644.545; 5544.377;  215.789
501.564; 5416.706; 5330.850;  240.321
502.151; 3905.916; 3852.220;  267.007
502.738; 5091.704; 5027.823;  317.961
503.326; 5206.639; 5129.429;  361.216
503.913; 5433.293; 5378.604;  401.433
504.500; 5571.155; 5530.499;  446.492
505.088; 4786.590; 4710.506;  512.063
505.675; 5223.344; 5123.102;  586.387
506.262; 5160.660; 5085.023;  671.021
506.849; 5283.059; 5209.396;  759.062
507.436; 5995.898; 5891.975;  849.788
508.023; 5261.568; 5196.791;  944.288
508.610; 5855.554; 5784.424; 1020.690
509.197; 5635.219; 5582.570; 1089.052
509.784; 5326.387; 5220.757; 1133.776
510.371; 4444.933; 4366.182; 1165.501
510.958; 5409.549; 5338.453; 1251.735
511.545; 6231.861; 6150.146; 1350.248
512.132; 5296.604; 5223.521; 1525.945
512.719; 4752.793; 4663.104; 1834.933
513.305; 4888.231; 4822.911; 1965.349
513.892; 6148.438; 6074.784; 1963.265
514.479; 5423.613; 5352.118; 2046.446
515.066; 5955.051; 5865.174; 2252.803
515.652; 5412.068; 5316.741; 2567.247
516.239; 5751.396; 5688.453; 2636.919
516.825; 4520.413; 4440.519; 2482.304
517.412; 6660.384; 6569.657; 2427.031
517.998; 5191.960; 5124.672; 2540.463
518.585; 5108.616; 5041.720; 2609.007
519.171; 5441.613; 5357.517; 2842.088
519.758; 4634.189; 4527.980; 3090.703
520.344; 5883.188; 5801.957; 3176.076
520.930; 4731.428; 4660.865; 3295.037
521.516; 5659.825; 5568.661; 3500.959
522.103; 6214.521; 6109.140; 3736.704
522.689; 5134.137; 5046.509; 3971.022
523.275; 6018.466; 5921.020; 4213.778
523.861; 5230.566; 5141.817; 4190.361
524.447; 5991.250; 5895.449; 4070.602
525.033; 6067.925; 5969.365; 4088.892
525.619; 4906.410; 4824.573; 4416.851
526.205; 4585.857; 4522.824; 4836.835
526.791; 5142.874; 5080.638; 4885.903
527.377; 4977.901; 4886.777; 4544.907
527.963; 5465.543; 5357.608; 4321.995
528.549; 5543.898; 5471.029; 4473.979
529.135; 4889.583; 4799.785; 4788.663
529.721; 5402.504; 5289.275; 4888.577
530.306; 7230.998; 7149.079; 4775.779
530.892; 5112.184; 5035.210; 4793.906
531.478; 5021.899; 4910.001; 4956.948
532.063; 4772.604; 4698.426; 5136.936
532.649; 6560.710; 6475.575; 5336.867
533.235; 4799.295; 4710.380; 5748.092
533.820; 6117.309; 6033.095; 6456.875
534.406; 5215.717; 5133.546; 6590.167
534.991; 4833.045; 4744.730; 6179.622
535.576; 5263.848; 5152.528; 6098.691
536.162; 7286.110; 7175.622; 6441.234
536.747; 4600.963; 4500.724; 6816.224
537.333; 4873.866; 4772.972; 6889.752
537.918; 5264.022; 5181.318; 7154.280
538.503; 4969.277; 4867.438; 7150.848
539.088; 5522.840; 5444.059; 7253.308
539.673; 5098.915; 5018.697; 7625.180
540.259; 4946.287; 4832.009; 8226.793
540.844; 4351.325; 4250.265; 8745.092
541.429; 6455.521; 6360.395; 8762.553
542.014; 4511.869; 4420.172; 8871.497
542.599; 5542.178; 5417.014; 8886.008
543.184; 4671.899; 4561.306; 9079.139
543.769; 4947.416; 4844.123; 9076.182
544.354; 5101.446; 4998.507; 8354.081
544.938; 5523.402; 5396.553; 8236.809
545.523; 6433.228; 6326.764; 8222.179
546.108; 5287.500; 5217.730; 8114.082
546.693; 5271.352; 5178.206; 8535.912
547.278; 5282.192; 5181.683; 9238.322
547.862; 5252.107; 5151.523; 9034.405
548.447; 5935.051; 5833.480; 7795.011
549.031; 5096.555; 5019.655; 7485.099
549.616; 5496.333; 5383.887; 7626.308
550.201; 4974.872; 4859.369; 7627.909
550.785; 5754.517; 5618.947; 7859.125
551.370; 4653.937; 4519.063; 7990.654
551.954; 5917.934; 5785.114; 8196.468
552.538; 5805.528; 5663.715; 7959.495
553.123; 4985.864; 4862.699; 7964.826
553.707; 5144.748; 5038.385; 8515.957
554.291; 6174.048; 6054.031; 8724.024
554.876; 5855.135; 5747.388; 8524.211
555.460; 4994.146; 4892.509; 8704.456
556.044; 4929.008; 4828.855; 9141.473
556.628; 5327.646; 5202.608; 9250.197
557.212; 6064.013; 5944.873; 9444.237
557.796; 5174.002; 5082.906; 9379.783
558.380; 5559.587; 5466.216; 9353.658
558.964; 5463.827; 5321.742; 9210.310
559.548; 4610.143; 4477.608; 8475.153
560.132; 5128.211; 4982.252; 7954.084
560.716; 4702.914; 4593.302; 7489.529
561.300; 4652.389; 4507.485; 7211.952
561.884; 5765.360; 5581.377; 7141.313
562.467; 5652.498; 5549.185; 7155.386
563.051; 5325.917; 5185.900; 7323.158
563.635; 5249.946; 5099.010; 7709.114
564.219; 5323.591; 5166.236; 7678.855
564.802; 5710.867; 5563.201; 7376.187
565.386; 5428.776; 5259.096; 7054.372
565.969; 6236.745; 6057.083; 6589.196
566.553; 6794.252; 6654.257; 6279.371
567.136; 6127.991; 5988.439; 5967.930
567.720; 5418.112; 5255.929; 5660.703
568.303; 5635.485; 5455.691; 5648.615
568.887; 5470.426; 5286.245; 5618.443
569.470; 5613.664; 5440.454; 5411.875
570.053; 5835.102; 5667.810; 5149.274
570.637; 5014.808; 4787.553; 5122.798
571.220; 5958.943; 5681.210; 4957.369
571.803; 6888.573; 6635.300; 4933.018
572.386; 5290.570; 5055.450; 4840.973
572.969; 5306.535; 5062.691; 4592.886
573.552; 5447.175; 5157.522; 4348.387
574.135; 4931.047; 4658.188; 4002.290
574.718; 5145.277; 4835.171; 3654.773
575.301; 5159.622; 4821.937; 3502.288
575.884; 5173.967; 4808.703; 3349.803
576.467; 6359.813; 5951.329; 3191.403
577.050; 5865.996; 5439.763; 3062.418
577.633; 7008.579; 6480.844; 3214.200
578.216; 5650.038; 5073.692; 3284.889
578.799; 5687.258; 5071.508; 3189.777
579.381; 7365.720; 6697.000; 3064.502
579.964; 5571.547; 4809.335; 2888.357
580.547; 6216.228; 5371.672; 2905.760
581.129; 7094.617; 6197.255; 2966.849
581.712; 6494.488; 5529.845; 2887.292
582.294; 6397.093; 5301.864; 2771.631
582.877; 7983.943; 6756.813; 2711.602
583.459; 6610.371; 5236.528; 2577.049
584.042; 6687.147; 5150.640; 2454.707
584.624; 6383.373; 4768.103; 2305.893
585.206; 5959.806; 4114.883; 2189.546
585.789; 6975.997; 4948.339; 2112.577
586.371; 7615.809; 5531.035; 2153.065
586.953; 7968.400; 5740.188; 2197.806
587.536; 8584.338; 6109.292; 2105.489
588.118; 7825.821; 5140.732; 1963.911
588.700; 9213.190; 6115.244; 1843.179
589.282; 9161.934; 5567.221; 1813.834
589.864; 9355.021; 5353.828; 1777.620
590.446; 8774.407; 4281.861; 1733.780
591.028;10269.934; 5306.373; 1676.008
591.610; 9516.894; 4363.441; 1631.649
592.192;10683.021; 5368.327; 1632.362
592.774;10275.786; 4705.171; 1569.507
593.356;10970.662; 4906.636; 1524.539
593.937;11515.159; 4876.733; 1569.720
594.519;12962.609; 5891.684; 1569.049
595.101;12202.166; 4415.508; 1545.452
595.683;13545.657; 4950.863; 1607.568
596.264;14791.985; 5184.795; 1615.506
596.846;15221.723; 5034.453; 1667.622
597.427;15662.789; 4882.123; 1670.469
598.009;16479.105; 4818.189; 1640.312
598.591;17860.615; 5743.932; 1541.022
599.172;17726.902; 5070.064; 1598.665
599.753;17968.705; 4544.065; 1619.068
600.335;19990.244; 6136.621; 1548.612
600.916;19616.789; 5220.222; 1607.510
601.498;21019.178; 5512.527; 1745.181
602.079;22417.436; 5267.174; 1801.011
602.660;23577.471; 5161.532; 1834.640
603.241;23376.672; 4183.903; 1787.351
603.823;24627.955; 4952.837; 1684.266
604.404;24278.557; 4586.540; 1654.241
604.985;24672.418; 4963.834; 1758.741
605.566;26192.477; 5787.352; 1697.679
606.147;27186.305; 5119.091; 1526.728
606.728;28152.236; 4563.777; 1484.086
607.309;29808.490; 4904.498; 1421.070
607.890;29951.887; 4984.097; 1369.867
608.471;30644.428; 4801.079; 1277.826
609.051;31927.580; 5385.582; 1180.416
609.632;33138.117; 4723.337; 1075.816
610.213;36031.844; 5155.071; 1053.313
610.794;37251.395; 4975.971;  979.442
611.374;38399.668; 5465.109;  917.414
611.955;37716.484; 4470.179;  819.987
612.536;40575.195; 5384.845;  752.627
613.116;41865.973; 4959.033;  690.799
613.697;41749.539; 4885.601;  674.974
614.277;41654.207; 4738.818;  663.846
614.858;41029.188; 4877.575;  665.898
615.438;40226.152; 5227.542;  660.712
616.019;40408.547; 6137.323;  632.732
616.599;38700.059; 4113.567;  551.759
617.179;41061.223; 4594.608;  512.871
617.760;44607.309; 6911.514;  473.655
618.340;42976.016; 5155.940;  440.004
618.920;44964.324; 6328.034;  429.731
619.500;45697.168; 5015.039;  441.361
620.080;45225.344; 4725.700;  425.202
620.660;45671.387; 4711.282;  408.164
621.241;46912.496; 5022.023;  387.161
621.821;48364.043; 5282.726;  378.017
622.401;48119.094; 5863.925;  379.188
622.980;45882.383; 4482.932;  350.019
623.560;46132.676; 5026.484;  336.446
624.140;44606.355; 5298.343;  336.473
624.720;42544.219; 5462.688;  334.974
625.300;41515.672; 4728.110;  325.717
625.880;42788.176; 5147.411;  308.519
626.459;45607.020; 5201.913;  307.117
627.039;46771.734; 4350.832;  290.890
627.619;51035.996; 6638.576;  286.635
628.198;51717.160; 5951.995;  282.535
628.778;52832.816; 5586.238;  285.474
629.357;49939.691; 4542.902;  284.103
629.937;48876.254; 4978.398;  292.178
630.516;50451.887; 6239.056;  290.749
631.096;49502.945; 4804.599;  285.489
631.675;49950.078; 6131.162;  287.022
632.254;48448.930; 4798.861;  286.038
632.834;47472.434; 5153.383;  276.451
633.413;47837.410; 6110.794;  279.447
633.992;46983.719; 5855.117;  264.508
634.571;47117.488; 5609.308;  271.010
635.151;48378.945; 4691.204;  277.338
635.730;49060.262; 5087.243;  289.305
636.309;48986.164; 5521.918;  285.306
636.888;48810.242; 5605.305;  254.051
637.467;45668.141; 4264.982;  230.324
638.046;47315.801; 6252.648;  253.349
638.625;46533.387; 6001.558;  246.866
639.204;46057.395; 5370.055;  240.825
639.782;47828.574; 5208.692;  261.970
640.361;47635.496; 6048.680;  277.780
640.940;46285.168; 4878.755;  270.101
641.519;45866.840; 5450.881;  248.622
642.097;46720.715; 5568.007;  239.843
642.676;47429.785; 5261.282;  244.264
643.255;47546.457; 5050.108;  234.985
643.833;50154.730; 5615.533;  244.406
644.412;50104.203; 4987.809;  244.927
644.990;49979.477; 5280.984;  249.948
645.569;49729.148; 5544.160;  249.569
646.147;49697.918; 5836.085;  243.290
646.726;47669.691; 5366.811;  249.511
647.304;47053.465; 4997.137;  228.032
647.882;44485.336; 4258.813;  214.552
648.461;44461.910; 5371.288;  214.973
649.039;45457.582; 5608.514;  223.394
649.617;45007.453; 5628.339;  261.415
650.195;44901.527; 5371.365;  298.736
650.773;44553.301; 4960.740;  309.557
651.352;43590.371; 4143.216;  297.978
651.930;41921.945; 4130.991;  289.399
652.508;43502.016; 5723.267;  285.620
653.086;43027.789; 5507.692;  272.241
653.663;41707.660; 4796.918;  265.062
654.241;41041.531; 4490.293;  286.083
654.819;42035.805; 4615.369;  286.404
655.397;44241.180; 4690.295;  291.825
655.975;45767.750; 5048.920;  299.145
656.553;47247.121; 6218.846;  288.866
657.130;45907.297; 4657.571;  304.087
657.708;44734.066; 5433.847;  302.908
658.286;44109.641; 5296.923;  294.629
658.863;45218.113; 5324.798;  293.350
659.441;45273.383; 5389.874;  318.671
660.018;43430.656; 5097.750;  333.692
660.596;42244.930; 4200.725;  335.013
661.173;42586.102; 4901.000;  371.534
661.750;42019.773; 4702.626;  365.155
662.328;43530.945; 5587.202;  349.976
662.905;41894.820; 4940.777;  332.997
663.482;41005.891; 5083.353;  321.717
664.060;41370.262; 4771.229;  314.438
664.637;42274.336; 5588.704;  306.259
665.214;43074.809; 5335.729;  314.580
665.791;43275.879; 5032.305;  334.501
666.368;42955.152; 4959.781;  329.222
666.945;44281.125; 5684.906;  342.143
667.522;44051.797; 4717.682;  370.964
668.099;44910.469; 5091.607;  396.885
668.676;44530.344; 5118.883;  391.706
669.253;45148.816; 6240.458;  369.627
669.830;44210.387; 6020.684;  360.348
670.407;44112.160; 5106.160;  344.769
670.984;44767.332; 5086.335;  322.890
671.560;44634.605; 5574.311;  316.910
672.137;43169.277; 4961.736;  322.531
672.714;43954.750; 5467.362;  318.552
673.290;44764.320; 5373.288;  324.473
673.867;45337.395; 4833.513;  340.594
674.443;45673.566; 4531.489;  319.515
675.020;45727.039; 5309.114;  286.336
675.596;44440.910; 5018.040;  247.557
676.173;44108.281; 4451.815;  227.778
676.749;44695.254; 3922.141;  224.399
677.326;45922.227; 4368.667;  230.520
677.902;47327.801; 4774.042;  241.841
678.478;49012.074; 4461.667;  239.762
679.054;52703.246; 7564.293;  248.583
679.631;48998.918; 5430.918;  237.503
680.207;48780.289; 6464.444;  245.924
680.783;46590.461; 4093.020;  224.845
681.359;49663.535; 5083.095;  209.666
681.935;51426.309; 5235.421;  191.687
682.511;50864.777; 5215.347;  210.008
683.087;49425.652; 5486.172;  213.329
683.663;48066.926; 4989.798;  216.850
684.239;47604.996; 4471.173;  229.471
684.815;50287.668; 5717.749;  248.792
685.390;50900.543; 6583.324;  231.813
685.966;48757.813; 5212.300;  221.234
686.542;49253.984; 4601.525;  214.255
687.118;52391.258; 5305.601;  212.276
687.693;53628.332; 5532.626;  233.096
688.269;52996.902; 5006.652;  246.917
688.844;53580.477; 5451.178;  236.938
689.420;52305.949; 5201.003;  242.059
689.995;51756.621; 6343.929;  245.480
690.571;51110.793; 6073.555;  244.701
691.146;51146.664; 4956.180;  251.922
691.722;52614.637; 5407.605;  284.743
692.297;52974.508; 4926.881;  320.664
692.872;53898.582; 4713.607;  313.885
693.448;54069.355; 4582.982;  290.106
694.023;56327.328; 5245.058;  304.327
694.598;58052.500; 5270.083;  319.648
695.173;55811.770; 4924.559;  323.169
695.748;53044.145; 4215.834;  376.389
696.323;53880.816; 5105.660;  397.610
696.898;55528.590; 5950.936;  430.231
697.473;54344.961; 4299.711;  454.952
698.048;57460.133; 4971.887;  478.973
698.623;58304.906; 4452.513;  477.094
699.198;58556.180; 5220.988;  496.915
699.773;57852.148; 4741.614;  490.236
700.348;56637.922; 4612.189;  519.957
700.922;58276.695; 5259.115;  575.678
701.497;59309.766; 5148.090;  621.399
702.072;58905.340; 5743.716;  664.420
702.646;57999.813; 5594.742;  690.541
703.221;56538.586; 5313.967;  748.862
703.795;54826.559; 4632.393;  774.282
704.370;52940.430; 3778.718;  799.803
704.944;54154.500; 4895.394;  875.824
705.519;56660.074; 5308.319;  902.945
706.093;58042.445; 4681.495;  889.266
706.668;58387.918; 5455.021;  903.487
707.242;58945.992; 5654.146;  881.708
707.816;58158.863; 4947.872;  892.329
708.390;57465.234; 5124.697;  970.250
708.965;56666.508; 5301.323;  984.671
709.539;56697.582; 4990.148; 1026.092
710.113;57173.352; 5207.074; 1067.913
710.687;56446.824; 5640.149; 1166.434
711.261;54579.199; 4559.725; 1190.854
711.835;55760.871; 4612.951; 1197.275
712.409;57862.844; 4253.726; 1308.096
712.983;58030.816; 4290.602; 1461.617
713.557;57934.086; 4282.777; 1611.838
714.131;57712.359; 5013.153; 1554.359
714.704;55815.133; 4634.329; 1520.780
715.278;57294.805; 5144.154; 1575.101
715.852;58801.875; 5585.030; 1689.822
716.425;60191.848; 6407.255; 1829.143
716.999;57331.023; 4212.281; 2008.664
717.573;57337.094; 5429.156; 2000.485
718.146;58427.066; 6262.982; 1914.506
718.720;59808.738; 5259.257; 1818.026
719.293;61577.109; 5467.333; 1734.147
719.867;60409.184; 4764.059; 1716.968
720.440;61428.254; 6015.034; 1918.589
721.013;60236.930; 4811.760; 1975.410
721.587;58479.500; 4299.285; 2073.331
722.160;58578.672; 5726.411; 2357.852
722.733;57277.445; 5173.437; 2657.073
723.306;55383.020; 5141.112; 2703.894
723.880;54490.289; 5249.688; 2549.415
724.453;56246.961; 5992.313; 2414.336
725.026;55560.836; 4835.539; 2298.557
725.599;55822.207; 5329.164; 2168.778
726.172;54483.578; 5443.940; 2106.099
726.745;54356.051; 5378.465; 2253.320
727.318;55955.223; 5725.491; 2404.740
727.891;57707.598; 5322.967; 2680.161
728.463;57199.570; 5295.292; 2838.882
729.036;55078.141; 4689.868; 2755.103
729.609;54617.813; 4626.493; 2731.824
730.182;56781.387; 5631.519; 2855.645
730.754;56508.758; 3903.344; 2946.866
731.327;58357.629; 5446.720; 2840.187
731.900;56774.305; 4321.945; 2647.608
732.472;58561.176; 5046.071; 2473.929
733.045;61305.148; 4950.497; 2445.750
733.617;59824.621; 4246.672; 2511.771
734.190;60311.691; 5419.898; 2581.592
734.762;60344.363; 5102.974; 2710.813
735.334;60655.238; 5176.299; 3005.733
735.907;60265.609; 5168.075; 3154.954
736.479;61139.281; 5842.250; 3171.675
737.051;60505.754; 5445.776; 3217.496
737.623;61342.828; 5507.851; 3246.217
738.195;59755.500; 4769.227; 2985.238
738.768;57756.172; 4023.802; 2727.559
739.340;58555.742; 4860.628; 2666.880
739.912;57983.516; 5603.554; 2769.601
740.484;56623.891; 5436.879; 2731.422
741.056;56162.160; 4970.305; 2963.043
741.628;56274.332; 4624.780; 3361.364
742.199;57392.406; 5959.956; 3641.185
742.771;56906.180; 4440.481; 3932.005
743.343;58368.352; 4653.057; 4319.926
743.915;58809.922; 5345.033; 4706.647
744.487;60458.395; 5489.258; 4874.968
745.058;61598.469; 5553.984; 4616.589
745.630;61225.539; 5518.659; 4253.410
746.201;60687.914; 4827.835; 4056.131
746.773;60333.086; 5459.160; 3772.952
747.344;59418.156; 5104.136; 3642.473
747.916;58682.930; 5270.111; 3752.294
748.487;59512.602; 5635.887; 4106.215
749.059;59017.773; 4506.013; 4457.835
749.630;59274.746; 4721.138; 4366.457
750.201;60596.020; 5102.164; 4600.078
750.773;59648.793; 4777.889; 4658.499
751.344;59750.164; 5161.865; 4609.319
751.915;59066.438; 5092.241; 4526.440
752.486;58635.508; 4694.116; 4536.061
753.057;59249.781; 5222.992; 4383.282
753.628;59987.652; 4686.817; 4296.503
754.199;61306.227; 4885.593; 4383.224
754.770;62291.098; 5480.368; 4653.545
755.341;60654.969; 5749.894; 4831.666
755.912;58108.145; 4999.419; 4831.387
756.483;58533.414; 5448.545; 4735.808
757.054;57035.688; 4883.271; 4685.029
757.625;55322.762; 4503.046; 4994.250
758.195;57080.031; 4325.572; 5051.471
758.766;58903.906; 5270.748; 5317.792
759.337;57400.777; 4280.773; 5646.512
759.907;56512.750; 4342.999; 5404.133
760.478;57353.320; 4789.124; 5090.954
761.048;57499.195; 5493.399; 4871.175
761.619;57114.066; 5362.475; 4589.396
762.189;57271.641; 5069.951; 4171.317
762.760;56530.813; 5565.626; 3872.538
763.330;56018.184; 5503.752; 3832.259
763.900;55526.758; 5284.328; 4150.180
764.471;54013.527; 4638.003; 4529.801
765.041;54524.000; 5847.179; 4715.922
765.611;53704.871; 5437.304; 4681.442
766.181;53732.844; 5039.780; 4717.063
766.751;54677.918; 5119.005; 4710.285
767.321;54262.488; 4448.131; 4450.305
767.891;54109.063; 5204.557; 4274.126
768.461;53662.234; 5037.032; 4215.047
769.031;53338.406; 5077.508; 4173.068
769.601;54122.781; 5778.733; 4174.689
770.171;53006.652; 4328.109; 4229.310
770.741;52867.824; 4911.034; 4352.031
771.311;53080.598; 5448.910; 4336.652
771.880;52122.367; 4618.485; 4300.873
772.450;52735.441; 4677.311; 4387.194
773.020;53089.516; 4289.887; 4220.415
773.589;52496.285; 4754.562; 4075.835
774.159;52072.957; 4800.438; 4105.756
774.729;51623.730; 4720.813; 4114.978
775.298;52426.402; 4759.439; 3693.298
775.867;51698.477; 4757.714; 3343.119
776.437;52169.047; 5131.040; 3062.040
777.006;51182.020; 4302.866; 2927.161
777.576;51278.895; 5446.941; 3046.482
778.145;50764.164; 5370.917; 3230.203
778.714;49584.539; 5031.542; 3253.324
779.283;49572.910; 5439.118; 3129.745
779.853;50374.383; 5058.943; 2983.566
780.422;51027.156; 5060.219; 2929.887
780.991;51597.426; 5386.495; 2863.908
781.560;52195.801; 5965.070; 2948.029
782.129;50999.973; 5295.696; 3074.149
782.698;50323.043; 5900.921; 2893.970
783.267;49264.215; 4729.297; 2721.391
783.836;49437.789; 5276.172; 2659.712
784.404;48722.461; 4461.098; 2622.233
784.973;47691.133; 3851.023; 2600.754
785.542;48390.605; 5026.349; 2528.475
786.111;49995.180; 5830.775; 2404.396
786.679;49495.152; 5452.550; 2365.717
787.248;46257.625; 4330.676; 2498.438
787.817;45623.695; 4810.651; 2645.659
788.385;46832.867; 5724.877; 2709.280
788.954;46190.840; 4367.553; 2620.500
789.522;47436.512; 5565.378; 2625.422
790.090;46351.285; 4385.804; 2743.843
790.659;46985.758; 4865.079; 2635.163
791.227;46930.328; 4976.205; 2495.484
791.795;47946.602; 5255.430; 2413.705
792.364;46883.176; 4543.306; 2345.326
792.932;47300.547; 5377.682; 2350.447
793.500;45937.621; 4911.007; 2429.768
794.068;45097.891; 4323.183; 2513.589
794.636;46006.863; 4670.558; 2664.310
795.204;45842.637; 4202.534; 2721.431
795.772;45828.207; 4632.659; 2802.052
796.340;45329.582; 4759.435; 2847.173
796.908;44109.754; 4206.960; 2997.194
797.476;44245.027; 4502.336; 3151.615
798.044;44266.297; 4136.012; 3110.735
798.612;45438.770; 4980.737; 2931.656
799.180;45450.844; 5133.313; 2785.777
799.747;43887.816; 5083.138; 2899.098
800.315;42705.887; 4392.014; 2955.519
800.883;42383.059; 4061.490; 2948.940
801.450;43164.133; 5018.665; 2965.361
802.018;44386.703; 5292.940; 3070.582
802.585;43569.879; 5054.666; 3156.103
803.153;42566.148; 4664.492; 3199.524
803.720;43104.223; 4707.517; 3168.845
804.287;44639.293; 4887.243; 3248.366
804.855;45728.566; 5659.468; 3406.187
805.422;44282.141; 4918.644; 3430.907
805.989;42945.313; 4588.070; 3453.528
806.556;42684.785; 4591.795; 3612.649
807.124;43621.355; 5564.021; 3736.570
807.691;42854.027; 4479.996; 3770.491
808.258;43425.902; 5059.472; 3705.012
808.825;42989.875; 5589.797; 3828.733
809.392;42657.844; 5972.673; 3986.754
809.959;41674.918; 5256.549; 4410.075
810.526;42309.992; 6019.674; 4774.996
811.093;41702.262; 5721.400; 4754.217
811.659;41208.434; 5003.125; 4661.238
812.226;42015.707; 4971.901; 4672.559
812.793;41805.680; 5206.876; 4822.979
813.360;41635.152; 4989.102; 5189.800
813.926;42850.824; 5258.478; 5310.622
814.493;42337.297; 4367.403; 5414.542
815.060;41454.070; 4104.079; 5548.963
815.626;41571.641; 4424.154; 5452.284
816.193;41725.113; 5153.030; 5339.305
816.759;39447.188; 4596.655; 5544.426
817.325;38343.559; 4107.481; 5706.547
817.892;40050.230; 5512.756; 5623.468
818.458;40206.305; 5284.882; 5586.689
819.024;40213.676; 5746.008; 5647.910
819.591;40359.648; 5041.883; 5762.031
820.157;39894.121; 4388.759; 6284.452
820.723;40395.094; 5277.134; 6906.973
821.289;42229.066; 7644.560; 7086.894
821.855;40053.738; 5422.386; 7054.915
822.421;39612.512; 4781.211; 7112.035
822.987;39259.984; 4474.437; 7256.156
823.553;39196.656; 4880.512; 7538.077
824.119;38837.527; 5598.288; 7594.298
824.685;37795.102; 5809.763; 7613.619
825.251;37413.973; 5485.439; 7644.140
825.816;37874.043; 6152.064; 7720.261
826.382;37017.215; 5462.590; 8014.282
826.948;37143.289; 5587.666; 8281.503
827.513;36248.363; 4939.641; 8289.624
828.079;35349.832; 4576.167; 8587.045
828.645;36777.207; 5236.742; 8821.865
829.210;36173.078; 4476.118; 9054.486
829.776;36040.051; 5393.894; 9054.607
830.341;35786.223; 5571.819; 9415.628
830.906;34810.996; 5734.745; 9932.449
831.472;33852.168; 4652.970;10150.271
832.037;35554.441; 5600.096; 9420.391
832.602;35472.414; 4780.071; 8664.912
833.167;35227.785; 5128.247; 8491.933
833.733;34661.758; 5597.522; 8872.854
834.298;32856.730; 4517.298; 9370.575
834.863;32632.303; 5262.974; 9610.695
835.428;32137.975; 5239.899; 9655.616
835.993;32330.547; 5386.875; 9437.838
836.558;32753.420; 5484.250; 9441.459
837.123;34961.691; 6723.426; 9600.979
837.688;33890.465; 5300.852; 9798.301
838.253;33180.238; 5286.427; 9902.921
838.817;32424.010; 4945.703;10339.742
839.382;32530.781; 5909.928;10548.363
839.947;31644.354; 5175.404;10252.484
840.511;31980.627; 6070.330;10040.005
841.076;29150.498; 4079.655;10099.926
841.641;30077.070; 5452.181;10347.347
842.205;29454.543; 5323.656;10817.368
842.770;30039.916; 6296.932;11435.289
843.334;28388.389; 5019.107;12072.409
843.898;27895.961; 4823.783;12635.431
844.463;28598.033; 5928.008;12537.252
845.027;27720.205; 4890.584;12759.673
845.591;28032.377; 5662.259;12821.993
846.156;26778.250; 4826.035;12520.914
846.720;27729.422; 5556.960;12390.436
847.284;27534.195; 5252.386;12956.456
847.848;27364.467; 5441.262;13240.177
848.412;26141.840; 5169.087;13216.998
848.976;26007.313; 6061.613;13014.619
849.540;25720.684; 6527.588;12355.740
850.104;25394.855; 5991.064;12208.761
850.668;23961.529; 4184.590;12106.882
851.232;23974.602; 4307.315;11862.103
851.796;24203.174; 5074.941;11700.523
852.359;24700.146; 5627.167;12375.944
852.923;24947.818; 5804.642;13087.966
853.487;24996.891; 5520.167;13297.187
854.050;22746.463; 3571.143;13851.207
854.614;23639.635; 4908.619;14854.229
855.177;23806.707; 5336.494;15802.149
855.741;23857.180; 5383.170;16603.570
856.304;23818.252; 5697.095;16359.891
856.868;22236.725; 4635.771;14365.512
857.431;22693.998; 5137.597;13361.333
857.995;21755.770; 4962.522;14130.554
858.558;21121.742; 5337.897;14883.175
859.121;21167.715; 5622.773;15754.195
859.684;20942.688; 5279.549;15995.017
860.247;20919.859; 5129.674;15149.537
860.810;20625.631; 4926.800;14640.358
861.374;21942.703; 6596.625;15551.079
861.937;19694.977; 4535.751;16519.801
862.500;19789.748; 4851.626;16796.521
863.062;19250.920; 4611.952;16538.742
863.625;19665.193; 5352.228;16716.764
864.188;19240.766; 4892.903;17055.084
864.751;19082.639; 4850.029;17197.705
865.314;18996.211; 5205.104;17151.625
865.876;19333.082; 5766.130;17783.547
866.439;19024.654; 5567.105;19283.467
867.002;19683.527; 6460.231;20256.389
867.564;18837.900; 5861.807;20485.410
868.127;17981.373; 5149.032;20789.730
868.689;17918.244; 5392.908;21981.951
869.252;17955.217; 5834.233;23803.771
869.814;16844.990; 4718.109;24974.094
870.377;17405.262; 5351.635;24690.314
870.939;19272.533; 7392.760;23963.436
871.501;17013.807; 5303.736;25167.156
872.063;15585.379; 3896.411;26995.477
872.626;15665.551; 4223.787;27443.098
873.188;16624.924; 5324.163;26718.418
873.750;15890.996; 5080.338;26558.840
874.312;15372.269; 4895.864;26701.561
874.874;16613.240; 6199.339;27970.582
875.436;15849.113; 5680.564;29173.402
875.998;15959.085; 6024.940;30376.623
876.560;15430.258; 5691.266;32507.344
877.122;14399.530; 4768.292;34833.066
877.683;14745.402; 5575.017;36458.285
878.245;13750.475; 4897.792;37248.207
878.807;14271.547; 5480.068;36758.027
879.369;13314.020; 4507.444;35223.551
879.930;13333.092; 4623.719;33824.969
880.492;14613.964; 5949.395;34436.492
881.053;13060.337; 4672.570;37745.313
881.615;12888.310; 4868.146;41184.633
882.176;12769.382; 5057.021;42871.555
882.738;13175.954; 5618.397;41693.074
883.299;11411.026; 4152.623;40289.895
883.860;11270.898; 4284.748;39231.215
884.422;12451.371; 5557.724;38264.039
884.983;11315.644; 4626.299;37171.859
885.544;11587.315; 5340.225;35842.379
886.105;11123.588; 5211.150;34810.000
886.666;10592.460; 4913.826;34519.020
887.227; 9697.433; 4302.852;33905.641
887.788;10620.405; 5344.127;34502.965
888.349; 9652.277; 4439.103;34241.785
888.910;10743.250; 5573.479;33722.203
889.471;10454.022; 5316.104;32539.625
890.032;10184.095; 5162.779;31528.346
890.593;10240.367; 5543.855;32655.068
891.153; 9615.939; 5135.131;33882.289
891.714; 8707.712; 4414.606;33318.711
892.275; 8682.084; 4501.832;31848.930
892.835; 9637.856; 5723.458;30339.752
893.396; 9350.329; 5634.183;30074.973
893.956; 8586.001; 5032.409;30338.393
894.517; 8698.974; 5302.334;30864.113
895.077; 8535.346; 5403.359;29766.734
895.638; 9248.418; 6198.235;26379.557
896.198; 7396.991; 4584.511;24056.277
896.758; 8380.863; 5675.736;22961.898
897.319; 7657.235; 5074.512;21772.020
897.879; 7632.208; 5141.837;20877.539
898.439; 6762.580; 4307.613;19509.461
898.999; 7909.752; 5535.039;17297.582
899.559; 7680.225; 5431.164;14712.002
900.119; 6740.498; 4616.940;12790.224
900.679; 8162.270; 6113.965;11586.744
901.239; 7534.842; 5570.341;10776.465
901.799; 7120.814; 5233.517; 9691.687
902.359; 6515.787; 4687.342; 8725.907
902.919; 6412.859; 4621.167; 8305.728
903.479; 6371.432; 4659.443; 8172.649
904.038; 6086.304; 4449.169; 7913.870
904.598; 5472.976; 3875.344; 7262.291
905.158; 6409.549; 4863.920; 6609.012
905.717; 6574.221; 5072.996; 6236.133
906.277; 6568.093; 5162.421; 5829.054
906.836; 6835.266; 5462.646; 5396.674
907.396; 6731.938; 5392.572; 4964.195
907.955; 6730.110; 5429.648; 4528.917
908.515; 6207.283; 4933.723; 4223.837
909.074; 6251.755; 4988.649; 4023.958
909.633; 6236.028; 5010.174; 4065.379
910.192; 7453.200; 6207.950; 4066.300
910.752; 6132.700; 4959.600; 3971.600
911.311; 6062.700; 4865.850; 3839.600
911.870; 5828.000; 4688.450; 3684.500
912.429; 6936.100; 5783.650; 3635.600
912.988; 6756.100; 5661.550; 3689.800
913.547; 5687.800; 4605.900; 3737.700
914.106; 6313.900; 5258.100; 3740.300
914.665; 6282.100; 5208.000; 3604.600
915.224; 6805.200; 5768.550; 3358.700
915.782; 5880.600; 4839.550; 3188.400
916.341; 6995.300; 5962.050; 3091.400
916.900; 5939.100; 4909.900; 3044.800
917.458; 5670.300; 4651.400; 2888.600
918.017; 6209.300; 5178.650; 2818.900
918.576; 5935.700; 4931.300; 2838.600
919.134; 5336.100; 4303.950; 2880.100
919.693; 5880.900; 4873.500; 2996.300
920.251; 5798.400; 4780.050; 3183.100
920.809; 5503.400; 4494.900; 3247.000
921.368; 5803.200; 4778.200; 3156.600
921.926; 5612.500; 4589.350; 2964.900
922.484; 6129.900; 5097.850; 2846.300
923.042; 5953.100; 4926.600; 2890.400
923.601; 6958.600; 5921.450; 2987.700
924.159; 6420.300; 5421.100; 3049.800
924.717; 5624.500; 4566.750; 3087.000
925.275; 6201.500; 5131.200; 3093.400
925.833; 5149.500; 4094.750; 3182.400
926.391; 6433.500; 5383.850; 3397.900
926.949; 5847.700; 4799.250; 3575.400
927.506; 6232.300; 5168.150; 3713.400
928.064; 5965.200; 4871.550; 3871.300
928.622; 6044.500; 4950.850; 4092.800
929.180; 5495.000; 4394.550; 4499.300
929.737; 5422.600; 4262.150; 4813.200
930.295; 6454.700; 5342.700; 5084.100
930.853; 5774.700; 4611.400; 5185.000
931.410; 5500.700; 4362.650; 5313.100
931.968; 6593.900; 5435.750; 5339.600
932.525; 6204.200; 5058.050; 5399.900
933.082; 5465.800; 4274.850; 5457.500
933.640; 6442.000; 5255.400; 5692.900
934.197; 6063.600; 4870.600; 5821.200
934.754; 6109.800; 4870.050; 5617.900
935.312; 5833.400; 4606.400; 5512.400
935.869; 7156.200; 5887.300; 5582.400
936.426; 5893.100; 4637.950; 5650.100
936.983; 6028.100; 4807.450; 5657.400
937.540; 5568.400; 4325.550; 5564.300
938.097; 6509.300; 5211.850; 5574.000
938.654; 6035.500; 4733.500; 5665.900
939.211; 6472.700; 5207.750; 5931.600
939.768; 6202.900; 4927.300; 6153.600
940.324; 6123.000; 4788.500; 6397.600
940.881; 5900.100; 4588.100; 6454.200
941.438; 7054.600; 5707.300; 6206.900
941.995; 6799.700; 5495.300; 6003.900
942.551; 5693.100; 4355.850; 6228.300
943.108; 6227.600; 4900.450; 6603.500
943.664; 5735.200; 4401.000; 7188.100
944.221; 7507.700; 6214.550; 7579.900
944.777; 5647.200; 4352.050; 7658.100
945.334; 5802.800; 4460.300; 7670.400
945.890; 6274.200; 4974.650; 7525.100
946.446; 6307.100; 5010.250; 7261.500
947.003; 6458.500; 5163.700; 6949.200
947.559; 7251.500; 5954.200; 6773.100
948.115; 6890.300; 5645.200; 6668.400
948.671; 6409.400; 5137.900; 6488.400
949.227; 5439.400; 4193.750; 6236.600
949.783; 5395.500; 4117.050; 6008.900
950.339; 6467.900; 5242.800; 5934.100
950.895; 6812.100; 5574.850; 5933.500
951.451; 6004.200; 4741.800; 6074.700
952.007; 6620.900; 5352.750; 6066.400
952.563; 6050.600; 4791.800; 5884.100
953.118; 5838.700; 4613.750; 5733.800
953.674; 6205.000; 4922.500; 5734.300
954.230; 6207.800; 4959.300; 6039.700
954.785; 6164.500; 4916.850; 6383.500
955.341; 6649.900; 5416.850; 6568.200
955.897; 5339.800; 4133.300; 6488.600
956.452; 6375.300; 5157.200; 6239.200
957.008; 7595.500; 6357.800; 5954.600
957.563; 6903.100; 5679.400; 5816.700
958.118; 5789.200; 4559.100; 5828.200
958.674; 6280.600; 5078.700; 5717.400
959.229; 6981.800; 5788.900; 5506.800
959.784; 5430.400; 4272.350; 5292.200
960.339; 6944.500; 5738.950; 5101.900
960.894; 6579.800; 5417.000; 5093.200
961.449; 5688.000; 4517.750; 5227.900
962.004; 8698.700; 7532.950; 5349.300
962.559; 5751.800; 4597.600; 5514.900
963.114; 4763.000; 3622.400; 5717.300
963.669; 6165.200; 5023.250; 5841.400
964.224; 5870.300; 4740.150; 5805.900
964.779; 5499.600; 4358.550; 5723.400
965.334; 6937.400; 5790.050; 5779.500
965.888; 5815.200; 4670.950; 5948.500
966.443; 6686.300; 5528.700; 6344.200
966.998; 5274.500; 4132.900; 6666.300
967.552; 6105.400; 4962.650; 6710.100
968.107; 5763.100; 4647.700; 6593.500
968.661; 6226.500; 5145.450; 6344.100
969.216; 5695.100; 4608.150; 6062.400
969.770; 6214.200; 5152.800; 5785.500
970.324; 6236.800; 5182.700; 5426.800
970.879; 6492.600; 5463.500; 5016.800
971.433; 6591.600; 5521.200; 4904.500
971.987; 6090.900; 5071.450; 4991.000
972.541; 6295.800; 5259.650; 4978.500
973.095; 7027.700; 6011.200; 4832.000
973.649; 5320.500; 4331.800; 4767.900
974.203; 5512.700; 4502.500; 4881.200
974.757; 5719.500; 4730.300; 4969.500
975.311; 5928.300; 4921.050; 4953.000
975.865; 5983.000; 4997.600; 4884.300
976.419; 5787.600; 4821.850; 4739.800
976.973; 5743.300; 4742.950; 4698.100
977.526; 6582.900; 5635.700; 4631.100
978.080; 5233.600; 4325.400; 4621.600
978.634; 6269.000; 5383.250; 4650.200
979.187; 6166.400; 5267.150; 4669.200
979.741; 7157.300; 6253.100; 4658.000
980.294; 5236.100; 4361.800; 4579.100
980.848; 4647.100; 3796.150; 4452.800
981.401; 5553.800; 4698.600; 4271.900
981.955; 5831.000; 4978.100; 4087.800
982.508; 4978.800; 4129.250; 3973.900
983.061; 6441.800; 5614.150; 3928.600
983.615; 5361.700; 4550.500; 3851.200
984.168; 5162.400; 4374.550; 3734.800
984.721; 6091.700; 5297.850; 3628.300
985.274; 5993.800; 5179.000; 3564.300
985.827; 5758.700; 4956.350; 3558.100
986.380; 4768.800; 4019.650; 3559.900
986.933; 5972.100; 5235.600; 3688.700
987.486; 5994.100; 5250.250; 3778.500
988.039; 5942.600; 5211.400; 3559.900
988.591; 6278.000; 5577.650; 3219.300
989.144; 4964.700; 4254.600; 2902.900
989.697; 5219.200; 4526.200; 2722.600
990.250; 6104.300; 5416.950; 2618.000
990.802; 5201.200; 4538.700; 2523.900
991.355; 7159.200; 6484.450; 2436.500
991.907; 6233.700; 5581.450; 2412.200
992.460; 5308.200; 4678.450; 2387.900
993.012; 5299.000; 4678.000; 2365.800
993.565; 4974.800; 4384.000; 2311.100
994.117; 7012.200; 6381.400; 2308.700
994.669; 4990.000; 4400.700; 2249.300
995.221; 5803.700; 5229.250; 2158.100
995.774; 5705.200; 5121.500; 2085.600
996.326; 5360.300; 4758.800; 2068.100
996.878; 6264.600; 5677.700; 1975.300
997.430; 5053.600; 4524.900; 1929.500
997.982; 5516.200; 4971.100; 1861.900
998.534; 5466.600; 4937.900; 1830.200
999.086; 5430.000; 4910.300; 1823.200
999.638; 4751.700; 4255.000; 1815.000
1000.190; 5162.300; 4652.250; 1796.600
1000.741; 5524.400; 5014.250; 1738.800
1001.293; 5030.900; 4532.050; 1666.200
1001.845; 5011.500; 4533.200; 1566.500
1002.396; 5600.800; 5081.800; 1471.900
1002.948; 5531.400; 5048.700; 1398.000
1003.500; 5447.500; 4960.550; 1356.500
1004.051; 7068.800; 6624.850; 1294.200
1004.603; 6120.700; 5643.750; 1190.000
1005.154; 4573.100; 4166.050; 1063.900
1005.705; 5539.500; 5158.700;  968.300
1006.257; 5447.500; 5060.350;  889.800
1006.808; 5274.900; 4926.700;  801.500
1007.359; 6008.200; 5655.450;  716.400
1007.910; 4978.100; 4671.000;  639.100
1008.461; 5757.800; 5443.300;  561.600
1009.013; 4529.800; 4188.250;  500.400
1009.564; 6290.100; 5967.100;  476.100
1010.115; 4603.600; 4299.100;  431.600
1010.665; 4696.300; 4390.700;  409.300
1011.216; 5241.300; 4940.700;  399.700
1011.767; 5481.200; 5164.100;  388.100
1012.318; 5690.000; 5392.150;  381.400
1012.869; 5257.500; 4966.150;  375.400
1013.419; 4658.500; 4378.150;  357.600
1013.970; 5262.300; 4961.350;  358.300
1014.521; 4790.300; 4524.950;  344.100
1015.071; 5280.000; 5015.950;  322.800
1015.622; 4952.300; 4668.650;  320.600
1016.172; 4648.900; 4392.750;  301.700
1016.723; 4813.000; 4524.350;  289.800
1017.273; 4748.500; 4471.700;  287.600
1017.823; 5101.800; 4817.050;  278.700
1018.374; 4808.900; 4549.200;  274.400
1018.924; 5696.100; 5442.750;  283.200
1019.474; 5609.600; 5356.750;  278.500
1020.024; 5146.300; 4888.650;  274.700
1020.574; 5766.200; 5503.500;  272.700
1021.124; 5340.700; 5080.200;  278.400
1021.674; 4381.100; 4124.300;  269.200
1022.224; 5637.100; 5407.900;  267.800
1022.774; 5260.800; 5009.550;  258.100
1023.324; 6029.500; 5784.100;  260.000
1023.874; 7097.500; 6859.800;  260.700
1024.423; 4821.800; 4580.650;  252.700
1024.973; 4725.100; 4470.350;  234.700
1025.523; 4897.000; 4626.050;  226.500
1026.072; 4790.400; 4538.100;  225.500
1026.622; 5354.100; 5114.600;  210.100
1027.172; 5708.600; 5425.100;  213.000
1027.721; 4734.100; 4495.400;  207.700
1028.270; 5311.900; 5086.500;  205.400
1028.820; 5062.500; 4850.200;  201.000
1029.369; 4870.900; 4637.950;  201.000
1029.918; 5131.000; 4862.500;  198.400
1030.468; 4445.200; 4243.350;  199.200
1031.017; 5064.700; 4836.350;  192.600
1031.566; 4840.900; 4617.600;  197.400
1032.115; 5538.500; 5331.750;  188.300
1032.664; 4777.200; 4559.450;  193.700
1033.213; 5908.000; 5668.250;  191.900
1033.762; 5084.900; 4830.250;  184.500
1034.311; 5429.800; 5191.500;  194.300
1034.860; 5525.000; 5284.950;  192.300
1035.408; 5824.300; 5610.700;  182.600
1035.957; 5743.700; 5522.400;  173.900
1036.506; 4158.500; 3960.200;  185.200
1037.055; 6817.700; 6586.050;  182.500
1037.603; 5320.400; 5103.350;  167.600
1038.152; 4200.700; 3968.450;  168.200
1038.700; 4624.900; 4427.150;  169.600
1039.249; 5428.500; 5226.650;  164.300
1039.797; 5087.200; 4872.500;  169.600
1040.345; 5638.100; 5424.800;  167.100
1040.894; 5028.600; 4813.700;  164.400
1041.442; 5067.300; 4877.550;  158.300
1041.990; 4460.800; 4262.300;  160.000
1042.538; 4257.600; 4042.350;  156.800
1043.087; 4479.100; 4310.800;  146.600
1043.635; 5470.200; 5260.000;  162.400
1044.183; 4716.400; 4514.800;  156.300
1044.731; 4606.600; 4406.500;  158.100
1045.279; 5435.600; 5219.050;  154.500
1045.827; 7292.100; 7077.300;  146.200
1046.374; 4081.700; 3856.850;  154.000
1046.922; 4734.500; 4528.700;  149.000
1047.470; 5614.500; 5396.150;  154.900
1048.018; 5282.600; 5076.000;  148.400
1048.565; 5790.200; 5586.050;  146.300
1049.113; 4424.500; 4219.750;  156.100
1049.660; 5037.800; 4830.250;  154.300
1050.208; 5453.500; 5232.150;  149.400
1050.755; 4872.100; 4685.600;  157.500
1051.303; 5546.800; 5350.000;  157.700
1051.850; 5121.200; 4900.250;  152.800
1052.397; 3764.300; 3583.350;  146.300
1052.945; 5001.200; 4763.250;  149.500
1053.492; 6047.600; 5860.450;  149.300
1054.039; 5866.400; 5671.700;  163.100
1054.586; 4490.900; 4260.150;  150.400
1055.133; 5638.300; 5451.250;  153.500
1055.680; 5210.300; 5019.000;  155.600
1056.227; 4334.900; 4119.750;  148.700
1056.774; 6498.800; 6272.800;  151.500
1057.321; 4172.500; 3982.050;  143.700
1057.868; 5254.200; 5038.200;  145.300
1058.415; 5316.800; 5095.550;  153.500
1058.961; 5473.000; 5280.150;  149.900
1059.508; 5209.300; 4988.750;  147.300
1060.055; 4720.800; 4525.850;  151.000
1060.601; 5029.600; 4812.050;  148.700
1061.148; 5080.500; 4856.200;  153.800
1061.694; 4813.900; 4607.750;  150.500
1062.241; 4832.400; 4618.400;  149.100
1062.787; 5411.700; 5206.850;  153.000
1063.334; 6534.900; 6355.650;  153.200
1063.880; 5457.000; 5266.000;  148.400
1064.426; 5782.300; 5564.350;  149.200
1064.972; 4847.700; 4656.350;  156.400
1065.518; 4587.500; 4387.200;  144.700
1066.065; 5116.800; 4927.450;  139.400
1066.611; 4885.000; 4690.100;  139.300
1067.157; 5211.000; 5020.700;  138.400
1067.703; 5453.200; 5278.700;  142.700
1068.249; 4814.300; 4640.100;  136.700
1068.794; 5062.200; 4906.750;  139.400
1069.340; 4678.300; 4496.450;  142.700
1069.886; 4838.200; 4653.350;  135.600
1070.432; 4352.700; 4171.150;  133.400
1070.977; 4901.800; 4721.800;  138.200
1071.523; 4571.600; 4393.350;  132.400
1072.068; 4696.900; 4498.200;  132.700
1072.614; 4245.100; 4055.600;  127.000
1073.160; 5663.900; 5477.150;  131.300
1073.705; 4694.200; 4497.900;  135.700
1074.250; 4536.700; 4390.750;  133.000
1074.796; 5341.900; 5194.350;  138.000
1075.341; 5406.900; 5229.600;  137.300
1075.886; 4797.500; 4626.400;  134.300
1076.431; 5349.100; 5204.900;  138.200
1076.976; 5277.900; 5083.800;  132.200
1077.521; 4724.000; 4562.800;  138.900
1078.067; 4735.800; 4576.800;  128.600
1078.612; 5447.600; 5274.850;  138.900
1079.156; 4896.400; 4743.400;  128.900
1079.701; 5683.700; 5527.550;  129.700
1080.246; 5722.400; 5543.800;  128.600
1080.791; 5156.500; 4994.550;  122.600
1081.336; 5394.200; 5231.150;  122.000
1081.880; 5351.600; 5190.550;  123.900
1082.425; 4646.200; 4490.500;  120.600
1082.970; 5897.400; 5734.950;  124.500
1083.514; 4879.900; 4696.700;  112.000
1084.059; 4800.300; 4624.650;  120.700
1084.603; 4647.000; 4479.200;  116.000
1085.147; 5321.800; 5167.200;  116.300
1085.692; 5916.800; 5753.400;  108.200
1086.236; 4143.900; 3966.450;  114.600
1086.780; 6201.700; 6044.500;  118.900
1087.325; 5400.800; 5225.500;  120.400
1087.869; 5053.500; 4879.850;  110.500
1088.413; 5792.700; 5615.250;  114.000
1088.957; 4428.500; 4238.200;  114.300
1089.501; 6340.600; 6206.000;  114.600
1090.045; 5997.000; 5864.600;  114.200
1090.589; 4647.400; 4492.250;  105.500
1091.133; 5534.100; 5377.300;  111.800
1091.676; 4796.200; 4649.250;  110.900
1092.220; 4963.300; 4787.250;  110.100
1092.764; 5847.400; 5672.550;  108.100
1093.307; 5538.800; 5364.100;  109.900
1093.851; 4559.900; 4422.150;  107.500
1094.395; 5651.600; 5493.850;   96.200
1094.938; 5211.500; 5062.000;   99.300
1095.482; 4604.200; 4436.550;   97.700
1096.025; 5862.200; 5711.450;   84.900
1096.568; 6359.900; 6229.550;   88.500
1097.112; 4128.600; 3972.400;   95.700
1097.655; 4888.200; 4744.650;   97.300
1098.198; 4903.400; 4778.850;   92.600
1098.741; 5095.400; 4922.400;   91.800
1099.285; 5394.500; 5240.200;   88.000
1099.828; 3601.500; 3448.600;   91.700
1100.371; 5025.300; 4888.250;   89.900
1100.914; 5671.800; 5508.500;   91.500
1101.457; 5628.400; 5443.850;   88.100
1101.999; 4762.400; 4632.250;   86.400
1102.542; 5255.600; 5117.750;   90.800
1103.085; 5463.000; 5320.700;   95.400
1103.628; 6336.900; 6206.250;   97.700
1104.170; 4816.200; 4684.400;   84.000
1104.713; 5300.800; 5195.850;   93.900
1105.256; 4562.500; 4419.550;   93.000
1105.798; 4133.900; 3988.600;   85.600
1106.341; 6051.700; 5905.300;   87.100
1106.883; 4304.200; 4161.400;   85.200
1107.425; 5581.000; 5414.900;   85.000
1107.968; 5138.700; 4974.500;   84.300
1108.510; 5657.900; 5540.350;   88.200
1109.052; 5124.900; 4988.450;   86.600
1109.594; 4641.900; 4484.800;   79.400
1110.136; 5345.600; 5221.300;   81.700
1110.679; 5223.900; 5066.900;   75.500
1111.221; 5037.600; 4895.250;   88.500
1111.763; 4584.000; 4453.050;   87.700
1112.304; 4541.000; 4373.350;   89.700
1112.846; 5546.600; 5377.400;   81.900
1113.388; 7935.200; 7765.850;   86.400
1113.930; 5766.200; 5628.400;   84.700
1114.472; 5068.300; 4929.350;   78.900
1115.013; 4571.700; 4415.050;   78.100
1115.555; 4900.200; 4761.800;   84.900
1116.097; 4761.700; 4628.450;   79.200
1116.638; 5704.700; 5576.850;   83.700
1117.180; 5510.300; 5357.600;   85.500
1117.721; 4786.400; 4643.900;   78.800
1118.262; 5654.200; 5513.150;   77.400
1118.804; 5266.000; 5150.350;   81.400
1119.345; 4834.600; 4708.600;   77.800
1119.886; 5878.900; 5730.300;   81.200
1120.427; 4909.800; 4749.450;   77.200
1120.969; 5015.000; 4855.250;   75.200
1121.510; 4706.900; 4565.100;   80.900
1122.051; 6040.400; 5882.950;   77.300
1122.592; 5492.500; 5362.150;   73.300
1123.133; 4527.000; 4406.450;   90.100
1123.673; 5922.100; 5780.650;   75.000
1124.214; 5101.400; 4988.450;   80.600
1124.755; 5374.500; 5239.150;   78.000
1125.296; 5207.300; 5071.700;   77.500
1125.836; 5732.500; 5614.350;   80.400
1126.377; 5004.000; 4888.950;   75.600
1126.918; 5133.200; 4990.000;   78.900
1127.458; 5197.700; 5057.400;   78.000
1127.999; 5516.500; 5356.800;   76.100
1128.539; 5805.900; 5660.000;   81.400
1129.079; 5292.000; 5167.400;   77.400
1129.620; 4640.400; 4531.750;   68.000
1130.160; 4511.800; 4398.900;   77.500
1130.700; 5374.400; 5217.650;   76.300
1131.240; 5392.900; 5245.000;   66.800
1131.781; 5208.600; 5091.350;   70.600
1132.321; 5032.100; 4912.100;   77.200
1132.861; 4670.100; 4544.850;   70.400
1133.401; 4990.300; 4886.600;   68.700
1133.941; 5257.300; 5117.700;   68.500
1134.481; 5072.200; 4933.900;   75.900
1135.020; 5076.600; 4968.550;   66.600
1135.560; 5604.400; 5473.300;   68.100
1136.100; 4178.800; 4069.400;   64.900
1136.640; 4301.600; 4176.500;   72.500
1137.179; 4471.700; 4350.650;   69.700
1137.719; 5073.200; 4954.400;   68.400
1138.258; 4917.800; 4803.500;   67.000
1138.798; 5546.000; 5416.400;   69.600
1139.337; 4040.100; 3922.550;   64.000
1139.877; 5341.200; 5230.350;   64.500
1140.416; 7317.800; 7166.500;   74.900
1140.955; 4447.400; 4333.400;   67.200
1141.494; 5661.600; 5532.550;   69.900
1142.034; 4891.200; 4767.300;   59.100
1142.573; 5419.900; 5287.550;   65.900
1143.112; 4668.800; 4512.350;   70.600
1143.651; 4481.900; 4385.950;   67.100
1144.190; 5827.800; 5703.450;   56.700
1144.729; 5085.300; 4955.750;   61.800
1145.267; 4862.400; 4736.950;   62.500
1145.806; 5363.900; 5220.900;   68.500
1146.345; 5382.600; 5257.750;   58.300
1146.884; 5268.800; 5145.950;   63.100
1147.422; 4450.000; 4340.300;   54.800
1147.961; 5952.900; 5848.100;   67.600
1148.500; 5620.700; 5498.250;   64.700
1149.038; 5341.200; 5233.850;   61.000
1149.577; 5904.700; 5777.000;   65.100
1150.115; 3789.100; 3681.900;   58.100
1150.653; 5100.800; 5012.650;   60.500
1151.192; 4697.000; 4567.250;   56.600
1151.730; 5518.100; 5413.950;   62.300
1152.268; 4941.500; 4812.600;   55.500
1152.806; 4806.800; 4734.050;   58.200
1153.344; 4837.700; 4732.600;   55.000
1153.882; 5023.700; 4902.000;   64.200
1154.421; 3927.400; 3841.450;   60.300
1154.958; 5027.700; 4952.800;   58.100
1155.496; 5410.000; 5328.650;   55.800
1156.034; 6076.800; 5973.800;   61.000
1156.572; 5636.000; 5493.900;   56.200
1157.110; 3957.600; 3856.400;   53.200
1157.647; 5673.600; 5588.750;   57.400
1158.185; 4779.000; 4685.000;   55.500
1158.723; 4320.900; 4210.500;   58.000
1159.260; 5866.000; 5779.700;   53.700
1159.798; 5584.600; 5442.950;   51.700
1160.335; 5354.400; 5227.600;   59.600

