source_2
Integration time [ms]: 3468.598
Averaging Nr. [scans]: 10
Smoothing Nr. [pixels]: 0
Data measured with spectrometer [name]: 7414430SP
Wave   ;Sample   ;Dark     ;Reference
[nm]   ;[counts] ;[counts] ;[counts] 

288.544; 5241.409; 4983.385;    6.613
289.143; 4313.620; 4054.288;   14.216
289.742; 5572.311; 5296.867;   11.816
290.341; 5337.575; 5071.188;   -4.936
290.940; 4895.447; 4633.392;    0.852
291.538; 6114.816; 5870.872;    1.792
292.137; 5426.416; 5171.827;    6.262
292.736; 7042.975; 6773.389;    8.164
293.335; 5032.521; 4733.773;   -6.418
293.934; 5384.800; 5105.711;   -2.904
294.532; 7581.376; 7282.726;   -5.162
295.131; 5977.326; 5726.518;  -10.283
295.730; 5794.994; 5546.961;  -16.141
296.328; 5626.641; 5353.235;  -14.740
296.927; 5577.474; 5314.389;   -8.768
297.525; 5546.814; 5271.474;  -15.255
298.124; 4543.797; 4280.530;  -22.063
298.722; 5418.042; 5165.127;  -14.796
299.321; 5003.416; 4751.758;  -10.466
299.919; 5348.658; 5105.331;  -10.979
300.518; 4919.018; 4674.793;  -12.077
301.116; 4885.393; 4680.521;  -13.509
301.715; 5225.871; 4971.916;  -11.939
302.313; 5054.345; 4778.250;  -15.424
302.911; 5340.044; 5092.749;  -19.833
303.509; 6994.321; 6712.962;   -3.567
304.108; 5501.983; 5252.457;   -9.553
304.706; 5867.121; 5641.515;   -8.582
305.304; 5974.615; 5735.520;  -12.348
305.902; 5709.959; 5445.572;  -14.411
306.500; 5298.110; 5061.710;   -7.194
307.098; 5497.278; 5250.898;   -9.322
307.696; 5830.061; 5572.651;  -19.192
308.294; 5379.034; 5156.146;   -9.736
308.892; 5600.904; 5383.022;  -15.482
309.490; 5207.552; 4946.583;  -14.107
310.088; 5941.244; 5709.054;  -15.862
310.686; 6108.333; 5862.354;  -10.781
311.284; 5769.814; 5498.425;  -14.878
311.882; 5323.588; 5091.407;   -9.948
312.480; 5141.580; 4933.328;  -15.503
313.078; 6159.453; 5942.025;  -17.262
313.675; 5095.510; 4875.110;   -3.694
314.273; 6085.939; 5857.348;  -18.246
314.871; 4253.694; 4039.000;  -15.190
315.468; 4847.544; 4617.749;  -12.633
316.066; 5152.081; 4944.624;   -5.765
316.664; 4836.818; 4640.783;  -14.317
317.261; 7033.153; 6802.427;   -8.677
317.859; 5956.459; 5734.268;  -11.804
318.456; 6427.170; 6212.525;   -3.107
319.054; 6054.626; 5840.912;   -3.062
319.651; 5776.891; 5547.735;   -6.706
320.249; 6318.791; 6109.685;   -5.206
320.846; 5457.067; 5266.352;   -4.679
321.443; 6527.456; 6334.103;   -7.920
322.041; 6383.329; 6195.737;  -14.105
322.638; 5460.005; 5261.052;   -6.263
323.235; 5080.845; 4863.250;   -7.424
323.833; 5777.290; 5567.545;  -14.765
324.430; 4637.646; 4435.237;  -10.550
325.027; 6899.734; 6712.098;   -9.951
325.624; 4826.038; 4616.812;   -3.712
326.221; 5224.156; 4968.497;   -9.368
326.818; 6316.195; 6091.093;   -5.637
327.415; 5594.070; 5355.476;   -6.699
328.012; 5096.570; 4863.679;   -5.713
328.609; 5396.944; 5162.610;   -9.983
329.206; 5885.827; 5645.363;   -7.154
329.803; 5460.495; 5211.901;   -1.682
330.400; 5127.885; 4900.641;   -2.741
330.997; 6085.954; 5817.924;   -4.339
331.594; 5917.196; 5646.983;  -10.278
332.191; 5292.339; 4995.754;   -6.967
332.787; 6259.581; 5969.677;   -0.480
333.384; 5523.671; 5257.662;  -10.333
333.981; 6039.699; 5771.552;  -19.900
334.578; 5076.787; 4783.916;  -19.816
335.174; 5260.390; 4998.339;  -15.844
335.771; 6210.756; 5919.491;  -12.670
336.367; 5201.769; 4916.472;  -21.124
336.964; 5908.327; 5640.552;  -18.226
337.561; 5386.283; 5090.344;  -13.311
338.157; 6938.615; 6657.257;  -19.006
338.754; 5970.948; 5671.309;  -19.418
339.350; 5312.756; 5050.082;  -29.433
339.946; 5683.611; 5393.192;  -16.622
340.543; 6385.314; 6090.361;  -16.744
341.139; 5367.104; 5095.704;  -21.841
341.735; 5863.839; 5610.534;  -25.012
342.332; 5173.903; 4912.607;  -19.156
342.928; 6035.317; 5749.129;  -20.443
343.524; 5842.548; 5588.802;  -14.397
344.120; 5627.628; 5379.784;  -20.654
344.716; 5317.058; 5094.014;   -5.730
345.313; 6087.541; 5839.472;  -10.929
345.909; 4633.044; 4381.842;  -19.843
346.505; 5596.019; 5364.214;  -19.645
347.101; 6289.395; 6056.932;   -9.618
347.697; 6014.071; 5751.302;  -10.305
348.293; 4603.157; 4347.975;  -23.189
348.889; 5646.730; 5446.116;  -18.418
349.485; 5121.941; 4872.965;  -10.476
350.081; 5890.044; 5670.291;  -17.320
350.676; 5245.313; 5000.419;  -21.088
351.272; 6206.658; 5950.016;  -12.821
351.868; 5886.332; 5612.910;  -13.165
352.464; 5443.409; 5204.664;  -12.464
353.059; 4834.395; 4613.287;  -22.547
353.655; 5954.426; 5722.059;   -9.379
354.251; 5750.410; 5519.300;   -8.266
354.846; 5638.080; 5425.623;  -17.705
355.442; 5689.434; 5447.184;   -9.317
356.038; 5694.400; 5455.090;  -11.049
356.633; 5493.359; 5254.163;  -10.006
357.229; 5486.027; 5228.999;  -13.120
357.824; 5339.251; 5095.231;  -15.647
358.420; 5094.209; 4871.454;  -19.204
359.015; 5199.521; 4953.653;  -12.263
359.610; 5844.624; 5623.981;  -16.421
360.206; 4472.049; 4244.451;  -20.074
360.801; 4810.786; 4567.671;  -13.277
361.396; 5517.411; 5273.642;   -5.822
361.992; 5015.251; 4822.082;  -11.247
362.587; 5108.216; 4866.389;  -21.502
363.182; 5224.598; 5012.657;   -7.461
363.777; 5679.909; 5452.306;   -8.719
364.372; 5660.563; 5417.878;  -14.590
364.967; 5214.693; 4998.401;  -15.145
365.563; 6265.394; 6062.795;   -7.192
366.158; 5203.303; 4955.311;   -5.662
366.753; 4877.556; 4656.940;   -8.378
367.348; 5748.519; 5508.222;  -14.990
367.942; 5288.071; 5090.001;   -6.005
368.537; 5784.739; 5566.585;  -11.504
369.132; 5399.198; 5163.560;  -10.576
369.727; 4805.479; 4572.582;  -12.573
370.322; 4442.146; 4212.081;  -11.560
370.917; 5485.013; 5272.619;  -10.388
371.511; 6780.224; 6595.170;   -9.161
372.106; 6107.493; 5869.301;  -10.245
372.701; 4451.461; 4245.487;  -10.158
373.296; 6723.201; 6521.885;   -4.719
373.890; 4994.017; 4797.689;  -11.802
374.485; 5395.976; 5206.901;  -13.500
375.079; 5797.872; 5582.247;   -6.276
375.674; 6397.586; 6178.866;   -0.447
376.268; 5335.772; 5119.886;   -6.916
376.863; 4511.718; 4325.718;  -14.483
377.457; 5133.722; 4959.743;   -6.903
378.052; 6063.823; 5812.932;   -9.844
378.646; 5886.855; 5688.691;  -12.601
379.240; 5680.376; 5483.954;  -14.715
379.835; 4986.599; 4791.252;  -12.331
380.429; 4376.022; 4139.587;   -9.074
381.023; 6198.396; 6023.366;   -1.729
381.617; 5363.771; 5193.600;  -13.714
382.212; 5392.619; 5199.617;   -7.060
382.806; 6027.522; 5856.393;   -2.303
383.400; 5365.758; 5194.861;   -0.815
383.994; 5306.479; 5127.624;   -4.429
384.588; 5585.963; 5394.073;   -6.261
385.182; 5810.167; 5638.881;    0.008
385.776; 5705.869; 5545.624;   -3.247
386.370; 5448.993; 5300.699;   -1.030
386.964; 5490.798; 5324.055;   -1.346
387.558; 4755.153; 4587.712;   -2.020
388.152; 5458.710; 5338.543;   -5.345
388.745; 6613.357; 6478.322;   -2.774
389.339; 5894.771; 5769.749;    3.510
389.933; 5489.288; 5325.146;    5.280
390.527; 7030.710; 6889.151;    2.610
391.120; 4785.132; 4663.248;   -7.914
391.714; 5678.278; 5553.737;   -1.903
392.308; 6370.351; 6199.287;    6.023
392.901; 5221.987; 5082.758;   -4.103
393.495; 4867.620; 4713.759;    3.284
394.089; 6296.402; 6189.122;    8.655
394.682; 5720.270; 5610.813;    2.312
395.275; 5917.225; 5792.710;   -7.402
395.869; 5506.226; 5370.055;   -1.072
396.462; 5018.346; 4932.678;    6.454
397.056; 6333.897; 6202.715;    8.494
397.649; 6047.964; 5922.913;    1.599
398.242; 5881.033; 5768.239;    3.153
398.836; 6293.436; 6167.017;   11.395
399.429; 5110.727; 5014.096;   14.695
400.022; 5476.035; 5395.776;    3.627
400.615; 6715.408; 6618.121;    8.383
401.208; 5608.862; 5498.181;   13.295
401.802; 5797.540; 5681.382;    6.211
402.395; 5678.635; 5596.026;    7.227
402.988; 5765.685; 5664.872;    2.700
403.581; 5239.663; 5136.675;   11.225
404.174; 5564.638; 5480.048;   18.922
404.767; 5154.081; 5071.610;   14.169
405.360; 5145.729; 5064.078;    8.999
405.953; 6244.595; 6154.089;   13.138
406.545; 5983.974; 5915.479;   13.937
407.138; 5057.990; 4989.331;   10.869
407.731; 5048.651; 4971.279;   12.768
408.324; 5386.761; 5308.193;   22.921
408.917; 5619.667; 5555.781;   15.308
409.509; 6141.181; 6066.265;   12.239
410.102; 5383.831; 5291.206;   13.741
410.695; 5492.675; 5394.863;   20.249
411.287; 4950.438; 4872.253;   21.793
411.880; 4813.105; 4750.541;   22.965
412.472; 5073.304; 4994.453;   15.082
413.065; 5285.468; 5211.779;   23.423
413.657; 4760.508; 4700.924;   21.077
414.250; 5339.402; 5250.026;   12.349
414.842; 5587.121; 5521.505;   20.423
415.434; 4757.352; 4676.125;   19.906
416.027; 5332.262; 5250.987;   26.574
416.619; 5930.396; 5860.780;   15.705
417.211; 4926.743; 4856.906;   17.791
417.804; 5129.727; 5078.208;   30.244
418.396; 5020.390; 4972.632;   24.177
418.988; 5439.110; 5394.105;   24.904
419.580; 4685.355; 4639.345;   20.692
420.172; 4471.322; 4422.949;   22.275
420.764; 5503.615; 5436.114;   26.773
421.356; 5287.212; 5234.536;   25.731
421.948; 5574.104; 5520.057;   24.876
422.540; 5545.176; 5486.917;   30.042
423.132; 4901.849; 4874.056;   32.728
423.724; 4576.633; 4547.598;   21.317
424.316; 5092.753; 5074.269;   29.359
424.908; 4875.475; 4818.475;   28.798
425.500; 5324.519; 5270.527;   30.512
426.092; 5296.016; 5262.205;   26.741
426.683; 5727.896; 5674.779;   27.029
427.275; 5237.150; 5220.344;   32.611
427.867; 5421.450; 5381.797;   33.796
428.458; 6002.418; 5979.088;   34.453
429.050; 5586.960; 5560.808;   34.255
429.642; 6096.680; 6064.581;   39.082
430.233; 4534.436; 4497.833;   41.138
430.825; 6024.833; 5978.757;   31.581
431.416; 5729.151; 5693.486;   35.755
432.008; 5274.976; 5234.766;   40.566
432.599; 5281.505; 5254.004;   46.322
433.190; 5205.536; 5165.022;   46.897
433.782; 4588.257; 4558.587;   41.069
434.373; 7167.861; 7136.306;   48.778
434.964; 4829.378; 4799.398;   50.078
435.556; 5120.241; 5104.428;   52.381
436.147; 6160.341; 6134.034;   38.251
436.738; 5671.832; 5644.065;   47.237
437.329; 5834.877; 5767.012;   61.304
437.920; 5315.524; 5283.781;   48.611
438.511; 4494.268; 4484.836;   44.910
439.103; 4989.324; 4948.235;   62.404
439.694; 5469.315; 5438.619;   63.075
440.285; 5973.804; 5937.420;   61.033
440.876; 6892.990; 6875.643;   57.249
441.466; 4545.037; 4531.124;   61.306
442.057; 5248.091; 5215.991;   65.773
442.648; 6029.736; 5976.379;   65.676
443.239; 4941.378; 4920.651;   55.963
443.830; 5644.697; 5610.384;   69.631
444.421; 5158.899; 5137.718;   69.943
445.011; 5522.037; 5510.426;   72.791
445.602; 5910.869; 5907.933;   68.848
446.193; 3742.185; 3709.493;   80.044
446.783; 4919.989; 4895.904;   82.599
447.374; 5423.668; 5405.238;   77.419
447.964; 5675.815; 5641.364;   72.605
448.555; 6498.648; 6454.327;   82.041
449.145; 5181.685; 5148.146;   76.230
449.736; 6355.441; 6313.438;   75.545
450.326; 5586.150; 5572.809;   67.945
450.917; 5240.368; 5214.044;   77.598
451.507; 4652.504; 4629.224;   68.027
452.097; 5879.822; 5859.108;   67.771
452.688; 5753.828; 5714.359;   62.884
453.278; 4155.860; 4175.920;   65.512
453.868; 6269.291; 6226.240;   71.796
454.458; 5072.466; 4998.066;   60.956
455.048; 5537.422; 5505.911;   62.356
455.639; 4316.856; 4270.608;   58.782
456.229; 5470.132; 5442.075;   65.209
456.819; 5774.608; 5737.538;   61.466
457.409; 6045.956; 5988.460;   59.967
457.999; 5631.419; 5608.689;   58.093
458.589; 5172.825; 5144.935;   59.536
459.179; 5507.840; 5490.749;   55.994
459.769; 4715.288; 4700.417;   43.624
460.358; 6117.019; 6079.692;   46.978
460.948; 5213.325; 5199.387;   49.821
461.538; 4943.836; 4915.584;   54.678
462.128; 5000.732; 4979.425;   49.309
462.717; 5274.326; 5271.431;   52.774
463.307; 5317.928; 5279.012;   48.101
463.897; 4877.651; 4840.453;   45.606
464.486; 6452.779; 6435.799;   45.010
465.076; 5524.227; 5508.673;   45.519
465.666; 4785.040; 4710.358;   50.058
466.255; 5977.480; 5932.642;   44.463
466.845; 4900.660; 4845.475;   41.206
467.434; 5425.833; 5385.521;   44.847
468.023; 4744.373; 4736.857;   46.760
468.613; 5308.425; 5274.485;   39.736
469.202; 4666.538; 4667.222;   46.461
469.791; 5385.087; 5351.184;   47.944
470.381; 5373.669; 5350.895;   47.529
470.970; 5183.158; 5136.348;   43.773
471.559; 5427.447; 5390.396;   41.646
472.148; 4833.678; 4762.518;   37.914
472.738; 5565.807; 5495.057;   48.071
473.327; 4468.663; 4456.801;   47.871
473.916; 5349.502; 5287.146;   37.716
474.505; 5405.407; 5393.509;   40.256
475.094; 5939.574; 5865.358;   43.269
475.683; 5749.030; 5701.447;   36.499
476.272; 5206.527; 5158.572;   44.542
476.861; 4949.788; 4900.277;   42.297
477.449; 5081.786; 5016.748;   46.878
478.038; 4769.671; 4744.075;   35.156
478.627; 4979.195; 4943.110;   42.514
479.216; 5399.887; 5325.338;   43.937
479.805; 5429.669; 5371.653;   51.393
480.393; 7376.129; 7300.708;   53.239
480.982; 6259.451; 6238.065;   38.955
481.571; 6080.019; 6005.705;   45.436
482.159; 4669.448; 4618.991;   51.007
482.748; 5703.093; 5641.481;   49.695
483.336; 5943.272; 5872.924;   48.280
483.925; 5037.240; 4993.409;   47.166
484.513; 5048.476; 4970.040;   55.404
485.102; 5436.699; 5368.277;   54.238
485.690; 7080.621; 7009.038;   55.748
486.278; 6809.876; 6745.635;   55.934
486.867; 5285.236; 5215.002;   57.106
487.455; 6012.342; 5939.843;   56.979
488.043; 4683.989; 4629.218;   57.564
488.631; 6841.482; 6732.188;   57.432
489.220; 5970.379; 5888.118;   63.646
489.808; 4467.133; 4399.126;   65.449
490.396; 5906.200; 5816.073;   61.977
490.984; 5017.768; 4951.264;   68.834
491.572; 5898.405; 5823.526;   70.775
492.160; 5571.189; 5484.568;   67.564
492.748; 5161.595; 5103.664;   66.808
493.336; 5999.217; 5918.320;   79.747
493.924; 5121.290; 5054.267;   88.688
494.512; 5887.697; 5817.397;   84.120
495.100; 5758.845; 5691.016;   86.250
495.687; 6100.819; 6014.601;  103.074
496.275; 4953.282; 4878.941;  108.717
496.863; 5159.063; 5065.160;  107.035
497.451; 5090.204; 5034.038;  117.993
498.038; 5376.313; 5313.558;  120.116
498.626; 5164.293; 5086.890;  143.059
499.214; 5534.577; 5471.485;  153.434
499.801; 5392.045; 5322.221;  175.121
500.389; 4446.226; 4364.446;  185.617
500.976; 5628.111; 5544.377;  215.789
501.564; 5412.736; 5330.850;  240.321
502.151; 3915.139; 3852.220;  267.007
502.738; 5080.162; 5027.823;  317.961
503.326; 5191.122; 5129.429;  361.216
503.913; 5458.147; 5378.604;  401.433
504.500; 5604.492; 5530.499;  446.492
505.088; 4756.130; 4710.506;  512.063
505.675; 5229.325; 5123.102;  586.387
506.262; 5168.783; 5085.023;  671.021
506.849; 5287.909; 5209.396;  759.062
507.436; 5990.572; 5891.975;  849.788
508.023; 5265.837; 5196.791;  944.288
508.610; 5858.506; 5784.424; 1020.690
509.197; 5667.422; 5582.570; 1089.052
509.784; 5310.936; 5220.757; 1133.776
510.371; 4444.222; 4366.182; 1165.501
510.958; 5435.380; 5338.453; 1251.735
511.545; 6262.103; 6150.146; 1350.248
512.132; 5337.584; 5223.521; 1525.945
512.719; 4742.947; 4663.104; 1834.933
513.305; 4911.268; 4822.911; 1965.349
513.892; 6153.054; 6074.784; 1963.265
514.479; 5431.979; 5352.118; 2046.446
515.066; 5964.411; 5865.174; 2252.803
515.652; 5417.226; 5316.741; 2567.247
516.239; 5747.441; 5688.453; 2636.919
516.825; 4516.268; 4440.519; 2482.304
517.412; 6685.552; 6569.657; 2427.031
517.998; 5193.495; 5124.672; 2540.463
518.585; 5119.139; 5041.720; 2609.007
519.171; 5453.290; 5357.517; 2842.088
519.758; 4604.755; 4527.980; 3090.703
520.344; 5875.735; 5801.957; 3176.076
520.930; 4736.140; 4660.865; 3295.037
521.516; 5671.002; 5568.661; 3500.959
522.103; 6213.776; 6109.140; 3736.704
522.689; 5145.657; 5046.509; 3971.022
523.275; 6042.595; 5921.020; 4213.778
523.861; 5228.417; 5141.817; 4190.361
524.447; 6008.425; 5895.449; 4070.602
525.033; 6086.856; 5969.365; 4088.892
525.619; 4887.728; 4824.573; 4416.851
526.205; 4613.889; 4522.824; 4836.835
526.791; 5165.238; 5080.638; 4885.903
527.377; 4972.522; 4886.777; 4544.907
527.963; 5432.446; 5357.608; 4321.995
528.549; 5575.016; 5471.029; 4473.979
529.135; 4881.921; 4799.785; 4788.663
529.721; 5377.039; 5289.275; 4888.577
530.306; 7274.416; 7149.079; 4775.779
530.892; 5130.918; 5035.210; 4793.906
531.478; 5027.647; 4910.001; 4956.948
532.063; 4790.328; 4698.426; 5136.936
532.649; 6624.105; 6475.575; 5336.867
533.235; 4819.722; 4710.380; 5748.092
533.820; 6128.476; 6033.095; 6456.875
534.406; 5230.914; 5133.546; 6590.167
534.991; 4860.566; 4744.730; 6179.622
535.576; 5252.483; 5152.528; 6098.691
536.162; 7261.550; 7175.622; 6441.234
536.747; 4576.755; 4500.724; 6816.224
537.333; 4887.461; 4772.972; 6889.752
537.918; 5299.428; 5181.318; 7154.280
538.503; 4970.821; 4867.438; 7150.848
539.088; 5557.751; 5444.059; 7253.308
539.673; 5126.120; 5018.697; 7625.180
540.259; 4923.013; 4832.009; 8226.793
540.844; 4361.257; 4250.265; 8745.092
541.429; 6476.309; 6360.395; 8762.553
542.014; 4534.944; 4420.172; 8871.497
542.599; 5533.595; 5417.014; 8886.008
543.184; 4668.391; 4561.306; 9079.139
543.769; 4948.605; 4844.123; 9076.182
544.354; 5130.241; 4998.507; 8354.081
544.938; 5503.708; 5396.553; 8236.809
545.523; 6428.751; 6326.764; 8222.179
546.108; 5317.388; 5217.730; 8114.082
546.693; 5255.318; 5178.206; 8535.912
547.278; 5302.205; 5181.683; 9238.322
547.862; 5288.845; 5151.523; 9034.405
548.447; 5944.132; 5833.480; 7795.011
549.031; 5118.513; 5019.655; 7485.099
549.616; 5506.043; 5383.887; 7626.308
550.201; 4981.272; 4859.369; 7627.909
550.785; 5719.703; 5618.947; 7859.125
551.370; 4644.412; 4519.063; 7990.654
551.954; 5914.618; 5785.114; 8196.468
552.538; 5777.729; 5663.715; 7959.495
553.123; 4977.641; 4862.699; 7964.826
553.707; 5148.692; 5038.385; 8515.957
554.291; 6181.438; 6054.031; 8724.024
554.876; 5847.115; 5747.388; 8524.211
555.460; 4978.407; 4892.509; 8704.456
556.044; 4961.640; 4828.855; 9141.473
556.628; 5319.118; 5202.608; 9250.197
557.212; 6068.822; 5944.873; 9444.237
557.796; 5202.374; 5082.906; 9379.783
558.380; 5573.022; 5466.216; 9353.658
558.964; 5458.320; 5321.742; 9210.310
559.548; 4607.035; 4477.608; 8475.153
560.132; 5113.869; 4982.252; 7954.084
560.716; 4724.652; 4593.302; 7489.529
561.300; 4654.487; 4507.485; 7211.952
561.884; 5731.727; 5581.377; 7141.313
562.467; 5659.037; 5549.185; 7155.386
563.051; 5333.558; 5185.900; 7323.158
563.635; 5252.295; 5099.010; 7709.114
564.219; 5313.359; 5166.236; 7678.855
564.802; 5715.702; 5563.201; 7376.187
565.386; 5444.119; 5259.096; 7054.372
565.969; 6207.832; 6057.083; 6589.196
566.553; 6813.907; 6654.257; 6279.371
567.136; 6151.525; 5988.439; 5967.930
567.720; 5443.632; 5255.929; 5660.703
568.303; 5629.725; 5455.691; 5648.615
568.887; 5502.275; 5286.245; 5618.443
569.470; 5637.273; 5440.454; 5411.875
570.053; 5877.317; 5667.810; 5149.274
570.637; 4991.474; 4787.553; 5122.798
571.220; 5936.312; 5681.210; 4957.369
571.803; 6891.379; 6635.300; 4933.018
572.386; 5315.996; 5055.450; 4840.973
572.969; 5339.281; 5062.691; 4592.886
573.552; 5478.811; 5157.522; 4348.387
574.135; 4988.347; 4658.188; 4002.290
574.718; 5182.505; 4835.171; 3654.773
575.301; 5197.292; 4821.937; 3502.288
575.884; 5212.079; 4808.703; 3349.803
576.467; 6394.932; 5951.329; 3191.403
577.050; 5912.506; 5439.763; 3062.418
577.633; 7039.125; 6480.844; 3214.200
578.216; 5681.353; 5073.692; 3284.889
578.799; 5752.051; 5071.508; 3189.777
579.381; 7477.841; 6697.000; 3064.502
579.964; 5653.893; 4809.335; 2888.357
580.547; 6274.238; 5371.672; 2905.760
581.129; 7170.701; 6197.255; 2966.849
581.712; 6609.463; 5529.845; 2887.292
582.294; 6502.111; 5301.864; 2771.631
582.877; 8132.067; 6756.813; 2711.602
583.459; 6755.048; 5236.528; 2577.049
584.042; 6824.325; 5150.640; 2454.707
584.624; 6572.646; 4768.103; 2305.893
585.206; 6118.521; 4114.883; 2189.546
585.789; 7173.681; 4948.339; 2112.577
586.371; 7845.470; 5531.035; 2153.065
586.953; 8170.386; 5740.188; 2197.806
587.536; 8789.152; 6109.292; 2105.489
588.118; 8056.748; 5140.732; 1963.911
588.700; 9555.258; 6115.244; 1843.179
589.282; 9493.927; 5567.221; 1813.834
589.864; 9744.304; 5353.828; 1777.620
590.446; 9167.861; 4281.861; 1733.780
591.028;10709.394; 5306.373; 1676.008
591.610; 9949.875; 4363.441; 1631.649
592.192;11111.315; 5368.327; 1632.362
592.774;10689.854; 4705.171; 1569.507
593.356;11436.098; 4906.636; 1524.539
593.937;12000.248; 4876.733; 1569.720
594.519;13517.592; 5891.684; 1569.049
595.101;12719.212; 4415.508; 1545.452
595.683;14150.694; 4950.863; 1607.568
596.264;15389.769; 5184.795; 1615.506
596.846;15827.390; 5034.453; 1667.622
597.427;16288.215; 4882.123; 1670.469
598.009;17146.930; 4818.189; 1640.312
598.591;18550.582; 5743.932; 1541.022
599.172;18516.160; 5070.064; 1598.665
599.753;18795.033; 4544.065; 1619.068
600.335;20853.160; 6136.621; 1548.612
600.916;20445.926; 5220.222; 1607.510
601.498;21830.926; 5512.527; 1745.181
602.079;23227.064; 5267.174; 1801.011
602.660;24479.191; 5161.532; 1834.640
603.241;24330.135; 4183.903; 1787.351
603.823;25435.508; 4952.837; 1684.266
604.404;25150.875; 4586.540; 1654.241
604.985;25449.430; 4963.834; 1758.741
605.566;27042.340; 5787.352; 1697.679
606.147;28038.607; 5119.091; 1526.728
606.728;29244.832; 4563.777; 1484.086
607.309;30961.201; 4904.498; 1421.070
607.890;31045.330; 4984.097; 1369.867
608.471;31538.447; 4801.079; 1277.826
609.051;32827.551; 5385.582; 1180.416
609.632;33940.098; 4723.337; 1075.816
610.213;36831.859; 5155.071; 1053.313
610.794;38153.305; 4975.971;  979.442
611.374;39368.973; 5465.109;  917.414
611.955;38746.871; 4470.179;  819.987
612.536;41580.914; 5384.845;  752.627
613.116;42744.980; 4959.033;  690.799
613.697;42549.012; 4885.601;  674.974
614.277;42374.973; 4738.818;  663.846
614.858;41533.898; 4877.575;  665.898
615.438;40760.168; 5227.542;  660.712
616.019;41046.008; 6137.323;  632.732
616.599;39185.336; 4113.567;  551.759
617.179;41951.820; 4594.608;  512.871
617.760;45637.129; 6911.514;  473.655
618.340;43884.270; 5155.940;  440.004
618.920;45707.098; 6328.034;  429.731
619.500;46210.520; 5015.039;  441.361
620.080;45668.016; 4725.700;  425.202
620.660;46193.207; 4711.282;  408.164
621.241;47602.852; 5022.023;  387.161
621.821;49066.707; 5282.726;  378.017
622.401;48809.266; 5863.925;  379.188
622.980;46378.125; 4482.932;  350.019
623.560;46711.734; 5026.484;  336.446
624.140;45236.430; 5298.343;  336.473
624.720;43093.785; 5462.688;  334.974
625.300;41878.043; 4728.110;  325.717
625.880;42803.617; 5147.411;  308.519
626.459;45560.883; 5201.913;  307.117
627.039;46958.980; 4350.832;  290.890
627.619;51445.219; 6638.576;  286.635
628.198;52209.988; 5951.995;  282.535
628.778;53297.887; 5586.238;  285.474
629.357;50431.855; 4542.902;  284.103
629.937;49514.977; 4978.398;  292.178
630.516;51186.918; 6239.056;  290.749
631.096;49927.313; 4804.599;  285.489
631.675;50629.387; 6131.162;  287.022
632.254;49414.828; 4798.861;  286.038
632.834;48254.539; 5153.383;  276.451
633.413;48317.457; 6110.794;  279.447
633.992;47499.625; 5855.117;  264.508
634.571;47555.578; 5609.308;  271.010
635.151;48947.945; 4691.204;  277.338
635.730;49760.809; 5087.243;  289.305
636.309;49690.895; 5521.918;  285.306
636.888;49299.449; 5605.305;  254.051
637.467;46312.828; 4264.982;  230.324
638.046;47734.234; 6252.648;  253.349
638.625;47021.492; 6001.558;  246.866
639.204;46710.379; 5370.055;  240.825
639.782;48391.133; 5208.692;  261.970
640.361;48194.012; 6048.680;  277.780
640.940;46786.688; 4878.755;  270.101
641.519;46565.559; 5450.881;  248.622
642.097;47533.934; 5568.007;  239.843
642.676;47987.406; 5261.282;  244.264
643.255;47963.184; 5050.108;  234.985
643.833;50662.457; 5615.533;  244.406
644.412;50844.531; 4987.809;  244.927
644.990;50727.305; 5280.984;  249.948
645.569;50717.879; 5544.160;  249.569
646.147;50587.152; 5836.085;  243.290
646.726;48463.824; 5366.811;  249.511
647.304;47762.797; 4997.137;  228.032
647.882;45077.473; 4258.813;  214.552
648.461;44931.047; 5371.288;  214.973
649.039;45893.918; 5608.514;  223.394
649.617;45635.793; 5628.339;  261.415
650.195;45727.066; 5371.365;  298.736
650.773;45396.742; 4960.740;  309.557
651.352;44417.215; 4143.216;  297.978
651.930;42699.988; 4130.991;  289.399
652.508;44300.762; 5723.267;  285.620
653.086;43531.535; 5507.692;  272.241
653.663;42267.109; 4796.918;  265.062
654.241;41701.984; 4490.293;  286.083
654.819;43071.258; 4615.369;  286.404
655.397;45149.230; 4690.295;  291.825
655.975;46652.105; 5048.920;  299.145
656.553;48197.980; 6218.846;  288.866
657.130;46711.555; 4657.571;  304.087
657.708;45489.727; 5433.847;  302.908
658.286;44867.199; 5296.923;  294.629
658.863;45986.574; 5324.798;  293.350
659.441;45794.449; 5389.874;  318.671
660.018;43662.422; 5097.750;  333.692
660.596;42330.195; 4200.725;  335.013
661.173;42796.469; 4901.000;  371.534
661.750;42355.344; 4702.626;  365.155
662.328;43928.316; 5587.202;  349.976
662.905;42132.191; 4940.777;  332.997
663.482;41248.766; 5083.353;  321.717
664.060;41387.938; 4771.229;  314.438
664.637;42388.613; 5588.704;  306.259
665.214;43081.887; 5335.729;  314.580
665.791;43334.961; 5032.305;  334.501
666.368;43038.336; 4959.781;  329.222
666.945;44342.207; 5684.906;  342.143
667.522;44088.281; 4717.682;  370.964
668.099;44781.254; 5091.607;  396.885
668.676;44372.430; 5118.883;  391.706
669.253;45189.203; 6240.458;  369.627
669.830;44256.379; 6020.684;  360.348
670.407;43990.449; 5106.160;  344.769
670.984;44641.227; 5086.335;  322.890
671.560;44573.398; 5574.311;  316.910
672.137;43061.473; 4961.736;  322.531
672.714;43806.945; 5467.362;  318.552
673.290;44696.922; 5373.288;  324.473
673.867;45262.895; 4833.513;  340.594
674.443;45556.367; 4531.489;  319.515
675.020;45698.941; 5309.114;  286.336
675.596;44170.117; 5018.040;  247.557
676.173;43799.391; 4451.815;  227.778
676.749;44184.164; 3922.141;  224.399
677.326;45527.535; 4368.667;  230.520
677.902;47125.813; 4774.042;  241.841
678.478;48807.883; 4461.667;  239.762
679.054;52386.359; 7564.293;  248.583
679.631;48405.531; 5430.918;  237.503
680.207;48109.707; 6464.444;  245.924
680.783;46000.281; 4093.020;  224.845
681.359;49010.953; 5083.095;  209.666
681.935;50609.828; 5235.421;  191.687
682.511;50206.199; 5215.347;  210.008
683.087;48943.273; 5486.172;  213.329
683.663;47704.047; 4989.798;  216.850
684.239;47358.223; 4471.173;  229.471
684.815;49925.395; 5717.749;  248.792
685.390;50275.871; 6583.324;  231.813
685.966;48026.645; 5212.300;  221.234
686.542;48689.719; 4601.525;  214.255
687.118;51898.492; 5305.601;  212.276
687.693;52916.066; 5532.626;  233.096
688.269;52244.438; 5006.652;  246.917
688.844;52700.613; 5451.178;  236.938
689.420;51126.785; 5201.003;  242.059
689.995;50771.762; 6343.929;  245.480
690.571;50237.535; 6073.555;  244.701
691.146;50278.410; 4956.180;  251.922
691.722;51851.883; 5407.605;  284.743
692.297;52376.555; 4926.881;  320.664
692.872;53099.031; 4713.607;  313.885
693.448;53384.902; 4582.982;  290.106
694.023;55779.379; 5245.058;  304.327
694.598;57473.250; 5270.083;  319.648
695.173;55219.426; 4924.559;  323.169
695.748;52065.797; 4215.834;  376.389
696.323;52733.074; 5105.660;  397.610
696.898;54573.848; 5950.936;  430.231
697.473;53677.719; 4299.711;  454.952
698.048;56474.594; 4971.887;  478.973
698.623;57133.969; 4452.513;  477.094
699.198;57049.641; 5220.988;  496.915
699.773;56478.914; 4741.614;  490.236
700.348;55841.688; 4612.189;  519.957
700.922;57368.164; 5259.115;  575.678
701.497;58088.336; 5148.090;  621.399
702.072;57992.313; 5743.716;  664.420
702.646;57063.086; 5594.742;  690.541
703.221;55454.258; 5313.967;  748.862
703.795;53916.133; 4632.393;  774.282
704.370;52387.605; 3778.718;  799.803
704.944;53359.281; 4895.394;  875.824
705.519;55751.254; 5308.319;  902.945
706.093;57005.629; 4681.495;  889.266
706.668;57403.203; 5455.021;  903.487
707.242;58105.977; 5654.146;  881.708
707.816;57343.848; 4947.872;  892.329
708.390;56553.324; 5124.697;  970.250
708.965;55634.098; 5301.323;  984.671
709.539;55770.672; 4990.148; 1026.092
710.113;56199.742; 5207.074; 1067.913
710.687;55388.520; 5640.149; 1166.434
711.261;53373.090; 4559.725; 1190.854
711.835;54696.867; 4612.951; 1197.275
712.409;56854.438; 4253.726; 1308.096
712.983;56861.012; 4290.602; 1461.617
713.557;57090.988; 4282.777; 1611.838
714.131;57066.262; 5013.153; 1554.359
714.704;55352.633; 4634.329; 1520.780
715.278;56629.109; 5144.154; 1575.101
715.852;57942.082; 5585.030; 1689.822
716.425;59232.957; 6407.255; 1829.143
716.999;56155.230; 4212.281; 2008.664
717.573;56591.504; 5429.156; 2000.485
718.146;57903.379; 6262.982; 1914.506
718.720;59840.250; 5259.257; 1818.026
719.293;61476.125; 5467.333; 1734.147
719.867;60465.500; 4764.059; 1716.968
720.440;62225.973; 6015.034; 1918.589
721.013;60688.445; 4811.760; 1975.410
721.587;58946.422; 4299.285; 2073.331
722.160;58971.492; 5726.411; 2357.852
722.733;57601.867; 5173.437; 2657.073
723.306;56208.441; 5141.112; 2703.894
723.880;55107.215; 5249.688; 2549.415
724.453;56228.688; 5992.313; 2414.336
725.026;54853.465; 4835.539; 2298.557
725.599;55259.238; 5329.164; 2168.778
726.172;54736.012; 5443.940; 2106.099
726.745;54588.684; 5378.465; 2253.320
727.318;55759.258; 5725.491; 2404.740
727.891;57243.531; 5322.967; 2680.161
728.463;57371.605; 5295.292; 2838.882
729.036;55202.078; 4689.868; 2755.103
729.609;54673.855; 4626.493; 2731.824
730.182;56864.727; 5631.519; 2855.645
730.754;56742.500; 3903.344; 2946.866
731.327;58049.477; 5446.720; 2840.187
731.900;56877.848; 4321.945; 2647.608
732.472;58959.922; 5046.071; 2473.929
733.045;62213.098; 4950.497; 2445.750
733.617;60514.469; 4246.672; 2511.771
734.190;60319.445; 5419.898; 2581.592
734.762;60071.617; 5102.974; 2710.813
735.334;60591.891; 5176.299; 3005.733
735.907;60065.465; 5168.075; 3154.954
736.479;60188.141; 5842.250; 3171.675
737.051;59776.613; 5445.776; 3217.496
737.623;60966.188; 5507.851; 3246.217
738.195;60059.961; 4769.227; 2985.238
738.768;58399.234; 4023.802; 2727.559
739.340;59610.109; 4860.628; 2666.880
739.912;59427.082; 5603.554; 2769.601
740.484;58008.156; 5436.879; 2731.422
741.056;57376.129; 4970.305; 2963.043
741.628;57683.004; 4624.780; 3361.364
742.199;58897.879; 5959.956; 3641.185
742.771;58055.051; 4440.481; 3932.005
743.343;59353.523; 4653.057; 4319.926
743.915;59462.699; 5345.033; 4706.647
744.487;60753.371; 5489.258; 4874.968
745.058;61526.246; 5553.984; 4616.589
745.630;61206.621; 5518.659; 4253.410
746.201;60682.996; 4827.835; 4056.131
746.773;60433.867; 5459.160; 3772.952
747.344;60082.043; 5104.136; 3642.473
747.916;59443.117; 5270.111; 3752.294
748.487;60081.488; 5635.887; 4106.215
749.059;59717.563; 4506.013; 4457.835
749.630;59606.137; 4721.138; 4366.457
750.201;60561.313; 5102.164; 4600.078
750.773;59473.184; 4777.889; 4658.499
751.344;59916.559; 5161.865; 4609.319
751.915;59344.434; 5092.241; 4526.440
752.486;59096.605; 4694.116; 4536.061
753.057;59666.180; 5222.992; 4383.282
753.628;60583.453; 4686.817; 4296.503
754.199;61762.328; 4885.593; 4383.224
754.770;62155.703; 5480.368; 4653.545
755.341;60315.074; 5749.894; 4831.666
755.912;57883.250; 4999.419; 4831.387
756.483;58078.324; 5448.545; 4735.808
757.054;56559.398; 4883.271; 4685.029
757.625;55174.371; 4503.046; 4994.250
758.195;57138.145; 4325.572; 5051.471
758.766;58277.020; 5270.748; 5317.792
759.337;56594.793; 4280.773; 5646.512
759.907;55983.566; 4342.999; 5404.133
760.478;56975.039; 4789.124; 5090.954
761.048;57341.715; 5493.399; 4871.175
761.619;57360.586; 5362.475; 4589.396
762.189;57502.859; 5069.951; 4171.317
762.760;56826.836; 5565.626; 3872.538
763.330;56070.809; 5503.752; 3832.259
763.900;55990.383; 5284.328; 4150.180
764.471;55101.855; 4638.003; 4529.801
765.041;55744.730; 5847.179; 4715.922
765.611;55113.902; 5437.304; 4681.442
766.181;55150.879; 5039.780; 4717.063
766.751;56436.953; 5119.005; 4710.285
767.321;56135.523; 4448.131; 4450.305
767.891;54672.801; 5204.557; 4274.126
768.461;53515.473; 5037.032; 4215.047
769.031;53959.547; 5077.508; 4173.068
769.601;55183.219; 5778.733; 4174.689
770.171;53765.594; 4328.109; 4229.310
770.741;53747.270; 4911.034; 4352.031
771.311;53980.641; 5448.910; 4336.652
771.880;52701.215; 4618.485; 4300.873
772.450;53154.590; 4677.311; 4387.194
773.020;53136.563; 4289.887; 4220.415
773.589;53094.836; 4754.562; 4075.835
774.159;52692.512; 4800.438; 4105.756
774.729;52799.086; 4720.813; 4114.978
775.298;52843.957; 4759.439; 3693.298
775.867;52078.633; 4757.714; 3343.119
776.437;53035.508; 5131.040; 3062.040
777.006;51569.180; 4302.866; 2927.161
777.576;52553.055; 5446.941; 3046.482
778.145;52183.430; 5370.917; 3230.203
778.714;50538.902; 5031.542; 3253.324
779.283;50313.277; 5439.118; 3129.745
779.853;50778.648; 5058.943; 2983.566
780.422;51338.523; 5060.219; 2929.887
780.991;52688.496; 5386.495; 2863.908
781.560;53157.371; 5965.070; 2948.029
782.129;51298.344; 5295.696; 3074.149
782.698;50895.418; 5900.921; 2893.970
783.267;49665.191; 4729.297; 2721.391
783.836;50183.066; 5276.172; 2659.712
784.404;49988.238; 4461.098; 2622.233
784.973;48508.313; 3851.023; 2600.754
785.542;48869.887; 5026.349; 2528.475
786.111;50076.359; 5830.775; 2404.396
786.679;49233.836; 5452.550; 2365.717
787.248;45697.008; 4330.676; 2498.438
787.817;45247.582; 4810.651; 2645.659
788.385;46546.957; 5724.877; 2709.280
788.954;45202.832; 4367.553; 2620.500
789.522;46337.203; 5565.378; 2625.422
790.090;45120.578; 4385.804; 2743.843
790.659;47410.652; 4865.079; 2635.163
791.227;47791.625; 4976.205; 2495.484
791.795;48882.699; 5255.430; 2413.705
792.364;47969.074; 4543.306; 2345.326
792.932;47830.648; 5377.682; 2350.447
793.500;46489.422; 4911.007; 2429.768
794.068;45417.895; 4323.183; 2513.589
794.636;46631.168; 4670.558; 2664.310
795.204;46888.641; 4202.534; 2721.431
795.772;45759.715; 4632.659; 2802.052
796.340;44935.391; 4759.435; 2847.173
796.908;44233.465; 4206.960; 2997.194
797.476;45129.539; 4502.336; 3151.615
798.044;45661.609; 4136.012; 3110.735
798.612;46543.484; 4980.737; 2931.656
799.180;45458.258; 5133.313; 2785.777
799.747;44509.434; 5083.138; 2899.098
800.315;43529.707; 4392.014; 2955.519
800.883;42694.180; 4061.490; 2948.940
801.450;43757.855; 5018.665; 2965.361
802.018;44935.828; 5292.940; 3070.582
802.585;44293.000; 5054.666; 3156.103
803.153;43206.574; 4664.492; 3199.524
803.720;43897.551; 4707.517; 3168.845
804.287;45175.223; 4887.243; 3248.366
804.855;46808.297; 5659.468; 3406.187
805.422;45556.871; 4918.644; 3430.907
805.989;44040.145; 4588.070; 3453.528
806.556;43844.617; 4591.795; 3612.649
807.124;44206.293; 5564.021; 3736.570
807.691;42816.168; 4479.996; 3770.491
808.258;43449.340; 5059.472; 3705.012
808.825;43509.113; 5589.797; 3828.733
809.392;43645.887; 5972.673; 3986.754
809.959;43593.660; 5256.549; 4410.075
810.526;43524.434; 6019.674; 4774.996
811.093;42175.008; 5721.400; 4754.217
811.659;41553.684; 5003.125; 4661.238
812.226;41634.758; 4971.901; 4672.559
812.793;41902.129; 5206.876; 4822.979
813.360;42364.605; 4989.102; 5189.800
813.926;43152.078; 5258.478; 5310.622
814.493;41850.352; 4367.403; 5414.542
815.060;41100.027; 4104.079; 5548.963
815.626;41892.699; 4424.154; 5452.284
816.193;42285.473; 5153.030; 5339.305
816.759;40261.547; 4596.655; 5544.426
817.325;38919.020; 4107.481; 5706.547
817.892;40509.395; 5512.756; 5623.468
818.458;40164.570; 5284.882; 5586.689
819.024;40330.344; 5746.008; 5647.910
819.591;40130.617; 5041.883; 5762.031
820.157;40149.988; 4388.759; 6284.452
820.723;40226.465; 5277.134; 6906.973
821.289;42147.938; 7644.560; 7086.894
821.855;39914.211; 5422.386; 7054.915
822.421;38709.387; 4781.211; 7112.035
822.987;37946.559; 4474.437; 7256.156
823.553;38417.934; 4880.512; 7538.077
824.119;38803.406; 5598.288; 7594.298
824.685;38328.879; 5809.763; 7613.619
825.251;37625.855; 5485.439; 7644.140
825.816;38319.027; 6152.064; 7720.261
826.382;37869.602; 5462.590; 8014.282
826.948;38185.074; 5587.666; 8281.503
827.513;36729.449; 4939.641; 8289.624
828.079;36136.223; 4576.167; 8587.045
828.645;37417.496; 5236.742; 8821.865
829.210;37132.871; 4476.118; 9054.486
829.776;36845.043; 5393.894; 9054.607
830.341;34932.020; 5571.819; 9415.628
830.906;34466.691; 5734.745; 9932.449
831.472;34361.367; 4652.970;10150.271
832.037;36085.641; 5600.096; 9420.391
832.602;34968.414; 4780.071; 8664.912
833.167;35003.086; 5128.247; 8491.933
833.733;34776.262; 5597.522; 8872.854
834.298;32927.336; 4517.298; 9370.575
834.863;33076.211; 5262.974; 9610.695
835.428;32179.684; 5239.899; 9655.616
835.993;32441.557; 5386.875; 9437.838
836.558;32944.230; 5484.250; 9441.459
837.123;34813.703; 6723.426; 9600.979
837.688;33956.477; 5300.852; 9798.301
838.253;33623.152; 5286.427; 9902.921
838.817;32419.227; 4945.703;10339.742
839.382;32623.900; 5909.928;10548.363
839.947;31436.074; 5175.404;10252.484
840.511;31818.047; 6070.330;10040.005
841.076;29256.820; 4079.655;10099.926
841.641;30196.596; 5452.181;10347.347
842.205;29476.168; 5323.656;10817.368
842.770;29926.043; 6296.932;11435.289
843.334;28616.117; 5019.107;12072.409
843.898;28577.990; 4823.783;12635.431
844.463;29204.863; 5928.008;12537.252
845.027;27670.139; 4890.584;12759.673
845.591;28306.111; 5662.259;12821.993
846.156;27395.186; 4826.035;12520.914
846.720;28123.459; 5556.960;12390.436
847.284;27909.232; 5252.386;12956.456
847.848;27764.906; 5441.262;13240.177
848.412;26771.080; 5169.087;13216.998
848.976;26443.854; 6061.613;13014.619
849.540;25801.229; 6527.588;12355.740
850.104;25477.701; 5991.064;12208.761
850.668;23987.477; 4184.590;12106.882
851.232;24180.250; 4307.315;11862.103
851.796;24403.324; 5074.941;11700.523
852.359;24802.197; 5627.167;12375.944
852.923;25246.672; 5804.642;13087.966
853.487;25251.545; 5520.167;13297.187
854.050;22953.918; 3571.143;13851.207
854.614;23894.492; 4908.619;14854.229
855.177;24060.967; 5336.494;15802.149
855.741;23790.240; 5383.170;16603.570
856.304;23772.514; 5697.095;16359.891
856.868;22042.287; 4635.771;14365.512
857.431;22359.063; 5137.597;13361.333
857.995;22082.135; 4962.522;14130.554
858.558;21490.910; 5337.897;14883.175
859.121;21405.684; 5622.773;15754.195
859.684;20718.457; 5279.549;15995.017
860.247;20775.631; 5129.674;15149.537
860.810;20914.305; 4926.800;14640.358
861.374;22302.678; 6596.625;15551.079
861.937;19753.152; 4535.751;16519.801
862.500;19821.227; 4851.626;16796.521
863.062;19319.600; 4611.952;16538.742
863.625;19968.373; 5352.228;16716.764
864.188;19421.547; 4892.903;17055.084
864.751;19112.820; 4850.029;17197.705
865.314;19062.295; 5205.104;17151.625
865.876;19249.668; 5766.130;17783.547
866.439;19060.943; 5567.105;19283.467
867.002;19831.016; 6460.231;20256.389
867.564;19052.990; 5861.807;20485.410
868.127;18135.664; 5149.032;20789.730
868.689;18134.537; 5392.908;21981.951
869.252;18130.813; 5834.233;23803.771
869.814;16898.686; 4718.109;24974.094
870.377;17451.059; 5351.635;24690.314
870.939;19150.834; 7392.760;23963.436
871.501;16767.607; 5303.736;25167.156
872.063;15222.280; 3896.411;26995.477
872.626;15612.255; 4223.787;27443.098
873.188;16495.729; 5324.163;26718.418
873.750;15818.103; 5080.338;26558.840
874.312;15402.576; 4895.864;26701.561
874.874;16630.549; 6199.339;27970.582
875.436;15789.124; 5680.564;29173.402
875.998;16128.798; 6024.940;30376.623
876.560;15371.071; 5691.266;32507.344
877.122;14208.945; 4768.292;34833.066
877.683;14697.419; 5575.017;36458.285
878.245;13700.393; 4897.792;37248.207
878.807;14226.967; 5480.068;36758.027
879.369;13060.141; 4507.444;35223.551
879.930;13133.314; 4623.719;33824.969
880.492;14520.888; 5949.395;34436.492
881.053;13088.861; 4672.570;37745.313
881.615;12955.535; 4868.146;41184.633
882.176;12740.109; 5057.021;42871.555
882.738;13089.783; 5618.397;41693.074
883.299;11311.857; 4152.623;40289.895
883.860;11348.131; 4284.748;39231.215
884.422;12550.805; 5557.724;38264.039
884.983;11332.179; 4626.299;37171.859
885.544;11690.252; 5340.225;35842.379
886.105;11148.726; 5211.150;34810.000
886.666;10696.399; 4913.826;34519.020
887.227; 9952.674; 4302.852;33905.641
887.788;10906.848; 5344.127;34502.965
888.349; 9782.621; 4439.103;34241.785
888.910;10809.896; 5573.479;33722.203
889.471;10521.569; 5316.104;32539.625
890.032;10168.343; 5162.779;31528.346
890.593;10285.816; 5543.855;32655.068
891.153; 9638.290; 5135.131;33882.289
891.714; 8824.964; 4414.606;33318.711
892.275; 8708.538; 4501.832;31848.930
892.835; 9763.111; 5723.458;30339.752
893.396; 9397.886; 5634.183;30074.973
893.956; 8642.159; 5032.409;30338.393
894.517; 8687.333; 5302.334;30864.113
895.077; 8656.007; 5403.359;29766.734
895.638; 9259.381; 6198.235;26379.557
896.198; 7447.854; 4584.511;24056.277
896.758; 8466.028; 5675.736;22961.898
897.319; 7676.302; 5074.512;21772.020
897.879; 7607.876; 5141.837;20877.539
898.439; 6706.850; 4307.613;19509.461
898.999; 7872.724; 5535.039;17297.582
899.559; 7708.498; 5431.164;14712.002
900.119; 6748.571; 4616.940;12790.224
900.679; 8139.245; 6113.965;11586.744
901.239; 7534.019; 5570.341;10776.465
901.799; 7069.093; 5233.517; 9691.687
902.359; 6504.467; 4687.342; 8725.907
902.919; 6408.641; 4621.167; 8305.728
903.479; 6386.814; 4659.443; 8172.649
904.038; 6070.288; 4449.169; 7913.870
904.598; 5443.962; 3875.344; 7262.291
905.158; 6398.236; 4863.920; 6609.012
905.717; 6530.910; 5072.996; 6236.133
906.277; 6574.983; 5162.421; 5829.054
906.836; 6835.357; 5462.646; 5396.674
907.396; 6689.231; 5392.572; 4964.195
907.955; 6731.705; 5429.648; 4528.917
908.515; 6190.979; 4933.723; 4223.837
909.074; 6245.652; 4988.649; 4023.958
909.633; 6210.126; 5010.174; 4065.379
910.192; 7430.800; 6207.950; 4066.300
910.752; 6135.600; 4959.600; 3971.600
911.311; 6039.000; 4865.850; 3839.600
911.870; 5833.400; 4688.450; 3684.500
912.429; 6944.500; 5783.650; 3635.600
912.988; 6790.100; 5661.550; 3689.800
913.547; 5717.700; 4605.900; 3737.700
914.106; 6314.700; 5258.100; 3740.300
914.665; 6294.400; 5208.000; 3604.600
915.224; 6840.600; 5768.550; 3358.700
915.782; 5877.300; 4839.550; 3188.400
916.341; 6996.000; 5962.050; 3091.400
916.900; 5951.100; 4909.900; 3044.800
917.458; 5642.800; 4651.400; 2888.600
918.017; 6236.000; 5178.650; 2818.900
918.576; 5936.400; 4931.300; 2838.600
919.134; 5330.500; 4303.950; 2880.100
919.693; 5923.900; 4873.500; 2996.300
920.251; 5813.700; 4780.050; 3183.100
920.809; 5523.000; 4494.900; 3247.000
921.368; 5825.200; 4778.200; 3156.600
921.926; 5604.400; 4589.350; 2964.900
922.484; 6149.800; 5097.850; 2846.300
923.042; 5954.300; 4926.600; 2890.400
923.601; 7015.000; 5921.450; 2987.700
924.159; 6454.300; 5421.100; 3049.800
924.717; 5621.400; 4566.750; 3087.000
925.275; 6156.200; 5131.200; 3093.400
925.833; 5152.400; 4094.750; 3182.400
926.391; 6444.100; 5383.850; 3397.900
926.949; 5852.600; 4799.250; 3575.400
927.506; 6239.600; 5168.150; 3713.400
928.064; 5983.500; 4871.550; 3871.300
928.622; 6077.500; 4950.850; 4092.800
929.180; 5504.400; 4394.550; 4499.300
929.737; 5444.600; 4262.150; 4813.200
930.295; 6528.700; 5342.700; 5084.100
930.853; 5814.000; 4611.400; 5185.000
931.410; 5548.000; 4362.650; 5313.100
931.968; 6634.800; 5435.750; 5339.600
932.525; 6238.200; 5058.050; 5399.900
933.082; 5506.400; 4274.850; 5457.500
933.640; 6466.600; 5255.400; 5692.900
934.197; 6079.800; 4870.600; 5821.200
934.754; 6142.500; 4870.050; 5617.900
935.312; 5922.800; 4606.400; 5512.400
935.869; 7193.900; 5887.300; 5582.400
936.426; 5929.400; 4637.950; 5650.100
936.983; 6060.800; 4807.450; 5657.400
937.540; 5628.500; 4325.550; 5564.300
938.097; 6540.800; 5211.850; 5574.000
938.654; 6043.000; 4733.500; 5665.900
939.211; 6526.700; 5207.750; 5931.600
939.768; 6285.900; 4927.300; 6153.600
940.324; 6133.300; 4788.500; 6397.600
940.881; 5937.000; 4588.100; 6454.200
941.438; 7056.500; 5707.300; 6206.900
941.995; 6879.000; 5495.300; 6003.900
942.551; 5724.900; 4355.850; 6228.300
943.108; 6251.500; 4900.450; 6603.500
943.664; 5752.500; 4401.000; 7188.100
944.221; 7534.400; 6214.550; 7579.900
944.777; 5674.700; 4352.050; 7658.100
945.334; 5794.900; 4460.300; 7670.400
945.890; 6322.500; 4974.650; 7525.100
946.446; 6352.700; 5010.250; 7261.500
947.003; 6461.800; 5163.700; 6949.200
947.559; 7249.700; 5954.200; 6773.100
948.115; 6905.800; 5645.200; 6668.400
948.671; 6482.400; 5137.900; 6488.400
949.227; 5522.700; 4193.750; 6236.600
949.783; 5468.100; 4117.050; 6008.900
950.339; 6534.500; 5242.800; 5934.100
950.895; 6873.300; 5574.850; 5933.500
951.451; 6039.500; 4741.800; 6074.700
952.007; 6622.000; 5352.750; 6066.400
952.563; 6094.600; 4791.800; 5884.100
953.118; 5869.600; 4613.750; 5733.800
953.674; 6220.700; 4922.500; 5734.300
954.230; 6226.800; 4959.300; 6039.700
954.785; 6211.800; 4916.850; 6383.500
955.341; 6698.100; 5416.850; 6568.200
955.897; 5385.600; 4133.300; 6488.600
956.452; 6408.400; 5157.200; 6239.200
957.008; 7567.700; 6357.800; 5954.600
957.563; 6889.300; 5679.400; 5816.700
958.118; 5765.200; 4559.100; 5828.200
958.674; 6308.700; 5078.700; 5717.400
959.229; 6996.600; 5788.900; 5506.800
959.784; 5478.700; 4272.350; 5292.200
960.339; 6958.400; 5738.950; 5101.900
960.894; 6644.500; 5417.000; 5093.200
961.449; 5727.700; 4517.750; 5227.900
962.004; 8722.800; 7532.950; 5349.300
962.559; 5801.400; 4597.600; 5514.900
963.114; 4792.300; 3622.400; 5717.300
963.669; 6187.100; 5023.250; 5841.400
964.224; 5920.200; 4740.150; 5805.900
964.779; 5492.800; 4358.550; 5723.400
965.334; 6967.200; 5790.050; 5779.500
965.888; 5846.800; 4670.950; 5948.500
966.443; 6669.700; 5528.700; 6344.200
966.998; 5290.100; 4132.900; 6666.300
967.552; 6128.700; 4962.650; 6710.100
968.107; 5782.900; 4647.700; 6593.500
968.661; 6260.500; 5145.450; 6344.100
969.216; 5704.900; 4608.150; 6062.400
969.770; 6260.200; 5152.800; 5785.500
970.324; 6251.300; 5182.700; 5426.800
970.879; 6529.700; 5463.500; 5016.800
971.433; 6566.600; 5521.200; 4904.500
971.987; 6102.000; 5071.450; 4991.000
972.541; 6302.400; 5259.650; 4978.500
973.095; 7060.600; 6011.200; 4832.000
973.649; 5357.900; 4331.800; 4767.900
974.203; 5510.700; 4502.500; 4881.200
974.757; 5771.800; 4730.300; 4969.500
975.311; 5946.300; 4921.050; 4953.000
975.865; 5973.000; 4997.600; 4884.300
976.419; 5805.700; 4821.850; 4739.800
976.973; 5730.200; 4742.950; 4698.100
977.526; 6596.600; 5635.700; 4631.100
978.080; 5301.500; 4325.400; 4621.600
978.634; 6299.000; 5383.250; 4650.200
979.187; 6189.000; 5267.150; 4669.200
979.741; 7196.200; 6253.100; 4658.000
980.294; 5271.700; 4361.800; 4579.100
980.848; 4651.100; 3796.150; 4452.800
981.401; 5535.700; 4698.600; 4271.900
981.955; 5841.400; 4978.100; 4087.800
982.508; 4981.300; 4129.250; 3973.900
983.061; 6475.500; 5614.150; 3928.600
983.615; 5391.700; 4550.500; 3851.200
984.168; 5181.200; 4374.550; 3734.800
984.721; 6124.200; 5297.850; 3628.300
985.274; 5991.900; 5179.000; 3564.300
985.827; 5737.000; 4956.350; 3558.100
986.380; 4784.200; 4019.650; 3559.900
986.933; 5996.500; 5235.600; 3688.700
987.486; 6023.500; 5250.250; 3778.500
988.039; 5956.400; 5211.400; 3559.900
988.591; 6273.600; 5577.650; 3219.300
989.144; 4994.000; 4254.600; 2902.900
989.697; 5232.900; 4526.200; 2722.600
990.250; 6123.500; 5416.950; 2618.000
990.802; 5242.300; 4538.700; 2523.900
991.355; 7183.300; 6484.450; 2436.500
991.907; 6253.950; 5581.450; 2412.200
992.460; 5324.600; 4678.450; 2387.900
993.012; 5317.800; 4678.000; 2365.800
993.565; 5005.800; 4384.000; 2311.100
994.117; 7028.000; 6381.400; 2308.700
994.669; 4990.700; 4400.700; 2249.300
995.221; 5823.300; 5229.250; 2158.100
995.774; 5719.400; 5121.500; 2085.600
996.326; 5347.600; 4758.800; 2068.100
996.878; 6245.000; 5677.700; 1975.300
997.430; 5070.500; 4524.900; 1929.500
997.982; 5536.100; 4971.100; 1861.900
998.534; 5466.900; 4937.900; 1830.200
999.086; 5411.900; 4910.300; 1823.200
999.638; 4767.800; 4255.000; 1815.000
1000.190; 5195.900; 4652.250; 1796.600
1000.741; 5548.800; 5014.250; 1738.800
1001.293; 5042.200; 4532.050; 1666.200
1001.845; 5017.600; 4533.200; 1566.500
1002.396; 5567.400; 5081.800; 1471.900
1002.948; 5533.200; 5048.700; 1398.000
1003.500; 5446.500; 4960.550; 1356.500
1004.051; 7087.200; 6624.850; 1294.200
1004.603; 6113.200; 5643.750; 1190.000
1005.154; 4567.000; 4166.050; 1063.900
1005.705; 5535.900; 5158.700;  968.300
1006.257; 5452.500; 5060.350;  889.800
1006.808; 5291.800; 4926.700;  801.500
1007.359; 6021.800; 5655.450;  716.400
1007.910; 4982.500; 4671.000;  639.100
1008.461; 5780.400; 5443.300;  561.600
1009.013; 4528.200; 4188.250;  500.400
1009.564; 6284.600; 5967.100;  476.100
1010.115; 4611.600; 4299.100;  431.600
1010.665; 4710.200; 4390.700;  409.300
1011.216; 5248.900; 4940.700;  399.700
1011.767; 5470.000; 5164.100;  388.100
1012.318; 5692.500; 5392.150;  381.400
1012.869; 5271.200; 4966.150;  375.400
1013.419; 4667.700; 4378.150;  357.600
1013.970; 5272.800; 4961.350;  358.300
1014.521; 4808.700; 4524.950;  344.100
1015.071; 5317.700; 5015.950;  322.800
1015.622; 4957.000; 4668.650;  320.600
1016.172; 4642.700; 4392.750;  301.700
1016.723; 4791.100; 4524.350;  289.800
1017.273; 4753.600; 4471.700;  287.600
1017.823; 5071.200; 4817.050;  278.700
1018.374; 4820.200; 4549.200;  274.400
1018.924; 5699.500; 5442.750;  283.200
1019.474; 5625.400; 5356.750;  278.500
1020.024; 5152.500; 4888.650;  274.700
1020.574; 5753.100; 5503.500;  272.700
1021.124; 5387.700; 5080.200;  278.400
1021.674; 4389.400; 4124.300;  269.200
1022.224; 5683.700; 5407.900;  267.800
1022.774; 5254.300; 5009.550;  258.100
1023.324; 6041.000; 5784.100;  260.000
1023.874; 7125.900; 6859.800;  260.700
1024.423; 4847.400; 4580.650;  252.700
1024.973; 4743.800; 4470.350;  234.700
1025.523; 4899.000; 4626.050;  226.500
1026.072; 4798.000; 4538.100;  225.500
1026.622; 5353.200; 5114.600;  210.100
1027.172; 5699.700; 5425.100;  213.000
1027.721; 4750.900; 4495.400;  207.700
1028.270; 5321.100; 5086.500;  205.400
1028.820; 5093.900; 4850.200;  201.000
1029.369; 4871.900; 4637.950;  201.000
1029.918; 5124.400; 4862.500;  198.400
1030.468; 4472.600; 4243.350;  199.200
1031.017; 5064.000; 4836.350;  192.600
1031.566; 4845.700; 4617.600;  197.400
1032.115; 5577.200; 5331.750;  188.300
1032.664; 4798.300; 4559.450;  193.700
1033.213; 5931.800; 5668.250;  191.900
1033.762; 5063.200; 4830.250;  184.500
1034.311; 5413.100; 5191.500;  194.300
1034.860; 5517.500; 5284.950;  192.300
1035.408; 5821.100; 5610.700;  182.600
1035.957; 5775.900; 5522.400;  173.900
1036.506; 4173.200; 3960.200;  185.200
1037.055; 6842.500; 6586.050;  182.500
1037.603; 5314.200; 5103.350;  167.600
1038.152; 4190.500; 3968.450;  168.200
1038.700; 4633.700; 4427.150;  169.600
1039.249; 5428.000; 5226.650;  164.300
1039.797; 5076.800; 4872.500;  169.600
1040.345; 5656.800; 5424.800;  167.100
1040.894; 5034.300; 4813.700;  164.400
1041.442; 5093.500; 4877.550;  158.300
1041.990; 4487.800; 4262.300;  160.000
1042.538; 4273.400; 4042.350;  156.800
1043.087; 4503.400; 4310.800;  146.600
1043.635; 5453.400; 5260.000;  162.400
1044.183; 4722.500; 4514.800;  156.300
1044.731; 4602.000; 4406.500;  158.100
1045.279; 5460.400; 5219.050;  154.500
1045.827; 7304.100; 7077.300;  146.200
1046.374; 4085.100; 3856.850;  154.000
1046.922; 4715.000; 4528.700;  149.000
1047.470; 5617.400; 5396.150;  154.900
1048.018; 5309.900; 5076.000;  148.400
1048.565; 5784.400; 5586.050;  146.300
1049.113; 4430.700; 4219.750;  156.100
1049.660; 5027.800; 4830.250;  154.300
1050.208; 5456.600; 5232.150;  149.400
1050.755; 4886.100; 4685.600;  157.500
1051.303; 5592.500; 5350.000;  157.700
1051.850; 5095.600; 4900.250;  152.800
1052.397; 3756.200; 3583.350;  146.300
1052.945; 4992.200; 4763.250;  149.500
1053.492; 6024.600; 5860.450;  149.300
1054.039; 5887.500; 5671.700;  163.100
1054.586; 4489.400; 4260.150;  150.400
1055.133; 5644.800; 5451.250;  153.500
1055.680; 5213.300; 5019.000;  155.600
1056.227; 4353.600; 4119.750;  148.700
1056.774; 6486.500; 6272.800;  151.500
1057.321; 4209.300; 3982.050;  143.700
1057.868; 5241.500; 5038.200;  145.300
1058.415; 5309.200; 5095.550;  153.500
1058.961; 5493.700; 5280.150;  149.900
1059.508; 5192.800; 4988.750;  147.300
1060.055; 4725.500; 4525.850;  151.000
1060.601; 5018.300; 4812.050;  148.700
1061.148; 5083.400; 4856.200;  153.800
1061.694; 4844.200; 4607.750;  150.500
1062.241; 4831.700; 4618.400;  149.100
1062.787; 5424.100; 5206.850;  153.000
1063.334; 6560.200; 6355.650;  153.200
1063.880; 5469.100; 5266.000;  148.400
1064.426; 5769.200; 5564.350;  149.200
1064.972; 4870.400; 4656.350;  156.400
1065.518; 4589.100; 4387.200;  144.700
1066.065; 5122.800; 4927.450;  139.400
1066.611; 4890.900; 4690.100;  139.300
1067.157; 5217.900; 5020.700;  138.400
1067.703; 5464.700; 5278.700;  142.700
1068.249; 4831.700; 4640.100;  136.700
1068.794; 5100.000; 4906.750;  139.400
1069.340; 4690.300; 4496.450;  142.700
1069.886; 4853.800; 4653.350;  135.600
1070.432; 4349.800; 4171.150;  133.400
1070.977; 4925.700; 4721.800;  138.200
1071.523; 4588.000; 4393.350;  132.400
1072.068; 4681.000; 4498.200;  132.700
1072.614; 4224.100; 4055.600;  127.000
1073.160; 5663.900; 5477.150;  131.300
1073.705; 4692.200; 4497.900;  135.700
1074.250; 4571.500; 4390.750;  133.000
1074.796; 5380.200; 5194.350;  138.000
1075.341; 5411.500; 5229.600;  137.300
1075.886; 4808.900; 4626.400;  134.300
1076.431; 5378.200; 5204.900;  138.200
1076.976; 5294.500; 5083.800;  132.200
1077.521; 4721.500; 4562.800;  138.900
1078.067; 4752.900; 4576.800;  128.600
1078.612; 5465.200; 5274.850;  138.900
1079.156; 4931.900; 4743.400;  128.900
1079.701; 5721.800; 5527.550;  129.700
1080.246; 5709.500; 5543.800;  128.600
1080.791; 5163.200; 4994.550;  122.600
1081.336; 5411.100; 5231.150;  122.000
1081.880; 5356.600; 5190.550;  123.900
1082.425; 4673.500; 4490.500;  120.600
1082.970; 5890.900; 5734.950;  124.500
1083.514; 4893.300; 4696.700;  112.000
1084.059; 4788.900; 4624.650;  120.700
1084.603; 4661.900; 4479.200;  116.000
1085.147; 5318.400; 5167.200;  116.300
1085.692; 5933.500; 5753.400;  108.200
1086.236; 4145.100; 3966.450;  114.600
1086.780; 6238.200; 6044.500;  118.900
1087.325; 5388.600; 5225.500;  120.400
1087.869; 5054.900; 4879.850;  110.500
1088.413; 5779.100; 5615.250;  114.000
1088.957; 4414.700; 4238.200;  114.300
1089.501; 6386.700; 6206.000;  114.600
1090.045; 6043.800; 5864.600;  114.200
1090.589; 4648.600; 4492.250;  105.500
1091.133; 5545.100; 5377.300;  111.800
1091.676; 4810.000; 4649.250;  110.900
1092.220; 4936.000; 4787.250;  110.100
1092.764; 5841.000; 5672.550;  108.100
1093.307; 5532.200; 5364.100;  109.900
1093.851; 4575.600; 4422.150;  107.500
1094.395; 5656.600; 5493.850;   96.200
1094.938; 5218.900; 5062.000;   99.300
1095.482; 4606.200; 4436.550;   97.700
1096.025; 5876.100; 5711.450;   84.900
1096.568; 6413.900; 6229.550;   88.500
1097.112; 4117.800; 3972.400;   95.700
1097.655; 4904.300; 4744.650;   97.300
1098.198; 4914.500; 4778.850;   92.600
1098.741; 5117.700; 4922.400;   91.800
1099.285; 5415.800; 5240.200;   88.000
1099.828; 3616.500; 3448.600;   91.700
1100.371; 5051.600; 4888.250;   89.900
1100.914; 5694.000; 5508.500;   91.500
1101.457; 5638.700; 5443.850;   88.100
1101.999; 4790.200; 4632.250;   86.400
1102.542; 5274.000; 5117.750;   90.800
1103.085; 5467.500; 5320.700;   95.400
1103.628; 6365.500; 6206.250;   97.700
1104.170; 4816.700; 4684.400;   84.000
1104.713; 5351.000; 5195.850;   93.900
1105.256; 4584.700; 4419.550;   93.000
1105.798; 4151.500; 3988.600;   85.600
1106.341; 6046.700; 5905.300;   87.100
1106.883; 4330.400; 4161.400;   85.200
1107.425; 5562.900; 5414.900;   85.000
1107.968; 5122.000; 4974.500;   84.300
1108.510; 5673.700; 5540.350;   88.200
1109.052; 5163.900; 4988.450;   86.600
1109.594; 4618.900; 4484.800;   79.400
1110.136; 5371.700; 5221.300;   81.700
1110.679; 5233.800; 5066.900;   75.500
1111.221; 5053.200; 4895.250;   88.500
1111.763; 4616.700; 4453.050;   87.700
1112.304; 4529.000; 4373.350;   89.700
1112.846; 5536.700; 5377.400;   81.900
1113.388; 7902.700; 7765.850;   86.400
1113.930; 5791.500; 5628.400;   84.700
1114.472; 5063.300; 4929.350;   78.900
1115.013; 4577.900; 4415.050;   78.100
1115.555; 4919.000; 4761.800;   84.900
1116.097; 4780.000; 4628.450;   79.200
1116.638; 5715.000; 5576.850;   83.700
1117.180; 5502.700; 5357.600;   85.500
1117.721; 4786.500; 4643.900;   78.800
1118.262; 5638.000; 5513.150;   77.400
1118.804; 5302.800; 5150.350;   81.400
1119.345; 4836.900; 4708.600;   77.800
1119.886; 5865.000; 5730.300;   81.200
1120.427; 4909.000; 4749.450;   77.200
1120.969; 5010.300; 4855.250;   75.200
1121.510; 4709.400; 4565.100;   80.900
1122.051; 6050.300; 5882.950;   77.300
1122.592; 5510.000; 5362.150;   73.300
1123.133; 4527.400; 4406.450;   90.100
1123.673; 5916.900; 5780.650;   75.000
1124.214; 5117.500; 4988.450;   80.600
1124.755; 5391.800; 5239.150;   78.000
1125.296; 5205.100; 5071.700;   77.500
1125.836; 5745.000; 5614.350;   80.400
1126.377; 5011.900; 4888.950;   75.600
1126.918; 5138.300; 4990.000;   78.900
1127.458; 5225.200; 5057.400;   78.000
1127.999; 5496.600; 5356.800;   76.100
1128.539; 5825.000; 5660.000;   81.400
1129.079; 5341.400; 5167.400;   77.400
1129.620; 4654.200; 4531.750;   68.000
1130.160; 4523.700; 4398.900;   77.500
1130.700; 5363.800; 5217.650;   76.300
1131.240; 5370.100; 5245.000;   66.800
1131.781; 5233.300; 5091.350;   70.600
1132.321; 5024.700; 4912.100;   77.200
1132.861; 4697.900; 4544.850;   70.400
1133.401; 5005.900; 4886.600;   68.700
1133.941; 5265.800; 5117.700;   68.500
1134.481; 5081.400; 4933.900;   75.900
1135.020; 5118.300; 4968.550;   66.600
1135.560; 5603.300; 5473.300;   68.100
1136.100; 4177.200; 4069.400;   64.900
1136.640; 4320.500; 4176.500;   72.500
1137.179; 4467.500; 4350.650;   69.700
1137.719; 5089.200; 4954.400;   68.400
1138.258; 4937.400; 4803.500;   67.000
1138.798; 5554.900; 5416.400;   69.600
1139.337; 4036.300; 3922.550;   64.000
1139.877; 5336.000; 5230.350;   64.500
1140.416; 7300.600; 7166.500;   74.900
1140.955; 4442.900; 4333.400;   67.200
1141.494; 5664.100; 5532.550;   69.900
1142.034; 4916.400; 4767.300;   59.100
1142.573; 5445.300; 5287.550;   65.900
1143.112; 4656.400; 4512.350;   70.600
1143.651; 4521.900; 4385.950;   67.100
1144.190; 5837.800; 5703.450;   56.700
1144.729; 5095.100; 4955.750;   61.800
1145.267; 4875.300; 4736.950;   62.500
1145.806; 5361.800; 5220.900;   68.500
1146.345; 5416.200; 5257.750;   58.300
1146.884; 5298.500; 5145.950;   63.100
1147.422; 4473.000; 4340.300;   54.800
1147.961; 5956.900; 5848.100;   67.600
1148.500; 5628.300; 5498.250;   64.700
1149.038; 5361.700; 5233.850;   61.000
1149.577; 5895.100; 5777.000;   65.100
1150.115; 3800.000; 3681.900;   58.100
1150.653; 5124.900; 5012.650;   60.500
1151.192; 4698.200; 4567.250;   56.600
1151.730; 5526.700; 5413.950;   62.300
1152.268; 4953.400; 4812.600;   55.500
1152.806; 4816.900; 4734.050;   58.200
1153.344; 4839.000; 4732.600;   55.000
1153.882; 5037.500; 4902.000;   64.200
1154.421; 3947.500; 3841.450;   60.300
1154.958; 5058.400; 4952.800;   58.100
1155.496; 5407.600; 5328.650;   55.800
1156.034; 6095.200; 5973.800;   61.000
1156.572; 5643.200; 5493.900;   56.200
1157.110; 3967.100; 3856.400;   53.200
1157.647; 5719.500; 5588.750;   57.400
1158.185; 4787.400; 4685.000;   55.500
1158.723; 4308.700; 4210.500;   58.000
1159.260; 5866.100; 5779.700;   53.700
1159.798; 5567.200; 5442.950;   51.700
1160.335; 5346.700; 5227.600;   59.600

