
Integration time [ms]:   3.276
Averaging Nr. [scans]: 1000
Smoothing Nr. [pixels]: 0
Data measured with spectrometer [name]: 7414430SP
Wave   ;Sample   ;Dark     ;Reference
[nm]   ;[counts] ;[counts] ;[counts] 

288.544;  157.798;    7.793;  793.890
289.143;  160.418;    7.462;  681.602
289.742;  161.323;    8.602;  828.814
290.341;  148.057;    1.321;  789.841
290.940;  139.066;   -0.709;  730.702
291.538;  140.060;    0.881;  881.108
292.137;  139.343;    0.122;  792.581
292.736;  142.132;   -1.929;  975.101
293.335;  138.529;   -8.229;  735.086
293.934;  140.117;   -5.279;  781.677
294.532;  140.250;   -1.369; 1031.958
295.131;  125.801;   -7.641;  834.394
295.730;  125.727;   -8.420;  809.588
296.328;  123.444;   -5.611;  783.442
296.927;  121.742;   -5.781;  779.652
297.525;  124.721;   -6.361;  781.236
298.124;  115.996;  -11.382;  654.009
298.722;  120.266;   -7.641;  761.933
299.321;  116.577;   -6.811;  708.597
299.919;  114.041;   -6.991;  751.918
300.518;  109.779;  -10.362;  689.338
301.116;  112.407;   -9.581;  691.381
301.715;  113.645;   -4.891;  730.222
302.313;  111.169;   -8.801;  704.943
302.911;  106.250;   -8.522;  733.830
303.509;  111.986;   -6.171;  925.627
304.108;  109.064;   -7.311;  760.383
304.706;  109.022;   -8.321;  801.664
305.304;  102.809;  -10.222;  796.707
305.902;  108.029;   -6.021;  784.484
306.500;  103.917;   -4.971;  728.200
307.098;  102.796;   -7.061;  746.560
307.696;  100.516;   -8.801;  780.432
308.294;  101.043;   -6.411;  731.359
308.892;  103.281;   -2.901;  759.769
309.490;   99.318;   -5.041;  712.161
310.088;   96.883;   -5.002;  788.444
310.686;  101.259;   -2.041;  821.749
311.284;   96.465;   -2.351;  766.040
311.882;   94.943;   -4.422;  731.225
312.480;   91.699;   -4.192;  697.167
313.078;   92.527;   -1.172;  808.331
313.675;   92.969;   -2.601;  691.600
314.273;   87.998;   -1.312;  797.837
314.871;   87.696;   -3.942;  589.829
315.468;   85.142;   -2.802;  652.090
316.066;   88.815;   -0.701;  694.427
316.664;   81.245;   -4.362;  656.351
317.261;   86.533;   -2.872;  910.128
317.859;   81.263;   -2.022;  768.735
318.456;   81.138;   -0.531;  830.096
319.054;   78.214;   -3.912;  787.828
319.651;   76.069;   -4.752;  759.928
320.249;   75.233;   -2.602;  810.188
320.846;   72.066;   -0.821;  714.286
321.443;   70.208;   -4.642;  832.135
322.041;   67.978;   -5.002;  812.315
322.638;   64.970;   -3.982;  701.456
323.235;   65.545;   -3.411;  665.683
323.833;   62.796;   -7.361;  740.354
324.430;   58.181;   -8.611;  615.900
325.027;   59.926;   -4.061;  876.855
325.624;   58.673;   -4.031;  644.532
326.221;   55.818;   -7.481;  689.717
326.818;   55.845;   -5.281;  818.332
327.415;   58.432;   -7.460;  748.828
328.012;   57.248;   -5.510;  690.585
328.609;   56.415;   -7.880;  731.389
329.206;   55.030;   -8.331;  778.621
329.803;   54.391;   -5.121;  737.841
330.400;   56.492;   -4.510;  704.260
330.997;   58.084;   -6.441;  817.147
331.594;   56.225;   -8.831;  788.185
332.191;   61.148;   -7.621;  728.722
332.787;   64.930;   -4.591;  844.463
333.384;   64.337;   -7.412;  763.093
333.981;   64.031;   -8.293;  815.687
334.578;   65.834;   -7.052;  708.378
335.174;   69.462;   -3.102;  731.469
335.771;   68.083;   -5.943;  836.456
336.367;   65.356;   -7.393;  710.631
336.964;   70.701;   -4.063;  793.266
337.561;   68.611;   -3.813;  731.112
338.157;   63.542;   -4.654;  911.916
338.754;   62.259;   -7.934;  796.589
339.350;   60.145;   -4.414;  722.493
339.946;   62.113;   -4.664;  773.135
340.543;   54.006;   -6.375;  846.136
341.139;   47.636;   -9.815;  720.836
341.735;   44.673;   -4.526;  772.593
342.332;   44.682;   -4.895;  691.472
342.928;   44.447;   -4.295;  795.394
343.524;   36.847;   -5.476;  761.684
344.120;   33.900;   -5.856;  738.562
344.716;   36.150;   -2.155;  723.717
345.313;   35.017;   -6.275;  795.342
345.909;   29.311;   -8.815;  627.336
346.505;   30.140;   -5.305;  740.247
347.101;   30.848;   -2.674;  827.864
347.697;   31.477;   -4.344;  785.398
348.293;   25.995;   -9.975;  627.244
348.889;   27.422;   -5.774;  745.914
349.485;   26.053;   -5.004;  688.205
350.081;   26.555;   -4.704;  772.592
350.676;   21.942;   -6.635;  691.606
351.272;   25.900;   -4.504;  809.530
351.868;   25.611;   -3.914;  780.497
352.464;   23.041;   -9.044;  723.932
353.059;   19.994;   -8.314;  646.017
353.655;   22.005;   -7.024;  777.063
354.251;   23.636;   -5.343;  759.845
354.846;   17.621;   -8.604;  740.646
355.442;   15.883;   -6.945;  753.071
356.038;   17.684;   -7.564;  751.708
356.633;   17.555;   -5.814;  728.594
357.229;   15.635;   -7.364;  724.757
357.824;   14.546;   -8.024;  703.600
358.420;   13.429;   -9.384;  679.726
359.015;   13.407;   -5.104;  695.357
359.610;   14.181;   -6.854;  763.920
360.206;    8.198;  -10.185;  603.240
360.801;   11.453;   -7.054;  646.503
361.396;   12.855;   -5.034;  725.975
361.992;    8.647;   -8.284;  668.220
362.587;    5.885;   -8.625;  670.160
363.182;    7.904;   -7.674;  689.631
363.777;    8.164;   -5.164;  738.242
364.372;    8.620;   -8.604;  737.314
364.967;    4.464;   -9.055;  680.744
365.563;    8.485;   -6.114;  815.567
366.158;    5.474;   -5.814;  685.161
366.753;    6.011;   -7.854;  649.263
367.348;    4.728;   -7.804;  746.056
367.942;    3.716;   -7.954;  697.298
368.537;    2.959;   -4.984;  754.245
369.132;    3.304;   -8.564;  703.428
369.727;    0.830;   -8.855;  638.079
370.322;    1.528;   -6.245;  580.186
370.917;    0.842;   -6.425;  710.646
371.511;    3.544;   -6.294;  861.834
372.106;    0.282;   -7.685;  776.964
372.701;   -3.338;   -7.335;  585.988
373.296;    1.546;   -4.564;  863.135
373.890;   -2.829;  -10.235;  647.840
374.485;   -5.547;   -7.885;  691.199
375.079;   -2.068;   -7.324;  738.685
375.674;   -0.296;   -3.494;  812.970
376.268;   -4.138;   -8.525;  691.759
376.863;   -9.543;  -10.086;  580.327
377.457;   -3.176;   -7.025;  662.490
378.052;   -5.727;   -3.585;  764.884
378.646;   -5.999;   -7.595;  741.167
379.240;   -7.345;   -8.335;  721.176
379.835;   -5.966;   -5.785;  636.978
380.429;   -8.184;   -4.335;  562.557
381.023;   -7.963;   -6.805;  779.205
381.617;  -10.648;   -9.195;  680.106
382.212;   -7.162;   -6.905;  685.303
382.806;   -6.405;   -3.745;  760.690
383.400;  -10.017;   -7.745;  672.281
383.994;  -11.871;   -9.765;  664.870
384.588;   -7.550;   -6.564;  697.701
385.182;   -6.860;   -5.344;  726.624
385.776;   -8.140;   -8.514;  706.875
386.370;  -10.704;   -9.555;  681.968
386.964;  -10.303;   -8.715;  684.155
387.558;   -8.941;   -6.174;  598.360
388.152;  -11.684;   -8.725;  681.959
388.745;  -10.428;   -7.965;  814.707
389.339;   -8.812;   -5.924;  747.642
389.933;   -7.821;   -5.524;  695.370
390.527;   -8.823;   -7.114;  859.029
391.120;  -15.312;  -10.725;  595.318
391.714;  -11.651;   -8.035;  711.633
392.308;   -8.993;   -3.574;  780.253
392.901;  -12.731;   -7.245;  642.460
393.495;  -14.232;   -9.285;  595.414
394.089;  -12.522;   -5.895;  760.452
394.682;  -13.400;   -4.295;  697.188
395.275;  -13.745;   -9.875;  719.927
395.869;  -14.978;   -8.485;  667.314
396.462;  -13.489;   -7.455;  616.609
397.056;   -9.573;   -5.424;  776.621
397.649;  -14.559;   -6.605;  731.575
398.242;  -11.795;   -8.224;  712.645
398.836;  -11.061;   -7.474;  766.408
399.429;  -11.990;   -7.094;  631.041
400.022;  -15.310;   -9.475;  665.902
400.615;  -13.152;   -7.145;  805.609
401.208;  -10.847;   -7.174;  691.451
401.802;  -13.973;   -5.515;  699.329
402.395;  -14.845;   -9.875;  683.502
402.988;  -15.844;   -8.845;  696.627
403.581;  -11.946;   -8.874;  646.878
404.174;   -9.932;   -5.324;  686.568
404.767;  -13.017;   -9.575;  638.583
405.360;  -15.827;  -10.965;  621.445
405.953;  -10.465;   -8.764;  759.034
406.545;  -10.461;   -7.514;  725.342
407.138;  -14.060;  -10.025;  618.350
407.731;  -12.522;  -10.034;  613.303
408.324;   -8.715;   -9.374;  660.554
408.917;   -9.806;   -6.534;  681.864
409.509;  -11.392;   -8.004;  740.396
410.102;  -12.949;   -9.875;  643.948
410.695;   -7.767;   -8.604;  665.758
411.287;   -8.274;   -6.794;  599.821
411.880;  -10.060;   -9.334;  585.421
412.472;  -12.647;  -10.254;  613.092
413.065;   -9.301;   -6.714;  629.408
413.657;   -7.888;   -7.234;  576.678
414.250;   -7.020;  -10.544;  646.681
414.842;   -9.160;   -9.744;  676.353
415.434;   -6.269;   -6.994;  570.463
416.027;   -3.952;   -5.893;  652.196
416.619;   -5.703;   -7.264;  713.400
417.211;   -6.602;  -10.374;  599.352
417.804;   -2.439;   -7.993;  628.499
418.396;   -6.523;   -7.234;  607.643
418.988;   -4.007;   -9.443;  659.238
419.580;   -7.956;  -10.724;  568.276
420.172;   -5.031;  -10.323;  536.196
420.764;   -1.621;   -8.793;  672.482
421.356;   -1.769;  -11.143;  636.898
421.948;   -3.290;   -8.293;  677.661
422.540;    2.473;   -7.893;  680.027
423.132;    1.227;   -7.082;  600.641
423.724;   -1.921;   -8.653;  561.267
424.316;    0.077;  -10.213;  621.345
424.908;    3.734;   -9.762;  591.517
425.500;    4.187;   -5.572;  647.978
426.092;    4.127;   -8.422;  648.268
426.683;    2.974;   -9.283;  684.836
427.275;    7.206;   -7.852;  641.471
427.867;    7.668;   -5.272;  668.948
428.458;    8.565;   -7.682;  732.344
429.050;    7.380;  -10.612;  680.749
429.642;    8.792;   -9.882;  743.124
430.233;    8.927;   -6.962;  569.356
430.825;   11.389;   -6.842;  724.809
431.416;    8.010;   -9.672;  698.241
432.008;   12.306;   -6.552;  651.723
432.599;   12.516;   -6.891;  656.073
433.190;    9.398;  -10.912;  637.670
433.782;    8.788;  -11.172;  590.395
434.373;   15.638;   -6.061;  884.765
434.964;   14.886;   -8.251;  602.920
435.556;   12.219;   -9.722;  634.537
436.147;   15.027;   -9.082;  758.490
436.738;   15.707;   -8.041;  701.099
437.329;   20.608;   -7.341;  721.723
437.920;   13.140;   -8.162;  666.688
438.511;   13.553;  -11.802;  564.526
439.103;   20.906;  -10.191;  623.998
439.694;   21.059;   -7.601;  681.583
440.285;   23.024;   -8.541;  764.432
440.876;   20.613;   -9.751;  845.738
441.466;   20.154;   -9.401;  575.162
442.057;   25.131;   -7.760;  665.814
442.648;   24.621;   -9.971;  746.255
443.239;   22.340;  -11.001;  620.477
443.830;   27.981;   -7.990;  704.958
444.421;   28.503;   -7.910;  655.474
445.011;   25.915;   -8.131;  693.619
445.602;   25.667;   -7.111;  743.126
446.193;   27.814;  -10.920;  488.117
446.783;   31.210;   -6.500;  640.397
447.374;   27.301;   -8.671;  692.759
447.964;   27.075;  -10.781;  713.770
448.555;   36.087;   -9.650;  822.742
449.145;   33.049;   -8.660;  662.853
449.736;   33.515;   -8.990;  803.179
450.326;   33.702;   -9.500;  713.626
450.917;   38.632;   -8.680;  675.324
451.507;   37.829;   -7.520;  600.661
452.097;   38.477;   -8.590;  746.267
452.688;   39.352;  -11.340;  742.160
453.278;   39.058;  -10.100;  566.840
453.868;   42.732;   -6.019;  793.550
454.458;   41.407;   -9.440;  651.141
455.048;   41.877;  -10.560;  711.783
455.639;   43.307;  -11.799;  567.096
456.229;   47.197;   -6.899;  710.694
456.819;   48.663;   -7.389;  751.158
457.409;   49.655;  -11.119;  773.993
457.999;   52.176;   -9.289;  737.505
458.589;   51.607;   -6.139;  686.606
459.179;   51.291;   -8.729;  717.658
459.769;   50.056;   -9.789;  627.099
460.358;   54.719;  -10.259;  797.262
460.948;   54.172;   -7.299;  689.503
461.538;   55.869;  -10.289;  660.677
462.128;   54.105;  -11.269;  664.934
462.717;   60.861;   -9.368;  710.326
463.307;   63.424;   -7.908;  705.846
463.897;   59.385;   -9.599;  656.942
464.486;   59.535;   -9.769;  837.128
465.076;   63.627;   -8.048;  733.776
465.666;   66.510;   -9.358;  652.900
466.255;   64.417;   -7.919;  785.651
466.845;   63.281;  -11.689;  666.749
467.434;   66.967;   -7.818;  725.873
468.023;   67.731;   -7.678;  658.357
468.613;   65.403;  -10.939;  713.946
469.202;   69.813;  -10.118;  646.507
469.791;   74.827;   -9.108;  737.811
470.381;   75.643;   -6.058;  742.813
470.970;   75.315;  -10.428;  711.099
471.559;   75.773;  -10.268;  733.291
472.148;   78.757;   -8.448;  675.737
472.738;   80.514;   -6.917;  765.466
473.327;   80.281;  -11.978;  637.529
473.916;   79.738;  -11.888;  737.446
474.505;   85.231;   -9.437;  751.703
475.094;   87.378;   -6.747;  806.570
475.683;   87.031;   -9.367;  797.699
476.272;   87.606;  -12.637;  730.632
476.861;   90.799;  -10.027;  706.754
477.449;   95.788;   -8.716;  728.487
478.038;   91.253;   -9.577;  692.513
478.627;   92.854;   -9.718;  714.852
479.216;   99.625;   -8.947;  769.441
479.805;  102.243;   -6.256;  783.375
480.393;  101.335;   -7.937; 1008.945
480.982;  101.431;   -7.717;  874.501
481.571;  107.039;   -9.266;  858.333
482.159;  107.466;   -7.636;  705.386
482.748;  107.517;   -9.667;  821.385
483.336;  113.478;  -10.376;  858.209
483.925;  113.604;   -7.147;  774.373
484.513;  120.319;   -7.996;  758.962
485.102;  117.399;  -10.027;  810.965
485.690;  126.157;  -10.446; 1011.050
486.278;  127.529;   -8.446;  979.329
486.867;  128.618;   -6.356;  809.662
487.455;  129.224;   -9.136;  898.229
488.043;  131.399;  -10.646;  748.361
488.631;  140.529;   -7.456; 1005.079
489.220;  143.840;   -6.636;  908.626
489.808;  144.136;  -11.036;  741.415
490.396;  153.313;  -10.246;  914.645
490.984;  160.332;   -8.556;  830.161
491.572;  170.953;   -5.886;  940.315
492.160;  178.690;   -9.486;  919.081
492.748;  191.790;  -10.976;  884.341
493.336;  214.367;   -8.776; 1019.693
493.924;  241.805;   -5.465;  958.077
494.512;  275.760;   -9.986; 1066.638
495.100;  323.867;  -10.636; 1103.280
495.687;  385.296;  -10.885; 1206.373
496.275;  438.591;   -8.126; 1150.796
496.863;  507.035;  -10.586; 1281.171
497.451;  619.495;  -11.926; 1386.805
498.038;  729.774;  -10.885; 1556.729
498.626;  826.725;   -6.315; 1741.407
499.214;  978.612;   -7.326; 2016.609
499.801; 1194.352;  -11.906; 2220.633
500.389; 1449.742;  -10.466; 2312.494
500.976; 1696.772;   -5.236; 2744.849
501.564; 2105.264;   -8.936; 3148.565
502.151; 2561.631;  -13.176; 3515.999
502.738; 3076.220;  -10.646; 3971.274
503.326; 3472.554;   -9.525; 4403.796
503.913; 3775.814;  -10.856; 5161.749
504.500; 4277.252;  -11.586; 5986.420
505.088; 4568.315;  -10.336; 6381.201
505.675; 5012.405;   -6.355; 6925.547
506.262; 5470.584;   -9.046; 7619.060
506.849; 5969.201;  -10.416; 8733.969
507.436; 6464.591;  -10.305; 9790.121
508.023; 6904.688;   -5.496; 9985.472
508.610; 7737.059;   -7.856;10434.618
509.197; 9035.156;  -10.097;11198.435
509.784;10505.521;  -10.886;12391.194
510.371;11872.051;   -9.315;13603.713
510.958;12739.188;   -9.936;14426.586
511.545;13363.964;   -9.326;15243.775
512.132;13881.054;  -10.075;15945.876
512.719;14072.457;   -7.796;16340.369
513.305;14998.830;  -10.606;18011.766
513.892;16351.180;  -11.486;19754.971
514.479;18086.076;   -9.126;20967.805
515.066;19654.070;   -6.026;22299.793
515.652;19867.980;   -8.466;22908.660
516.239;20915.119;  -10.886;23798.875
516.825;23042.059;  -11.496;25567.275
517.412;24998.756;   -5.796;28154.959
517.998;26894.551;  -10.506;28344.111
518.585;26578.627;  -10.076;27134.219
519.171;25259.463;   -8.315;27268.576
519.758;26128.176;   -8.596;28964.129
520.344;27443.563;   -8.466;30664.494
520.930;30224.895;  -11.006;32550.605
521.516;30747.941;  -10.495;35422.895
522.103;29162.063;   -5.526;38280.004
522.689;29711.926;   -8.746;37835.117
523.275;31343.922;  -11.376;37288.613
523.861;33210.793;  -11.156;37281.395
524.447;36373.734;   -8.135;37846.949
525.033;37319.191;   -7.896;38321.949
525.619;36946.133;  -12.476;38579.285
526.205;37155.121;   -9.516;40622.875
526.791;36760.129;   -6.926;42258.836
527.377;37822.094;   -8.346;42966.902
527.963;39422.461;   -8.717;42018.949
528.549;38423.551;  -11.016;42476.828
529.135;38633.199;   -8.536;41854.852
529.721;38363.250;   -9.666;41237.711
530.306;36858.078;  -10.066;41259.445
530.892;36879.242;  -11.356;41506.047
531.478;36283.438;   -6.596;43559.613
532.063;36677.754;   -8.836;47695.563
532.649;40425.465;  -10.047;50808.324
533.235;41663.086;   -9.746;51787.500
533.820;40770.141;   -6.566;52145.035
534.406;39975.352;  -10.817;51133.488
534.991;42661.750;   -9.416;49996.805
535.576;43847.336;   -9.036;48882.852
536.162;44114.719;   -6.156;46942.285
536.747;45391.508;  -11.607;45711.746
537.333;45926.059;  -11.787;48510.180
537.918;46142.313;  -12.437;50439.891
538.503;46995.637;   -7.196;50863.711
539.088;44155.805;  -10.556;50906.922
539.673;42629.020;   -8.767;52621.965
540.259;43840.813;  -10.026;52368.094
540.844;45794.781;   -7.416;50879.109
541.429;44978.492;   -9.467;52077.777
542.014;44920.699;   -9.527;52716.695
542.599;47275.664;   -9.946;52363.281
543.184;49814.164;   -7.927;53187.137
543.769;48196.355;   -9.297;54697.605
544.354;44881.586;  -10.127;53913.914
544.938;43419.805;   -9.267;49680.164
545.523;45755.660;   -6.506;47386.277
546.108;49516.551;   -9.787;49151.949
546.693;48877.914;  -11.587;51384.637
547.278;48366.914;  -10.986;51853.254
547.862;45070.426;   -8.206;51173.750
548.447;42591.484;  -10.067;51691.395
549.031;43501.852;   -9.637;52456.703
549.616;44743.719;   -9.926;52714.516
550.201;43679.480;   -6.347;52414.598
550.785;43025.328;   -7.917;52355.059
551.370;43867.059;  -10.867;54589.453
551.954;44442.289;   -9.047;58267.348
552.538;45747.008;   -7.827;59062.176
553.123;45835.344;  -10.287;58115.285
553.707;41984.598;  -12.178;56556.285
554.291;42744.512;   -8.717;56201.668
554.876;45839.426;   -7.457;55335.762
555.460;46615.180;  -10.387;54155.703
556.044;47501.387;   -9.618;53721.484
556.628;46562.391;  -11.567;53731.016
557.212;44677.863;   -8.097;54312.531
557.796;45715.660;  -11.077;53797.773
558.380;43582.414;  -11.108;56145.984
558.964;42369.984;   -9.057;57277.930
559.548;42505.270;   -6.977;56459.641
560.132;41803.215;  -11.457;54434.543
560.716;41016.645;  -11.378;54800.617
561.300;41865.547;   -9.577;57606.945
561.884;43567.672;   -7.127;58972.445
562.467;44392.383;   -7.118;57327.570
563.051;44080.172;  -13.358;54962.434
563.635;41906.324;  -10.178;52594.473
564.219;41156.922;   -7.837;50610.410
564.802;40877.000;  -11.398;49551.180
565.386;41951.648;  -12.788;48370.953
565.969;42430.809;   -9.077;48178.871
566.553;42681.695;   -6.207;49957.305
567.136;40119.594;   -8.568;50369.594
567.720;39190.074;  -11.868;49492.004
568.303;39040.520;   -8.268;50616.352
568.887;38039.012;   -8.698;50727.148
569.470;38260.379;   -6.808;51698.379
570.053;36976.664;  -13.188;52122.078
570.637;35638.918;  -12.037;52536.438
571.220;34855.281;   -8.577;51186.098
571.803;34996.848;   -8.498;51032.762
572.386;36941.313;  -10.498;49609.887
572.969;37598.988;   -9.388;48285.926
573.552;33254.383;   -8.338;47624.285
574.135;30848.641;   -8.518;45498.641
574.718;28672.037;  -13.628;41970.434
575.301;29357.631;  -10.893;41447.137
575.884;30043.223;   -8.158;40923.836
576.467;35122.250;  -10.328;45267.723
577.050;33828.328;  -13.058;48175.543
577.633;32851.809;   -9.458;47729.328
578.216;34314.707;   -8.928;47579.793
578.799;35048.305;   -9.358;47820.996
579.381;34386.910;  -11.388;48115.551
579.964;31623.016;  -11.718;47333.766
580.547;31632.711;   -8.588;46668.969
581.129;33131.555;   -8.859;44466.141
581.712;33651.203;  -10.729;44164.922
582.294;35043.465;  -11.118;46477.855
582.877;32729.473;   -5.218;48244.254
583.459;32648.188;   -8.679;47437.895
584.042;34553.398;  -10.709;46943.219
584.624;36673.934;  -11.669;46792.227
585.206;35545.129;   -8.218;46557.250
585.789;34256.359;  -10.569;45793.773
586.371;34394.699;  -11.859;43836.391
586.953;33048.594;  -10.719;42972.492
587.536;34691.129;   -7.198;42487.211
588.118;35865.598;   -8.720;42086.414
588.700;35203.016;  -10.439;43389.930
589.282;35295.699;   -9.198;43646.039
589.864;34168.836;   -9.199;43438.109
590.446;31761.258;  -11.319;43151.926
591.028;31281.531;  -11.159;42781.867
591.610;31002.451;  -11.779;42839.098
592.192;27945.508;   -7.668;42820.402
592.774;27936.174;  -11.949;40724.277
593.356;27691.945;  -12.129;39874.789
593.937;24651.574;  -10.669;39980.648
594.519;25657.449;   -6.509;42069.633
595.101;28818.793;  -10.849;42976.031
595.683;29747.096;  -11.679;44084.441
596.264;30419.902;   -9.049;43478.797
596.846;32575.332;   -8.849;43803.672
597.427;32886.031;   -9.570;42986.934
598.009;34039.824;  -12.620;42832.219
598.591;33209.281;  -10.039;42580.086
599.172;32204.725;  -10.369;43061.805
599.753;30546.854;   -9.140;41691.469
600.335;30415.596;  -11.430;40692.520
600.916;30954.934;   -9.939;39982.422
601.498;29767.600;   -8.479;40318.617
602.079;28441.951;  -10.920;40670.609
602.660;30274.602;  -11.480;41450.898
603.241;31954.512;  -11.699;41137.738
603.823;32635.006;   -9.579;38868.797
604.404;32325.746;  -10.620;38182.785
604.985;30908.988;  -10.450;38078.047
605.566;30415.666;   -9.129;38056.633
606.147;30388.002;   -7.510;37020.418
606.728;31493.951;  -10.660;37883.359
607.309;32337.152;  -11.740;38748.273
607.890;31902.398;   -9.759;38850.230
608.471;30373.893;   -8.250;37457.918
609.051;30527.223;   -9.240;36066.457
609.632;28788.262;  -12.120;35991.074
610.213;27827.854;   -9.110;37402.641
610.794;29452.373;   -8.030;38383.363
611.374;31745.529;   -8.110;40562.387
611.955;31637.385;  -13.560;38533.727
612.536;28997.930;  -11.400;36951.789
613.116;27584.404;   -8.070;37197.891
613.697;29771.471;  -10.830;38411.125
614.277;31500.506;  -11.641;38673.938
614.858;30849.607;  -13.310;37075.863
615.438;29072.959;   -7.460;35092.906
616.019;27346.803;   -7.601;33666.301
616.599;28241.234;  -12.020;34189.023
617.179;30184.262;  -11.780;36952.047
617.760;32964.648;   -8.570;39582.574
618.340;33011.453;  -11.471;38943.977
618.920;31517.426;  -11.170;37594.156
619.500;33293.891;  -11.071;37866.938
620.080;33268.047;   -7.750;37869.043
620.660;31458.109;  -12.711;36868.617
621.241;30097.451;  -10.211;36352.309
621.821;29152.344;  -10.961;35459.520
622.401;28211.066;   -7.720;35207.414
622.980;29250.777;   -8.981;35980.422
623.560;29726.605;   -9.331;37351.328
624.140;28712.867;   -9.850;34388.582
624.720;26193.568;   -7.451;32368.764
625.300;24493.930;   -9.070;32638.629
625.880;28028.107;  -12.601;34599.035
626.459;29862.855;  -11.751;36831.738
627.039;30344.256;   -9.281;38299.098
627.619;32315.422;   -8.801;38289.574
628.198;31827.131;  -12.071;37220.695
628.778;30460.730;   -9.461;37632.563
629.357;31450.213;   -8.491;38003.012
629.937;31677.453;   -9.721;38402.039
630.516;31800.217;   -9.951;37868.801
631.096;32241.082;  -11.731;35760.410
631.675;33615.324;   -8.572;35225.219
632.254;33130.090;  -11.282;35130.289
632.834;32470.604;  -13.322;35794.570
633.413;32274.078;  -10.301;35788.922
633.992;31549.814;   -8.582;34532.863
634.571;33153.492;   -8.352;33590.113
635.151;33332.242;  -11.912;34943.863
635.730;32519.438;  -10.511;35352.523
636.309;34735.285;   -7.731;35366.605
636.888;32781.270;   -9.952;36165.637
637.467;30740.240;  -11.672;37515.902
638.046;30560.311;   -8.901;39288.695
638.625;31301.025;   -7.912;38279.699
639.204;31891.094;  -10.022;37741.598
639.782;30011.189;  -12.252;38364.551
640.361;28157.586;  -10.041;36740.621
640.940;27324.406;  -11.161;34950.082
641.519;28365.895;   -9.701;34137.398
642.097;29998.914;  -11.271;35654.258
642.676;31538.863;   -8.651;35637.957
643.255;32957.223;   -8.711;36567.074
643.833;30723.943;   -9.581;37809.434
644.412;28490.473;  -13.711;37337.293
644.990;30313.906;  -11.811;37018.531
645.569;32731.715;   -9.411;36518.469
646.147;32066.324;  -10.291;36186.430
646.726;31143.934;  -12.401;36267.688
647.304;31204.621;  -10.411;36647.625
647.882;30300.086;   -9.651;39286.742
648.461;31556.918;   -9.631;39157.703
649.039;34790.125;  -11.881;35412.883
649.617;35240.785;   -9.661;34744.918
650.195;33094.891;   -9.301;35403.098
650.773;31690.488;  -10.511;35053.797
651.352;30844.498;  -11.521;33756.816
651.930;28542.451;  -12.211;31868.773
652.508;25594.375;   -9.171;33121.551
653.086;26586.609;   -9.371;33564.793
653.663;32367.377;  -13.161;34054.668
654.241;36240.684;  -13.031;35693.309
654.819;37139.391;   -9.371;36422.906
655.397;37160.191;  -10.511;38213.484
655.975;33512.707;  -10.371;39507.625
656.553;30323.045;  -10.051;39498.223
657.130;28794.375;  -10.061;40395.480
657.708;26785.943;   -9.561;39242.020
658.286;24129.820;  -11.511;38920.020
658.863;26036.781;  -10.261;40202.898
659.441;29729.369;   -7.531;39677.938
660.018;31770.182;   -9.501;40413.355
660.596;31079.125;  -13.301;39931.414
661.173;30598.848;  -11.211;39604.531
661.750;32268.557;   -9.951;39700.070
662.328;31398.533;   -9.390;39292.809
662.905;30411.166;  -11.330;38235.648
663.482;28035.725;   -9.050;36212.305
664.060;25499.807;   -8.240;35944.945
664.637;26328.912;  -10.050;35170.785
665.214;29612.371;  -11.760;34197.523
665.791;29968.088;  -10.530;34549.520
666.368;28670.658;   -9.690;35118.578
666.945;29920.146;   -9.320;36019.418
667.522;30399.648;  -11.860;36048.438
668.099;31788.193;  -10.770;36243.914
668.676;31943.775;   -6.260;35958.875
669.253;34383.785;   -7.000;37384.730
669.830;35725.691;  -10.190;36779.629
670.407;32688.277;   -9.550;35231.289
670.984;32962.801;   -9.260;35544.270
671.560;30204.996;   -9.280;35466.867
672.137;26135.389;  -11.810;34280.863
672.714;28058.561;  -11.490;34632.863
673.290;31888.928;   -7.740;35135.422
673.867;31577.262;  -10.660;36114.480
674.443;31753.150;  -12.230;36152.859
675.020;31385.018;  -10.450;35327.238
675.596;29872.887;   -9.260;35795.176
676.173;28710.129;  -10.780;35430.355
676.749;28274.881;  -13.690;33549.516
677.326;28161.816;  -11.980;32210.012
677.902;27541.436;   -8.630;32068.871
678.478;29339.943;  -10.730;32583.891
679.054;30092.787;  -10.520;32088.928
679.631;29472.904;  -11.920;30978.848
680.207;29688.766;   -7.490;33160.887
680.783;31516.775;   -9.860;35570.363
681.359;32969.305;  -13.380;36125.184
681.935;33492.434;  -12.480;35240.922
682.511;32611.125;   -7.900;34429.961
683.087;31397.578;   -7.710;34463.680
683.663;31212.424;  -11.480;34648.898
684.239;30337.385;  -14.090;34546.457
684.815;29243.189;   -7.560;35586.375
685.390;29528.223;   -9.910;35821.895
685.966;30696.496;  -11.159;35085.871
686.542;32232.445;  -11.169;34198.230
687.118;33493.180;   -5.959;32847.707
687.693;32354.197;  -10.329;32794.027
688.269;33315.383;  -12.059;33072.367
688.844;33503.148;  -10.909;33141.664
689.420;30817.102;   -8.019;33965.742
689.995;29404.037;   -8.399;34655.523
690.571;30801.730;  -10.949;33576.742
691.146;30391.631;   -9.619;32657.219
691.722;29025.859;   -8.999;32526.979
692.297;28487.014;  -11.589;33014.617
692.872;28330.543;  -11.739;34012.254
693.448;31035.775;  -11.059;34237.434
694.023;31576.541;  -10.139;34142.672
694.598;29685.004;   -9.029;34132.031
695.173;30946.180;  -13.319;34205.250
695.748;31543.900;  -10.169;32882.488
696.323;29114.240;   -8.339;32864.906
696.898;27180.938;   -8.169;33170.004
697.473;27626.955;  -12.309;32432.984
698.048;27719.057;  -10.989;31649.303
698.623;26500.404;   -9.329;30778.141
699.198;27482.115;   -9.849;31140.119
699.773;28535.002;  -12.329;31764.299
700.348;29779.957;  -10.389;31780.816
700.922;30033.293;   -9.269;32046.375
701.497;30927.518;   -9.329;32603.574
702.072;32126.189;  -10.789;34799.871
702.646;31239.588;  -10.839;35793.172
703.221;30595.807;   -9.099;35201.590
703.795;32665.162;  -10.939;34764.527
704.370;30182.914;  -12.859;34307.367
704.944;28527.432;  -11.559;33509.887
705.519;29464.588;   -7.939;31388.584
706.093;31678.592;  -10.499;31340.104
706.668;33892.641;  -11.289;32630.281
707.242;33381.789;  -11.509;32728.779
707.816;31416.070;   -9.639;32947.238
708.390;30056.016;  -11.429;33277.855
708.965;29479.979;  -11.869;33834.336
709.539;31072.523;  -11.689;33709.273
710.113;31347.023;  -10.478;33044.313
710.687;30431.914;  -10.228;31953.992
711.261;29612.824;  -13.698;30505.949
711.835;30084.887;  -13.378;30262.369
712.409;29154.227;   -9.698;31254.447
712.983;28693.332;  -11.898;32754.986
713.557;31054.004;  -15.138;34018.824
714.131;29179.740;  -14.098;34579.625
714.704;28612.258;   -9.958;33890.262
715.278;30588.113;  -10.028;33531.102
715.852;29261.338;  -11.148;33601.660
716.425;28086.168;   -9.068;33515.117
716.999;26846.699;  -10.038;33185.555
717.573;26481.908;   -9.798;33905.996
718.146;25940.490;  -12.378;35199.293
718.720;26392.324;  -11.918;35060.551
719.293;26609.932;   -8.088;34973.230
719.867;28866.172;  -10.888;36394.449
720.440;30642.262;  -11.938;36663.008
721.013;31296.029;  -12.818;35102.426
721.587;28944.059;  -10.298;33985.266
722.160;27043.980;  -10.048;33524.965
722.733;26391.908;  -12.108;32987.043
723.306;26781.932;  -10.818;33066.301
723.880;28551.410;   -8.908;33399.500
724.453;28238.998;   -9.878;33468.297
725.026;28381.012;  -11.188;33816.637
725.599;31114.979;  -11.678;32797.996
726.172;30446.654;   -9.618;33187.434
726.745;27802.035;   -8.258;35136.613
727.318;27512.549;  -12.978;35751.730
727.891;26944.863;  -12.148;35890.430
728.463;26051.977;   -8.968;34822.090
729.036;26033.094;  -10.188;32895.086
729.609;26028.951;  -11.788;31823.225
730.182;24105.914;  -11.788;31445.283
730.754;22782.477;  -10.268;32373.223
731.327;22910.557;   -9.998;33676.820
731.900;24152.135;  -12.228;33417.000
732.472;24065.109;  -13.848;31978.498
733.045;23232.105;   -8.698;30368.777
733.617;22827.742;  -10.607;30574.215
734.190;24683.029;  -11.507;31280.975
734.762;25597.807;  -13.647;31674.412
735.334;26937.166;   -9.767;31247.291
735.907;27506.453;   -9.897;29876.211
736.479;27217.875;  -11.637;29808.488
737.051;28118.688;   -9.567;30233.547
737.623;27541.180;   -8.187;31469.086
738.195;26321.346;  -11.187;31784.225
738.768;25062.277;  -12.337;32120.523
739.340;23383.607;  -12.227;32094.342
739.912;22573.521;  -11.057;31312.680
740.484;22529.697;  -10.207;31946.238
741.056;22263.400;  -10.047;32984.059
741.628;23395.119;  -13.627;33897.715
742.199;24354.166;   -7.177;33213.016
742.771;26574.215;  -10.797;31369.113
743.343;27300.170;  -11.997;31865.473
743.915;26958.021;  -12.867;32388.631
744.487;24421.475;   -7.617;31079.568
745.058;21619.338;   -9.557;30570.107
745.630;22650.439;   -9.877;29970.127
746.201;24296.381;  -14.177;29186.766
746.773;24910.316;   -9.237;28805.723
747.344;23061.209;   -9.847;29591.223
747.916;21278.604;  -11.657;31412.201
748.487;22301.625;  -10.587;32194.898
749.059;24005.879;   -8.707;32533.719
749.630;24189.773;  -10.537;32158.518
750.201;23523.375;  -11.687;30855.395
750.773;22320.762;  -11.647;28622.555
751.344;22198.766;   -7.147;28405.732
751.915;24339.793;   -9.757;28461.551
752.486;25483.885;  -12.427;27842.850
753.057;24371.980;  -12.227;27845.008
753.628;24454.270;  -10.417;27728.107
754.199;23969.105;  -11.767;27381.086
754.770;23421.535;  -11.187;25882.203
755.341;22298.350;  -10.507;25886.184
755.912;20695.051;   -9.387;26050.861
756.483;19173.283;  -10.647;26798.779
757.054;19685.320;  -11.837;27048.238
757.625;19715.822;  -12.716;26294.838
758.195;19411.354;   -9.666;26142.076
758.766;19658.594;   -8.656;26392.234
759.337;19184.285;  -12.856;26334.594
759.907;18998.738;  -13.366;27579.652
760.478;18732.973;   -8.576;28352.770
761.048;19777.193;  -10.526;27325.088
761.619;19876.738;  -11.116;26460.428
762.189;18490.152;  -12.136;26029.826
762.760;18219.721;   -9.456;26430.145
763.330;18744.244;   -7.136;26670.902
763.900;18892.145;  -11.786;26603.021
764.471;18380.715;  -11.546;25542.740
765.041;17433.143;   -8.096;24358.459
765.611;16667.793;   -8.876;23991.297
766.181;16736.387;  -12.196;24470.236
766.751;16608.336;  -11.636;24845.975
767.321;17548.055;  -10.156;24533.633
767.891;16902.930;  -11.766;24916.492
768.461;17118.988;  -14.936;24776.771
769.031;18258.885;  -12.356;24757.988
769.601;18847.225;   -7.526;24181.088
770.171;18551.379;  -10.766;23670.387
770.741;17834.627;  -13.176;22960.045
771.311;17494.797;  -10.616;22917.523
771.880;17751.424;   -9.576;23562.941
772.450;17340.586;  -10.336;24216.500
773.020;16904.711;  -13.516;24140.398
773.589;17451.656;  -13.466;24414.857
774.159;17305.309;   -8.686;23858.717
774.729;15966.967;   -9.476;22942.135
775.298;14194.438;  -13.666;22324.033
775.867;13968.563;  -11.716;21140.313
776.437;14125.582;   -9.906;20838.092
777.006;13368.842;  -12.166;20599.510
777.576;12882.604;  -12.356;20508.809
778.145;12757.457;  -11.646;20732.947
778.714;13169.297;   -8.226;21062.465
779.283;14218.188;   -9.556;20949.664
779.853;14820.880;  -14.116;20508.623
780.422;14261.434;  -11.506;20649.082
780.991;13881.800;   -9.556;21527.520
781.560;13577.866;   -9.095;22632.658
782.129;13370.125;  -12.135;23048.277
782.698;13233.882;  -10.865;23438.555
783.267;12955.894;   -9.335;23267.734
783.836;13090.472;  -11.045;22415.133
784.404;13793.433;  -13.865;20443.152
784.973;13069.294;  -13.095;19699.150
785.542;11698.962;  -11.575;19763.828
786.111;11027.401;   -9.705;20341.408
786.679;11697.852;  -12.105;20207.967
787.248;11988.522;  -12.455;19516.465
787.817;11708.732;  -11.535;18900.363
788.385;11831.700;   -9.765;17879.121
788.954;11817.268;  -14.005;17658.301
789.522;11267.183;  -11.955;17788.879
790.090;11501.861;  -10.135;18118.277
790.659;12433.984;  -10.975;18338.736
791.227;12329.444;  -13.375;18508.615
791.795;11724.070;  -12.375;17898.254
792.364;11217.344;  -10.725;17295.133
792.932;11403.297;   -9.715;16822.051
793.500;11497.630;  -12.675;17040.148
794.068;11239.512;  -13.495;17179.787
794.636;10105.765;  -10.885;16664.246
795.204; 9068.015;  -11.045;16524.545
795.772; 9686.473;  -13.175;17274.564
796.340;10822.522;  -12.445;17891.002
796.908;10699.479;   -9.735;17648.561
797.476;11085.493;   -9.815;17064.080
798.044;11860.078;  -13.985;16672.777
798.612;11649.315;  -13.115;17023.996
799.180;10375.924;  -10.185;16561.615
799.747; 9386.021;   -9.055;15962.773
800.315; 8823.722;  -12.385;15296.992
800.883; 9105.948;  -15.035;14801.771
801.450; 9375.508;  -10.365;14534.430
802.018; 9482.413;   -9.855;14173.248
802.585; 9663.117;  -11.905;14029.547
803.153; 9241.177;  -11.585;13836.846
803.720; 8610.401;   -9.095;13567.324
804.287; 8658.176;   -9.135;13360.622
804.855; 8928.212;  -11.604;13681.981
805.422; 8980.070;  -11.794;13536.560
805.989; 8815.101;  -10.734;13355.958
806.556; 8442.779;  -10.444;13747.896
807.124; 8381.895;  -12.764;13987.376
807.691; 8963.603;  -12.964;14038.674
808.258; 9364.447;  -11.134;14120.152
808.825; 9574.422;   -9.854;13860.111
809.392; 9279.103;  -10.504;13268.790
809.959; 8797.190;  -13.054;12680.389
810.526; 8588.710;   -8.294;12427.308
811.093; 8216.201;   -8.394;12030.105
811.659; 7441.925;  -12.304;11653.664
812.226; 7256.500;  -13.944;11637.183
812.793; 7817.810;  -10.484;11611.521
813.360; 7962.367;  -10.144;11885.181
813.926; 7257.835;  -11.684;12770.539
814.493; 6624.771;  -13.644;12677.638
815.060; 6484.355;   -9.724;11974.336
815.626; 6808.299;   -9.854;11594.715
816.193; 6823.206;  -13.254;11579.474
816.759; 6806.152;  -13.204;11666.972
817.325; 6586.726;   -9.434;11325.530
817.892; 6288.139;  -10.134;11105.369
818.458; 6219.816;  -13.474;10843.928
819.024; 6206.750;  -11.854;10714.406
819.591; 6496.396;  -10.244;10469.165
820.157; 6615.044;  -10.704;10235.523
820.723; 6879.142;  -12.324;10847.563
821.289; 7266.471;   -9.444;11040.980
821.855; 7305.566;   -8.374;10357.100
822.421; 6935.726;  -10.234; 9978.918
822.987; 6704.115;  -13.294; 9754.177
823.553; 6574.789;  -10.884;10065.755
824.119; 6161.802;   -8.884;10036.294
824.685; 6003.341;   -6.784;10029.192
825.251; 5957.273;  -12.004;10199.230
825.816; 6037.999;  -11.474; 9820.189
826.382; 5777.318;   -9.174; 9297.248
826.948; 5470.707;   -9.214; 9381.347
827.513; 5255.509;  -10.774; 9450.726
828.079; 5208.364;  -11.924; 9472.444
828.645; 5303.995;  -10.543; 9292.643
829.210; 5511.424;  -10.533; 9065.341
829.776; 5524.717;  -10.753; 9132.620
830.341; 5418.502;  -10.173; 9092.878
830.906; 5506.040;  -10.743; 9078.557
831.472; 5395.764;  -11.113; 8534.535
832.037; 4913.615;  -10.603; 8677.874
832.602; 4814.908;  -13.323; 8628.692
833.167; 5171.389;  -10.823; 8879.031
833.733; 5140.651;  -10.113; 9189.790
834.298; 4871.636;  -13.583; 9052.608
834.863; 4720.497;  -12.703; 8895.087
835.428; 4591.604;  -10.523; 8824.266
835.993; 4536.842;   -6.963; 8845.385
836.558; 4639.597;  -10.763; 8888.563
837.123; 4762.105;   -9.903; 8966.582
837.688; 4600.489;   -9.913; 8617.860
838.253; 4455.345;  -10.283; 8590.699
838.817; 4610.257;  -12.963; 8443.797
839.382; 4789.663;  -14.243; 8799.356
839.947; 4671.310;  -10.733; 8810.595
840.511; 4736.027;   -9.383; 8796.394
841.076; 4756.723;  -12.563; 8347.231
841.641; 4573.655;  -12.953; 8224.330
842.205; 4302.240;   -7.043; 8223.349
842.770; 4256.671;   -8.163; 8622.107
843.334; 4296.611;  -12.503; 8410.386
843.898; 4260.182;  -11.693; 8337.465
844.463; 4148.460;  -10.203; 8506.283
845.027; 4047.309;   -9.533; 8280.962
845.591; 4075.607;  -13.443; 8231.141
846.156; 3990.182;  -13.143; 7969.179
846.720; 3805.243;   -9.433; 7768.278
847.284; 3517.576;  -11.033; 7630.957
847.848; 3356.650;  -10.403; 7472.395
848.412; 3391.082;  -11.553; 7437.394
848.976; 3607.352;   -8.393; 7674.592
849.540; 3668.512;   -8.713; 7836.011
850.104; 3645.159;  -12.463; 7913.669
850.668; 3764.933;  -12.973; 7694.508
851.232; 3795.070;  -10.793; 7756.887
851.796; 3713.102;  -10.662; 7926.545
852.359; 3741.682;  -13.082; 7827.844
852.923; 3468.378;  -12.192; 7641.163
853.487; 3355.592;  -11.912; 7342.501
854.050; 3507.330;  -10.892; 7042.820
854.614; 3484.735;  -13.992; 7151.338
855.177; 3355.399;  -11.732; 7105.077
855.741; 3286.546;   -8.962; 6989.675
856.304; 3202.954;   -9.442; 6596.634
856.868; 2976.863;  -14.192; 6356.272
857.431; 2762.060;  -12.702; 6468.571
857.995; 2789.554;   -9.942; 6373.210
858.558; 2811.554;   -9.112; 6324.448
859.121; 2632.187;  -12.932; 6408.327
859.684; 2576.522;  -13.442; 6347.886
860.247; 2992.838;  -10.632; 6321.264
860.810; 3337.362;  -11.272; 6301.903
861.374; 3365.709;   -9.832; 6607.881
861.937; 3341.563;  -11.762; 6408.200
862.500; 3190.772;   -9.722; 6572.639
863.062; 2876.943;  -10.512; 6387.297
863.625; 2757.481;  -11.232; 6190.836
864.188; 2750.530;  -14.112; 5807.254
864.751; 2750.997;  -11.302; 5682.413
865.314; 2859.789;  -10.112; 5547.492
865.876; 2888.235;  -12.182; 5500.150
866.439; 2805.170;  -10.722; 5415.909
867.002; 2652.922;   -9.252; 5501.567
867.564; 2545.051;   -9.572; 5413.946
868.127; 2417.281;  -13.142; 5160.325
868.689; 2123.638;  -12.902; 5133.183
869.252; 1984.578;   -9.732; 5252.382
869.814; 2002.131;   -9.432; 5297.141
870.377; 2112.526;  -11.552; 5390.919
870.939; 2102.563;   -9.052; 5599.898
871.501; 2030.553;  -10.982; 5248.336
872.063; 2060.470;  -12.292; 4854.235
872.626; 2061.479;  -14.912; 4817.074
873.188; 2064.476;  -13.112; 4987.732
873.750; 2021.917;  -13.442; 4868.651
874.312; 2089.318;   -9.402; 4779.330
874.874; 2230.284;  -11.062; 4866.348
875.436; 2110.471;  -13.931; 4718.887
875.998; 1813.041;   -9.561; 4660.005
876.560; 1655.405;  -11.321; 4462.964
877.122; 1650.767;  -12.221; 4145.042
877.683; 1628.646;  -12.191; 4056.481
878.245; 1712.671;  -12.101; 3950.740
878.807; 1858.688;   -8.971; 4058.958
879.369; 1893.181;  -12.071; 3954.677
879.930; 1817.243;  -14.621; 3941.495
880.492; 1640.839;  -10.311; 4067.014
881.053; 1485.468;  -10.901; 3859.633
881.615; 1471.761;  -14.411; 3776.071
882.176; 1505.598;  -13.761; 3734.750
882.738; 1518.791;   -9.181; 3678.489
883.299; 1478.208;  -11.791; 3405.407
883.860; 1403.754;  -13.121; 3351.106
884.422; 1297.493;  -11.211; 3394.044
884.983; 1214.200;  -10.091; 3166.443
885.544; 1187.482;   -8.461; 3189.802
886.105; 1131.112;  -12.361; 3160.360
886.666; 1052.054;  -14.141; 3093.059
887.227; 1023.109;  -11.361; 2941.957
887.788; 1038.426;  -11.401; 2974.836
888.349;  992.583;  -13.791; 2721.214
888.910;  892.516;  -13.191; 2696.493
889.471;  788.306;   -9.881; 2560.172
890.032;  712.846;   -9.881; 2558.190
890.593;  712.404;  -10.371; 2567.669
891.153;  715.941;  -13.301; 2460.307
891.714;  654.892;  -11.431; 2372.046
892.275;  603.762;  -11.291; 2309.505
892.835;  587.234;  -11.471; 2382.543
893.396;  575.090;  -11.541; 2295.502
893.956;  566.970;  -11.181; 2162.420
894.517;  553.888;  -11.741; 2125.439
895.077;  508.317;  -11.671; 2086.978
895.638;  457.998;  -11.311; 2126.316
896.198;  437.523;   -9.831; 1838.275
896.758;  436.010;   -8.421; 1892.813
897.319;  429.993;  -12.351; 1792.232
897.879;  411.160;  -13.511; 1762.751
898.439;  383.867;  -12.001; 1661.149
898.999;  363.797;  -10.180; 1781.468
899.559;  348.981;  -12.030; 1703.347
900.119;  340.283;  -15.710; 1537.525
900.679;  318.713;   -8.900; 1638.384
901.239;  290.449;   -8.340; 1527.902
901.799;  275.899;  -13.910; 1456.441
902.359;  266.641;  -13.460; 1357.140
902.919;  260.799;  -11.490; 1331.118
903.479;  258.182;  -12.110; 1317.257
904.038;  250.802;  -11.720; 1262.595
904.598;  235.151;  -13.610; 1152.034
905.158;  223.101;  -11.040; 1240.893
905.717;  217.182;  -10.900; 1233.691
906.277;  212.825;  -15.080; 1217.330
906.836;  208.982;  -13.380; 1222.408
907.396;  206.432;  -10.780; 1193.047
907.955;  199.296;   -8.500; 1182.526
908.515;  192.959;  -12.760; 1099.364
909.074;  189.590;  -11.900; 1092.863
909.633;  186.149;   -8.950; 1069.121
910.192;  183.500;   -8.770; 1196.460
910.752;  178.587;  -12.390; 1029.960
911.311;  174.410;  -13.680; 1009.780
911.870;  170.080;  -12.370;  971.460
912.429;  166.307;  -10.900; 1094.080
912.988;  164.187;  -11.690; 1081.060
913.547;  160.362;  -13.240;  940.380
914.106;  159.165;  -11.990;  999.420
914.665;  159.065;   -9.990;  984.020
915.224;  157.929;  -12.880; 1035.760
915.782;  157.121;  -12.350;  922.560
916.341;  157.616;   -9.110; 1049.840
916.900;  154.937;   -9.270;  925.260
917.458;  151.460;  -13.240;  884.220
918.017;  150.228;  -13.550;  942.600
918.576;  149.694;  -12.320;  904.440
919.134;  149.420;  -11.490;  837.980
919.693;  147.473;  -13.670;  893.060
920.251;  146.394;  -15.470;  876.500
920.809;  145.329;  -11.290;  839.580
921.368;  145.043;  -10.210;  885.360
921.926;  145.378;  -12.140;  842.940
922.484;  144.352;  -13.080;  903.360
923.042;  144.208;  -11.720;  880.340
923.601;  145.033;   -7.480;  998.680
924.159;  143.165;  -11.570;  935.560
924.717;  142.595;  -13.840;  841.080
925.275;  144.144;  -10.640;  903.240
925.833;  142.411;  -11.540;  779.320
926.391;  144.039;  -12.960;  938.380
926.949;  144.195;  -14.130;  857.680
927.506;  144.234;  -11.750;  903.500
928.064;  142.431;  -10.250;  877.580
928.622;  141.970;  -13.030;  880.100
929.180;  143.433;  -13.400;  814.180
929.737;  144.182;  -10.700;  808.540
930.295;  146.439;  -10.070;  928.480
930.853;  145.612;  -11.960;  849.100
931.410;  144.737;  -13.120;  821.120
931.968;  146.824;  -10.770;  940.660
932.525;  147.061;  -10.680;  909.380
933.082;  151.136;  -13.130;  811.440
933.640;  156.645;  -13.210;  925.900
934.197;  157.151;  -11.060;  886.360
934.754;  157.146;   -9.580;  897.780
935.312;  158.162;  -14.000;  863.340
935.869;  161.028;  -10.710; 1012.980
936.426;  160.210;   -9.860;  872.800
936.983;  158.298;   -9.710;  889.020
937.540;  156.336;  -13.990;  838.280
938.097;  156.819;  -14.040;  940.120
938.654;  158.511;  -10.310;  898.860
939.211;  159.964;  -10.560;  952.480
939.768;  158.664;  -13.900;  915.420
940.324;  159.831;  -14.760;  904.200
940.881;  165.254;  -10.370;  878.500
941.438;  171.236;   -8.260; 1021.200
941.995;  172.828;  -12.540;  992.560
942.551;  171.226;  -14.670;  875.620
943.108;  170.874;  -10.450;  937.920
943.664;  171.722;  -10.750;  869.340
944.221;  178.320;  -11.550; 1088.140
944.777;  180.360;  -14.770;  869.680
945.334;  179.226;  -12.820;  884.840
945.890;  178.380;  -10.130;  946.480
946.446;  174.797;  -13.470;  947.020
947.003;  176.167;  -12.120;  964.940
947.559;  176.208;   -9.980; 1063.040
948.115;  172.416;   -9.080; 1026.540
948.671;  168.979;  -10.830;  967.300
949.227;  166.535;  -12.440;  859.560
949.783;  166.263;  -12.910;  858.900
950.339;  168.264;  -10.270;  991.000
950.895;  169.406;  -13.630; 1023.840
951.451;  169.349;  -15.100;  925.280
952.007;  169.524;  -11.330;  998.540
952.563;  165.597;  -10.580;  937.780
953.118;  162.631;  -13.440;  904.940
953.674;  159.759;  -12.710;  935.780
954.230;  162.126;  -10.350;  949.640
954.785;  166.301;   -9.190;  936.640
955.341;  167.417;  -11.200;  998.160
955.897;  164.613;  -16.560;  834.660
956.452;  162.199;  -12.570;  953.840
957.008;  159.065;   -7.970; 1083.640
957.563;  158.057;  -11.940; 1009.540
958.118;  157.177;  -13.450;  877.700
958.674;  156.508;  -12.030;  946.780
959.229;  155.722;   -9.410; 1013.980
959.784;  153.859;  -12.000;  832.400
960.339;  152.230;  -14.780; 1001.280
960.894;  146.835;   -9.860;  963.760
961.449;  142.938;   -9.970;  859.960
962.004;  142.774;  -10.900; 1212.840
962.559;  137.124;  -13.150;  860.140
963.114;  132.746;  -13.740;  742.480
963.669;  127.965;   -9.820;  915.500
964.224;  118.803;  -13.890;  874.340
964.779;  110.426;  -12.600;  828.420
965.334;  103.645;  -10.950; 1017.860
965.888;   97.934;  -11.170;  875.360
966.443;   99.822;  -12.540;  972.380
966.998;  102.365;  -15.780;  819.460
967.552;  107.221;   -9.760;  908.380
968.107;  105.836;   -9.060;  868.300
968.661;  107.065;  -11.950;  922.440
969.216;  107.513;  -12.800;  856.280
969.770;  108.253;  -11.210;  917.200
970.324;  107.401;  -11.610;  923.140
970.879;  105.528;  -11.370;  947.180
971.433;  106.254;  -12.540;  952.720
971.987;  105.177;  -11.320;  895.340
972.541;  103.709;  -10.720;  917.100
973.095;  106.102;   -9.680; 1009.460
973.649;  104.388;  -11.440;  809.480
974.203;  104.319;  -11.210;  829.040
974.757;  105.712;  -10.240;  855.220
975.311;  105.409;  -13.720;  872.600
975.865;  106.524;  -13.770;  881.820
976.419;  105.642;  -11.690;  857.400
976.973;  105.567;   -9.510;  849.620
977.526;  105.467;  -12.620;  949.920
978.080;  102.486;  -12.010;  796.780
978.634;  102.699;  -10.170;  921.320
979.187;   98.037;   -9.020;  905.400
979.741;   98.294;   -9.820; 1018.380
980.294;   94.839;  -14.870;  789.160
980.848;   90.479;  -12.380;  717.220
981.401;   89.407;  -10.350;  816.540
981.955;   89.558;  -13.720;  844.300
982.508;   87.789;  -11.490;  746.340
983.061;   87.390;  -10.000;  915.260
983.615;   86.294;  -11.480;  798.800
984.168;   85.457;  -13.220;  770.080
984.721;   85.752;  -13.960;  880.760
985.274;   83.371;  -10.870;  867.500
985.827;   82.350;   -9.790;  834.220
986.380;   80.571;  -13.120;  721.340
986.933;   81.447;  -12.450;  864.800
987.486;   81.572;  -10.210;  861.920
988.039;   80.132;   -8.430;  863.100
988.591;   77.675;  -10.520;  893.260
989.144;   73.969;  -14.860;  737.260
989.697;   72.684;  -13.080;  758.740
990.250;   71.371;  -10.150;  858.100
990.802;   69.233;  -13.430;  755.860
991.355;   69.509;  -12.750;  974.880
991.907;   66.740;  -12.040;  864.320
992.460;   63.971;  -11.330;  753.760
993.012;   63.035;  -13.610;  749.540
993.565;   62.086;  -13.460;  711.360
994.117;   63.778;   -9.360;  950.780
994.669;   60.195;  -11.300;  701.320
995.221;   61.142;  -13.540;  791.920
995.774;   60.283;  -13.430;  787.580
996.326;   58.627;  -12.520;  740.220
996.878;   58.709;  -10.950;  838.420
997.430;   57.096;  -14.300;  699.860
997.982;   56.376;  -13.760;  750.140
998.534;   55.280;  -11.530;  739.060
999.086;   53.983;  -10.310;  738.220
999.638;   52.543;  -12.530;  661.380
1000.190;   52.236;  -11.840;  699.320
1000.741;   52.003;  -10.260;  742.700
1001.293;   51.498;   -8.860;  686.020
1001.845;   50.361;  -13.700;  676.640
1002.396;   51.671;  -12.100;  743.400
1002.948;   50.441;  -12.760;  737.400
1003.500;   48.750;  -10.380;  723.780
1004.051;   49.075;  -11.900;  907.580
1004.603;   48.497;  -12.250;  791.820
1005.154;   44.437;  -13.210;  608.980
1005.705;   43.402;  -10.950;  723.960
1006.257;   44.064;  -13.880;  707.220
1006.808;   42.701;  -12.840;  685.460
1007.359;   41.573;  -10.570;  763.240
1007.910;   40.014;   -9.620;  646.640
1008.461;   40.355;  -13.630;  732.940
1009.013;   39.316;  -17.200;  588.340
1009.564;   40.892;  -10.200;  793.520
1010.115;   38.496;  -12.570;  597.040
1010.665;   37.624;  -15.150;  602.160
1011.216;   38.388;  -14.480;  667.920
1011.767;   37.800;  -11.340;  697.920
1012.318;   37.691;   -9.780;  736.980
1012.869;   36.565;  -12.380;  679.000
1013.419;   36.258;  -15.560;  603.120
1013.970;   36.696;  -11.010;  666.640
1014.521;   35.029;  -11.610;  620.620
1015.071;   35.822;  -13.450;  670.380
1015.622;   35.884;  -13.870;  635.460
1016.172;   35.235;  -11.610;  596.820
1016.723;   34.405;  -12.120;  614.380
1017.273;   34.674;  -13.620;  604.160
1017.823;   35.046;  -14.140;  650.340
1018.374;   34.244;  -12.800;  611.760
1018.924;   34.021;  -12.340;  716.880
1019.474;   33.994;  -11.410;  718.880
1020.024;   32.697;  -14.770;  657.580
1020.574;   33.951;   -9.780;  726.160
1021.124;   33.462;   -8.560;  673.580
1021.674;   32.205;  -15.190;  559.120
1022.224;   33.840;  -13.530;  708.940
1022.774;   33.121;  -13.280;  668.820
1023.324;   33.311;  -10.690;  753.520
1023.874;   34.679;  -10.240;  875.760
1024.423;   31.610;  -12.540;  613.700
1024.973;   31.368;  -10.010;  610.760
1025.523;   30.011;  -10.550;  620.960
1026.072;   29.940;  -13.560;  606.420
1026.622;   30.177;  -15.120;  675.740
1027.172;   31.113;  -11.260;  715.660
1027.721;   29.607;  -11.410;  601.220
1028.270;   31.235;  -13.530;  663.400
1028.820;   30.688;  -13.680;  638.080
1029.369;   30.113;  -13.520;  612.700
1029.918;   29.910;  -10.980;  649.840
1030.468;   29.158;  -13.530;  564.780
1031.017;   30.492;  -13.170;  634.800
1031.566;   28.127;  -12.200;  608.900
1032.115;   29.162;   -9.960;  694.500
1032.664;   28.121;  -13.210;  596.480
1033.213;   29.867;  -12.500;  735.420
1033.762;   28.629;  -11.910;  635.620
1034.311;   27.652;   -9.640;  677.220
1034.860;   28.548;  -13.310;  691.000
1035.408;   28.823;  -11.830;  722.720
1035.957;   28.648;  -12.000;  719.540
1036.506;   25.780;  -11.690;  530.800
1037.055;   29.198;  -10.990;  844.320
1037.603;   27.773;  -15.120;  664.000
1038.152;   25.779;  -12.450;  534.760
1038.700;   25.830;  -10.560;  585.740
1039.249;   25.527;  -11.080;  681.220
1039.797;   27.470;  -12.540;  633.360
1040.345;   26.647;  -11.920;  705.420
1040.894;   25.824;  -11.410;  625.300
1041.442;   25.955;  -14.320;  632.200
1041.990;   25.360;  -16.240;  559.160
1042.538;   24.707;  -11.680;  536.180
1043.087;   24.164;  -10.760;  570.860
1043.635;   25.704;  -11.850;  670.500
1044.183;   25.017;  -15.480;  586.400
1044.731;   24.926;  -11.770;  576.000
1045.279;   24.489;  -13.090;  674.920
1045.827;   26.270;  -12.440;  892.400
1046.374;   23.354;  -13.840;  515.420
1046.922;   23.954;  -13.220;  590.580
1047.470;   24.477;  -10.230;  691.300
1048.018;   24.157;  -14.590;  647.960
1048.565;   25.243;  -12.050;  708.600
1049.113;   23.488;  -11.650;  557.000
1049.660;   23.072;  -10.510;  629.660
1050.208;   23.332;  -13.310;  675.640
1050.755;   22.927;  -15.900;  606.580
1051.303;   22.947;  -11.430;  686.820
1051.850;   22.018;   -8.480;  635.120
1052.397;   21.320;  -15.010;  473.960
1052.945;   22.094;  -13.960;  617.760
1053.492;   22.676;  -13.150;  741.840
1054.039;   22.262;   -9.630;  720.180
1054.586;   22.484;  -13.680;  557.240
1055.133;   23.110;  -14.570;  693.140
1055.680;   21.941;  -13.820;  646.620
1056.227;   20.873;  -11.730;  542.780
1056.774;   23.033;  -12.480;  794.980
1057.321;   20.484;  -13.930;  523.260
1057.868;   20.596;  -11.690;  651.320
1058.415;   20.659;   -9.520;  651.980
1058.961;   21.610;  -13.160;  678.940
1059.508;   20.920;  -12.920;  643.820
1060.055;   20.020;  -11.920;  581.780
1060.601;   20.616;  -11.500;  624.300
1061.148;   20.636;  -14.330;  616.820
1061.694;   20.026;  -16.870;  592.580
1062.241;   20.992;  -10.330;  596.320
1062.787;   19.634;  -10.620;  663.140
1063.334;   21.618;  -10.110;  808.560
1063.880;   20.469;  -13.400;  668.360
1064.426;   19.748;  -10.680;  706.820
1064.972;   18.164;   -9.920;  601.340
1065.518;   18.031;  -10.980;  566.640
1066.065;   19.629;  -14.890;  624.460
1066.611;   18.321;  -12.870;  598.800
1067.157;   18.795;  -12.950;  641.860
1067.703;   18.662;  -13.540;  668.480
1068.249;   18.882;  -13.540;  605.220
1068.794;   18.552;  -12.600;  626.880
1069.340;   17.688;  -10.620;  578.960
1069.886;   17.940;  -12.830;  590.700
1070.432;   17.723;  -14.870;  541.720
1070.977;   17.557;  -11.980;  601.080
1071.523;   16.971;   -8.200;  573.060
1072.068;   17.724;  -12.330;  582.000
1072.614;   17.317;  -16.370;  527.760
1073.160;   17.871;  -11.100;  687.040
1073.705;   16.231;  -10.480;  572.520
1074.250;   16.943;  -14.520;  559.900
1074.796;   17.895;  -11.460;  655.160
1075.341;   17.949;  -11.950;  664.100
1075.886;   16.610;  -11.460;  594.240
1076.431;   16.363;  -13.770;  649.880
1076.976;   16.257;  -12.680;  639.220
1077.521;   15.719;  -13.170;  583.080
1078.067;   15.308;  -10.860;  579.400
1078.612;   16.118;  -13.920;  661.620
1079.156;   16.143;  -13.880;  601.540
1079.701;   15.364;  -13.120;  693.260
1080.246;   16.180;   -9.940;  696.300
1080.791;   15.898;  -14.740;  625.020
1081.336;   16.607;  -13.750;  659.320
1081.880;   15.631;  -13.400;  649.680
1082.425;   14.658;  -12.220;  573.480
1082.970;   15.704;  -11.610;  717.040
1083.514;   14.438;  -13.580;  597.000
1084.059;   14.454;  -12.810;  586.720
1084.603;   13.399;  -12.320;  565.840
1085.147;   14.821;  -13.190;  645.220
1085.692;   15.384;  -12.480;  716.800
1086.236;   13.107;  -13.020;  503.140
1086.780;   15.321;   -9.190;  751.440
1087.325;   13.989;  -12.480;  654.620
1087.869;   14.844;  -12.450;  610.700
1088.413;   15.101;  -12.240;  705.040
1088.957;   13.095;   -9.020;  543.400
1089.501;   14.950;  -10.320;  766.640
1090.045;   14.140;  -12.720;  726.480
1090.589;   12.424;  -13.690;  569.920
1091.133;   13.085;  -10.020;  673.340
1091.676;   13.359;  -12.330;  591.940
1092.220;   12.999;  -14.970;  600.920
1092.764;   13.878;  -12.430;  706.960
1093.307;   12.426;   -9.800;  673.780
1093.851;   11.942;  -14.970;  556.540
1094.395;   12.877;  -15.310;  683.140
1094.938;   12.364;  -10.370;  632.520
1095.482;   12.112;  -11.050;  559.800
1096.025;   12.919;  -11.840;  710.880
1096.568;   13.850;  -12.840;  779.280
1097.112;   10.558;  -14.700;  508.180
1097.655;   11.651;   -8.720;  603.000
1098.198;   10.503;  -13.610;  600.180
1098.741;   11.367;  -13.350;  612.860
1099.285;   11.812;  -11.230;  657.300
1099.828;    9.542;  -11.840;  439.400
1100.371;   11.127;  -10.840;  608.160
1100.914;   12.253;  -14.190;  682.660
1101.457;   11.551;  -11.240;  679.900
1101.999;    9.578;  -11.270;  584.680
1102.542;   11.584;  -11.480;  641.440
1103.085;   10.748;  -11.750;  658.500
1103.628;   11.840;  -11.400;  762.060
1104.170;   10.082;  -10.490;  588.280
1104.713;   10.894;  -10.600;  646.700
1105.256;   10.126;  -14.360;  557.440
1105.798;    8.670;  -13.210;  499.980
1106.341;   11.688;  -10.270;  728.900
1106.883;    9.749;  -12.200;  521.340
1107.425;    9.783;  -13.110;  668.180
1107.968;    9.395;  -12.840;  612.380
1108.510;   10.233;   -6.480;  684.960
1109.052;    7.883;  -13.940;  612.620
1109.594;    9.127;  -13.690;  554.440
1110.136;   10.020;  -11.880;  643.220
1110.679;    8.308;   -9.500;  633.080
1111.221;    9.670;  -14.160;  604.460
1111.763;    8.306;  -13.980;  559.220
1112.304;    8.789;  -13.880;  547.140
1112.846;    8.738;  -12.210;  666.240
1113.388;   11.506;  -11.390;  942.180
1113.930;    9.090;  -14.540;  694.200
1114.472;    8.398;  -12.640;  606.540
1115.013;    7.088;  -11.620;  551.280
1115.555;    7.389;  -13.640;  587.100
1116.097;    6.891;  -15.380;  579.480
1116.638;    7.919;  -12.640;  684.600
1117.180;    8.065;   -9.850;  667.740
1117.721;    7.687;  -13.690;  568.580
1118.262;    8.517;  -12.680;  677.960
1118.804;    8.358;  -12.530;  637.340
1119.345;    6.928;  -11.690;  578.400
1119.886;    8.302;  -13.380;  704.040
1120.427;    7.525;  -14.070;  589.020
1120.969;    7.187;  -13.500;  597.920
1121.510;    5.969;  -11.480;  563.060
1122.051;    6.806;  -12.830;  723.580
1122.592;    5.816;  -14.290;  655.420
1123.133;    5.368;  -12.400;  547.940
1123.673;    7.361;  -10.130;  706.480
1124.214;    6.158;  -12.930;  612.460
1124.755;    7.321;  -14.380;  639.460
1125.296;    6.947;  -14.000;  627.320
1125.836;    7.108;  -10.070;  691.500
1126.377;    6.013;  -12.640;  599.660
1126.918;    6.469;  -12.960;  614.980
1127.458;    5.864;  -13.350;  622.220
1127.999;    6.244;  -10.750;  656.980
1128.539;    6.098;  -12.350;  694.240
1129.079;    6.157;  -14.860;  632.720
1129.620;    4.851;  -13.840;  558.100
1130.160;    4.609;  -12.330;  539.480
1130.700;    5.558;  -14.530;  640.840
1131.240;    6.260;  -12.530;  643.700
1131.781;    5.462;  -14.450;  619.680
1132.321;    5.566;   -9.790;  599.120
1132.861;    4.794;  -14.860;  564.200
1133.401;    3.852;  -14.290;  593.940
1133.941;    4.636;  -11.750;  626.280
1134.481;    3.822;   -9.920;  597.580
1135.020;    4.014;  -12.290;  609.160
1135.560;    4.970;  -11.650;  674.940
1136.100;    3.855;  -16.270;  501.160
1136.640;    2.634;  -10.890;  510.480
1137.179;    3.273;  -14.180;  537.960
1137.719;    4.551;  -16.250;  605.400
1138.258;    4.719;  -14.230;  587.360
1138.798;    3.883;   -9.090;  663.780
1139.337;    2.437;  -15.130;  482.840
1139.877;    4.474;  -13.680;  642.360
1140.416;    6.528;  -11.320;  878.060
1140.955;    3.206;  -10.860;  535.380
1141.494;    4.510;  -12.920;  669.280
1142.034;    2.962;  -13.930;  583.520
1142.573;    4.202;  -11.440;  646.280
1143.112;    2.696;  -12.000;  553.480
1143.651;    3.546;  -13.670;  536.480
1144.190;    4.573;  -12.730;  691.640
1144.729;    3.365;  -14.560;  607.420
1145.267;    2.971;  -11.830;  584.900
1145.806;    3.591;  -12.230;  637.040
1146.345;    3.541;  -14.130;  635.020
1146.884;    2.643;  -11.590;  622.500
1147.422;    1.191;  -12.550;  533.060
1147.961;    3.816;  -11.180;  708.460
1148.500;    3.537;  -11.510;  669.720
1149.038;    3.850;  -11.640;  632.500
1149.577;    3.423;  -10.130;  698.640
1150.115;    0.394;  -13.970;  452.280
1150.653;    2.527;  -14.520;  607.340
1151.192;    2.801;  -12.810;  552.920
1151.730;    2.234;   -9.100;  652.560
1152.268;    1.500;  -12.220;  589.520
1152.806;    2.048;  -14.140;  571.180
1153.344;    0.129;  -12.350;  577.640
1153.882;    2.153;   -8.980;  600.060
1154.421;    0.065;  -15.190;  470.620
1154.958;    1.497;  -15.210;  595.240
1155.496;    2.237;  -12.850;  645.280
1156.034;    1.376;   -9.940;  721.880
1156.572;    2.210;  -13.570;  667.060
1157.110;    0.536;  -14.590;  473.940
1157.647;    2.659;  -13.030;  676.960
1158.185;    0.315;  -12.140;  564.320
1158.723;   -0.167;  -14.390;  509.200
1159.260;    1.329;  -14.090;  701.700
1159.798;    2.008;  -11.920;  658.160
1160.335;    0.603;  -11.110;  631.820

