
Integration time [ms]:   3.276
Averaging Nr. [scans]: 1000
Smoothing Nr. [pixels]: 0
Data measured with spectrometer [name]: 7414430SP
Wave   ;Sample   ;Dark     ;Reference
[nm]   ;[counts] ;[counts] ;[counts] 

288.544;  158.317;    7.793;  793.890
289.143;  160.797;    7.462;  681.602
289.742;  161.409;    8.602;  828.814
290.341;  149.138;    1.321;  789.841
290.940;  138.390;   -0.709;  730.702
291.538;  140.483;    0.881;  881.108
292.137;  139.237;    0.122;  792.581
292.736;  142.324;   -1.929;  975.101
293.335;  138.643;   -8.229;  735.086
293.934;  140.657;   -5.279;  781.677
294.532;  140.064;   -1.369; 1031.958
295.131;  125.896;   -7.641;  834.394
295.730;  125.986;   -8.420;  809.588
296.328;  123.564;   -5.611;  783.442
296.927;  123.210;   -5.781;  779.652
297.525;  124.603;   -6.361;  781.236
298.124;  116.654;  -11.382;  654.009
298.722;  120.919;   -7.641;  761.933
299.321;  116.458;   -6.811;  708.597
299.919;  112.886;   -6.991;  751.918
300.518;  110.960;  -10.362;  689.338
301.116;  112.579;   -9.581;  691.381
301.715;  114.198;   -4.891;  730.222
302.313;  111.267;   -8.801;  704.943
302.911;  106.428;   -8.522;  733.830
303.509;  111.017;   -6.171;  925.627
304.108;  109.807;   -7.311;  760.383
304.706;  108.810;   -8.321;  801.664
305.304;  103.937;  -10.222;  796.707
305.902;  108.493;   -6.021;  784.484
306.500;  103.616;   -4.971;  728.200
307.098;  102.752;   -7.061;  746.560
307.696;  100.783;   -8.801;  780.432
308.294;  100.801;   -6.411;  731.359
308.892;  102.106;   -2.901;  759.769
309.490;   98.587;   -5.041;  712.161
310.088;   97.867;   -5.002;  788.444
310.686;  101.458;   -2.041;  821.749
311.284;   96.793;   -2.351;  766.040
311.882;   94.856;   -4.422;  731.225
312.480;   91.788;   -4.192;  697.167
313.078;   93.205;   -1.172;  808.331
313.675;   94.020;   -2.601;  691.600
314.273;   88.659;   -1.312;  797.837
314.871;   87.005;   -3.942;  589.829
315.468;   86.271;   -2.802;  652.090
316.066;   88.580;   -0.701;  694.427
316.664;   81.852;   -4.362;  656.351
317.261;   85.395;   -2.872;  910.128
317.859;   81.392;   -2.022;  768.735
318.456;   81.544;   -0.531;  830.096
319.054;   77.850;   -3.912;  787.828
319.651;   75.671;   -4.752;  759.928
320.249;   75.413;   -2.602;  810.188
320.846;   73.109;   -0.821;  714.286
321.443;   70.606;   -4.642;  832.135
322.041;   67.959;   -5.002;  812.315
322.638;   64.610;   -3.982;  701.456
323.235;   66.033;   -3.411;  665.683
323.833;   62.984;   -7.361;  740.354
324.430;   58.252;   -8.611;  615.900
325.027;   59.266;   -4.061;  876.855
325.624;   58.704;   -4.031;  644.532
326.221;   56.158;   -7.481;  689.717
326.818;   55.096;   -5.281;  818.332
327.415;   58.624;   -7.460;  748.828
328.012;   58.050;   -5.510;  690.585
328.609;   56.062;   -7.880;  731.389
329.206;   55.041;   -8.331;  778.621
329.803;   55.061;   -5.121;  737.841
330.400;   56.823;   -4.510;  704.260
330.997;   57.613;   -6.441;  817.147
331.594;   56.521;   -8.831;  788.185
332.191;   62.319;   -7.621;  728.722
332.787;   65.315;   -4.591;  844.463
333.384;   64.695;   -7.412;  763.093
333.981;   64.029;   -8.293;  815.687
334.578;   66.588;   -7.052;  708.378
335.174;   69.334;   -3.102;  731.469
335.771;   67.377;   -5.943;  836.456
336.367;   65.658;   -7.393;  710.631
336.964;   71.300;   -4.063;  793.266
337.561;   67.535;   -3.813;  731.112
338.157;   63.917;   -4.654;  911.916
338.754;   63.063;   -7.934;  796.589
339.350;   60.555;   -4.414;  722.493
339.946;   62.216;   -4.664;  773.135
340.543;   54.101;   -6.375;  846.136
341.139;   48.481;   -9.815;  720.836
341.735;   45.313;   -4.526;  772.593
342.332;   43.789;   -4.895;  691.472
342.928;   44.061;   -4.295;  795.394
343.524;   37.188;   -5.476;  761.684
344.120;   34.017;   -5.856;  738.562
344.716;   37.409;   -2.155;  723.717
345.313;   34.166;   -6.275;  795.342
345.909;   29.009;   -8.815;  627.336
346.505;   30.628;   -5.305;  740.247
347.101;   31.303;   -2.674;  827.864
347.697;   31.731;   -4.344;  785.398
348.293;   26.525;   -9.975;  627.244
348.889;   26.702;   -5.774;  745.914
349.485;   26.182;   -5.004;  688.205
350.081;   27.234;   -4.704;  772.592
350.676;   22.066;   -6.635;  691.606
351.272;   27.071;   -4.504;  809.530
351.868;   25.914;   -3.914;  780.497
352.464;   23.435;   -9.044;  723.932
353.059;   19.742;   -8.314;  646.017
353.655;   22.733;   -7.024;  777.063
354.251;   24.478;   -5.343;  759.845
354.846;   17.323;   -8.604;  740.646
355.442;   16.652;   -6.945;  753.071
356.038;   17.641;   -7.564;  751.708
356.633;   18.335;   -5.814;  728.594
357.229;   15.632;   -7.364;  724.757
357.824;   13.621;   -8.024;  703.600
358.420;   13.423;   -9.384;  679.726
359.015;   13.588;   -5.104;  695.357
359.610;   13.797;   -6.854;  763.920
360.206;    8.905;  -10.185;  603.240
360.801;   11.679;   -7.054;  646.503
361.396;   14.091;   -5.034;  725.975
361.992;    9.103;   -8.284;  668.220
362.587;    6.325;   -8.625;  670.160
363.182;    8.150;   -7.674;  689.631
363.777;    8.018;   -5.164;  738.242
364.372;    8.390;   -8.604;  737.314
364.967;    4.286;   -9.055;  680.744
365.563;    8.904;   -6.114;  815.567
366.158;    6.670;   -5.814;  685.161
366.753;    6.073;   -7.854;  649.263
367.348;    5.474;   -7.804;  746.056
367.942;    4.686;   -7.954;  697.298
368.537;    3.304;   -4.984;  754.245
369.132;    3.362;   -8.564;  703.428
369.727;    0.604;   -8.855;  638.079
370.322;    0.376;   -6.245;  580.186
370.917;    0.690;   -6.425;  710.646
371.511;    3.622;   -6.294;  861.834
372.106;   -0.595;   -7.685;  776.964
372.701;   -3.059;   -7.335;  585.988
373.296;    2.276;   -4.564;  863.135
373.890;   -3.088;  -10.235;  647.840
374.485;   -4.687;   -7.885;  691.199
375.079;   -0.550;   -7.324;  738.685
375.674;   -0.046;   -3.494;  812.970
376.268;   -4.013;   -8.525;  691.759
376.863;   -9.568;  -10.086;  580.327
377.457;   -3.182;   -7.025;  662.490
378.052;   -5.534;   -3.585;  764.884
378.646;   -6.414;   -7.595;  741.167
379.240;   -6.903;   -8.335;  721.176
379.835;   -6.163;   -5.785;  636.978
380.429;   -7.529;   -4.335;  562.557
381.023;   -7.824;   -6.805;  779.205
381.617;  -10.078;   -9.195;  680.106
382.212;   -7.051;   -6.905;  685.303
382.806;   -6.006;   -3.745;  760.690
383.400;   -9.854;   -7.745;  672.281
383.994;  -10.803;   -9.765;  664.870
384.588;   -7.116;   -6.564;  697.701
385.182;   -5.937;   -5.344;  726.624
385.776;   -8.731;   -8.514;  706.875
386.370;  -11.266;   -9.555;  681.968
386.964;  -10.176;   -8.715;  684.155
387.558;   -8.960;   -6.174;  598.360
388.152;  -12.404;   -8.725;  681.959
388.745;  -10.207;   -7.965;  814.707
389.339;   -8.165;   -5.924;  747.642
389.933;   -7.647;   -5.524;  695.370
390.527;   -8.310;   -7.114;  859.029
391.120;  -14.515;  -10.725;  595.318
391.714;  -11.432;   -8.035;  711.633
392.308;   -8.313;   -3.574;  780.253
392.901;  -12.306;   -7.245;  642.460
393.495;  -14.131;   -9.285;  595.414
394.089;  -12.445;   -5.895;  760.452
394.682;  -12.655;   -4.295;  697.188
395.275;  -13.752;   -9.875;  719.927
395.869;  -14.695;   -8.485;  667.314
396.462;  -13.318;   -7.455;  616.609
397.056;   -9.097;   -5.424;  776.621
397.649;  -13.937;   -6.605;  731.575
398.242;  -10.664;   -8.224;  712.645
398.836;  -10.803;   -7.474;  766.408
399.429;  -11.660;   -7.094;  631.041
400.022;  -15.356;   -9.475;  665.902
400.615;  -12.133;   -7.145;  805.609
401.208;  -11.485;   -7.174;  691.451
401.802;  -12.451;   -5.515;  699.329
402.395;  -13.907;   -9.875;  683.502
402.988;  -15.141;   -8.845;  696.627
403.581;  -11.487;   -8.874;  646.878
404.174;   -9.535;   -5.324;  686.568
404.767;  -13.367;   -9.575;  638.583
405.360;  -15.012;  -10.965;  621.445
405.953;   -9.269;   -8.764;  759.034
406.545;   -8.868;   -7.514;  725.342
407.138;  -14.186;  -10.025;  618.350
407.731;  -12.261;  -10.034;  613.303
408.324;   -8.024;   -9.374;  660.554
408.917;   -9.476;   -6.534;  681.864
409.509;  -11.282;   -8.004;  740.396
410.102;  -13.351;   -9.875;  643.948
410.695;   -6.597;   -8.604;  665.758
411.287;   -7.974;   -6.794;  599.821
411.880;   -9.639;   -9.334;  585.421
412.472;  -12.687;  -10.254;  613.092
413.065;   -8.649;   -6.714;  629.408
413.657;   -8.017;   -7.234;  576.678
414.250;   -7.784;  -10.544;  646.681
414.842;   -9.121;   -9.744;  676.353
415.434;   -6.287;   -6.994;  570.463
416.027;   -3.132;   -5.893;  652.196
416.619;   -4.434;   -7.264;  713.400
417.211;   -4.760;  -10.374;  599.352
417.804;   -1.482;   -7.993;  628.499
418.396;   -5.514;   -7.234;  607.643
418.988;   -3.657;   -9.443;  659.238
419.580;   -6.994;  -10.724;  568.276
420.172;   -4.784;  -10.323;  536.196
420.764;   -0.464;   -8.793;  672.482
421.356;   -1.477;  -11.143;  636.898
421.948;   -3.200;   -8.293;  677.661
422.540;    2.281;   -7.893;  680.027
423.132;    1.558;   -7.082;  600.641
423.724;   -1.688;   -8.653;  561.267
424.316;    0.941;  -10.213;  621.345
424.908;    4.139;   -9.762;  591.517
425.500;    4.881;   -5.572;  647.978
426.092;    4.966;   -8.422;  648.268
426.683;    3.458;   -9.283;  684.836
427.275;    7.492;   -7.852;  641.471
427.867;    8.242;   -5.272;  668.948
428.458;    8.868;   -7.682;  732.344
429.050;    7.147;  -10.612;  680.749
429.642;    9.735;   -9.882;  743.124
430.233;   10.053;   -6.962;  569.356
430.825;   10.877;   -6.842;  724.809
431.416;    8.981;   -9.672;  698.241
432.008;   12.094;   -6.552;  651.723
432.599;   13.169;   -6.891;  656.073
433.190;    9.897;  -10.912;  637.670
433.782;    9.683;  -11.172;  590.395
434.373;   17.733;   -6.061;  884.765
434.964;   15.080;   -8.251;  602.920
435.556;   12.378;   -9.722;  634.537
436.147;   15.858;   -9.082;  758.490
436.738;   15.658;   -8.041;  701.099
437.329;   21.062;   -7.341;  721.723
437.920;   14.028;   -8.162;  666.688
438.511;   13.017;  -11.802;  564.526
439.103;   20.712;  -10.191;  623.998
439.694;   22.143;   -7.601;  681.583
440.285;   22.721;   -8.541;  764.432
440.876;   21.133;   -9.751;  845.738
441.466;   21.428;   -9.401;  575.162
442.057;   25.850;   -7.760;  665.814
442.648;   24.121;   -9.971;  746.255
443.239;   23.001;  -11.001;  620.477
443.830;   28.803;   -7.990;  704.958
444.421;   29.884;   -7.910;  655.474
445.011;   26.671;   -8.131;  693.619
445.602;   25.920;   -7.111;  743.126
446.193;   28.935;  -10.920;  488.117
446.783;   32.056;   -6.500;  640.397
447.374;   27.221;   -8.671;  692.759
447.964;   27.545;  -10.781;  713.770
448.555;   36.326;   -9.650;  822.742
449.145;   34.005;   -8.660;  662.853
449.736;   34.092;   -8.990;  803.179
450.326;   33.951;   -9.500;  713.626
450.917;   39.790;   -8.680;  675.324
451.507;   38.503;   -7.520;  600.661
452.097;   39.169;   -8.590;  746.267
452.688;   40.306;  -11.340;  742.160
453.278;   40.011;  -10.100;  566.840
453.868;   44.672;   -6.019;  793.550
454.458;   41.900;   -9.440;  651.141
455.048;   42.239;  -10.560;  711.783
455.639;   44.637;  -11.799;  567.096
456.229;   47.649;   -6.899;  710.694
456.819;   49.314;   -7.389;  751.158
457.409;   49.984;  -11.119;  773.993
457.999;   52.863;   -9.289;  737.505
458.589;   52.020;   -6.139;  686.606
459.179;   52.038;   -8.729;  717.658
459.769;   50.929;   -9.789;  627.099
460.358;   56.019;  -10.259;  797.262
460.948;   54.899;   -7.299;  689.503
461.538;   57.365;  -10.289;  660.677
462.128;   56.056;  -11.269;  664.934
462.717;   62.075;   -9.368;  710.326
463.307;   64.701;   -7.908;  705.846
463.897;   60.980;   -9.599;  656.942
464.486;   59.794;   -9.769;  837.128
465.076;   64.453;   -8.048;  733.776
465.666;   67.259;   -9.358;  652.900
466.255;   64.789;   -7.919;  785.651
466.845;   64.489;  -11.689;  666.749
467.434;   67.986;   -7.818;  725.873
468.023;   68.875;   -7.678;  658.357
468.613;   66.047;  -10.939;  713.946
469.202;   70.735;  -10.118;  646.507
469.791;   75.651;   -9.108;  737.811
470.381;   77.092;   -6.058;  742.813
470.970;   75.610;  -10.428;  711.099
471.559;   76.237;  -10.268;  733.291
472.148;   79.660;   -8.448;  675.737
472.738;   82.543;   -6.917;  765.466
473.327;   81.727;  -11.978;  637.529
473.916;   81.139;  -11.888;  737.446
474.505;   85.539;   -9.437;  751.703
475.094;   88.678;   -6.747;  806.570
475.683;   87.049;   -9.367;  797.699
476.272;   88.204;  -12.637;  730.632
476.861;   91.868;  -10.027;  706.754
477.449;   96.970;   -8.716;  728.487
478.038;   92.090;   -9.577;  692.513
478.627;   93.137;   -9.718;  714.852
479.216;  100.276;   -8.947;  769.441
479.805;  102.751;   -6.256;  783.375
480.393;  102.856;   -7.937; 1008.945
480.982;  102.041;   -7.717;  874.501
481.571;  108.636;   -9.266;  858.333
482.159;  109.070;   -7.636;  705.386
482.748;  108.875;   -9.667;  821.385
483.336;  113.554;  -10.376;  858.209
483.925;  114.924;   -7.147;  774.373
484.513;  121.169;   -7.996;  758.962
485.102;  118.681;  -10.027;  810.965
485.690;  127.929;  -10.446; 1011.050
486.278;  129.092;   -8.446;  979.329
486.867;  128.916;   -6.356;  809.662
487.455;  130.255;   -9.136;  898.229
488.043;  133.042;  -10.646;  748.361
488.631;  142.265;   -7.456; 1005.079
489.220;  145.676;   -6.636;  908.626
489.808;  146.622;  -11.036;  741.415
490.396;  154.404;  -10.246;  914.645
490.984;  162.513;   -8.556;  830.161
491.572;  173.152;   -5.886;  940.315
492.160;  180.970;   -9.486;  919.081
492.748;  193.374;  -10.976;  884.341
493.336;  217.481;   -8.776; 1019.693
493.924;  246.717;   -5.465;  958.077
494.512;  281.211;   -9.986; 1066.638
495.100;  331.109;  -10.636; 1103.280
495.687;  391.185;  -10.885; 1206.373
496.275;  444.668;   -8.126; 1150.796
496.863;  515.792;  -10.586; 1281.171
497.451;  629.931;  -11.926; 1386.805
498.038;  740.279;  -10.885; 1556.729
498.626;  839.112;   -6.315; 1741.407
499.214;  989.822;   -7.326; 2016.609
499.801; 1216.294;  -11.906; 2220.633
500.389; 1481.170;  -10.466; 2312.494
500.976; 1726.883;   -5.236; 2744.849
501.564; 2141.157;   -8.936; 3148.565
502.151; 2600.397;  -13.176; 3515.999
502.738; 3136.496;  -10.646; 3971.274
503.326; 3537.157;   -9.525; 4403.796
503.913; 3846.992;  -10.856; 5161.749
504.500; 4354.756;  -11.586; 5986.420
505.088; 4642.548;  -10.336; 6381.201
505.675; 5092.091;   -6.355; 6925.547
506.262; 5555.757;   -9.046; 7619.060
506.849; 6088.042;  -10.416; 8733.969
507.436; 6629.864;  -10.305; 9790.121
508.023; 7087.553;   -5.496; 9985.472
508.610; 7914.176;   -7.856;10434.618
509.197; 9177.441;  -10.097;11198.435
509.784;10640.930;  -10.886;12391.194
510.371;11998.194;   -9.315;13603.713
510.958;12865.678;   -9.936;14426.586
511.545;13542.046;   -9.326;15243.775
512.132;14040.338;  -10.075;15945.876
512.719;14230.679;   -7.796;16340.369
513.305;15193.701;  -10.606;18011.766
513.892;16540.838;  -11.486;19754.971
514.479;18281.816;   -9.126;20967.805
515.066;19798.346;   -6.026;22299.793
515.652;19917.031;   -8.466;22908.660
516.239;20900.619;  -10.886;23798.875
516.825;23121.004;  -11.496;25567.275
517.412;25205.475;   -5.796;28154.959
517.998;27058.826;  -10.506;28344.111
518.585;26577.482;  -10.076;27134.219
519.171;25361.340;   -8.315;27268.576
519.758;26366.863;   -8.596;28964.129
520.344;27561.646;   -8.466;30664.494
520.930;30012.307;  -11.006;32550.605
521.516;30405.303;  -10.495;35422.895
522.103;28687.938;   -5.526;38280.004
522.689;28963.676;   -8.746;37835.117
523.275;30129.326;  -11.376;37288.613
523.861;31130.551;  -11.156;37281.395
524.447;32079.961;   -8.135;37846.949
525.033;30622.682;   -7.896;38321.949
525.619;30956.824;  -12.476;38579.285
526.205;34376.879;   -9.516;40622.875
526.791;36854.148;   -6.926;42258.836
527.377;39038.918;   -8.346;42966.902
527.963;40867.254;   -8.717;42018.949
528.549;39848.117;  -11.016;42476.828
529.135;40030.227;   -8.536;41854.852
529.721;39657.695;   -9.666;41237.711
530.306;37957.738;  -10.066;41259.445
530.892;37933.031;  -11.356;41506.047
531.478;37322.578;   -6.596;43559.613
532.063;37746.418;   -8.836;47695.563
532.649;41280.508;  -10.047;50808.324
533.235;42290.266;   -9.746;51787.500
533.820;41466.066;   -6.566;52145.035
534.406;40892.563;  -10.817;51133.488
534.991;43531.230;   -9.416;49996.805
535.576;44524.887;   -9.036;48882.852
536.162;44464.973;   -6.156;46942.285
536.747;45650.156;  -11.607;45711.746
537.333;46072.336;  -11.787;48510.180
537.918;46259.875;  -12.437;50439.891
538.503;46993.246;   -7.196;50863.711
539.088;43955.008;  -10.556;50906.922
539.673;41911.566;   -8.767;52621.965
540.259;42338.094;  -10.026;52368.094
540.844;42847.316;   -7.416;50879.109
541.429;39596.148;   -9.467;52077.777
542.014;36741.641;   -9.527;52716.695
542.599;37909.379;   -9.946;52363.281
543.184;42625.492;   -7.927;53187.137
543.769;45518.965;   -9.297;54697.605
544.354;45571.867;  -10.127;53913.914
544.938;45528.852;   -9.267;49680.164
545.523;48083.121;   -6.506;47386.277
546.108;51315.566;   -9.787;49151.949
546.693;50619.793;  -11.587;51384.637
547.278;50392.578;  -10.986;51853.254
547.862;47044.301;   -8.206;51173.750
548.447;44322.195;  -10.067;51691.395
549.031;45073.824;   -9.637;52456.703
549.616;46302.379;   -9.926;52714.516
550.201;45352.668;   -6.347;52414.598
550.785;44800.297;   -7.917;52355.059
551.370;45974.211;  -10.867;54589.453
551.954;46572.043;   -9.047;58267.348
552.538;47591.809;   -7.827;59062.176
553.123;47526.973;  -10.287;58115.285
553.707;43557.172;  -12.178;56556.285
554.291;44260.715;   -8.717;56201.668
554.876;47384.836;   -7.457;55335.762
555.460;48124.027;  -10.387;54155.703
556.044;49224.551;   -9.618;53721.484
556.628;48070.141;  -11.567;53731.016
557.212;46035.590;   -8.097;54312.531
557.796;47259.254;  -11.077;53797.773
558.380;45197.500;  -11.108;56145.984
558.964;43886.289;   -9.057;57277.930
559.548;43942.523;   -6.977;56459.641
560.132;43014.609;  -11.457;54434.543
560.716;42267.941;  -11.378;54800.617
561.300;43233.250;   -9.577;57606.945
561.884;45177.027;   -7.127;58972.445
562.467;45878.828;   -7.118;57327.570
563.051;45438.891;  -13.358;54962.434
563.635;43017.848;  -10.178;52594.473
564.219;42175.422;   -7.837;50610.410
564.802;41937.789;  -11.398;49551.180
565.386;43058.949;  -12.788;48370.953
565.969;43685.172;   -9.077;48178.871
566.553;43900.117;   -6.207;49957.305
567.136;41287.613;   -8.568;50369.594
567.720;40396.172;  -11.868;49492.004
568.303;40311.570;   -8.268;50616.352
568.887;39469.141;   -8.698;50727.148
569.470;39683.617;   -6.808;51698.379
570.053;38241.043;  -13.188;52122.078
570.637;36917.363;  -12.037;52536.438
571.220;36290.438;   -8.577;51186.098
571.803;36704.348;   -8.498;51032.762
572.386;39165.246;  -10.498;49609.887
572.969;40560.074;   -9.388;48285.926
573.552;36999.578;   -8.338;47624.285
574.135;35083.660;   -8.518;45498.641
574.718;31738.000;  -13.628;41970.434
575.301;31338.277;  -10.893;41447.137
575.884;30938.555;   -8.158;40923.836
576.467;35959.273;  -10.328;45267.723
577.050;34530.867;  -13.058;48175.543
577.633;33646.953;   -9.458;47729.328
578.216;35246.375;   -8.928;47579.793
578.799;35898.965;   -9.358;47820.996
579.381;35005.527;  -11.388;48115.551
579.964;32240.828;  -11.718;47333.766
580.547;32244.887;   -8.588;46668.969
581.129;33713.121;   -8.859;44466.141
581.712;34150.430;  -10.729;44164.922
582.294;35665.719;  -11.118;46477.855
582.877;33373.352;   -5.218;48244.254
583.459;33401.012;   -8.679;47437.895
584.042;35413.102;  -10.709;46943.219
584.624;37368.887;  -11.669;46792.227
585.206;36016.215;   -8.218;46557.250
585.789;34914.898;  -10.569;45793.773
586.371;35306.504;  -11.859;43836.391
586.953;34035.691;  -10.719;42972.492
587.536;35948.770;   -7.198;42487.211
588.118;37211.758;   -8.720;42086.414
588.700;36416.906;  -10.439;43389.930
589.282;36453.164;   -9.198;43646.039
589.864;35348.789;   -9.199;43438.109
590.446;33051.996;  -11.319;43151.926
591.028;32822.391;  -11.159;42781.867
591.610;32844.863;  -11.779;42839.098
592.192;29817.963;   -7.668;42820.402
592.774;30445.313;  -11.949;40724.277
593.356;31495.137;  -12.129;39874.789
593.937;29502.367;  -10.669;39980.648
594.519;30855.102;   -6.509;42069.633
595.101;32630.895;  -10.849;42976.031
595.683;31424.369;  -11.679;44084.441
596.264;31200.217;   -9.049;43478.797
596.846;33150.602;   -8.849;43803.672
597.427;33238.988;   -9.570;42986.934
598.009;34509.520;  -12.620;42832.219
598.591;33622.180;  -10.039;42580.086
599.172;32581.334;  -10.369;43061.805
599.753;30832.473;   -9.140;41691.469
600.335;30771.467;  -11.430;40692.520
600.916;31145.242;   -9.939;39982.422
601.498;29696.605;   -8.479;40318.617
602.079;28491.506;  -10.920;40670.609
602.660;30427.855;  -11.480;41450.898
603.241;32036.678;  -11.699;41137.738
603.823;32589.332;   -9.579;38868.797
604.404;32347.811;  -10.620;38182.785
604.985;31108.283;  -10.450;38078.047
605.566;30830.324;   -9.129;38056.633
606.147;30883.547;   -7.510;37020.418
606.728;31911.129;  -10.660;37883.359
607.309;32558.123;  -11.740;38748.273
607.890;32063.037;   -9.759;38850.230
608.471;30571.238;   -8.250;37457.918
609.051;30770.766;   -9.240;36066.457
609.632;28986.521;  -12.120;35991.074
610.213;27941.520;   -9.110;37402.641
610.794;29860.090;   -8.030;38383.363
611.374;32286.492;   -8.110;40562.387
611.955;32054.760;  -13.560;38533.727
612.536;29256.881;  -11.400;36951.789
613.116;27814.844;   -8.070;37197.891
613.697;30000.559;  -10.830;38411.125
614.277;31700.688;  -11.641;38673.938
614.858;30945.625;  -13.310;37075.863
615.438;29275.922;   -7.460;35092.906
616.019;27497.754;   -7.601;33666.301
616.599;28434.242;  -12.020;34189.023
617.179;30304.857;  -11.780;36952.047
617.760;33210.273;   -8.570;39582.574
618.340;33335.902;  -11.471;38943.977
618.920;31925.703;  -11.170;37594.156
619.500;33778.246;  -11.071;37866.938
620.080;33676.145;   -7.750;37869.043
620.660;31639.742;  -12.711;36868.617
621.241;30157.906;  -10.211;36352.309
621.821;29256.941;  -10.961;35459.520
622.401;28489.848;   -7.720;35207.414
622.980;29568.438;   -8.981;35980.422
623.560;29959.111;   -9.331;37351.328
624.140;28760.096;   -9.850;34388.582
624.720;26169.922;   -7.451;32368.764
625.300;24371.479;   -9.070;32638.629
625.880;27835.896;  -12.601;34599.035
626.459;29761.537;  -11.751;36831.738
627.039;30576.768;   -9.281;38299.098
627.619;32445.109;   -8.801;38289.574
628.198;31603.668;  -12.071;37220.695
628.778;30488.008;   -9.461;37632.563
629.357;31674.768;   -8.491;38003.012
629.937;31913.469;   -9.721;38402.039
630.516;32117.086;   -9.951;37868.801
631.096;32495.428;  -11.731;35760.410
631.675;33753.617;   -8.572;35225.219
632.254;33262.695;  -11.282;35130.289
632.834;32514.480;  -13.322;35794.570
633.413;32439.643;  -10.301;35788.922
633.992;31692.320;   -8.582;34532.863
634.571;33348.438;   -8.352;33590.113
635.151;33464.711;  -11.912;34943.863
635.730;32854.176;  -10.511;35352.523
636.309;35126.141;   -7.731;35366.605
636.888;32783.457;   -9.952;36165.637
637.467;30723.744;  -11.672;37515.902
638.046;30910.666;   -8.901;39288.695
638.625;31914.797;   -7.912;38279.699
639.204;32191.484;  -10.022;37741.598
639.782;30082.658;  -12.252;38364.551
640.361;28334.557;  -10.041;36740.621
640.940;27494.676;  -11.161;34950.082
641.519;28470.598;   -9.701;34137.398
642.097;30077.236;  -11.271;35654.258
642.676;31902.094;   -8.651;35637.957
643.255;33340.195;   -8.711;36567.074
643.833;30934.922;   -9.581;37809.434
644.412;28698.080;  -13.711;37337.293
644.990;30659.609;  -11.811;37018.531
645.569;33114.148;   -9.411;36518.469
646.147;32423.307;  -10.291;36186.430
646.726;31465.150;  -12.401;36267.688
647.304;31398.643;  -10.411;36647.625
647.882;30469.025;   -9.651;39286.742
648.461;31958.611;   -9.631;39157.703
649.039;35256.516;  -11.881;35412.883
649.617;35430.266;   -9.661;34744.918
650.195;33244.938;   -9.301;35403.098
650.773;31840.139;  -10.511;35053.797
651.352;30877.697;  -11.521;33756.816
651.930;28724.037;  -12.211;31868.773
652.508;25969.697;   -9.171;33121.551
653.086;26923.354;   -9.371;33564.793
653.663;32869.000;  -13.161;34054.668
654.241;36866.668;  -13.031;35693.309
654.819;37597.305;   -9.371;36422.906
655.397;37502.309;  -10.511;38213.484
655.975;33802.469;  -10.371;39507.625
656.553;30397.955;  -10.051;39498.223
657.130;28711.150;  -10.061;40395.480
657.708;26745.926;   -9.561;39242.020
658.286;24248.977;  -11.511;38920.020
658.863;26397.174;  -10.261;40202.898
659.441;30022.256;   -7.531;39677.938
660.018;32137.184;   -9.501;40413.355
660.596;31456.930;  -13.301;39931.414
661.173;31244.564;  -11.211;39604.531
661.750;32896.344;   -9.951;39700.070
662.328;31948.885;   -9.390;39292.809
662.905;30799.322;  -11.330;38235.648
663.482;28298.828;   -9.050;36212.305
664.060;25621.131;   -8.240;35944.945
664.637;26405.135;  -10.050;35170.785
665.214;29660.229;  -11.760;34197.523
665.791;29852.820;  -10.530;34549.520
666.368;28692.588;   -9.690;35118.578
666.945;30124.676;   -9.320;36019.418
667.522;30796.424;  -11.860;36048.438
668.099;32173.715;  -10.770;36243.914
668.676;32263.283;   -6.260;35958.875
669.253;34600.398;   -7.000;37384.730
669.830;35755.273;  -10.190;36779.629
670.407;32834.938;   -9.550;35231.289
670.984;33292.066;   -9.260;35544.270
671.560;30577.008;   -9.280;35466.867
672.137;26622.893;  -11.810;34280.863
672.714;28697.982;  -11.490;34632.863
673.290;32406.941;   -7.740;35135.422
673.867;31907.395;  -10.660;36114.480
674.443;31957.021;  -12.230;36152.859
675.020;31462.850;  -10.450;35327.238
675.596;29724.615;   -9.260;35795.176
676.173;28500.152;  -10.780;35430.355
676.749;28194.045;  -13.690;33549.516
677.326;28230.518;  -11.980;32210.012
677.902;27654.418;   -8.630;32068.871
678.478;29479.963;  -10.730;32583.891
679.054;30152.406;  -10.520;32088.928
679.631;29436.570;  -11.920;30978.848
680.207;29585.605;   -7.490;33160.887
680.783;31353.164;   -9.860;35570.363
681.359;32913.422;  -13.380;36125.184
681.935;33651.836;  -12.480;35240.922
682.511;32810.184;   -7.900;34429.961
683.087;31565.740;   -7.710;34463.680
683.663;31339.559;  -11.480;34648.898
684.239;30314.566;  -14.090;34546.457
684.815;29113.029;   -7.560;35586.375
685.390;29498.635;   -9.910;35821.895
685.966;30810.834;  -11.159;35085.871
686.542;32466.287;  -11.169;34198.230
687.118;33655.453;   -5.959;32847.707
687.693;32558.113;  -10.329;32794.027
688.269;33744.164;  -12.059;33072.367
688.844;33681.836;  -10.909;33141.664
689.420;30720.813;   -8.019;33965.742
689.995;29411.070;   -8.399;34655.523
690.571;30735.836;  -10.949;33576.742
691.146;30120.660;   -9.619;32657.219
691.722;28847.793;   -8.999;32526.979
692.297;28434.633;  -11.589;33014.617
692.872;28250.770;  -11.739;34012.254
693.448;30949.385;  -11.059;34237.434
694.023;31462.592;  -10.139;34142.672
694.598;29813.250;   -9.029;34132.031
695.173;31040.061;  -13.319;34205.250
695.748;31327.484;  -10.169;32882.488
696.323;28909.920;   -8.339;32864.906
696.898;27214.492;   -8.169;33170.004
697.473;27871.754;  -12.309;32432.984
698.048;27939.984;  -10.989;31649.303
698.623;26654.066;   -9.329;30778.141
699.198;27643.686;   -9.849;31140.119
699.773;28647.617;  -12.329;31764.299
700.348;29898.109;  -10.389;31780.816
700.922;30170.377;   -9.269;32046.375
701.497;31057.555;   -9.329;32603.574
702.072;32234.330;  -10.789;34799.871
702.646;31275.135;  -10.839;35793.172
703.221;30686.078;   -9.099;35201.590
703.795;32804.699;  -10.939;34764.527
704.370;30295.779;  -12.859;34307.367
704.944;28668.260;  -11.559;33509.887
705.519;29735.160;   -7.939;31388.584
706.093;31846.918;  -10.499;31340.104
706.668;33778.926;  -11.289;32630.281
707.242;33126.328;  -11.509;32728.779
707.816;31434.580;   -9.639;32947.238
708.390;30148.014;  -11.429;33277.855
708.965;29510.813;  -11.869;33834.336
709.539;31076.533;  -11.689;33709.273
710.113;31364.682;  -10.478;33044.313
710.687;30516.625;  -10.228;31953.992
711.261;29738.531;  -13.698;30505.949
711.835;30158.291;  -13.378;30262.369
712.409;29161.836;   -9.698;31254.447
712.983;28912.914;  -11.898;32754.986
713.557;31271.064;  -15.138;34018.824
714.131;29290.596;  -14.098;34579.625
714.704;28798.369;   -9.958;33890.262
715.278;30945.295;  -10.028;33531.102
715.852;29512.955;  -11.148;33601.660
716.425;28083.793;   -9.068;33515.117
716.999;26632.318;  -10.038;33185.555
717.573;26187.760;   -9.798;33905.996
718.146;25785.182;  -12.378;35199.293
718.720;26378.889;  -11.918;35060.551
719.293;26657.645;   -8.088;34973.230
719.867;28872.988;  -10.888;36394.449
720.440;30666.346;  -11.938;36663.008
721.013;31380.639;  -12.818;35102.426
721.587;28953.199;  -10.298;33985.266
722.160;26965.156;  -10.048;33524.965
722.733;26208.703;  -12.108;32987.043
723.306;26666.160;  -10.818;33066.301
723.880;28689.139;   -8.908;33399.500
724.453;28433.479;   -9.878;33468.297
725.026;28482.908;  -11.188;33816.637
725.599;31059.262;  -11.678;32797.996
726.172;30347.945;   -9.618;33187.434
726.745;27887.250;   -8.258;35136.613
727.318;27624.699;  -12.978;35751.730
727.891;26994.463;  -12.148;35890.430
728.463;26118.029;   -8.968;34822.090
729.036;26212.205;  -10.188;32895.086
729.609;26186.410;  -11.788;31823.225
730.182;24189.445;  -11.788;31445.283
730.754;22903.904;  -10.268;32373.223
731.327;23169.654;   -9.998;33676.820
731.900;24347.723;  -12.228;33417.000
732.472;23980.959;  -13.848;31978.498
733.045;23007.246;   -8.698;30368.777
733.617;22809.764;  -10.607;30574.215
734.190;24804.613;  -11.507;31280.975
734.762;25691.420;  -13.647;31674.412
735.334;27146.459;   -9.767;31247.291
735.907;27676.398;   -9.897;29876.211
736.479;27370.184;  -11.637;29808.488
737.051;28133.717;   -9.567;30233.547
737.623;27296.408;   -8.187;31469.086
738.195;26013.209;  -11.187;31784.225
738.768;24832.322;  -12.337;32120.523
739.340;23221.906;  -12.227;32094.342
739.912;22550.605;  -11.057;31312.680
740.484;22651.041;  -10.207;31946.238
741.056;22339.109;  -10.047;32984.059
741.628;23378.523;  -13.627;33897.715
742.199;24257.426;   -7.177;33213.016
742.771;26520.922;  -10.797;31369.113
743.343;27268.955;  -11.997;31865.473
743.915;26859.396;  -12.867;32388.631
744.487;24308.973;   -7.617;31079.568
745.058;21634.076;   -9.557;30570.107
745.630;22688.328;   -9.877;29970.127
746.201;24193.471;  -14.177;29186.766
746.773;24694.211;   -9.237;28805.723
747.344;22828.146;   -9.847;29591.223
747.916;21147.600;  -11.657;31412.201
748.487;22196.584;  -10.587;32194.898
749.059;23885.078;   -8.707;32533.719
749.630;24090.941;  -10.537;32158.518
750.201;23379.408;  -11.687;30855.395
750.773;22244.375;  -11.647;28622.555
751.344;22263.184;   -7.147;28405.732
751.915;24508.240;   -9.757;28461.551
752.486;25642.537;  -12.427;27842.850
753.057;24449.271;  -12.227;27845.008
753.628;24409.158;  -10.417;27728.107
754.199;23915.611;  -11.767;27381.086
754.770;23385.641;  -11.187;25882.203
755.341;22240.570;  -10.507;25886.184
755.912;20701.414;   -9.387;26050.861
756.483;19257.650;  -10.647;26798.779
757.054;19713.061;  -11.837;27048.238
757.625;19706.496;  -12.716;26294.838
758.195;19303.459;   -9.666;26142.076
758.766;19449.896;   -8.656;26392.234
759.337;18949.033;  -12.856;26334.594
759.907;18766.895;  -13.366;27579.652
760.478;18626.424;   -8.576;28352.770
761.048;19712.188;  -10.526;27325.088
761.619;19793.049;  -11.116;26460.428
762.189;18464.082;  -12.136;26029.826
762.760;18206.068;   -9.456;26430.145
763.330;18714.830;   -7.136;26670.902
763.900;18785.145;  -11.786;26603.021
764.471;18274.588;  -11.546;25542.740
765.041;17406.207;   -8.096;24358.459
765.611;16671.990;   -8.876;23991.297
766.181;16779.525;  -12.196;24470.236
766.751;16638.510;  -11.636;24845.975
767.321;17620.398;  -10.156;24533.633
767.891;16908.451;  -11.766;24916.492
768.461;17085.494;  -14.936;24776.771
769.031;18216.566;  -12.356;24757.988
769.601;18771.629;   -7.526;24181.088
770.171;18459.518;  -10.766;23670.387
770.741;17776.199;  -13.176;22960.045
771.311;17435.338;  -10.616;22917.523
771.880;17765.250;   -9.576;23562.941
772.450;17383.426;  -10.336;24216.500
773.020;16973.451;  -13.516;24140.398
773.589;17527.959;  -13.466;24414.857
774.159;17372.729;   -8.686;23858.717
774.729;15979.042;   -9.476;22942.135
775.298;14178.211;  -13.666;22324.033
775.867;13923.567;  -11.716;21140.313
776.437;14000.564;   -9.906;20838.092
777.006;13295.402;  -12.166;20599.510
777.576;12846.001;  -12.356;20508.809
778.145;12763.433;  -11.646;20732.947
778.714;13207.021;   -8.226;21062.465
779.283;14260.494;   -9.556;20949.664
779.853;14826.104;  -14.116;20508.623
780.422;14229.796;  -11.506;20649.082
780.991;13850.709;   -9.556;21527.520
781.560;13594.645;   -9.095;22632.658
782.129;13434.957;  -12.135;23048.277
782.698;13228.771;  -10.865;23438.555
783.267;12884.885;   -9.335;23267.734
783.836;13115.803;  -11.045;22415.133
784.404;13857.951;  -13.865;20443.152
784.973;13100.217;  -13.095;19699.150
785.542;11720.316;  -11.575;19763.828
786.111;11061.238;   -9.705;20341.408
786.679;11781.420;  -12.105;20207.967
787.248;12041.178;  -12.455;19516.465
787.817;11724.806;  -11.535;18900.363
788.385;11822.119;   -9.765;17879.121
788.954;11804.709;  -14.005;17658.301
789.522;11269.432;  -11.955;17788.879
790.090;11500.761;  -10.135;18118.277
790.659;12336.566;  -10.975;18338.736
791.227;12185.487;  -13.375;18508.615
791.795;11639.069;  -12.375;17898.254
792.364;11201.654;  -10.725;17295.133
792.932;11389.490;   -9.715;16822.051
793.500;11486.083;  -12.675;17040.148
794.068;11236.534;  -13.495;17179.787
794.636;10062.617;  -10.885;16664.246
795.204; 9041.012;  -11.045;16524.545
795.772; 9710.652;  -13.175;17274.564
796.340;10817.631;  -12.445;17891.002
796.908;10662.092;   -9.735;17648.561
797.476;11125.229;   -9.815;17064.080
798.044;11906.725;  -13.985;16672.777
798.612;11647.501;  -13.115;17023.996
799.180;10343.452;  -10.185;16561.615
799.747; 9383.947;   -9.055;15962.773
800.315; 8889.068;  -12.385;15296.992
800.883; 9190.583;  -15.035;14801.771
801.450; 9407.378;  -10.365;14534.430
802.018; 9448.559;   -9.855;14173.248
802.585; 9590.261;  -11.905;14029.547
803.153; 9196.285;  -11.585;13836.846
803.720; 8628.268;   -9.095;13567.324
804.287; 8732.978;   -9.135;13360.622
804.855; 9040.135;  -11.604;13681.981
805.422; 9129.526;  -11.794;13536.560
805.989; 8969.524;  -10.734;13355.958
806.556; 8546.571;  -10.444;13747.896
807.124; 8424.859;  -12.764;13987.376
807.691; 8940.451;  -12.964;14038.674
808.258; 9292.298;  -11.134;14120.152
808.825; 9569.832;   -9.854;13860.111
809.392; 9308.183;  -10.504;13268.790
809.959; 8799.064;  -13.054;12680.389
810.526; 8577.227;   -8.294;12427.308
811.093; 8189.106;   -8.394;12030.105
811.659; 7410.917;  -12.304;11653.664
812.226; 7209.258;  -13.944;11637.183
812.793; 7748.928;  -10.484;11611.521
813.360; 7878.273;  -10.144;11885.181
813.926; 7175.530;  -11.684;12770.539
814.493; 6589.826;  -13.644;12677.638
815.060; 6475.588;   -9.724;11974.336
815.626; 6807.057;   -9.854;11594.715
816.193; 6803.792;  -13.254;11579.474
816.759; 6766.817;  -13.204;11666.972
817.325; 6528.813;   -9.434;11325.530
817.892; 6225.664;  -10.134;11105.369
818.458; 6176.453;  -13.474;10843.928
819.024; 6188.917;  -11.854;10714.406
819.591; 6519.124;  -10.244;10469.165
820.157; 6654.343;  -10.704;10235.523
820.723; 6918.533;  -12.324;10847.563
821.289; 7286.284;   -9.444;11040.980
821.855; 7289.719;   -8.374;10357.100
822.421; 6887.437;  -10.234; 9978.918
822.987; 6653.586;  -13.294; 9754.177
823.553; 6519.355;  -10.884;10065.755
824.119; 6115.358;   -8.884;10036.294
824.685; 5960.668;   -6.784;10029.192
825.251; 5908.180;  -12.004;10199.230
825.816; 5975.224;  -11.474; 9820.189
826.382; 5717.937;   -9.174; 9297.248
826.948; 5452.756;   -9.214; 9381.347
827.513; 5247.246;  -10.774; 9450.726
828.079; 5190.249;  -11.924; 9472.444
828.645; 5270.599;  -10.543; 9292.643
829.210; 5478.725;  -10.533; 9065.341
829.776; 5484.958;  -10.753; 9132.620
830.341; 5371.865;  -10.173; 9092.878
830.906; 5478.794;  -10.743; 9078.557
831.472; 5357.495;  -11.113; 8534.535
832.037; 4869.594;  -10.603; 8677.874
832.602; 4785.363;  -13.323; 8628.692
833.167; 5144.754;  -10.823; 8879.031
833.733; 5103.269;  -10.113; 9189.790
834.298; 4814.912;  -13.583; 9052.608
834.863; 4672.423;  -12.703; 8895.087
835.428; 4548.490;  -10.523; 8824.266
835.993; 4499.503;   -6.963; 8845.385
836.558; 4607.895;  -10.763; 8888.563
837.123; 4739.835;   -9.903; 8966.582
837.688; 4589.128;   -9.913; 8617.860
838.253; 4449.391;  -10.283; 8590.699
838.817; 4603.535;  -12.963; 8443.797
839.382; 4782.731;  -14.243; 8799.356
839.947; 4670.043;  -10.733; 8810.595
840.511; 4728.932;   -9.383; 8796.394
841.076; 4740.558;  -12.563; 8347.231
841.641; 4561.195;  -12.953; 8224.330
842.205; 4304.390;   -7.043; 8223.349
842.770; 4258.558;   -8.163; 8622.107
843.334; 4278.412;  -12.503; 8410.386
843.898; 4233.726;  -11.693; 8337.465
844.463; 4128.303;  -10.203; 8506.283
845.027; 4026.474;   -9.533; 8280.962
845.591; 4046.010;  -13.443; 8231.141
846.156; 3949.906;  -13.143; 7969.179
846.720; 3774.417;   -9.433; 7768.278
847.284; 3510.800;  -11.033; 7630.957
847.848; 3356.041;  -10.403; 7472.395
848.412; 3377.688;  -11.553; 7437.394
848.976; 3581.324;   -8.393; 7674.592
849.540; 3634.880;   -8.713; 7836.011
850.104; 3617.907;  -12.463; 7913.669
850.668; 3747.994;  -12.973; 7694.508
851.232; 3779.873;  -10.793; 7756.887
851.796; 3694.593;  -10.662; 7926.545
852.359; 3723.827;  -13.082; 7827.844
852.923; 3463.891;  -12.192; 7641.163
853.487; 3383.251;  -11.912; 7342.501
854.050; 3543.508;  -10.892; 7042.820
854.614; 3516.649;  -13.992; 7151.338
855.177; 3391.382;  -11.732; 7105.077
855.741; 3319.744;   -8.962; 6989.675
856.304; 3213.624;   -9.442; 6596.634
856.868; 2973.784;  -14.192; 6356.272
857.431; 2748.238;  -12.702; 6468.571
857.995; 2775.947;   -9.942; 6373.210
858.558; 2818.162;   -9.112; 6324.448
859.121; 2648.154;  -12.932; 6408.327
859.684; 2598.552;  -13.442; 6347.886
860.247; 3016.963;  -10.632; 6321.264
860.810; 3340.552;  -11.272; 6301.903
861.374; 3362.266;   -9.832; 6607.881
861.937; 3340.618;  -11.762; 6408.200
862.500; 3189.569;   -9.722; 6572.639
863.062; 2884.809;  -10.512; 6387.297
863.625; 2778.399;  -11.232; 6190.836
864.188; 2781.940;  -14.112; 5807.254
864.751; 2793.586;  -11.302; 5682.413
865.314; 2904.665;  -10.112; 5547.492
865.876; 2911.893;  -12.182; 5500.150
866.439; 2814.107;  -10.722; 5415.909
867.002; 2661.423;   -9.252; 5501.567
867.564; 2559.721;   -9.572; 5413.946
868.127; 2435.281;  -13.142; 5160.325
868.689; 2150.513;  -12.902; 5133.183
869.252; 2019.493;   -9.732; 5252.382
869.814; 2042.864;   -9.432; 5297.141
870.377; 2152.720;  -11.552; 5390.919
870.939; 2141.836;   -9.052; 5599.898
871.501; 2073.748;  -10.982; 5248.336
872.063; 2102.866;  -12.292; 4854.235
872.626; 2105.951;  -14.912; 4817.074
873.188; 2123.646;  -13.112; 4987.732
873.750; 2117.626;  -13.442; 4868.651
874.312; 2281.868;   -9.402; 4779.330
874.874; 2591.747;  -11.062; 4866.348
875.436; 2561.574;  -13.931; 4718.887
875.998; 2142.605;   -9.561; 4660.005
876.560; 1747.028;  -11.321; 4462.964
877.122; 1416.711;  -12.221; 4145.042
877.683; 1099.138;  -12.191; 4056.481
878.245;  999.280;  -12.101; 3950.740
878.807; 1092.287;   -8.971; 4058.958
879.369; 1223.859;  -12.071; 3954.677
879.930; 1285.938;  -14.621; 3941.495
880.492; 1233.407;  -10.311; 4067.014
881.053; 1168.446;  -10.901; 3859.633
881.615; 1205.015;  -14.411; 3776.071
882.176; 1275.373;  -13.761; 3734.750
882.738; 1314.198;   -9.181; 3678.489
883.299; 1301.319;  -11.791; 3405.407
883.860; 1253.233;  -13.121; 3351.106
884.422; 1173.820;  -11.211; 3394.044
884.983; 1111.176;  -10.091; 3166.443
885.544; 1096.820;   -8.461; 3189.802
886.105; 1048.781;  -12.361; 3160.360
886.666;  981.839;  -14.141; 3093.059
887.227;  959.788;  -11.361; 2941.957
887.788;  977.885;  -11.401; 2974.836
888.349;  932.621;  -13.791; 2721.214
888.910;  842.424;  -13.191; 2696.493
889.471;  746.175;   -9.881; 2560.172
890.032;  676.946;   -9.881; 2558.190
890.593;  679.240;  -10.371; 2567.669
891.153;  681.639;  -13.301; 2460.307
891.714;  622.734;  -11.431; 2372.046
892.275;  576.792;  -11.291; 2309.505
892.835;  562.189;  -11.471; 2382.543
893.396;  552.521;  -11.541; 2295.502
893.956;  548.012;  -11.181; 2162.420
894.517;  536.624;  -11.741; 2125.439
895.077;  491.471;  -11.671; 2086.978
895.638;  443.986;  -11.311; 2126.316
896.198;  424.357;   -9.831; 1838.275
896.758;  424.926;   -8.421; 1892.813
897.319;  418.548;  -12.351; 1792.232
897.879;  399.831;  -13.511; 1762.751
898.439;  375.437;  -12.001; 1661.149
898.999;  354.706;  -10.180; 1781.468
899.559;  339.872;  -12.030; 1703.347
900.119;  330.833;  -15.710; 1537.525
900.679;  310.418;   -8.900; 1638.384
901.239;  283.495;   -8.340; 1527.902
901.799;  270.548;  -13.910; 1456.441
902.359;  261.680;  -13.460; 1357.140
902.919;  256.940;  -11.490; 1331.118
903.479;  253.511;  -12.110; 1317.257
904.038;  245.426;  -11.720; 1262.595
904.598;  231.327;  -13.610; 1152.034
905.158;  219.930;  -11.040; 1240.893
905.717;  214.613;  -10.900; 1233.691
906.277;  209.901;  -15.080; 1217.330
906.836;  206.680;  -13.380; 1222.408
907.396;  204.705;  -10.780; 1193.047
907.955;  197.402;   -8.500; 1182.526
908.515;  189.902;  -12.760; 1099.364
909.074;  187.455;  -11.900; 1092.863
909.633;  184.609;   -8.950; 1069.121
910.192;  181.364;   -8.770; 1196.460
910.752;  176.709;  -12.390; 1029.960
911.311;  172.892;  -13.680; 1009.780
911.870;  169.083;  -12.370;  971.460
912.429;  164.545;  -10.900; 1094.080
912.988;  161.319;  -11.690; 1081.060
913.547;  159.308;  -13.240;  940.380
914.106;  158.571;  -11.990;  999.420
914.665;  158.800;   -9.990;  984.020
915.224;  156.679;  -12.880; 1035.760
915.782;  154.793;  -12.350;  922.560
916.341;  153.752;   -9.110; 1049.840
916.900;  148.215;   -9.270;  925.260
917.458;  144.315;  -13.240;  884.220
918.017;  142.449;  -13.550;  942.600
918.576;  143.410;  -12.320;  904.440
919.134;  143.277;  -11.490;  837.980
919.693;  142.243;  -13.670;  893.060
920.251;  140.942;  -15.470;  876.500
920.809;  141.684;  -11.290;  839.580
921.368;  141.414;  -10.210;  885.360
921.926;  140.895;  -12.140;  842.940
922.484;  141.674;  -13.080;  903.360
923.042;  140.991;  -11.720;  880.340
923.601;  141.901;   -7.480;  998.680
924.159;  140.882;  -11.570;  935.560
924.717;  140.127;  -13.840;  841.080
925.275;  141.680;  -10.640;  903.240
925.833;  140.342;  -11.540;  779.320
926.391;  140.561;  -12.960;  938.380
926.949;  141.350;  -14.130;  857.680
927.506;  142.406;  -11.750;  903.500
928.064;  138.795;  -10.250;  877.580
928.622;  139.923;  -13.030;  880.100
929.180;  140.321;  -13.400;  814.180
929.737;  142.531;  -10.700;  808.540
930.295;  142.842;  -10.070;  928.480
930.853;  142.340;  -11.960;  849.100
931.410;  142.305;  -13.120;  821.120
931.968;  143.455;  -10.770;  940.660
932.525;  144.629;  -10.680;  909.380
933.082;  146.842;  -13.130;  811.440
933.640;  153.600;  -13.210;  925.900
934.197;  153.724;  -11.060;  886.360
934.754;  152.945;   -9.580;  897.780
935.312;  153.508;  -14.000;  863.340
935.869;  156.913;  -10.710; 1012.980
936.426;  154.413;   -9.860;  872.800
936.983;  153.787;   -9.710;  889.020
937.540;  151.874;  -13.990;  838.280
938.097;  152.851;  -14.040;  940.120
938.654;  155.499;  -10.310;  898.860
939.211;  155.477;  -10.560;  952.480
939.768;  154.423;  -13.900;  915.420
940.324;  155.965;  -14.760;  904.200
940.881;  160.408;  -10.370;  878.500
941.438;  166.512;   -8.260; 1021.200
941.995;  166.939;  -12.540;  992.560
942.551;  165.598;  -14.670;  875.620
943.108;  166.628;  -10.450;  937.920
943.664;  167.517;  -10.750;  869.340
944.221;  172.492;  -11.550; 1088.140
944.777;  173.740;  -14.770;  869.680
945.334;  173.636;  -12.820;  884.840
945.890;  172.060;  -10.130;  946.480
946.446;  168.858;  -13.470;  947.020
947.003;  169.640;  -12.120;  964.940
947.559;  169.329;   -9.980; 1063.040
948.115;  164.810;   -9.080; 1026.540
948.671;  161.861;  -10.830;  967.300
949.227;  159.320;  -12.440;  859.560
949.783;  160.606;  -12.910;  858.900
950.339;  161.381;  -10.270;  991.000
950.895;  161.961;  -13.630; 1023.840
951.451;  162.182;  -15.100;  925.280
952.007;  162.531;  -11.330;  998.540
952.563;  159.317;  -10.580;  937.780
953.118;  155.370;  -13.440;  904.940
953.674;  152.732;  -12.710;  935.780
954.230;  153.901;  -10.350;  949.640
954.785;  158.079;   -9.190;  936.640
955.341;  159.999;  -11.200;  998.160
955.897;  156.651;  -16.560;  834.660
956.452;  154.599;  -12.570;  953.840
957.008;  151.025;   -7.970; 1083.640
957.563;  150.474;  -11.940; 1009.540
958.118;  149.345;  -13.450;  877.700
958.674;  148.287;  -12.030;  946.780
959.229;  147.853;   -9.410; 1013.980
959.784;  146.810;  -12.000;  832.400
960.339;  144.165;  -14.780; 1001.280
960.894;  138.496;   -9.860;  963.760
961.449;  133.540;   -9.970;  859.960
962.004;  130.363;  -10.900; 1212.840
962.559;  126.289;  -13.150;  860.140
963.114;  123.602;  -13.740;  742.480
963.669;  124.919;   -9.820;  915.500
964.224;  124.009;  -13.890;  874.340
964.779;  125.227;  -12.600;  828.420
965.334;  125.595;  -10.950; 1017.860
965.888;  123.868;  -11.170;  875.360
966.443;  123.863;  -12.540;  972.380
966.998;  124.550;  -15.780;  819.460
967.552;  124.530;   -9.760;  908.380
968.107;  118.563;   -9.060;  868.300
968.661;  116.205;  -11.950;  922.440
969.216;  117.451;  -12.800;  856.280
969.770;  116.866;  -11.210;  917.200
970.324;  114.625;  -11.610;  923.140
970.879;  111.685;  -11.370;  947.180
971.433;  111.458;  -12.540;  952.720
971.987;  109.804;  -11.320;  895.340
972.541;  108.473;  -10.720;  917.100
973.095;  109.068;   -9.680; 1009.460
973.649;  108.277;  -11.440;  809.480
974.203;  108.617;  -11.210;  829.040
974.757;  107.882;  -10.240;  855.220
975.311;  108.439;  -13.720;  872.600
975.865;  108.947;  -13.770;  881.820
976.419;  108.227;  -11.690;  857.400
976.973;  106.872;   -9.510;  849.620
977.526;  107.191;  -12.620;  949.920
978.080;  104.298;  -12.010;  796.780
978.634;  103.575;  -10.170;  921.320
979.187;  100.172;   -9.020;  905.400
979.741;   98.843;   -9.820; 1018.380
980.294;   94.547;  -14.870;  789.160
980.848;   91.010;  -12.380;  717.220
981.401;   90.376;  -10.350;  816.540
981.955;   89.690;  -13.720;  844.300
982.508;   87.745;  -11.490;  746.340
983.061;   87.405;  -10.000;  915.260
983.615;   86.675;  -11.480;  798.800
984.168;   85.810;  -13.220;  770.080
984.721;   85.925;  -13.960;  880.760
985.274;   84.077;  -10.870;  867.500
985.827;   82.010;   -9.790;  834.220
986.380;   80.379;  -13.120;  721.340
986.933;   81.429;  -12.450;  864.800
987.486;   81.163;  -10.210;  861.920
988.039;   80.311;   -8.430;  863.100
988.591;   76.900;  -10.520;  893.260
989.144;   73.670;  -14.860;  737.260
989.697;   72.171;  -13.080;  758.740
990.250;   70.882;  -10.150;  858.100
990.802;   68.138;  -13.430;  755.860
991.355;   68.986;  -12.750;  974.880
991.907;   66.294;  -12.040;  864.320
992.460;   63.601;  -11.330;  753.760
993.012;   62.105;  -13.610;  749.540
993.565;   61.114;  -13.460;  711.360
994.117;   63.454;   -9.360;  950.780
994.669;   60.746;  -11.300;  701.320
995.221;   59.912;  -13.540;  791.920
995.774;   59.780;  -13.430;  787.580
996.326;   58.778;  -12.520;  740.220
996.878;   58.163;  -10.950;  838.420
997.430;   56.109;  -14.300;  699.860
997.982;   55.779;  -13.760;  750.140
998.534;   54.201;  -11.530;  739.060
999.086;   52.671;  -10.310;  738.220
999.638;   52.176;  -12.530;  661.380
1000.190;   51.311;  -11.840;  699.320
1000.741;   51.170;  -10.260;  742.700
1001.293;   50.620;   -8.860;  686.020
1001.845;   49.259;  -13.700;  676.640
1002.396;   49.765;  -12.100;  743.400
1002.948;   49.027;  -12.760;  737.400
1003.500;   48.014;  -10.380;  723.780
1004.051;   48.599;  -11.900;  907.580
1004.603;   47.654;  -12.250;  791.820
1005.154;   44.500;  -13.210;  608.980
1005.705;   43.057;  -10.950;  723.960
1006.257;   42.552;  -13.880;  707.220
1006.808;   41.760;  -12.840;  685.460
1007.359;   42.059;  -10.570;  763.240
1007.910;   40.311;   -9.620;  646.640
1008.461;   39.595;  -13.630;  732.940
1009.013;   39.142;  -17.200;  588.340
1009.564;   40.292;  -10.200;  793.520
1010.115;   37.418;  -12.570;  597.040
1010.665;   37.869;  -15.150;  602.160
1011.216;   38.651;  -14.480;  667.920
1011.767;   37.492;  -11.340;  697.920
1012.318;   37.917;   -9.780;  736.980
1012.869;   36.234;  -12.380;  679.000
1013.419;   36.713;  -15.560;  603.120
1013.970;   36.029;  -11.010;  666.640
1014.521;   35.510;  -11.610;  620.620
1015.071;   35.540;  -13.450;  670.380
1015.622;   35.478;  -13.870;  635.460
1016.172;   34.957;  -11.610;  596.820
1016.723;   34.468;  -12.120;  614.380
1017.273;   33.461;  -13.620;  604.160
1017.823;   34.043;  -14.140;  650.340
1018.374;   34.359;  -12.800;  611.760
1018.924;   34.045;  -12.340;  716.880
1019.474;   33.989;  -11.410;  718.880
1020.024;   32.522;  -14.770;  657.580
1020.574;   33.518;   -9.780;  726.160
1021.124;   33.526;   -8.560;  673.580
1021.674;   31.726;  -15.190;  559.120
1022.224;   33.806;  -13.530;  708.940
1022.774;   32.732;  -13.280;  668.820
1023.324;   33.238;  -10.690;  753.520
1023.874;   33.837;  -10.240;  875.760
1024.423;   31.993;  -12.540;  613.700
1024.973;   31.430;  -10.010;  610.760
1025.523;   30.858;  -10.550;  620.960
1026.072;   29.885;  -13.560;  606.420
1026.622;   30.191;  -15.120;  675.740
1027.172;   31.076;  -11.260;  715.660
1027.721;   30.190;  -11.410;  601.220
1028.270;   30.484;  -13.530;  663.400
1028.820;   30.151;  -13.680;  638.080
1029.369;   30.182;  -13.520;  612.700
1029.918;   30.205;  -10.980;  649.840
1030.468;   29.360;  -13.530;  564.780
1031.017;   29.293;  -13.170;  634.800
1031.566;   28.911;  -12.200;  608.900
1032.115;   28.448;   -9.960;  694.500
1032.664;   27.422;  -13.210;  596.480
1033.213;   29.390;  -12.500;  735.420
1033.762;   27.921;  -11.910;  635.620
1034.311;   27.443;   -9.640;  677.220
1034.860;   28.049;  -13.310;  691.000
1035.408;   28.329;  -11.830;  722.720
1035.957;   28.972;  -12.000;  719.540
1036.506;   26.020;  -11.690;  530.800
1037.055;   28.465;  -10.990;  844.320
1037.603;   27.244;  -15.120;  664.000
1038.152;   25.571;  -12.450;  534.760
1038.700;   26.686;  -10.560;  585.740
1039.249;   25.435;  -11.080;  681.220
1039.797;   26.256;  -12.540;  633.360
1040.345;   26.046;  -11.920;  705.420
1040.894;   25.954;  -11.410;  625.300
1041.442;   25.535;  -14.320;  632.200
1041.990;   24.356;  -16.240;  559.160
1042.538;   24.336;  -11.680;  536.180
1043.087;   24.240;  -10.760;  570.860
1043.635;   25.507;  -11.850;  670.500
1044.183;   24.367;  -15.480;  586.400
1044.731;   24.590;  -11.770;  576.000
1045.279;   24.178;  -13.090;  674.920
1045.827;   25.856;  -12.440;  892.400
1046.374;   23.260;  -13.840;  515.420
1046.922;   22.862;  -13.220;  590.580
1047.470;   23.999;  -10.230;  691.300
1048.018;   23.124;  -14.590;  647.960
1048.565;   25.206;  -12.050;  708.600
1049.113;   23.057;  -11.650;  557.000
1049.660;   22.953;  -10.510;  629.660
1050.208;   23.430;  -13.310;  675.640
1050.755;   22.434;  -15.900;  606.580
1051.303;   23.998;  -11.430;  686.820
1051.850;   22.490;   -8.480;  635.120
1052.397;   20.899;  -15.010;  473.960
1052.945;   21.092;  -13.960;  617.760
1053.492;   22.938;  -13.150;  741.840
1054.039;   23.335;   -9.630;  720.180
1054.586;   20.887;  -13.680;  557.240
1055.133;   22.508;  -14.570;  693.140
1055.680;   21.794;  -13.820;  646.620
1056.227;   21.012;  -11.730;  542.780
1056.774;   22.241;  -12.480;  794.980
1057.321;   20.242;  -13.930;  523.260
1057.868;   20.986;  -11.690;  651.320
1058.415;   20.337;   -9.520;  651.980
1058.961;   20.351;  -13.160;  678.940
1059.508;   20.748;  -12.920;  643.820
1060.055;   20.279;  -11.920;  581.780
1060.601;   20.909;  -11.500;  624.300
1061.148;   19.539;  -14.330;  616.820
1061.694;   19.008;  -16.870;  592.580
1062.241;   20.683;  -10.330;  596.320
1062.787;   20.094;  -10.620;  663.140
1063.334;   21.236;  -10.110;  808.560
1063.880;   19.565;  -13.400;  668.360
1064.426;   19.640;  -10.680;  706.820
1064.972;   18.175;   -9.920;  601.340
1065.518;   17.859;  -10.980;  566.640
1066.065;   19.167;  -14.890;  624.460
1066.611;   18.538;  -12.870;  598.800
1067.157;   19.101;  -12.950;  641.860
1067.703;   18.500;  -13.540;  668.480
1068.249;   18.416;  -13.540;  605.220
1068.794;   18.376;  -12.600;  626.880
1069.340;   17.655;  -10.620;  578.960
1069.886;   16.979;  -12.830;  590.700
1070.432;   16.969;  -14.870;  541.720
1070.977;   17.162;  -11.980;  601.080
1071.523;   17.307;   -8.200;  573.060
1072.068;   16.451;  -12.330;  582.000
1072.614;   16.075;  -16.370;  527.760
1073.160;   17.734;  -11.100;  687.040
1073.705;   16.404;  -10.480;  572.520
1074.250;   16.049;  -14.520;  559.900
1074.796;   17.622;  -11.460;  655.160
1075.341;   17.721;  -11.950;  664.100
1075.886;   16.723;  -11.460;  594.240
1076.431;   15.471;  -13.770;  649.880
1076.976;   15.942;  -12.680;  639.220
1077.521;   15.587;  -13.170;  583.080
1078.067;   15.016;  -10.860;  579.400
1078.612;   15.644;  -13.920;  661.620
1079.156;   15.389;  -13.880;  601.540
1079.701;   16.468;  -13.120;  693.260
1080.246;   16.485;   -9.940;  696.300
1080.791;   15.214;  -14.740;  625.020
1081.336;   15.542;  -13.750;  659.320
1081.880;   16.070;  -13.400;  649.680
1082.425;   14.360;  -12.220;  573.480
1082.970;   15.788;  -11.610;  717.040
1083.514;   14.365;  -13.580;  597.000
1084.059;   14.429;  -12.810;  586.720
1084.603;   13.886;  -12.320;  565.840
1085.147;   14.152;  -13.190;  645.220
1085.692;   14.828;  -12.480;  716.800
1086.236;   12.889;  -13.020;  503.140
1086.780;   15.127;   -9.190;  751.440
1087.325;   13.728;  -12.480;  654.620
1087.869;   13.953;  -12.450;  610.700
1088.413;   14.194;  -12.240;  705.040
1088.957;   13.106;   -9.020;  543.400
1089.501;   14.177;  -10.320;  766.640
1090.045;   13.732;  -12.720;  726.480
1090.589;   11.673;  -13.690;  569.920
1091.133;   13.517;  -10.020;  673.340
1091.676;   13.191;  -12.330;  591.940
1092.220;   12.870;  -14.970;  600.920
1092.764;   13.882;  -12.430;  706.960
1093.307;   13.113;   -9.800;  673.780
1093.851;   11.178;  -14.970;  556.540
1094.395;   13.129;  -15.310;  683.140
1094.938;   12.427;  -10.370;  632.520
1095.482;   12.866;  -11.050;  559.800
1096.025;   12.510;  -11.840;  710.880
1096.568;   13.135;  -12.840;  779.280
1097.112;    9.874;  -14.700;  508.180
1097.655;   12.896;   -8.720;  603.000
1098.198;    9.710;  -13.610;  600.180
1098.741;   10.804;  -13.350;  612.860
1099.285;   12.219;  -11.230;  657.300
1099.828;   10.181;  -11.840;  439.400
1100.371;   10.948;  -10.840;  608.160
1100.914;   11.103;  -14.190;  682.660
1101.457;   11.451;  -11.240;  679.900
1101.999;   10.023;  -11.270;  584.680
1102.542;   10.030;  -11.480;  641.440
1103.085;   10.961;  -11.750;  658.500
1103.628;   11.770;  -11.400;  762.060
1104.170;   10.346;  -10.490;  588.280
1104.713;   10.194;  -10.600;  646.700
1105.256;    9.901;  -14.360;  557.440
1105.798;    9.097;  -13.210;  499.980
1106.341;   10.660;  -10.270;  728.900
1106.883;    9.587;  -12.200;  521.340
1107.425;   10.005;  -13.110;  668.180
1107.968;    9.990;  -12.840;  612.380
1108.510;   10.023;   -6.480;  684.960
1109.052;    8.661;  -13.940;  612.620
1109.594;    9.025;  -13.690;  554.440
1110.136;    9.584;  -11.880;  643.220
1110.679;    8.145;   -9.500;  633.080
1111.221;    8.872;  -14.160;  604.460
1111.763;    8.216;  -13.980;  559.220
1112.304;    8.817;  -13.880;  547.140
1112.846;    8.563;  -12.210;  666.240
1113.388;   12.039;  -11.390;  942.180
1113.930;    9.466;  -14.540;  694.200
1114.472;    7.714;  -12.640;  606.540
1115.013;    7.365;  -11.620;  551.280
1115.555;    7.230;  -13.640;  587.100
1116.097;    7.169;  -15.380;  579.480
1116.638;    8.148;  -12.640;  684.600
1117.180;    8.862;   -9.850;  667.740
1117.721;    7.120;  -13.690;  568.580
1118.262;    7.735;  -12.680;  677.960
1118.804;    8.473;  -12.530;  637.340
1119.345;    7.019;  -11.690;  578.400
1119.886;    7.723;  -13.380;  704.040
1120.427;    6.523;  -14.070;  589.020
1120.969;    6.697;  -13.500;  597.920
1121.510;    5.664;  -11.480;  563.060
1122.051;    6.602;  -12.830;  723.580
1122.592;    6.375;  -14.290;  655.420
1123.133;    5.494;  -12.400;  547.940
1123.673;    7.567;  -10.130;  706.480
1124.214;    6.145;  -12.930;  612.460
1124.755;    7.434;  -14.380;  639.460
1125.296;    6.722;  -14.000;  627.320
1125.836;    6.950;  -10.070;  691.500
1126.377;    5.414;  -12.640;  599.660
1126.918;    6.687;  -12.960;  614.980
1127.458;    5.947;  -13.350;  622.220
1127.999;    6.364;  -10.750;  656.980
1128.539;    6.128;  -12.350;  694.240
1129.079;    4.923;  -14.860;  632.720
1129.620;    5.224;  -13.840;  558.100
1130.160;    4.674;  -12.330;  539.480
1130.700;    5.498;  -14.530;  640.840
1131.240;    6.040;  -12.530;  643.700
1131.781;    5.361;  -14.450;  619.680
1132.321;    5.225;   -9.790;  599.120
1132.861;    4.029;  -14.860;  564.200
1133.401;    3.626;  -14.290;  593.940
1133.941;    5.546;  -11.750;  626.280
1134.481;    4.221;   -9.920;  597.580
1135.020;    3.987;  -12.290;  609.160
1135.560;    4.464;  -11.650;  674.940
1136.100;    3.859;  -16.270;  501.160
1136.640;    3.359;  -10.890;  510.480
1137.179;    3.914;  -14.180;  537.960
1137.719;    4.210;  -16.250;  605.400
1138.258;    4.569;  -14.230;  587.360
1138.798;    4.766;   -9.090;  663.780
1139.337;    2.492;  -15.130;  482.840
1139.877;    4.805;  -13.680;  642.360
1140.416;    6.342;  -11.320;  878.060
1140.955;    2.943;  -10.860;  535.380
1141.494;    3.233;  -12.920;  669.280
1142.034;    3.593;  -13.930;  583.520
1142.573;    3.994;  -11.440;  646.280
1143.112;    2.847;  -12.000;  553.480
1143.651;    3.164;  -13.670;  536.480
1144.190;    4.126;  -12.730;  691.640
1144.729;    3.292;  -14.560;  607.420
1145.267;    3.058;  -11.830;  584.900
1145.806;    3.802;  -12.230;  637.040
1146.345;    3.187;  -14.130;  635.020
1146.884;    1.770;  -11.590;  622.500
1147.422;    2.289;  -12.550;  533.060
1147.961;    3.419;  -11.180;  708.460
1148.500;    3.089;  -11.510;  669.720
1149.038;    3.785;  -11.640;  632.500
1149.577;    2.454;  -10.130;  698.640
1150.115;    0.017;  -13.970;  452.280
1150.653;    2.257;  -14.520;  607.340
1151.192;    2.795;  -12.810;  552.920
1151.730;    2.093;   -9.100;  652.560
1152.268;    1.669;  -12.220;  589.520
1152.806;    1.324;  -14.140;  571.180
1153.344;    0.909;  -12.350;  577.640
1153.882;    1.622;   -8.980;  600.060
1154.421;   -0.174;  -15.190;  470.620
1154.958;    0.241;  -15.210;  595.240
1155.496;    2.294;  -12.850;  645.280
1156.034;    2.023;   -9.940;  721.880
1156.572;    2.022;  -13.570;  667.060
1157.110;   -0.243;  -14.590;  473.940
1157.647;    1.785;  -13.030;  676.960
1158.185;    1.002;  -12.140;  564.320
1158.723;   -0.483;  -14.390;  509.200
1159.260;    1.090;  -14.090;  701.700
1159.798;    1.625;  -11.920;  658.160
1160.335;    0.630;  -11.110;  631.820

