
Integration time [ms]:   3.276
Averaging Nr. [scans]: 1000
Smoothing Nr. [pixels]: 0
Data measured with spectrometer [name]: 7414430SP
Wave   ;Sample   ;Dark     ;Reference
[nm]   ;[counts] ;[counts] ;[counts] 

288.544;  150.805;    7.793;  793.890
289.143;  154.686;    7.462;  681.602
289.742;  154.446;    8.602;  828.814
290.341;  139.730;    1.321;  789.841
290.940;  129.741;   -0.709;  730.702
291.538;  130.126;    0.881;  881.108
292.137;  130.222;    0.122;  792.581
292.736;  134.466;   -1.929;  975.101
293.335;  132.046;   -8.229;  735.086
293.934;  131.833;   -5.279;  781.677
294.532;  129.750;   -1.369; 1031.958
295.131;  115.439;   -7.641;  834.394
295.730;  116.051;   -8.420;  809.588
296.328;  115.474;   -5.611;  783.442
296.927;  116.155;   -5.781;  779.652
297.525;  116.100;   -6.361;  781.236
298.124;  106.814;  -11.382;  654.009
298.722;  111.547;   -7.641;  761.933
299.321;  109.165;   -6.811;  708.597
299.919;  106.354;   -6.991;  751.918
300.518;  103.874;  -10.362;  689.338
301.116;  106.367;   -9.581;  691.381
301.715;  105.507;   -4.891;  730.222
302.313;  103.425;   -8.801;  704.943
302.911;   99.582;   -8.522;  733.830
303.509;  105.490;   -6.171;  925.627
304.108;  102.713;   -7.311;  760.383
304.706;  102.278;   -8.321;  801.664
305.304;   96.940;  -10.222;  796.707
305.902;  102.533;   -6.021;  784.484
306.500;   97.952;   -4.971;  728.200
307.098;   95.801;   -7.061;  746.560
307.696;   94.339;   -8.801;  780.432
308.294;   95.025;   -6.411;  731.359
308.892;   96.294;   -2.901;  759.769
309.490;   92.261;   -5.041;  712.161
310.088;   91.288;   -5.002;  788.444
310.686;   95.387;   -2.041;  821.749
311.284;   92.003;   -2.351;  766.040
311.882;   89.007;   -4.422;  731.225
312.480;   85.604;   -4.192;  697.167
313.078;   87.368;   -1.172;  808.331
313.675;   87.566;   -2.601;  691.600
314.273;   82.696;   -1.312;  797.837
314.871;   83.035;   -3.942;  589.829
315.468;   80.260;   -2.802;  652.090
316.066;   83.411;   -0.701;  694.427
316.664;   76.438;   -4.362;  656.351
317.261;   80.299;   -2.872;  910.128
317.859;   75.398;   -2.022;  768.735
318.456;   75.718;   -0.531;  830.096
319.054;   72.043;   -3.912;  787.828
319.651;   71.909;   -4.752;  759.928
320.249;   70.521;   -2.602;  810.188
320.846;   68.364;   -0.821;  714.286
321.443;   65.000;   -4.642;  832.135
322.041;   62.905;   -5.002;  812.315
322.638;   59.968;   -3.982;  701.456
323.235;   61.731;   -3.411;  665.683
323.833;   59.298;   -7.361;  740.354
324.430;   54.466;   -8.611;  615.900
325.027;   55.448;   -4.061;  876.855
325.624;   54.636;   -4.031;  644.532
326.221;   51.877;   -7.481;  689.717
326.818;   51.247;   -5.281;  818.332
327.415;   54.936;   -7.460;  748.828
328.012;   54.126;   -5.510;  690.585
328.609;   53.020;   -7.880;  731.389
329.206;   51.421;   -8.331;  778.621
329.803;   51.899;   -5.121;  737.841
330.400;   53.664;   -4.510;  704.260
330.997;   55.113;   -6.441;  817.147
331.594;   54.248;   -8.831;  788.185
332.191;   58.872;   -7.621;  728.722
332.787;   61.936;   -4.591;  844.463
333.384;   59.798;   -7.412;  763.093
333.981;   59.370;   -8.293;  815.687
334.578;   61.898;   -7.052;  708.378
335.174;   64.472;   -3.102;  731.469
335.771;   64.213;   -5.943;  836.456
336.367;   61.647;   -7.393;  710.631
336.964;   65.014;   -4.063;  793.266
337.561;   62.144;   -3.813;  731.112
338.157;   58.413;   -4.654;  911.916
338.754;   56.695;   -7.934;  796.589
339.350;   54.967;   -4.414;  722.493
339.946;   56.759;   -4.664;  773.135
340.543;   48.499;   -6.375;  846.136
341.139;   43.759;   -9.815;  720.836
341.735;   40.806;   -4.526;  772.593
342.332;   39.783;   -4.895;  691.472
342.928;   39.570;   -4.295;  795.394
343.524;   34.268;   -5.476;  761.684
344.120;   31.156;   -5.856;  738.562
344.716;   33.524;   -2.155;  723.717
345.313;   31.262;   -6.275;  795.342
345.909;   26.776;   -8.815;  627.336
346.505;   27.985;   -5.305;  740.247
347.101;   28.977;   -2.674;  827.864
347.697;   28.368;   -4.344;  785.398
348.293;   23.615;   -9.975;  627.244
348.889;   24.440;   -5.774;  745.914
349.485;   23.644;   -5.004;  688.205
350.081;   24.866;   -4.704;  772.592
350.676;   20.162;   -6.635;  691.606
351.272;   24.210;   -4.504;  809.530
351.868;   23.624;   -3.914;  780.497
352.464;   20.363;   -9.044;  723.932
353.059;   17.619;   -8.314;  646.017
353.655;   21.340;   -7.024;  777.063
354.251;   22.163;   -5.343;  759.845
354.846;   16.307;   -8.604;  740.646
355.442;   14.019;   -6.945;  753.071
356.038;   16.851;   -7.564;  751.708
356.633;   16.065;   -5.814;  728.594
357.229;   13.697;   -7.364;  724.757
357.824;   11.938;   -8.024;  703.600
358.420;   11.643;   -9.384;  679.726
359.015;   11.683;   -5.104;  695.357
359.610;   13.182;   -6.854;  763.920
360.206;    7.622;  -10.185;  603.240
360.801;   10.198;   -7.054;  646.503
361.396;   11.915;   -5.034;  725.975
361.992;    6.697;   -8.284;  668.220
362.587;    5.333;   -8.625;  670.160
363.182;    7.581;   -7.674;  689.631
363.777;    7.242;   -5.164;  738.242
364.372;    7.718;   -8.604;  737.314
364.967;    3.449;   -9.055;  680.744
365.563;    7.952;   -6.114;  815.567
366.158;    5.139;   -5.814;  685.161
366.753;    4.785;   -7.854;  649.263
367.348;    4.156;   -7.804;  746.056
367.942;    4.588;   -7.954;  697.298
368.537;    3.489;   -4.984;  754.245
369.132;    2.884;   -8.564;  703.428
369.727;   -0.743;   -8.855;  638.079
370.322;    0.233;   -6.245;  580.186
370.917;    0.366;   -6.425;  710.646
371.511;    3.090;   -6.294;  861.834
372.106;   -0.691;   -7.685;  776.964
372.701;   -3.132;   -7.335;  585.988
373.296;    2.397;   -4.564;  863.135
373.890;   -2.047;  -10.235;  647.840
374.485;   -4.483;   -7.885;  691.199
375.079;   -0.439;   -7.324;  738.685
375.674;    0.200;   -3.494;  812.970
376.268;   -4.202;   -8.525;  691.759
376.863;   -8.899;  -10.086;  580.327
377.457;   -3.337;   -7.025;  662.490
378.052;   -5.497;   -3.585;  764.884
378.646;   -6.172;   -7.595;  741.167
379.240;   -6.190;   -8.335;  721.176
379.835;   -5.443;   -5.785;  636.978
380.429;   -7.948;   -4.335;  562.557
381.023;   -7.743;   -6.805;  779.205
381.617;   -9.973;   -9.195;  680.106
382.212;   -5.413;   -6.905;  685.303
382.806;   -5.591;   -3.745;  760.690
383.400;  -10.106;   -7.745;  672.281
383.994;  -10.582;   -9.765;  664.870
384.588;   -6.366;   -6.564;  697.701
385.182;   -5.093;   -5.344;  726.624
385.776;   -7.270;   -8.514;  706.875
386.370;   -9.484;   -9.555;  681.968
386.964;   -8.916;   -8.715;  684.155
387.558;   -6.756;   -6.174;  598.360
388.152;  -10.630;   -8.725;  681.959
388.745;   -8.653;   -7.965;  814.707
389.339;   -7.026;   -5.924;  747.642
389.933;   -6.484;   -5.524;  695.370
390.527;   -7.919;   -7.114;  859.029
391.120;  -13.485;  -10.725;  595.318
391.714;  -10.493;   -8.035;  711.633
392.308;   -8.126;   -3.574;  780.253
392.901;  -11.111;   -7.245;  642.460
393.495;  -12.085;   -9.285;  595.414
394.089;  -10.442;   -5.895;  760.452
394.682;  -11.643;   -4.295;  697.188
395.275;  -12.339;   -9.875;  719.927
395.869;  -12.462;   -8.485;  667.314
396.462;  -11.768;   -7.455;  616.609
397.056;   -7.429;   -5.424;  776.621
397.649;  -12.541;   -6.605;  731.575
398.242;   -9.455;   -8.224;  712.645
398.836;   -8.511;   -7.474;  766.408
399.429;  -10.497;   -7.094;  631.041
400.022;  -13.727;   -9.475;  665.902
400.615;  -10.381;   -7.145;  805.609
401.208;   -9.220;   -7.174;  691.451
401.802;  -11.132;   -5.515;  699.329
402.395;  -12.083;   -9.875;  683.502
402.988;  -13.208;   -8.845;  696.627
403.581;  -10.004;   -8.874;  646.878
404.174;   -8.298;   -5.324;  686.568
404.767;  -10.682;   -9.575;  638.583
405.360;  -13.432;  -10.965;  621.445
405.953;   -7.543;   -8.764;  759.034
406.545;   -7.793;   -7.514;  725.342
407.138;  -11.738;  -10.025;  618.350
407.731;   -9.371;  -10.034;  613.303
408.324;   -6.275;   -9.374;  660.554
408.917;   -7.283;   -6.534;  681.864
409.509;   -9.613;   -8.004;  740.396
410.102;  -11.019;   -9.875;  643.948
410.695;   -4.224;   -8.604;  665.758
411.287;   -5.675;   -6.794;  599.821
411.880;   -7.853;   -9.334;  585.421
412.472;  -10.030;  -10.254;  613.092
413.065;   -6.582;   -6.714;  629.408
413.657;   -5.383;   -7.234;  576.678
414.250;   -5.144;  -10.544;  646.681
414.842;   -6.699;   -9.744;  676.353
415.434;   -4.763;   -6.994;  570.463
416.027;   -0.363;   -5.893;  652.196
416.619;   -3.214;   -7.264;  713.400
417.211;   -2.810;  -10.374;  599.352
417.804;    0.851;   -7.993;  628.499
418.396;   -3.079;   -7.234;  607.643
418.988;   -0.957;   -9.443;  659.238
419.580;   -3.957;  -10.724;  568.276
420.172;   -2.038;  -10.323;  536.196
420.764;    1.841;   -8.793;  672.482
421.356;    0.617;  -11.143;  636.898
421.948;    0.522;   -8.293;  677.661
422.540;    5.516;   -7.893;  680.027
423.132;    3.964;   -7.082;  600.641
423.724;    1.156;   -8.653;  561.267
424.316;    3.146;  -10.213;  621.345
424.908;    6.706;   -9.762;  591.517
425.500;    7.098;   -5.572;  647.978
426.092;    7.633;   -8.422;  648.268
426.683;    7.094;   -9.283;  684.836
427.275;    9.820;   -7.852;  641.471
427.867;   11.123;   -5.272;  668.948
428.458;   11.232;   -7.682;  732.344
429.050;   10.576;  -10.612;  680.749
429.642;   12.711;   -9.882;  743.124
430.233;   12.564;   -6.962;  569.356
430.825;   13.972;   -6.842;  724.809
431.416;   12.202;   -9.672;  698.241
432.008;   15.942;   -6.552;  651.723
432.599;   15.654;   -6.891;  656.073
433.190;   13.068;  -10.912;  637.670
433.782;   12.591;  -11.172;  590.395
434.373;   20.324;   -6.061;  884.765
434.964;   17.903;   -8.251;  602.920
435.556;   16.042;   -9.722;  634.537
436.147;   18.897;   -9.082;  758.490
436.738;   19.099;   -8.041;  701.099
437.329;   24.124;   -7.341;  721.723
437.920;   17.282;   -8.162;  666.688
438.511;   17.346;  -11.802;  564.526
439.103;   24.267;  -10.191;  623.998
439.694;   25.763;   -7.601;  681.583
440.285;   26.235;   -8.541;  764.432
440.876;   24.549;   -9.751;  845.738
441.466;   24.461;   -9.401;  575.162
442.057;   29.497;   -7.760;  665.814
442.648;   28.466;   -9.971;  746.255
443.239;   26.970;  -11.001;  620.477
443.830;   31.726;   -7.990;  704.958
444.421;   33.790;   -7.910;  655.474
445.011;   29.171;   -8.131;  693.619
445.602;   29.914;   -7.111;  743.126
446.193;   32.079;  -10.920;  488.117
446.783;   36.439;   -6.500;  640.397
447.374;   31.483;   -8.671;  692.759
447.964;   33.054;  -10.781;  713.770
448.555;   40.470;   -9.650;  822.742
449.145;   37.103;   -8.660;  662.853
449.736;   37.947;   -8.990;  803.179
450.326;   38.079;   -9.500;  713.626
450.917;   43.034;   -8.680;  675.324
451.507;   42.454;   -7.520;  600.661
452.097;   42.726;   -8.590;  746.267
452.688;   43.727;  -11.340;  742.160
453.278;   43.551;  -10.100;  566.840
453.868;   47.634;   -6.019;  793.550
454.458;   45.951;   -9.440;  651.141
455.048;   46.272;  -10.560;  711.783
455.639;   47.817;  -11.799;  567.096
456.229;   51.554;   -6.899;  710.694
456.819;   53.325;   -7.389;  751.158
457.409;   53.874;  -11.119;  773.993
457.999;   56.788;   -9.289;  737.505
458.589;   56.009;   -6.139;  686.606
459.179;   56.471;   -8.729;  717.658
459.769;   54.229;   -9.789;  627.099
460.358;   59.876;  -10.259;  797.262
460.948;   59.533;   -7.299;  689.503
461.538;   60.533;  -10.289;  660.677
462.128;   59.622;  -11.269;  664.934
462.717;   66.183;   -9.368;  710.326
463.307;   67.875;   -7.908;  705.846
463.897;   65.058;   -9.599;  656.942
464.486;   64.404;   -9.769;  837.128
465.076;   68.957;   -8.048;  733.776
465.666;   72.007;   -9.358;  652.900
466.255;   69.604;   -7.919;  785.651
466.845;   69.039;  -11.689;  666.749
467.434;   72.354;   -7.818;  725.873
468.023;   73.937;   -7.678;  658.357
468.613;   70.369;  -10.939;  713.946
469.202;   75.648;  -10.118;  646.507
469.791;   79.666;   -9.108;  737.811
470.381;   80.657;   -6.058;  742.813
470.970;   81.219;  -10.428;  711.099
471.559;   81.084;  -10.268;  733.291
472.148;   84.585;   -8.448;  675.737
472.738;   86.254;   -6.917;  765.466
473.327;   86.271;  -11.978;  637.529
473.916;   86.231;  -11.888;  737.446
474.505;   90.884;   -9.437;  751.703
475.094;   93.447;   -6.747;  806.570
475.683;   92.702;   -9.367;  797.699
476.272;   94.011;  -12.637;  730.632
476.861;   96.998;  -10.027;  706.754
477.449;  103.310;   -8.716;  728.487
478.038;   97.725;   -9.577;  692.513
478.627;   99.244;   -9.718;  714.852
479.216;  105.782;   -8.947;  769.441
479.805;  109.000;   -6.256;  783.375
480.393;  108.531;   -7.937; 1008.945
480.982;  108.352;   -7.717;  874.501
481.571;  113.736;   -9.266;  858.333
482.159;  114.511;   -7.636;  705.386
482.748;  114.392;   -9.667;  821.385
483.336;  119.682;  -10.376;  858.209
483.925;  120.405;   -7.147;  774.373
484.513;  127.498;   -7.996;  758.962
485.102;  123.001;  -10.027;  810.965
485.690;  132.466;  -10.446; 1011.050
486.278;  134.565;   -8.446;  979.329
486.867;  135.528;   -6.356;  809.662
487.455;  137.214;   -9.136;  898.229
488.043;  139.127;  -10.646;  748.361
488.631;  148.034;   -7.456; 1005.079
489.220;  151.302;   -6.636;  908.626
489.808;  151.993;  -11.036;  741.415
490.396;  159.900;  -10.246;  914.645
490.984;  167.947;   -8.556;  830.161
491.572;  177.127;   -5.886;  940.315
492.160;  183.897;   -9.486;  919.081
492.748;  196.596;  -10.976;  884.341
493.336;  220.573;   -8.776; 1019.693
493.924;  248.557;   -5.465;  958.077
494.512;  278.810;   -9.986; 1066.638
495.100;  321.030;  -10.636; 1103.280
495.687;  379.070;  -10.885; 1206.373
496.275;  446.141;   -8.126; 1150.796
496.863;  517.943;  -10.586; 1281.171
497.451;  626.377;  -11.926; 1386.805
498.038;  764.479;  -10.885; 1556.729
498.626;  874.852;   -6.315; 1741.407
499.214; 1027.697;   -7.326; 2016.609
499.801; 1245.448;  -11.906; 2220.633
500.389; 1497.171;  -10.466; 2312.494
500.976; 1832.950;   -5.236; 2744.849
501.564; 2293.172;   -8.936; 3148.565
502.151; 2704.146;  -13.176; 3515.999
502.738; 3191.300;  -10.646; 3971.274
503.326; 3584.751;   -9.525; 4403.796
503.913; 3982.563;  -10.856; 5161.749
504.500; 4375.540;  -11.586; 5986.420
505.088; 4797.091;  -10.336; 6381.201
505.675; 5357.199;   -6.355; 6925.547
506.262; 6100.457;   -9.046; 7619.060
506.849; 6824.564;  -10.416; 8733.969
507.436; 7333.716;  -10.305; 9790.121
508.023; 7954.831;   -5.496; 9985.472
508.610; 8237.719;   -7.856;10434.618
509.197; 8909.321;  -10.097;11198.435
509.784;10338.445;  -10.886;12391.194
510.371;11420.723;   -9.315;13603.713
510.958;12182.061;   -9.936;14426.586
511.545;12985.688;   -9.326;15243.775
512.132;13987.122;  -10.075;15945.876
512.719;14710.543;   -7.796;16340.369
513.305;15745.143;  -10.606;18011.766
513.892;16582.922;  -11.486;19754.971
514.479;17947.854;   -9.126;20967.805
515.066;19318.486;   -6.026;22299.793
515.652;20563.123;   -8.466;22908.660
516.239;22153.350;  -10.886;23798.875
516.825;23497.930;  -11.496;25567.275
517.412;24833.479;   -5.796;28154.959
517.998;25354.873;  -10.506;28344.111
518.585;25201.986;  -10.076;27134.219
519.171;25785.020;   -8.315;27268.576
519.758;27497.465;   -8.596;28964.129
520.344;29299.070;   -8.466;30664.494
520.930;29254.021;  -11.006;32550.605
521.516;31194.930;  -10.495;35422.895
522.103;33763.035;   -5.526;38280.004
522.689;34508.980;   -8.746;37835.117
523.275;33585.508;  -11.376;37288.613
523.861;34357.184;  -11.156;37281.395
524.447;35850.867;   -8.135;37846.949
525.033;35714.551;   -7.896;38321.949
525.619;35836.723;  -12.476;38579.285
526.205;37624.828;   -9.516;40622.875
526.791;40267.578;   -6.926;42258.836
527.377;40434.035;   -8.346;42966.902
527.963;42137.020;   -8.717;42018.949
528.549;40367.910;  -11.016;42476.828
529.135;39127.289;   -8.536;41854.852
529.721;38769.711;   -9.666;41237.711
530.306;38204.891;  -10.066;41259.445
530.892;37846.875;  -11.356;41506.047
531.478;39311.781;   -6.596;43559.613
532.063;42368.242;   -8.836;47695.563
532.649;42474.035;  -10.047;50808.324
533.235;43638.422;   -9.746;51787.500
533.820;44861.070;   -6.566;52145.035
534.406;46333.266;  -10.817;51133.488
534.991;46123.547;   -9.416;49996.805
535.576;44610.242;   -9.036;48882.852
536.162;44987.785;   -6.156;46942.285
536.747;46125.535;  -11.607;45711.746
537.333;50412.359;  -11.787;48510.180
537.918;52928.926;  -12.437;50439.891
538.503;51147.430;   -7.196;50863.711
539.088;48290.109;  -10.556;50906.922
539.673;48301.871;   -8.767;52621.965
540.259;47930.527;  -10.026;52368.094
540.844;45004.270;   -7.416;50879.109
541.429;46155.750;   -9.467;52077.777
542.014;49257.652;   -9.527;52716.695
542.599;48622.352;   -9.946;52363.281
543.184;46461.848;   -7.927;53187.137
543.769;48413.984;   -9.297;54697.605
544.354;47493.605;  -10.127;53913.914
544.938;46004.918;   -9.267;49680.164
545.523;47834.035;   -6.506;47386.277
546.108;50116.867;   -9.787;49151.949
546.693;52420.930;  -11.587;51384.637
547.278;52449.332;  -10.986;51853.254
547.862;49310.254;   -8.206;51173.750
548.447;44485.375;  -10.067;51691.395
549.031;44054.750;   -9.637;52456.703
549.616;49312.684;   -9.926;52714.516
550.201;48163.523;   -6.347;52414.598
550.785;49357.465;   -7.917;52355.059
551.370;48536.070;  -10.867;54589.453
551.954;48618.094;   -9.047;58267.348
552.538;49274.266;   -7.827;59062.176
553.123;47541.535;  -10.287;58115.285
553.707;45735.672;  -12.178;56556.285
554.291;46961.906;   -8.717;56201.668
554.876;48967.398;   -7.457;55335.762
555.460;49368.617;  -10.387;54155.703
556.044;50801.320;   -9.618;53721.484
556.628;49184.832;  -11.567;53731.016
557.212;47544.887;   -8.097;54312.531
557.796;45934.570;  -11.077;53797.773
558.380;45636.027;  -11.108;56145.984
558.964;46034.906;   -9.057;57277.930
559.548;46873.664;   -6.977;56459.641
560.132;45263.117;  -11.457;54434.543
560.716;44293.742;  -11.378;54800.617
561.300;45705.426;   -9.577;57606.945
561.884;46743.063;   -7.127;58972.445
562.467;45301.242;   -7.118;57327.570
563.051;44319.754;  -13.358;54962.434
563.635;45157.434;  -10.178;52594.473
564.219;45735.305;   -7.837;50610.410
564.802;46715.469;  -11.398;49551.180
565.386;46804.121;  -12.788;48370.953
565.969;46248.598;   -9.077;48178.871
566.553;45819.703;   -6.207;49957.305
567.136;45809.488;   -8.568;50369.594
567.720;41633.402;  -11.868;49492.004
568.303;39572.621;   -8.268;50616.352
568.887;39750.371;   -8.698;50727.148
569.470;39812.023;   -6.808;51698.379
570.053;38400.320;  -13.188;52122.078
570.637;36744.348;  -12.037;52536.438
571.220;36396.059;   -8.577;51186.098
571.803;36872.254;   -8.498;51032.762
572.386;39636.734;  -10.498;49609.887
572.969;42095.664;   -9.388;48285.926
573.552;39720.508;   -8.338;47624.285
574.135;38303.680;   -8.518;45498.641
574.718;35839.020;  -13.628;41970.434
575.301;34603.492;  -10.893;41447.137
575.884;33367.969;   -8.158;40923.836
576.467;34807.258;  -10.328;45267.723
577.050;37436.117;  -13.058;48175.543
577.633;38797.992;   -9.458;47729.328
578.216;37426.664;   -8.928;47579.793
578.799;36525.090;   -9.358;47820.996
579.381;35273.504;  -11.388;48115.551
579.964;33930.996;  -11.718;47333.766
580.547;35502.652;   -8.588;46668.969
581.129;36524.215;   -8.859;44466.141
581.712;37009.156;  -10.729;44164.922
582.294;37581.730;  -11.118;46477.855
582.877;37594.902;   -5.218;48244.254
583.459;35081.617;   -8.679;47437.895
584.042;33228.145;  -10.709;46943.219
584.624;34185.633;  -11.669;46792.227
585.206;33628.871;   -8.218;46557.250
585.789;33918.906;  -10.569;45793.773
586.371;36757.426;  -11.859;43836.391
586.953;36916.617;  -10.719;42972.492
587.536;38186.672;   -7.198;42487.211
588.118;37726.719;   -8.720;42086.414
588.700;34609.500;  -10.439;43389.930
589.282;33898.492;   -9.198;43646.039
589.864;34593.379;   -9.199;43438.109
590.446;35327.438;  -11.319;43151.926
591.028;34986.480;  -11.159;42781.867
591.610;34157.758;  -11.779;42839.098
592.192;31932.230;   -7.668;42820.402
592.774;30511.105;  -11.949;40724.277
593.356;29275.059;  -12.129;39874.789
593.937;28382.512;  -10.669;39980.648
594.519;30718.195;   -6.509;42069.633
595.101;32802.219;  -10.849;42976.031
595.683;32797.238;  -11.679;44084.441
596.264;33939.855;   -9.049;43478.797
596.846;33018.098;   -8.849;43803.672
597.427;32698.826;   -9.570;42986.934
598.009;34347.082;  -12.620;42832.219
598.591;34622.922;  -10.039;42580.086
599.172;33500.117;  -10.369;43061.805
599.753;33513.859;   -9.140;41691.469
600.335;35069.344;  -11.430;40692.520
600.916;33599.531;   -9.939;39982.422
601.498;31276.266;   -8.479;40318.617
602.079;29789.291;  -10.920;40670.609
602.660;29972.025;  -11.480;41450.898
603.241;31456.203;  -11.699;41137.738
603.823;30254.441;   -9.579;38868.797
604.404;30432.521;  -10.620;38182.785
604.985;31767.250;  -10.450;38078.047
605.566;31125.781;   -9.129;38056.633
606.147;31234.002;   -7.510;37020.418
606.728;33035.715;  -10.660;37883.359
607.309;31720.971;  -11.740;38748.273
607.890;31036.611;   -9.759;38850.230
608.471;30582.537;   -8.250;37457.918
609.051;29624.955;   -9.240;36066.457
609.632;28623.846;  -12.120;35991.074
610.213;29484.551;   -9.110;37402.641
610.794;29998.332;   -8.030;38383.363
611.374;29507.119;   -8.110;40562.387
611.955;29918.938;  -13.560;38533.727
612.536;31175.867;  -11.400;36951.789
613.116;31356.672;   -8.070;37197.891
613.697;31483.816;  -10.830;38411.125
614.277;30094.053;  -11.641;38673.938
614.858;31014.533;  -13.310;37075.863
615.438;30020.609;   -7.460;35092.906
616.019;27079.033;   -7.601;33666.301
616.599;27898.664;  -12.020;34189.023
617.179;29685.561;  -11.780;36952.047
617.760;30449.922;   -8.570;39582.574
618.340;31584.740;  -11.471;38943.977
618.920;32916.672;  -11.170;37594.156
619.500;32914.387;  -11.071;37866.938
620.080;32257.861;   -7.750;37869.043
620.660;33417.898;  -12.711;36868.617
621.241;34881.723;  -10.211;36352.309
621.821;34918.430;  -10.961;35459.520
622.401;33752.926;   -7.720;35207.414
622.980;32903.762;   -8.981;35980.422
623.560;31530.492;   -9.331;37351.328
624.140;30500.133;   -9.850;34388.582
624.720;25131.635;   -7.451;32368.764
625.300;21480.375;   -9.070;32638.629
625.880;24943.971;  -12.601;34599.035
626.459;29141.363;  -11.751;36831.738
627.039;32387.418;   -9.281;38299.098
627.619;32343.559;   -8.801;38289.574
628.198;30520.600;  -12.071;37220.695
628.778;29531.344;   -9.461;37632.563
629.357;30295.844;   -8.491;38003.012
629.937;30454.160;   -9.721;38402.039
630.516;29772.379;   -9.951;37868.801
631.096;29226.498;  -11.731;35760.410
631.675;32551.387;   -8.572;35225.219
632.254;37597.977;  -11.282;35130.289
632.834;36908.238;  -13.322;35794.570
633.413;34851.137;  -10.301;35788.922
633.992;31652.414;   -8.582;34532.863
634.571;32492.111;   -8.352;33590.113
635.151;35239.668;  -11.912;34943.863
635.730;33746.422;  -10.511;35352.523
636.309;30610.311;   -7.731;35366.605
636.888;28383.553;   -9.952;36165.637
637.467;29505.203;  -11.672;37515.902
638.046;31107.869;   -8.901;39288.695
638.625;34156.402;   -7.912;38279.699
639.204;33814.289;  -10.022;37741.598
639.782;32162.197;  -12.252;38364.551
640.361;28140.691;  -10.041;36740.621
640.940;25309.967;  -11.161;34950.082
641.519;25979.982;   -9.701;34137.398
642.097;29265.031;  -11.271;35654.258
642.676;32145.359;   -8.651;35637.957
643.255;32486.428;   -8.711;36567.074
643.833;31607.994;   -9.581;37809.434
644.412;31793.578;  -13.711;37337.293
644.990;31089.619;  -11.811;37018.531
645.569;31608.395;   -9.411;36518.469
646.147;30429.258;  -10.291;36186.430
646.726;29471.863;  -12.401;36267.688
647.304;30321.244;  -10.411;36647.625
647.882;32600.281;   -9.651;39286.742
648.461;34533.684;   -9.631;39157.703
649.039;32446.924;  -11.881;35412.883
649.617;31673.035;   -9.661;34744.918
650.195;31473.955;   -9.301;35403.098
650.773;29952.979;  -10.511;35053.797
651.352;27702.850;  -11.521;33756.816
651.930;25363.703;  -12.211;31868.773
652.508;23580.797;   -9.171;33121.551
653.086;27550.479;   -9.371;33564.793
653.663;30257.523;  -13.161;34054.668
654.241;29423.098;  -13.031;35693.309
654.819;31217.146;   -9.371;36422.906
655.397;31298.027;  -10.511;38213.484
655.975;31092.174;  -10.371;39507.625
656.553;30526.553;  -10.051;39498.223
657.130;28926.105;  -10.061;40395.480
657.708;28471.193;   -9.561;39242.020
658.286;28425.330;  -11.511;38920.020
658.863;29419.297;  -10.261;40202.898
659.441;32529.061;   -7.531;39677.938
660.018;31949.057;   -9.501;40413.355
660.596;30853.709;  -13.301;39931.414
661.173;33020.938;  -11.211;39604.531
661.750;33317.848;   -9.951;39700.070
662.328;32430.275;   -9.390;39292.809
662.905;31176.055;  -11.330;38235.648
663.482;26324.158;   -9.050;36212.305
664.060;24451.947;   -8.240;35944.945
664.637;27422.484;  -10.050;35170.785
665.214;29338.959;  -11.760;34197.523
665.791;30549.486;  -10.530;34549.520
666.368;29230.730;   -9.690;35118.578
666.945;30427.744;   -9.320;36019.418
667.522;32085.098;  -11.860;36048.438
668.099;31858.656;  -10.770;36243.914
668.676;30760.412;   -6.260;35958.875
669.253;29254.633;   -7.000;37384.730
669.830;29882.668;  -10.190;36779.629
670.407;29605.369;   -9.550;35231.289
670.984;29930.766;   -9.260;35544.270
671.560;30349.383;   -9.280;35466.867
672.137;29082.576;  -11.810;34280.863
672.714;29811.760;  -11.490;34632.863
673.290;30338.422;   -7.740;35135.422
673.867;30649.236;  -10.660;36114.480
674.443;30310.594;  -12.230;36152.859
675.020;28621.744;  -10.450;35327.238
675.596;29939.012;   -9.260;35795.176
676.173;30496.480;  -10.780;35430.355
676.749;30398.254;  -13.690;33549.516
677.326;30396.957;  -11.980;32210.012
677.902;30327.783;   -8.630;32068.871
678.478;29495.650;  -10.730;32583.891
679.054;28995.604;  -10.520;32088.928
679.631;29310.074;  -11.920;30978.848
680.207;30874.342;   -7.490;33160.887
680.783;32510.092;   -9.860;35570.363
681.359;31494.027;  -13.380;36125.184
681.935;30721.777;  -12.480;35240.922
682.511;29772.982;   -7.900;34429.961
683.087;29926.025;   -7.710;34463.680
683.663;29700.719;  -11.480;34648.898
684.239;28374.174;  -14.090;34546.457
684.815;28078.834;   -7.560;35586.375
685.390;28571.689;   -9.910;35821.895
685.966;29088.191;  -11.159;35085.871
686.542;31617.262;  -11.169;34198.230
687.118;33369.184;   -5.959;32847.707
687.693;33169.012;  -10.329;32794.027
688.269;32893.883;  -12.059;33072.367
688.844;31148.453;  -10.909;33141.664
689.420;28955.188;   -8.019;33965.742
689.995;26597.330;   -8.399;34655.523
690.571;25408.025;  -10.949;33576.742
691.146;25992.092;   -9.619;32657.219
691.722;25358.537;   -8.999;32526.979
692.297;25699.682;  -11.589;33014.617
692.872;27614.865;  -11.739;34012.254
693.448;26907.463;  -11.059;34237.434
694.023;26124.582;  -10.139;34142.672
694.598;28270.484;   -9.029;34132.031
695.173;28450.127;  -13.319;34205.250
695.748;27828.832;  -10.169;32882.488
696.323;27713.863;   -8.339;32864.906
696.898;27985.371;   -8.169;33170.004
697.473;27730.189;  -12.309;32432.984
698.048;27059.055;  -10.989;31649.303
698.623;27241.865;   -9.329;30778.141
699.198;29316.369;   -9.849;31140.119
699.773;29934.402;  -12.329;31764.299
700.348;28277.400;  -10.389;31780.816
700.922;28221.883;   -9.269;32046.375
701.497;28701.133;   -9.329;32603.574
702.072;28635.912;  -10.789;34799.871
702.646;27601.158;  -10.839;35793.172
703.221;26037.379;   -9.099;35201.590
703.795;27983.303;  -10.939;34764.527
704.370;28146.592;  -12.859;34307.367
704.944;28595.949;  -11.559;33509.887
705.519;29624.801;   -7.939;31388.584
706.093;31158.291;  -10.499;31340.104
706.668;31223.252;  -11.289;32630.281
707.242;30192.914;  -11.509;32728.779
707.816;28696.590;   -9.639;32947.238
708.390;27101.516;  -11.429;33277.855
708.965;27850.174;  -11.869;33834.336
709.539;28279.166;  -11.689;33709.273
710.113;28742.852;  -10.478;33044.313
710.687;27826.883;  -10.228;31953.992
711.261;26029.227;  -13.698;30505.949
711.835;26093.061;  -13.378;30262.369
712.409;27086.938;   -9.698;31254.447
712.983;28778.748;  -11.898;32754.986
713.557;29505.154;  -15.138;34018.824
714.131;29043.754;  -14.098;34579.625
714.704;28140.467;   -9.958;33890.262
715.278;26048.957;  -10.028;33531.102
715.852;25344.260;  -11.148;33601.660
716.425;26276.355;   -9.068;33515.117
716.999;26964.285;  -10.038;33185.555
717.573;27977.143;   -9.798;33905.996
718.146;29007.107;  -12.378;35199.293
718.720;28612.512;  -11.918;35060.551
719.293;28002.049;   -8.088;34973.230
719.867;30869.871;  -10.888;36394.449
720.440;30298.008;  -11.938;36663.008
721.013;28463.611;  -12.818;35102.426
721.587;27337.459;  -10.298;33985.266
722.160;26633.188;  -10.048;33524.965
722.733;25678.543;  -12.108;32987.043
723.306;26086.291;  -10.818;33066.301
723.880;28144.191;   -8.908;33399.500
724.453;29386.467;   -9.878;33468.297
725.026;28272.334;  -11.188;33816.637
725.599;26188.875;  -11.678;32797.996
726.172;27178.410;   -9.618;33187.434
726.745;28422.018;   -8.258;35136.613
727.318;29727.215;  -12.978;35751.730
727.891;29665.984;  -12.148;35890.430
728.463;29246.658;   -8.968;34822.090
729.036;28458.182;  -10.188;32895.086
729.609;28796.480;  -11.788;31823.225
730.182;25786.732;  -11.788;31445.283
730.754;23338.916;  -10.268;32373.223
731.327;23339.455;   -9.998;33676.820
731.900;23882.424;  -12.228;33417.000
732.472;25350.697;  -13.848;31978.498
733.045;27054.914;   -8.698;30368.777
733.617;27091.232;  -10.607;30574.215
734.190;26490.082;  -11.507;31280.975
734.762;23379.047;  -13.647;31674.412
735.334;21885.219;   -9.767;31247.291
735.907;22690.037;   -9.897;29876.211
736.479;22720.297;  -11.637;29808.488
737.051;22342.387;   -9.567;30233.547
737.623;23251.572;   -8.187;31469.086
738.195;24348.818;  -11.187;31784.225
738.768;26552.105;  -12.337;32120.523
739.340;26223.293;  -12.227;32094.342
739.912;24711.951;  -11.057;31312.680
740.484;23394.787;  -10.207;31946.238
741.056;22568.271;  -10.047;32984.059
741.628;24453.869;  -13.627;33897.715
742.199;26703.787;   -7.177;33213.016
742.771;25028.859;  -10.797;31369.113
743.343;22725.133;  -11.997;31865.473
743.915;21777.955;  -12.867;32388.631
744.487;21882.631;   -7.617;31079.568
745.058;21920.580;   -9.557;30570.107
745.630;22350.828;   -9.877;29970.127
746.201;22985.342;  -14.177;29186.766
746.773;23182.605;   -9.237;28805.723
747.344;23099.521;   -9.847;29591.223
747.916;21986.063;  -11.657;31412.201
748.487;22361.652;  -10.587;32194.898
749.059;23500.865;   -8.707;32533.719
749.630;24233.232;  -10.537;32158.518
750.201;23456.857;  -11.687;30855.395
750.773;21731.004;  -11.647;28622.555
751.344;21777.041;   -7.147;28405.732
751.915;22863.301;   -9.757;28461.551
752.486;22329.264;  -12.427;27842.850
753.057;20220.412;  -12.227;27845.008
753.628;19248.080;  -10.417;27728.107
754.199;20435.635;  -11.767;27381.086
754.770;21336.320;  -11.187;25882.203
755.341;21297.852;  -10.507;25886.184
755.912;21155.568;   -9.387;26050.861
756.483;20538.230;  -10.647;26798.779
757.054;18656.203;  -11.837;27048.238
757.625;17394.396;  -12.716;26294.838
758.195;17400.127;   -9.666;26142.076
758.766;17266.922;   -8.656;26392.234
759.337;18047.320;  -12.856;26334.594
759.907;19813.436;  -13.366;27579.652
760.478;20584.328;   -8.576;28352.770
761.048;19764.576;  -10.526;27325.088
761.619;18887.707;  -11.116;26460.428
762.189;19063.541;  -12.136;26029.826
762.760;20425.656;   -9.456;26430.145
763.330;21375.730;   -7.136;26670.902
763.900;20615.881;  -11.786;26603.021
764.471;17991.299;  -11.546;25542.740
765.041;16731.842;   -8.096;24358.459
765.611;16835.635;   -8.876;23991.297
766.181;17295.340;  -12.196;24470.236
766.751;18214.285;  -11.636;24845.975
767.321;17851.561;  -10.156;24533.633
767.891;15815.851;  -11.766;24916.492
768.461;15402.907;  -14.936;24776.771
769.031;16072.290;  -12.356;24757.988
769.601;17517.918;   -7.526;24181.088
770.171;17222.279;  -10.766;23670.387
770.741;16595.471;  -13.176;22960.045
771.311;16955.086;  -10.616;22917.523
771.880;17183.941;   -9.576;23562.941
772.450;16839.707;  -10.336;24216.500
773.020;17015.797;  -13.516;24140.398
773.589;16501.764;  -13.466;24414.857
774.159;15939.570;   -8.686;23858.717
774.729;15496.933;   -9.476;22942.135
775.298;14909.672;  -13.666;22324.033
775.867;14474.669;  -11.716;21140.313
776.437;14498.230;   -9.906;20838.092
777.006;14249.758;  -12.166;20599.510
777.576;14178.179;  -12.356;20508.809
778.145;14414.637;  -11.646;20732.947
778.714;14283.517;   -8.226;21062.465
779.283;13517.896;   -9.556;20949.664
779.853;13052.648;  -14.116;20508.623
780.422;13507.820;  -11.506;20649.082
780.991;13149.047;   -9.556;21527.520
781.560;12071.932;   -9.095;22632.658
782.129;11891.846;  -12.135;23048.277
782.698;11870.850;  -10.865;23438.555
783.267;11432.609;   -9.335;23267.734
783.836;11454.020;  -11.045;22415.133
784.404;12554.243;  -13.865;20443.152
784.973;13055.851;  -13.095;19699.150
785.542;13001.756;  -11.575;19763.828
786.111;12871.346;   -9.705;20341.408
786.679;12286.017;  -12.105;20207.967
787.248;12029.137;  -12.455;19516.465
787.817;11854.720;  -11.535;18900.363
788.385;11417.832;   -9.765;17879.121
788.954;10829.940;  -14.005;17658.301
789.522;10360.844;  -11.955;17788.879
790.090;10908.128;  -10.135;18118.277
790.659;11244.141;  -10.975;18338.736
791.227;10724.407;  -13.375;18508.615
791.795;11169.687;  -12.375;17898.254
792.364;11460.960;  -10.725;17295.133
792.932;11698.495;   -9.715;16822.051
793.500;11937.061;  -12.675;17040.148
794.068;12266.818;  -13.495;17179.787
794.636;12350.615;  -10.885;16664.246
795.204;11868.919;  -11.045;16524.545
795.772;11960.813;  -13.175;17274.564
796.340;11441.502;  -12.445;17891.002
796.908;11246.277;   -9.735;17648.561
797.476;11120.808;   -9.815;17064.080
798.044;10694.210;  -13.985;16672.777
798.612; 9953.646;  -13.115;17023.996
799.180; 9560.519;  -10.185;16561.615
799.747; 9455.980;   -9.055;15962.773
800.315; 9227.589;  -12.385;15296.992
800.883; 8862.182;  -15.035;14801.771
801.450; 8822.519;  -10.365;14534.430
802.018; 8899.167;   -9.855;14173.248
802.585; 9071.136;  -11.905;14029.547
803.153; 9175.404;  -11.585;13836.846
803.720; 9000.788;   -9.095;13567.324
804.287; 8506.899;   -9.135;13360.622
804.855; 8089.083;  -11.604;13681.981
805.422; 7972.354;  -11.794;13536.560
805.989; 7944.031;  -10.734;13355.958
806.556; 8157.407;  -10.444;13747.896
807.124; 8445.070;  -12.764;13987.376
807.691; 8429.995;  -12.964;14038.674
808.258; 8181.120;  -11.134;14120.152
808.825; 7768.693;   -9.854;13860.111
809.392; 7817.367;  -10.504;13268.790
809.959; 7402.975;  -13.054;12680.389
810.526; 7026.769;   -8.294;12427.308
811.093; 7082.896;   -8.394;12030.105
811.659; 7608.925;  -12.304;11653.664
812.226; 8027.100;  -13.944;11637.183
812.793; 7691.648;  -10.484;11611.521
813.360; 7073.746;  -10.144;11885.181
813.926; 6797.758;  -11.684;12770.539
814.493; 6597.718;  -13.644;12677.638
815.060; 6241.139;   -9.724;11974.336
815.626; 6281.854;   -9.854;11594.715
816.193; 6681.509;  -13.254;11579.474
816.759; 6708.134;  -13.204;11666.972
817.325; 6788.309;   -9.434;11325.530
817.892; 7143.855;  -10.134;11105.369
818.458; 7556.349;  -13.474;10843.928
819.024; 7121.105;  -11.854;10714.406
819.591; 6772.407;  -10.244;10469.165
820.157; 6575.628;  -10.704;10235.523
820.723; 6137.462;  -12.324;10847.563
821.289; 5860.895;   -9.444;11040.980
821.855; 5727.549;   -8.374;10357.100
822.421; 5608.035;  -10.234; 9978.918
822.987; 5552.492;  -13.294; 9754.177
823.553; 5297.058;  -10.884;10065.755
824.119; 5175.227;   -8.884;10036.294
824.685; 5245.851;   -6.784;10029.192
825.251; 5306.621;  -12.004;10199.230
825.816; 5282.204;  -11.474; 9820.189
826.382; 5088.212;   -9.174; 9297.248
826.948; 5326.643;   -9.214; 9381.347
827.513; 5683.705;  -10.774; 9450.726
828.079; 5481.925;  -11.924; 9472.444
828.645; 4969.101;  -10.543; 9292.643
829.210; 4933.946;  -10.533; 9065.341
829.776; 4903.309;  -10.753; 9132.620
830.341; 4764.243;  -10.173; 9092.878
830.906; 4944.564;  -10.743; 9078.557
831.472; 5240.365;  -11.113; 8534.535
832.037; 4933.223;  -10.603; 8677.874
832.602; 4387.500;  -13.323; 8628.692
833.167; 4162.171;  -10.823; 8879.031
833.733; 4117.784;  -10.113; 9189.790
834.298; 4229.100;  -13.583; 9052.608
834.863; 4266.930;  -12.703; 8895.087
835.428; 4260.592;  -10.523; 8824.266
835.993; 4167.383;   -6.963; 8845.385
836.558; 4052.303;  -10.763; 8888.563
837.123; 4189.156;   -9.903; 8966.582
837.688; 4398.543;   -9.913; 8617.860
838.253; 4587.884;  -10.283; 8590.699
838.817; 4765.477;  -12.963; 8443.797
839.382; 4680.249;  -14.243; 8799.356
839.947; 4370.758;  -10.733; 8810.595
840.511; 4064.528;   -9.383; 8796.394
841.076; 3707.747;  -12.563; 8347.231
841.641; 3793.210;  -12.953; 8224.330
842.205; 3890.493;   -7.043; 8223.349
842.770; 4010.961;   -8.163; 8622.107
843.334; 4192.489;  -12.503; 8410.386
843.898; 4172.222;  -11.693; 8337.465
844.463; 4208.871;  -10.203; 8506.283
845.027; 3998.057;   -9.533; 8280.962
845.591; 3831.213;  -13.443; 8231.141
846.156; 3769.108;  -13.143; 7969.179
846.720; 3635.883;   -9.433; 7768.278
847.284; 3504.516;  -11.033; 7630.957
847.848; 3373.171;  -10.403; 7472.395
848.412; 3275.045;  -11.553; 7437.394
848.976; 3307.819;   -8.393; 7674.592
849.540; 3266.953;   -8.713; 7836.011
850.104; 3408.212;  -12.463; 7913.669
850.668; 3743.052;  -12.973; 7694.508
851.232; 3816.123;  -10.793; 7756.887
851.796; 3650.588;  -10.662; 7926.545
852.359; 3367.432;  -13.082; 7827.844
852.923; 3228.426;  -12.192; 7641.163
853.487; 3060.412;  -11.912; 7342.501
854.050; 3005.460;  -10.892; 7042.820
854.614; 3118.162;  -13.992; 7151.338
855.177; 3219.868;  -11.732; 7105.077
855.741; 3251.918;   -8.962; 6989.675
856.304; 3169.792;   -9.442; 6596.634
856.868; 3131.376;  -14.192; 6356.272
857.431; 3240.587;  -12.702; 6468.571
857.995; 3374.342;   -9.942; 6373.210
858.558; 3386.141;   -9.112; 6324.448
859.121; 3126.695;  -12.932; 6408.327
859.684; 3008.540;  -13.442; 6347.886
860.247; 3088.391;  -10.632; 6321.264
860.810; 3061.645;  -11.272; 6301.903
861.374; 2811.345;   -9.832; 6607.881
861.937; 2578.917;  -11.762; 6408.200
862.500; 2589.156;   -9.722; 6572.639
863.062; 2768.441;  -10.512; 6387.297
863.625; 2924.623;  -11.232; 6190.836
864.188; 3076.227;  -14.112; 5807.254
864.751; 3132.124;  -11.302; 5682.413
865.314; 3018.700;  -10.112; 5547.492
865.876; 2835.313;  -12.182; 5500.150
866.439; 2839.296;  -10.722; 5415.909
867.002; 2781.219;   -9.252; 5501.567
867.564; 2560.184;   -9.572; 5413.946
868.127; 2328.668;  -13.142; 5160.325
868.689; 2223.842;  -12.902; 5133.183
869.252; 2120.727;   -9.732; 5252.382
869.814; 2031.089;   -9.432; 5297.141
870.377; 2061.536;  -11.552; 5390.919
870.939; 2145.500;   -9.052; 5599.898
871.501; 2199.222;  -10.982; 5248.336
872.063; 2188.973;  -12.292; 4854.235
872.626; 2149.208;  -14.912; 4817.074
873.188; 2185.668;  -13.112; 4987.732
873.750; 2158.719;  -13.442; 4868.651
874.312; 2071.068;   -9.402; 4779.330
874.874; 1977.251;  -11.062; 4866.348
875.436; 1886.943;  -13.931; 4718.887
875.998; 1879.044;   -9.561; 4660.005
876.560; 1896.347;  -11.321; 4462.964
877.122; 1840.338;  -12.221; 4145.042
877.683; 1756.649;  -12.191; 4056.481
878.245; 1688.965;  -12.101; 3950.740
878.807; 1726.734;   -8.971; 4058.958
879.369; 1745.443;  -12.071; 3954.677
879.930; 1655.334;  -14.621; 3941.495
880.492; 1599.549;  -10.311; 4067.014
881.053; 1552.383;  -10.901; 3859.633
881.615; 1432.202;  -14.411; 3776.071
882.176; 1343.104;  -13.761; 3734.750
882.738; 1300.856;   -9.181; 3678.489
883.299; 1279.112;  -11.791; 3405.407
883.860; 1289.069;  -13.121; 3351.106
884.422; 1288.828;  -11.211; 3394.044
884.983; 1238.479;  -10.091; 3166.443
885.544; 1156.867;   -8.461; 3189.802
886.105; 1079.897;  -12.361; 3160.360
886.666; 1016.761;  -14.141; 3093.059
887.227;  964.410;  -11.361; 2941.957
887.788;  903.571;  -11.401; 2974.836
888.349;  842.495;  -13.791; 2721.214
888.910;  844.082;  -13.191; 2696.493
889.471;  848.900;   -9.881; 2560.172
890.032;  828.387;   -9.881; 2558.190
890.593;  804.323;  -10.371; 2567.669
891.153;  778.889;  -13.301; 2460.307
891.714;  730.567;  -11.431; 2372.046
892.275;  689.777;  -11.291; 2309.505
892.835;  647.062;  -11.471; 2382.543
893.396;  590.737;  -11.541; 2295.502
893.956;  536.092;  -11.181; 2162.420
894.517;  503.726;  -11.741; 2125.439
895.077;  502.455;  -11.671; 2086.978
895.638;  504.219;  -11.311; 2126.316
896.198;  475.486;   -9.831; 1838.275
896.758;  433.406;   -8.421; 1892.813
897.319;  405.507;  -12.351; 1792.232
897.879;  389.285;  -13.511; 1762.751
898.439;  364.147;  -12.001; 1661.149
898.999;  340.532;  -10.180; 1781.468
899.559;  331.632;  -12.030; 1703.347
900.119;  328.176;  -15.710; 1537.525
900.679;  322.761;   -8.900; 1638.384
901.239;  308.234;   -8.340; 1527.902
901.799;  297.905;  -13.910; 1456.441
902.359;  293.771;  -13.460; 1357.140
902.919;  286.849;  -11.490; 1331.118
903.479;  273.809;  -12.110; 1317.257
904.038;  254.405;  -11.720; 1262.595
904.598;  240.316;  -13.610; 1152.034
905.158;  237.007;  -11.040; 1240.893
905.717;  230.025;  -10.900; 1233.691
906.277;  218.081;  -15.080; 1217.330
906.836;  208.877;  -13.380; 1222.408
907.396;  200.882;  -10.780; 1193.047
907.955;  194.189;   -8.500; 1182.526
908.515;  188.004;  -12.760; 1099.364
909.074;  182.838;  -11.900; 1092.863
909.633;  177.730;   -8.950; 1069.121
910.192;  172.663;   -8.770; 1196.460
910.752;  166.721;  -12.390; 1029.960
911.311;  164.091;  -13.680; 1009.780
911.870;  161.571;  -12.370;  971.460
912.429;  163.653;  -10.900; 1094.080
912.988;  162.531;  -11.690; 1081.060
913.547;  156.810;  -13.240;  940.380
914.106;  152.342;  -11.990;  999.420
914.665;  149.167;   -9.990;  984.020
915.224;  149.162;  -12.880; 1035.760
915.782;  149.214;  -12.350;  922.560
916.341;  148.458;   -9.110; 1049.840
916.900;  145.367;   -9.270;  925.260
917.458;  142.484;  -13.240;  884.220
918.017;  142.810;  -13.550;  942.600
918.576;  141.927;  -12.320;  904.440
919.134;  139.674;  -11.490;  837.980
919.693;  137.535;  -13.670;  893.060
920.251;  136.191;  -15.470;  876.500
920.809;  134.776;  -11.290;  839.580
921.368;  135.471;  -10.210;  885.360
921.926;  134.077;  -12.140;  842.940
922.484;  133.187;  -13.080;  903.360
923.042;  133.008;  -11.720;  880.340
923.601;  134.699;   -7.480;  998.680
924.159;  133.509;  -11.570;  935.560
924.717;  130.069;  -13.840;  841.080
925.275;  130.137;  -10.640;  903.240
925.833;  130.148;  -11.540;  779.320
926.391;  131.086;  -12.960;  938.380
926.949;  128.903;  -14.130;  857.680
927.506;  129.025;  -11.750;  903.500
928.064;  129.497;  -10.250;  877.580
928.622;  128.470;  -13.030;  880.100
929.180;  129.562;  -13.400;  814.180
929.737;  128.799;  -10.700;  808.540
930.295;  133.533;  -10.070;  928.480
930.853;  134.359;  -11.960;  849.100
931.410;  135.263;  -13.120;  821.120
931.968;  135.160;  -10.770;  940.660
932.525;  133.941;  -10.680;  909.380
933.082;  134.725;  -13.130;  811.440
933.640;  136.167;  -13.210;  925.900
934.197;  134.293;  -11.060;  886.360
934.754;  135.152;   -9.580;  897.780
935.312;  137.654;  -14.000;  863.340
935.869;  142.339;  -10.710; 1012.980
936.426;  142.379;   -9.860;  872.800
936.983;  144.058;   -9.710;  889.020
937.540;  142.121;  -13.990;  838.280
938.097;  141.358;  -14.040;  940.120
938.654;  140.848;  -10.310;  898.860
939.211;  143.217;  -10.560;  952.480
939.768;  147.620;  -13.900;  915.420
940.324;  150.812;  -14.760;  904.200
940.881;  151.842;  -10.370;  878.500
941.438;  151.288;   -8.260; 1021.200
941.995;  148.561;  -12.540;  992.560
942.551;  145.444;  -14.670;  875.620
943.108;  146.288;  -10.450;  937.920
943.664;  148.489;  -10.750;  869.340
944.221;  151.856;  -11.550; 1088.140
944.777;  150.305;  -14.770;  869.680
945.334;  151.135;  -12.820;  884.840
945.890;  152.094;  -10.130;  946.480
946.446;  151.649;  -13.470;  947.020
947.003;  153.018;  -12.120;  964.940
947.559;  155.904;   -9.980; 1063.040
948.115;  155.305;   -9.080; 1026.540
948.671;  154.510;  -10.830;  967.300
949.227;  151.503;  -12.440;  859.560
949.783;  149.649;  -12.910;  858.900
950.339;  150.474;  -10.270;  991.000
950.895;  150.555;  -13.630; 1023.840
951.451;  150.219;  -15.100;  925.280
952.007;  150.201;  -11.330;  998.540
952.563;  150.633;  -10.580;  937.780
953.118;  149.182;  -13.440;  904.940
953.674;  149.107;  -12.710;  935.780
954.230;  148.114;  -10.350;  949.640
954.785;  145.763;   -9.190;  936.640
955.341;  144.471;  -11.200;  998.160
955.897;  142.855;  -16.560;  834.660
956.452;  143.123;  -12.570;  953.840
957.008;  142.152;   -7.970; 1083.640
957.563;  140.271;  -11.940; 1009.540
958.118;  136.913;  -13.450;  877.700
958.674;  137.417;  -12.030;  946.780
959.229;  138.048;   -9.410; 1013.980
959.784;  137.127;  -12.000;  832.400
960.339;  135.527;  -14.780; 1001.280
960.894;  131.381;   -9.860;  963.760
961.449;  127.264;   -9.970;  859.960
962.004;  127.123;  -10.900; 1212.840
962.559;  122.855;  -13.150;  860.140
963.114;  120.353;  -13.740;  742.480
963.669;  119.437;   -9.820;  915.500
964.224;  117.390;  -13.890;  874.340
964.779;  117.565;  -12.600;  828.420
965.334;  118.242;  -10.950; 1017.860
965.888;  116.603;  -11.170;  875.360
966.443;  119.038;  -12.540;  972.380
966.998;  118.758;  -15.780;  819.460
967.552;  118.503;   -9.760;  908.380
968.107;  114.606;   -9.060;  868.300
968.661;  115.339;  -11.950;  922.440
969.216;  116.696;  -12.800;  856.280
969.770;  117.009;  -11.210;  917.200
970.324;  115.679;  -11.610;  923.140
970.879;  112.538;  -11.370;  947.180
971.433;  109.400;  -12.540;  952.720
971.987;  104.071;  -11.320;  895.340
972.541;  101.353;  -10.720;  917.100
973.095;  100.582;   -9.680; 1009.460
973.649;   99.826;  -11.440;  809.480
974.203;   98.623;  -11.210;  829.040
974.757;   97.963;  -10.240;  855.220
975.311;   98.514;  -13.720;  872.600
975.865;   98.121;  -13.770;  881.820
976.419;   96.056;  -11.690;  857.400
976.973;   95.853;   -9.510;  849.620
977.526;   97.818;  -12.620;  949.920
978.080;   97.640;  -12.010;  796.780
978.634;   98.020;  -10.170;  921.320
979.187;   94.567;   -9.020;  905.400
979.741;   93.203;   -9.820; 1018.380
980.294;   88.445;  -14.870;  789.160
980.848;   86.722;  -12.380;  717.220
981.401;   88.408;  -10.350;  816.540
981.955;   90.568;  -13.720;  844.300
982.508;   90.209;  -11.490;  746.340
983.061;   90.115;  -10.000;  915.260
983.615;   85.906;  -11.480;  798.800
984.168;   83.119;  -13.220;  770.080
984.721;   82.804;  -13.960;  880.760
985.274;   82.617;  -10.870;  867.500
985.827;   80.316;   -9.790;  834.220
986.380;   78.319;  -13.120;  721.340
986.933;   78.004;  -12.450;  864.800
987.486;   76.451;  -10.210;  861.920
988.039;   74.929;   -8.430;  863.100
988.591;   72.660;  -10.520;  893.260
989.144;   70.882;  -14.860;  737.260
989.697;   69.832;  -13.080;  758.740
990.250;   70.395;  -10.150;  858.100
990.802;   69.652;  -13.430;  755.860
991.355;   71.360;  -12.750;  974.880
991.907;   68.602;  -12.040;  864.320
992.460;   65.844;  -11.330;  753.760
993.012;   64.924;  -13.610;  749.540
993.565;   64.468;  -13.460;  711.360
994.117;   65.742;   -9.360;  950.780
994.669;   61.250;  -11.300;  701.320
995.221;   60.934;  -13.540;  791.920
995.774;   59.207;  -13.430;  787.580
996.326;   57.665;  -12.520;  740.220
996.878;   57.484;  -10.950;  838.420
997.430;   54.856;  -14.300;  699.860
997.982;   54.508;  -13.760;  750.140
998.534;   54.218;  -11.530;  739.060
999.086;   52.672;  -10.310;  738.220
999.638;   50.964;  -12.530;  661.380
1000.190;   51.359;  -11.840;  699.320
1000.741;   50.651;  -10.260;  742.700
1001.293;   50.008;   -8.860;  686.020
1001.845;   47.880;  -13.700;  676.640
1002.396;   48.824;  -12.100;  743.400
1002.948;   48.243;  -12.760;  737.400
1003.500;   46.689;  -10.380;  723.780
1004.051;   46.970;  -11.900;  907.580
1004.603;   45.787;  -12.250;  791.820
1005.154;   42.161;  -13.210;  608.980
1005.705;   41.789;  -10.950;  723.960
1006.257;   40.461;  -13.880;  707.220
1006.808;   40.155;  -12.840;  685.460
1007.359;   39.925;  -10.570;  763.240
1007.910;   38.912;   -9.620;  646.640
1008.461;   38.408;  -13.630;  732.940
1009.013;   38.003;  -17.200;  588.340
1009.564;   38.770;  -10.200;  793.520
1010.115;   35.940;  -12.570;  597.040
1010.665;   35.883;  -15.150;  602.160
1011.216;   36.373;  -14.480;  667.920
1011.767;   35.847;  -11.340;  697.920
1012.318;   35.470;   -9.780;  736.980
1012.869;   34.466;  -12.380;  679.000
1013.419;   34.357;  -15.560;  603.120
1013.970;   34.426;  -11.010;  666.640
1014.521;   32.764;  -11.610;  620.620
1015.071;   33.830;  -13.450;  670.380
1015.622;   33.520;  -13.870;  635.460
1016.172;   33.771;  -11.610;  596.820
1016.723;   32.491;  -12.120;  614.380
1017.273;   31.951;  -13.620;  604.160
1017.823;   32.998;  -14.140;  650.340
1018.374;   31.949;  -12.800;  611.760
1018.924;   31.863;  -12.340;  716.880
1019.474;   31.905;  -11.410;  718.880
1020.024;   30.874;  -14.770;  657.580
1020.574;   32.404;   -9.780;  726.160
1021.124;   31.649;   -8.560;  673.580
1021.674;   29.393;  -15.190;  559.120
1022.224;   31.951;  -13.530;  708.940
1022.774;   30.923;  -13.280;  668.820
1023.324;   31.494;  -10.690;  753.520
1023.874;   32.394;  -10.240;  875.760
1024.423;   29.740;  -12.540;  613.700
1024.973;   29.948;  -10.010;  610.760
1025.523;   29.503;  -10.550;  620.960
1026.072;   28.407;  -13.560;  606.420
1026.622;   29.325;  -15.120;  675.740
1027.172;   29.548;  -11.260;  715.660
1027.721;   29.029;  -11.410;  601.220
1028.270;   28.744;  -13.530;  663.400
1028.820;   27.990;  -13.680;  638.080
1029.369;   28.342;  -13.520;  612.700
1029.918;   28.026;  -10.980;  649.840
1030.468;   27.675;  -13.530;  564.780
1031.017;   27.805;  -13.170;  634.800
1031.566;   26.642;  -12.200;  608.900
1032.115;   26.648;   -9.960;  694.500
1032.664;   25.626;  -13.210;  596.480
1033.213;   27.125;  -12.500;  735.420
1033.762;   26.372;  -11.910;  635.620
1034.311;   26.326;   -9.640;  677.220
1034.860;   26.567;  -13.310;  691.000
1035.408;   26.614;  -11.830;  722.720
1035.957;   27.368;  -12.000;  719.540
1036.506;   24.278;  -11.690;  530.800
1037.055;   27.051;  -10.990;  844.320
1037.603;   25.608;  -15.120;  664.000
1038.152;   24.468;  -12.450;  534.760
1038.700;   24.530;  -10.560;  585.740
1039.249;   23.910;  -11.080;  681.220
1039.797;   25.233;  -12.540;  633.360
1040.345;   25.068;  -11.920;  705.420
1040.894;   24.505;  -11.410;  625.300
1041.442;   23.866;  -14.320;  632.200
1041.990;   23.341;  -16.240;  559.160
1042.538;   23.016;  -11.680;  536.180
1043.087;   23.016;  -10.760;  570.860
1043.635;   23.487;  -11.850;  670.500
1044.183;   23.560;  -15.480;  586.400
1044.731;   22.720;  -11.770;  576.000
1045.279;   22.032;  -13.090;  674.920
1045.827;   23.795;  -12.440;  892.400
1046.374;   21.413;  -13.840;  515.420
1046.922;   20.805;  -13.220;  590.580
1047.470;   23.009;  -10.230;  691.300
1048.018;   22.113;  -14.590;  647.960
1048.565;   23.544;  -12.050;  708.600
1049.113;   21.564;  -11.650;  557.000
1049.660;   21.307;  -10.510;  629.660
1050.208;   21.845;  -13.310;  675.640
1050.755;   21.078;  -15.900;  606.580
1051.303;   21.725;  -11.430;  686.820
1051.850;   20.588;   -8.480;  635.120
1052.397;   18.639;  -15.010;  473.960
1052.945;   19.894;  -13.960;  617.760
1053.492;   21.392;  -13.150;  741.840
1054.039;   21.050;   -9.630;  720.180
1054.586;   19.978;  -13.680;  557.240
1055.133;   21.435;  -14.570;  693.140
1055.680;   20.129;  -13.820;  646.620
1056.227;   19.267;  -11.730;  542.780
1056.774;   20.807;  -12.480;  794.980
1057.321;   19.424;  -13.930;  523.260
1057.868;   19.612;  -11.690;  651.320
1058.415;   18.842;   -9.520;  651.980
1058.961;   19.472;  -13.160;  678.940
1059.508;   19.181;  -12.920;  643.820
1060.055;   19.479;  -11.920;  581.780
1060.601;   18.894;  -11.500;  624.300
1061.148;   18.854;  -14.330;  616.820
1061.694;   18.067;  -16.870;  592.580
1062.241;   18.750;  -10.330;  596.320
1062.787;   17.649;  -10.620;  663.140
1063.334;   19.627;  -10.110;  808.560
1063.880;   18.804;  -13.400;  668.360
1064.426;   18.684;  -10.680;  706.820
1064.972;   16.590;   -9.920;  601.340
1065.518;   15.805;  -10.980;  566.640
1066.065;   17.874;  -14.890;  624.460
1066.611;   17.307;  -12.870;  598.800
1067.157;   17.376;  -12.950;  641.860
1067.703;   16.842;  -13.540;  668.480
1068.249;   17.454;  -13.540;  605.220
1068.794;   17.043;  -12.600;  626.880
1069.340;   15.702;  -10.620;  578.960
1069.886;   16.482;  -12.830;  590.700
1070.432;   15.366;  -14.870;  541.720
1070.977;   15.657;  -11.980;  601.080
1071.523;   15.392;   -8.200;  573.060
1072.068;   15.510;  -12.330;  582.000
1072.614;   16.415;  -16.370;  527.760
1073.160;   16.352;  -11.100;  687.040
1073.705;   15.129;  -10.480;  572.520
1074.250;   14.833;  -14.520;  559.900
1074.796;   16.318;  -11.460;  655.160
1075.341;   16.595;  -11.950;  664.100
1075.886;   14.879;  -11.460;  594.240
1076.431;   14.636;  -13.770;  649.880
1076.976;   14.682;  -12.680;  639.220
1077.521;   14.612;  -13.170;  583.080
1078.067;   14.197;  -10.860;  579.400
1078.612;   14.564;  -13.920;  661.620
1079.156;   15.128;  -13.880;  601.540
1079.701;   15.055;  -13.120;  693.260
1080.246;   14.992;   -9.940;  696.300
1080.791;   14.140;  -14.740;  625.020
1081.336;   14.043;  -13.750;  659.320
1081.880;   14.293;  -13.400;  649.680
1082.425;   13.330;  -12.220;  573.480
1082.970;   14.238;  -11.610;  717.040
1083.514;   13.993;  -13.580;  597.000
1084.059;   12.949;  -12.810;  586.720
1084.603;   12.103;  -12.320;  565.840
1085.147;   12.547;  -13.190;  645.220
1085.692;   14.482;  -12.480;  716.800
1086.236;   12.297;  -13.020;  503.140
1086.780;   13.971;   -9.190;  751.440
1087.325;   12.833;  -12.480;  654.620
1087.869;   13.047;  -12.450;  610.700
1088.413;   13.029;  -12.240;  705.040
1088.957;   11.568;   -9.020;  543.400
1089.501;   12.706;  -10.320;  766.640
1090.045;   12.482;  -12.720;  726.480
1090.589;   10.903;  -13.690;  569.920
1091.133;   11.663;  -10.020;  673.340
1091.676;   11.811;  -12.330;  591.940
1092.220;   11.903;  -14.970;  600.920
1092.764;   13.001;  -12.430;  706.960
1093.307;   11.759;   -9.800;  673.780
1093.851;   10.196;  -14.970;  556.540
1094.395;   11.455;  -15.310;  683.140
1094.938;   11.078;  -10.370;  632.520
1095.482;   10.539;  -11.050;  559.800
1096.025;   11.332;  -11.840;  710.880
1096.568;   12.482;  -12.840;  779.280
1097.112;    8.857;  -14.700;  508.180
1097.655;   10.724;   -8.720;  603.000
1098.198;    8.967;  -13.610;  600.180
1098.741;    9.621;  -13.350;  612.860
1099.285;   10.736;  -11.230;  657.300
1099.828;    8.673;  -11.840;  439.400
1100.371;    9.377;  -10.840;  608.160
1100.914;    9.782;  -14.190;  682.660
1101.457;    9.988;  -11.240;  679.900
1101.999;    8.442;  -11.270;  584.680
1102.542;    8.756;  -11.480;  641.440
1103.085;    9.456;  -11.750;  658.500
1103.628;    9.830;  -11.400;  762.060
1104.170;    8.669;  -10.490;  588.280
1104.713;    9.191;  -10.600;  646.700
1105.256;    8.523;  -14.360;  557.440
1105.798;    7.606;  -13.210;  499.980
1106.341;    9.801;  -10.270;  728.900
1106.883;    8.352;  -12.200;  521.340
1107.425;    8.380;  -13.110;  668.180
1107.968;    8.564;  -12.840;  612.380
1108.510;    7.939;   -6.480;  684.960
1109.052;    6.927;  -13.940;  612.620
1109.594;    7.413;  -13.690;  554.440
1110.136;    8.640;  -11.880;  643.220
1110.679;    7.317;   -9.500;  633.080
1111.221;    7.991;  -14.160;  604.460
1111.763;    7.127;  -13.980;  559.220
1112.304;    7.447;  -13.880;  547.140
1112.846;    7.047;  -12.210;  666.240
1113.388;    9.566;  -11.390;  942.180
1113.930;    7.446;  -14.540;  694.200
1114.472;    6.223;  -12.640;  606.540
1115.013;    6.363;  -11.620;  551.280
1115.555;    5.633;  -13.640;  587.100
1116.097;    6.256;  -15.380;  579.480
1116.638;    7.468;  -12.640;  684.600
1117.180;    7.078;   -9.850;  667.740
1117.721;    6.394;  -13.690;  568.580
1118.262;    6.879;  -12.680;  677.960
1118.804;    7.342;  -12.530;  637.340
1119.345;    5.419;  -11.690;  578.400
1119.886;    6.120;  -13.380;  704.040
1120.427;    6.236;  -14.070;  589.020
1120.969;    5.898;  -13.500;  597.920
1121.510;    4.850;  -11.480;  563.060
1122.051;    5.288;  -12.830;  723.580
1122.592;    4.901;  -14.290;  655.420
1123.133;    4.875;  -12.400;  547.940
1123.673;    6.118;  -10.130;  706.480
1124.214;    4.327;  -12.930;  612.460
1124.755;    5.979;  -14.380;  639.460
1125.296;    5.570;  -14.000;  627.320
1125.836;    5.922;  -10.070;  691.500
1126.377;    4.261;  -12.640;  599.660
1126.918;    5.376;  -12.960;  614.980
1127.458;    4.384;  -13.350;  622.220
1127.999;    4.846;  -10.750;  656.980
1128.539;    5.012;  -12.350;  694.240
1129.079;    4.706;  -14.860;  632.720
1129.620;    4.205;  -13.840;  558.100
1130.160;    3.598;  -12.330;  539.480
1130.700;    5.079;  -14.530;  640.840
1131.240;    5.164;  -12.530;  643.700
1131.781;    4.024;  -14.450;  619.680
1132.321;    3.653;   -9.790;  599.120
1132.861;    2.296;  -14.860;  564.200
1133.401;    2.985;  -14.290;  593.940
1133.941;    3.543;  -11.750;  626.280
1134.481;    2.830;   -9.920;  597.580
1135.020;    2.902;  -12.290;  609.160
1135.560;    3.725;  -11.650;  674.940
1136.100;    2.873;  -16.270;  501.160
1136.640;    2.917;  -10.890;  510.480
1137.179;    2.093;  -14.180;  537.960
1137.719;    3.288;  -16.250;  605.400
1138.258;    3.181;  -14.230;  587.360
1138.798;    3.343;   -9.090;  663.780
1139.337;    1.593;  -15.130;  482.840
1139.877;    3.268;  -13.680;  642.360
1140.416;    4.909;  -11.320;  878.060
1140.955;    1.517;  -10.860;  535.380
1141.494;    2.708;  -12.920;  669.280
1142.034;    2.723;  -13.930;  583.520
1142.573;    3.310;  -11.440;  646.280
1143.112;    1.756;  -12.000;  553.480
1143.651;    2.221;  -13.670;  536.480
1144.190;    3.199;  -12.730;  691.640
1144.729;    2.439;  -14.560;  607.420
1145.267;    2.222;  -11.830;  584.900
1145.806;    2.679;  -12.230;  637.040
1146.345;    1.671;  -14.130;  635.020
1146.884;    2.060;  -11.590;  622.500
1147.422;    1.861;  -12.550;  533.060
1147.961;    2.974;  -11.180;  708.460
1148.500;    2.828;  -11.510;  669.720
1149.038;    3.011;  -11.640;  632.500
1149.577;    1.822;  -10.130;  698.640
1150.115;   -1.019;  -13.970;  452.280
1150.653;    1.297;  -14.520;  607.340
1151.192;    1.562;  -12.810;  552.920
1151.730;    1.520;   -9.100;  652.560
1152.268;    0.921;  -12.220;  589.520
1152.806;    1.119;  -14.140;  571.180
1153.344;   -0.121;  -12.350;  577.640
1153.882;    0.743;   -8.980;  600.060
1154.421;    0.208;  -15.190;  470.620
1154.958;    0.529;  -15.210;  595.240
1155.496;    1.527;  -12.850;  645.280
1156.034;    0.326;   -9.940;  721.880
1156.572;    1.346;  -13.570;  667.060
1157.110;   -0.116;  -14.590;  473.940
1157.647;    1.123;  -13.030;  676.960
1158.185;   -0.281;  -12.140;  564.320
1158.723;   -1.787;  -14.390;  509.200
1159.260;    0.515;  -14.090;  701.700
1159.798;    0.660;  -11.920;  658.160
1160.335;   -0.195;  -11.110;  631.820

