
Integration time [ms]:   3.276
Averaging Nr. [scans]: 1000
Smoothing Nr. [pixels]: 0
Data measured with spectrometer [name]: 7414430SP
Wave   ;Sample   ;Dark     ;Reference
[nm]   ;[counts] ;[counts] ;[counts] 

288.544;  150.848;    7.793;  793.890
289.143;  155.357;    7.462;  681.602
289.742;  154.418;    8.602;  828.814
290.341;  140.222;    1.321;  789.841
290.940;  130.590;   -0.709;  730.702
291.538;  130.586;    0.881;  881.108
292.137;  130.864;    0.122;  792.581
292.736;  134.897;   -1.929;  975.101
293.335;  131.648;   -8.229;  735.086
293.934;  132.634;   -5.279;  781.677
294.532;  130.635;   -1.369; 1031.958
295.131;  115.963;   -7.641;  834.394
295.730;  116.615;   -8.420;  809.588
296.328;  115.606;   -5.611;  783.442
296.927;  114.796;   -5.781;  779.652
297.525;  116.757;   -6.361;  781.236
298.124;  107.090;  -11.382;  654.009
298.722;  111.912;   -7.641;  761.933
299.321;  108.553;   -6.811;  708.597
299.919;  106.642;   -6.991;  751.918
300.518;  104.342;  -10.362;  689.338
301.116;  106.149;   -9.581;  691.381
301.715;  104.930;   -4.891;  730.222
302.313;  103.713;   -8.801;  704.943
302.911;  100.186;   -8.522;  733.830
303.509;  105.171;   -6.171;  925.627
304.108;  102.054;   -7.311;  760.383
304.706;  102.040;   -8.321;  801.664
305.304;   96.753;  -10.222;  796.707
305.902;  102.640;   -6.021;  784.484
306.500;   97.378;   -4.971;  728.200
307.098;   95.578;   -7.061;  746.560
307.696;   94.237;   -8.801;  780.432
308.294;   94.981;   -6.411;  731.359
308.892;   96.501;   -2.901;  759.769
309.490;   92.535;   -5.041;  712.161
310.088;   91.758;   -5.002;  788.444
310.686;   96.052;   -2.041;  821.749
311.284;   90.775;   -2.351;  766.040
311.882;   87.690;   -4.422;  731.225
312.480;   86.166;   -4.192;  697.167
313.078;   87.906;   -1.172;  808.331
313.675;   87.679;   -2.601;  691.600
314.273;   82.810;   -1.312;  797.837
314.871;   82.300;   -3.942;  589.829
315.468;   80.935;   -2.802;  652.090
316.066;   82.828;   -0.701;  694.427
316.664;   76.083;   -4.362;  656.351
317.261;   80.589;   -2.872;  910.128
317.859;   75.882;   -2.022;  768.735
318.456;   75.849;   -0.531;  830.096
319.054;   70.761;   -3.912;  787.828
319.651;   71.806;   -4.752;  759.928
320.249;   70.057;   -2.602;  810.188
320.846;   67.854;   -0.821;  714.286
321.443;   65.283;   -4.642;  832.135
322.041;   62.593;   -5.002;  812.315
322.638;   60.577;   -3.982;  701.456
323.235;   60.649;   -3.411;  665.683
323.833;   58.031;   -7.361;  740.354
324.430;   54.044;   -8.611;  615.900
325.027;   54.437;   -4.061;  876.855
325.624;   54.062;   -4.031;  644.532
326.221;   50.818;   -7.481;  689.717
326.818;   51.365;   -5.281;  818.332
327.415;   54.527;   -7.460;  748.828
328.012;   53.753;   -5.510;  690.585
328.609;   52.574;   -7.880;  731.389
329.206;   50.406;   -8.331;  778.621
329.803;   50.500;   -5.121;  737.841
330.400;   53.044;   -4.510;  704.260
330.997;   54.556;   -6.441;  817.147
331.594;   53.333;   -8.831;  788.185
332.191;   57.900;   -7.621;  728.722
332.787;   60.341;   -4.591;  844.463
333.384;   59.547;   -7.412;  763.093
333.981;   59.188;   -8.293;  815.687
334.578;   61.538;   -7.052;  708.378
335.174;   63.588;   -3.102;  731.469
335.771;   63.207;   -5.943;  836.456
336.367;   60.066;   -7.393;  710.631
336.964;   64.960;   -4.063;  793.266
337.561;   61.658;   -3.813;  731.112
338.157;   57.976;   -4.654;  911.916
338.754;   55.501;   -7.934;  796.589
339.350;   52.953;   -4.414;  722.493
339.946;   55.110;   -4.664;  773.135
340.543;   46.369;   -6.375;  846.136
341.139;   42.493;   -9.815;  720.836
341.735;   40.168;   -4.526;  772.593
342.332;   38.408;   -4.895;  691.472
342.928;   38.788;   -4.295;  795.394
343.524;   33.322;   -5.476;  761.684
344.120;   29.385;   -5.856;  738.562
344.716;   32.526;   -2.155;  723.717
345.313;   29.947;   -6.275;  795.342
345.909;   24.485;   -8.815;  627.336
346.505;   27.166;   -5.305;  740.247
347.101;   26.786;   -2.674;  827.864
347.697;   27.332;   -4.344;  785.398
348.293;   21.458;   -9.975;  627.244
348.889;   23.740;   -5.774;  745.914
349.485;   21.815;   -5.004;  688.205
350.081;   23.200;   -4.704;  772.592
350.676;   19.005;   -6.635;  691.606
351.272;   23.082;   -4.504;  809.530
351.868;   21.976;   -3.914;  780.497
352.464;   19.513;   -9.044;  723.932
353.059;   16.302;   -8.314;  646.017
353.655;   19.909;   -7.024;  777.063
354.251;   19.779;   -5.343;  759.845
354.846;   13.708;   -8.604;  740.646
355.442;   12.282;   -6.945;  753.071
356.038;   14.691;   -7.564;  751.708
356.633;   14.174;   -5.814;  728.594
357.229;   11.407;   -7.364;  724.757
357.824;   10.897;   -8.024;  703.600
358.420;   10.267;   -9.384;  679.726
359.015;    9.762;   -5.104;  695.357
359.610;   10.454;   -6.854;  763.920
360.206;    5.249;  -10.185;  603.240
360.801;    8.248;   -7.054;  646.503
361.396;   10.107;   -5.034;  725.975
361.992;    5.235;   -8.284;  668.220
362.587;    3.220;   -8.625;  670.160
363.182;    5.087;   -7.674;  689.631
363.777;    5.630;   -5.164;  738.242
364.372;    5.401;   -8.604;  737.314
364.967;    1.930;   -9.055;  680.744
365.563;    6.661;   -6.114;  815.567
366.158;    2.948;   -5.814;  685.161
366.753;    3.214;   -7.854;  649.263
367.348;    1.947;   -7.804;  746.056
367.942;    1.649;   -7.954;  697.298
368.537;    0.693;   -4.984;  754.245
369.132;    1.460;   -8.564;  703.428
369.727;   -2.696;   -8.855;  638.079
370.322;   -1.646;   -6.245;  580.186
370.917;   -2.390;   -6.425;  710.646
371.511;    0.518;   -6.294;  861.834
372.106;   -3.132;   -7.685;  776.964
372.701;   -5.014;   -7.335;  585.988
373.296;   -0.368;   -4.564;  863.135
373.890;   -5.091;  -10.235;  647.840
374.485;   -7.325;   -7.885;  691.199
375.079;   -2.554;   -7.324;  738.685
375.674;   -1.223;   -3.494;  812.970
376.268;   -6.675;   -8.525;  691.759
376.863;  -11.113;  -10.086;  580.327
377.457;   -4.785;   -7.025;  662.490
378.052;   -8.352;   -3.585;  764.884
378.646;   -8.234;   -7.595;  741.167
379.240;   -8.077;   -8.335;  721.176
379.835;   -6.981;   -5.785;  636.978
380.429;   -9.670;   -4.335;  562.557
381.023;   -9.848;   -6.805;  779.205
381.617;  -11.794;   -9.195;  680.106
382.212;   -8.518;   -6.905;  685.303
382.806;   -7.962;   -3.745;  760.690
383.400;  -12.382;   -7.745;  672.281
383.994;  -13.649;   -9.765;  664.870
384.588;   -8.629;   -6.564;  697.701
385.182;   -8.457;   -5.344;  726.624
385.776;  -10.026;   -8.514;  706.875
386.370;  -12.956;   -9.555;  681.968
386.964;  -11.584;   -8.715;  684.155
387.558;   -9.545;   -6.174;  598.360
388.152;  -13.464;   -8.725;  681.959
388.745;  -10.816;   -7.965;  814.707
389.339;   -9.446;   -5.924;  747.642
389.933;   -9.045;   -5.524;  695.370
390.527;  -10.280;   -7.114;  859.029
391.120;  -16.065;  -10.725;  595.318
391.714;  -12.791;   -8.035;  711.633
392.308;  -10.534;   -3.574;  780.253
392.901;  -14.174;   -7.245;  642.460
393.495;  -15.101;   -9.285;  595.414
394.089;  -13.231;   -5.895;  760.452
394.682;  -13.504;   -4.295;  697.188
395.275;  -14.566;   -9.875;  719.927
395.869;  -15.901;   -8.485;  667.314
396.462;  -13.926;   -7.455;  616.609
397.056;  -10.831;   -5.424;  776.621
397.649;  -14.761;   -6.605;  731.575
398.242;  -12.510;   -8.224;  712.645
398.836;  -11.390;   -7.474;  766.408
399.429;  -13.281;   -7.094;  631.041
400.022;  -16.711;   -9.475;  665.902
400.615;  -13.707;   -7.145;  805.609
401.208;  -11.501;   -7.174;  691.451
401.802;  -13.794;   -5.515;  699.329
402.395;  -15.004;   -9.875;  683.502
402.988;  -16.050;   -8.845;  696.627
403.581;  -12.154;   -8.874;  646.878
404.174;  -10.890;   -5.324;  686.568
404.767;  -13.285;   -9.575;  638.583
405.360;  -15.794;  -10.965;  621.445
405.953;  -10.739;   -8.764;  759.034
406.545;  -10.450;   -7.514;  725.342
407.138;  -14.521;  -10.025;  618.350
407.731;  -13.457;  -10.034;  613.303
408.324;   -8.441;   -9.374;  660.554
408.917;  -10.090;   -6.534;  681.864
409.509;  -11.734;   -8.004;  740.396
410.102;  -13.720;   -9.875;  643.948
410.695;   -7.544;   -8.604;  665.758
411.287;   -8.938;   -6.794;  599.821
411.880;  -10.382;   -9.334;  585.421
412.472;  -12.708;  -10.254;  613.092
413.065;   -9.757;   -6.714;  629.408
413.657;   -8.830;   -7.234;  576.678
414.250;   -8.577;  -10.544;  646.681
414.842;  -10.495;   -9.744;  676.353
415.434;   -7.798;   -6.994;  570.463
416.027;   -4.748;   -5.893;  652.196
416.619;   -6.080;   -7.264;  713.400
417.211;   -6.506;  -10.374;  599.352
417.804;   -3.196;   -7.993;  628.499
418.396;   -7.399;   -7.234;  607.643
418.988;   -4.391;   -9.443;  659.238
419.580;   -7.070;  -10.724;  568.276
420.172;   -4.939;  -10.323;  536.196
420.764;   -1.517;   -8.793;  672.482
421.356;   -3.322;  -11.143;  636.898
421.948;   -2.572;   -8.293;  677.661
422.540;    1.934;   -7.893;  680.027
423.132;    0.355;   -7.082;  600.641
423.724;   -3.032;   -8.653;  561.267
424.316;   -0.529;  -10.213;  621.345
424.908;    3.471;   -9.762;  591.517
425.500;    3.769;   -5.572;  647.978
426.092;    3.976;   -8.422;  648.268
426.683;    3.490;   -9.283;  684.836
427.275;    6.244;   -7.852;  641.471
427.867;    7.336;   -5.272;  668.948
428.458;    7.241;   -7.682;  732.344
429.050;    6.556;  -10.612;  680.749
429.642;    8.965;   -9.882;  743.124
430.233;    8.816;   -6.962;  569.356
430.825;   10.376;   -6.842;  724.809
431.416;    7.457;   -9.672;  698.241
432.008;   12.044;   -6.552;  651.723
432.599;   12.112;   -6.891;  656.073
433.190;    8.714;  -10.912;  637.670
433.782;    8.445;  -11.172;  590.395
434.373;   16.044;   -6.061;  884.765
434.964;   14.009;   -8.251;  602.920
435.556;   11.700;   -9.722;  634.537
436.147;   14.476;   -9.082;  758.490
436.738;   15.818;   -8.041;  701.099
437.329;   20.185;   -7.341;  721.723
437.920;   13.494;   -8.162;  666.688
438.511;   13.428;  -11.802;  564.526
439.103;   20.401;  -10.191;  623.998
439.694;   21.676;   -7.601;  681.583
440.285;   22.689;   -8.541;  764.432
440.876;   20.580;   -9.751;  845.738
441.466;   20.499;   -9.401;  575.162
442.057;   25.243;   -7.760;  665.814
442.648;   24.134;   -9.971;  746.255
443.239;   21.857;  -11.001;  620.477
443.830;   27.398;   -7.990;  704.958
444.421;   28.577;   -7.910;  655.474
445.011;   25.480;   -8.131;  693.619
445.602;   25.361;   -7.111;  743.126
446.193;   27.687;  -10.920;  488.117
446.783;   31.359;   -6.500;  640.397
447.374;   26.854;   -8.671;  692.759
447.964;   27.928;  -10.781;  713.770
448.555;   35.886;   -9.650;  822.742
449.145;   32.218;   -8.660;  662.853
449.736;   32.808;   -8.990;  803.179
450.326;   33.345;   -9.500;  713.626
450.917;   39.113;   -8.680;  675.324
451.507;   37.268;   -7.520;  600.661
452.097;   37.876;   -8.590;  746.267
452.688;   38.707;  -11.340;  742.160
453.278;   39.864;  -10.100;  566.840
453.868;   43.607;   -6.019;  793.550
454.458;   40.777;   -9.440;  651.141
455.048;   41.559;  -10.560;  711.783
455.639;   43.890;  -11.799;  567.096
456.229;   46.354;   -6.899;  710.694
456.819;   47.785;   -7.389;  751.158
457.409;   49.148;  -11.119;  773.993
457.999;   51.667;   -9.289;  737.505
458.589;   51.055;   -6.139;  686.606
459.179;   50.849;   -8.729;  717.658
459.769;   50.159;   -9.789;  627.099
460.358;   55.313;  -10.259;  797.262
460.948;   53.812;   -7.299;  689.503
461.538;   55.034;  -10.289;  660.677
462.128;   53.844;  -11.269;  664.934
462.717;   60.989;   -9.368;  710.326
463.307;   62.956;   -7.908;  705.846
463.897;   58.411;   -9.599;  656.942
464.486;   58.936;   -9.769;  837.128
465.076;   63.980;   -8.048;  733.776
465.666;   65.755;   -9.358;  652.900
466.255;   63.649;   -7.919;  785.651
466.845;   63.390;  -11.689;  666.749
467.434;   66.450;   -7.818;  725.873
468.023;   67.457;   -7.678;  658.357
468.613;   64.442;  -10.939;  713.946
469.202;   69.732;  -10.118;  646.507
469.791;   74.559;   -9.108;  737.811
470.381;   75.028;   -6.058;  742.813
470.970;   75.289;  -10.428;  711.099
471.559;   74.936;  -10.268;  733.291
472.148;   78.156;   -8.448;  675.737
472.738;   80.845;   -6.917;  765.466
473.327;   79.700;  -11.978;  637.529
473.916;   80.140;  -11.888;  737.446
474.505;   84.425;   -9.437;  751.703
475.094;   87.017;   -6.747;  806.570
475.683;   86.815;   -9.367;  797.699
476.272;   88.299;  -12.637;  730.632
476.861;   90.704;  -10.027;  706.754
477.449;   96.451;   -8.716;  728.487
478.038;   90.906;   -9.577;  692.513
478.627;   92.918;   -9.718;  714.852
479.216;   98.966;   -8.947;  769.441
479.805;  101.893;   -6.256;  783.375
480.393;  101.680;   -7.937; 1008.945
480.982;  100.774;   -7.717;  874.501
481.571;  106.742;   -9.266;  858.333
482.159;  107.825;   -7.636;  705.386
482.748;  107.257;   -9.667;  821.385
483.336;  112.448;  -10.376;  858.209
483.925;  113.315;   -7.147;  774.373
484.513;  119.773;   -7.996;  758.962
485.102;  115.302;  -10.027;  810.965
485.690;  125.515;  -10.446; 1011.050
486.278;  126.832;   -8.446;  979.329
486.867;  127.156;   -6.356;  809.662
487.455;  129.102;   -9.136;  898.229
488.043;  129.984;  -10.646;  748.361
488.631;  139.065;   -7.456; 1005.079
489.220;  142.526;   -6.636;  908.626
489.808;  142.183;  -11.036;  741.415
490.396;  150.915;  -10.246;  914.645
490.984;  157.255;   -8.556;  830.161
491.572;  166.493;   -5.886;  940.315
492.160;  172.866;   -9.486;  919.081
492.748;  184.798;  -10.976;  884.341
493.336;  207.863;   -8.776; 1019.693
493.924;  233.161;   -5.465;  958.077
494.512;  260.491;   -9.986; 1066.638
495.100;  298.740;  -10.636; 1103.280
495.687;  354.661;  -10.885; 1206.373
496.275;  417.630;   -8.126; 1150.796
496.863;  487.529;  -10.586; 1281.171
497.451;  587.162;  -11.926; 1386.805
498.038;  725.143;  -10.885; 1556.729
498.626;  829.284;   -6.315; 1741.407
499.214;  973.839;   -7.326; 2016.609
499.801; 1175.192;  -11.906; 2220.633
500.389; 1418.624;  -10.466; 2312.494
500.976; 1725.691;   -5.236; 2744.849
501.564; 2159.308;   -8.936; 3148.565
502.151; 2528.378;  -13.176; 3515.999
502.738; 2959.062;  -10.646; 3971.274
503.326; 3338.062;   -9.525; 4403.796
503.913; 3726.501;  -10.856; 5161.749
504.500; 4097.830;  -11.586; 5986.420
505.088; 4453.437;  -10.336; 6381.201
505.675; 5009.886;   -6.355; 6925.547
506.262; 5731.075;   -9.046; 7619.060
506.849; 6463.737;  -10.416; 8733.969
507.436; 7006.682;  -10.305; 9790.121
508.023; 7593.033;   -5.496; 9985.472
508.610; 7785.679;   -7.856;10434.618
509.197; 8396.982;  -10.097;11198.435
509.784; 9806.444;  -10.886;12391.194
510.371;10887.516;   -9.315;13603.713
510.958;11531.582;   -9.936;14426.586
511.545;12237.835;   -9.326;15243.775
512.132;13219.123;  -10.075;15945.876
512.719;13901.069;   -7.796;16340.369
513.305;14968.305;  -10.606;18011.766
513.892;15621.464;  -11.486;19754.971
514.479;16743.486;   -9.126;20967.805
515.066;18104.533;   -6.026;22299.793
515.652;19560.094;   -8.466;22908.660
516.239;20897.141;  -10.886;23798.875
516.825;21964.635;  -11.496;25567.275
517.412;22950.373;   -5.796;28154.959
517.998;23623.525;  -10.506;28344.111
518.585;23492.904;  -10.076;27134.219
519.171;24031.166;   -8.315;27268.576
519.758;25856.762;   -8.596;28964.129
520.344;27822.443;   -8.466;30664.494
520.930;27567.467;  -11.006;32550.605
521.516;28819.785;  -10.495;35422.895
522.103;30778.611;   -5.526;38280.004
522.689;31470.813;   -8.746;37835.117
523.275;30949.213;  -11.376;37288.613
523.861;32069.313;  -11.156;37281.395
524.447;33492.969;   -8.135;37846.949
525.033;33183.965;   -7.896;38321.949
525.619;33465.379;  -12.476;38579.285
526.205;35124.961;   -9.516;40622.875
526.791;37624.586;   -6.926;42258.836
527.377;37266.105;   -8.346;42966.902
527.963;38477.039;   -8.717;42018.949
528.549;37446.129;  -11.016;42476.828
529.135;35910.508;   -8.536;41854.852
529.721;34797.836;   -9.666;41237.711
530.306;33902.453;  -10.066;41259.445
530.892;32990.664;  -11.356;41506.047
531.478;32665.357;   -6.596;43559.613
532.063;34731.348;   -8.836;47695.563
532.649;36097.844;  -10.047;50808.324
533.235;37307.648;   -9.746;51787.500
533.820;36993.004;   -6.566;52145.035
534.406;35922.008;  -10.817;51133.488
534.991;33003.426;   -9.416;49996.805
535.576;30139.486;   -9.036;48882.852
536.162;32728.527;   -6.156;46942.285
536.747;39189.266;  -11.607;45711.746
537.333;46573.488;  -11.787;48510.180
537.918;51742.004;  -12.437;50439.891
538.503;51372.641;   -7.196;50863.711
539.088;48027.695;  -10.556;50906.922
539.673;48052.250;   -8.767;52621.965
540.259;48264.383;  -10.026;52368.094
540.844;44993.500;   -7.416;50879.109
541.429;46256.980;   -9.467;52077.777
542.014;48834.535;   -9.527;52716.695
542.599;48258.832;   -9.946;52363.281
543.184;45240.633;   -7.927;53187.137
543.769;46167.895;   -9.297;54697.605
544.354;45918.641;  -10.127;53913.914
544.938;44463.125;   -9.267;49680.164
545.523;45997.723;   -6.506;47386.277
546.108;48525.652;   -9.787;49151.949
546.693;50854.961;  -11.587;51384.637
547.278;51297.953;  -10.986;51853.254
547.862;47908.414;   -8.206;51173.750
548.447;43282.992;  -10.067;51691.395
549.031;42638.477;   -9.637;52456.703
549.616;47259.480;   -9.926;52714.516
550.201;46669.777;   -6.347;52414.598
550.785;47766.809;   -7.917;52355.059
551.370;47168.922;  -10.867;54589.453
551.954;47208.992;   -9.047;58267.348
552.538;48076.789;   -7.827;59062.176
553.123;46634.297;  -10.287;58115.285
553.707;44742.008;  -12.178;56556.285
554.291;46090.520;   -8.717;56201.668
554.876;48927.547;   -7.457;55335.762
555.460;49250.395;  -10.387;54155.703
556.044;49481.781;   -9.618;53721.484
556.628;46902.566;  -11.567;53731.016
557.212;45475.352;   -8.097;54312.531
557.796;44529.195;  -11.077;53797.773
558.380;44485.379;  -11.108;56145.984
558.964;44327.883;   -9.057;57277.930
559.548;45310.871;   -6.977;56459.641
560.132;43813.910;  -11.457;54434.543
560.716;42575.031;  -11.378;54800.617
561.300;43920.516;   -9.577;57606.945
561.884;44760.730;   -7.127;58972.445
562.467;42749.883;   -7.118;57327.570
563.051;41976.262;  -13.358;54962.434
563.635;43378.250;  -10.178;52594.473
564.219;43908.980;   -7.837;50610.410
564.802;44339.438;  -11.398;49551.180
565.386;44153.535;  -12.788;48370.953
565.969;43767.422;   -9.077;48178.871
566.553;42950.367;   -6.207;49957.305
567.136;43649.645;   -8.568;50369.594
567.720;40054.469;  -11.868;49492.004
568.303;38103.539;   -8.268;50616.352
568.887;38383.590;   -8.698;50727.148
569.470;38956.656;   -6.808;51698.379
570.053;37979.336;  -13.188;52122.078
570.637;35636.102;  -12.037;52536.438
571.220;35155.336;   -8.577;51186.098
571.803;36086.539;   -8.498;51032.762
572.386;38596.066;  -10.498;49609.887
572.969;40908.164;   -9.388;48285.926
573.552;39055.598;   -8.338;47624.285
574.135;37627.746;   -8.518;45498.641
574.718;35079.863;  -13.628;41970.434
575.301;34214.961;  -10.893;41447.137
575.884;33350.059;   -8.158;40923.836
576.467;34690.461;  -10.328;45267.723
577.050;36415.629;  -13.058;48175.543
577.633;37406.660;   -9.458;47729.328
578.216;36466.484;   -8.928;47579.793
578.799;35670.984;   -9.358;47820.996
579.381;34539.699;  -11.388;48115.551
579.964;32783.090;  -11.718;47333.766
580.547;35153.340;   -8.588;46668.969
581.129;35948.141;   -8.859;44466.141
581.712;36289.602;  -10.729;44164.922
582.294;36610.836;  -11.118;46477.855
582.877;36834.008;   -5.218;48244.254
583.459;34891.980;   -8.679;47437.895
584.042;32919.820;  -10.709;46943.219
584.624;33172.961;  -11.669;46792.227
585.206;32812.426;   -8.218;46557.250
585.789;33306.656;  -10.569;45793.773
586.371;35645.789;  -11.859;43836.391
586.953;36255.879;  -10.719;42972.492
587.536;37076.277;   -7.198;42487.211
588.118;37052.508;   -8.720;42086.414
588.700;33400.770;  -10.439;43389.930
589.282;32588.404;   -9.198;43646.039
589.864;33662.160;   -9.199;43438.109
590.446;34741.332;  -11.319;43151.926
591.028;34523.363;  -11.159;42781.867
591.610;33325.359;  -11.779;42839.098
592.192;30765.973;   -7.668;42820.402
592.774;29627.693;  -11.949;40724.277
593.356;28625.594;  -12.129;39874.789
593.937;27577.219;  -10.669;39980.648
594.519;29910.320;   -6.509;42069.633
595.101;32091.568;  -10.849;42976.031
595.683;32124.967;  -11.679;44084.441
596.264;33114.191;   -9.049;43478.797
596.846;32706.012;   -8.849;43803.672
597.427;32312.516;   -9.570;42986.934
598.009;33553.152;  -12.620;42832.219
598.591;33664.918;  -10.039;42580.086
599.172;32939.426;  -10.369;43061.805
599.753;33031.316;   -9.140;41691.469
600.335;34433.645;  -11.430;40692.520
600.916;32970.523;   -9.939;39982.422
601.498;30928.563;   -8.479;40318.617
602.079;29420.520;  -10.920;40670.609
602.660;29331.820;  -11.480;41450.898
603.241;31104.555;  -11.699;41137.738
603.823;29903.084;   -9.579;38868.797
604.404;29426.004;  -10.620;38182.785
604.985;30907.498;  -10.450;38078.047
605.566;30587.668;   -9.129;38056.633
606.147;30574.939;   -7.510;37020.418
606.728;32247.447;  -10.660;37883.359
607.309;30915.516;  -11.740;38748.273
607.890;30693.275;   -9.759;38850.230
608.471;30338.457;   -8.250;37457.918
609.051;29593.557;   -9.240;36066.457
609.632;28318.869;  -12.120;35991.074
610.213;28770.695;   -9.110;37402.641
610.794;29420.424;   -8.030;38383.363
611.374;29231.406;   -8.110;40562.387
611.955;29886.246;  -13.560;38533.727
612.536;31093.742;  -11.400;36951.789
613.116;30886.711;   -8.070;37197.891
613.697;31215.414;  -10.830;38411.125
614.277;29562.906;  -11.641;38673.938
614.858;30447.777;  -13.310;37075.863
615.438;30000.713;   -7.460;35092.906
616.019;27678.975;   -7.601;33666.301
616.599;27821.500;  -12.020;34189.023
617.179;29433.627;  -11.780;36952.047
617.760;30459.230;   -8.570;39582.574
618.340;31147.035;  -11.471;38943.977
618.920;32154.553;  -11.170;37594.156
619.500;32186.658;  -11.071;37866.938
620.080;31454.818;   -7.750;37869.043
620.660;32573.623;  -12.711;36868.617
621.241;34310.941;  -10.211;36352.309
621.821;34763.734;  -10.961;35459.520
622.401;33553.957;   -7.720;35207.414
622.980;32560.059;   -8.981;35980.422
623.560;31109.922;   -9.331;37351.328
624.140;29828.326;   -9.850;34388.582
624.720;24805.758;   -7.451;32368.764
625.300;21382.045;   -9.070;32638.629
625.880;24836.018;  -12.601;34599.035
626.459;29057.467;  -11.751;36831.738
627.039;32124.406;   -9.281;38299.098
627.619;32022.502;   -8.801;38289.574
628.198;30539.834;  -12.071;37220.695
628.778;29469.574;   -9.461;37632.563
629.357;29968.318;   -8.491;38003.012
629.937;30295.480;   -9.721;38402.039
630.516;29804.949;   -9.951;37868.801
631.096;29399.980;  -11.731;35760.410
631.675;31878.326;   -8.572;35225.219
632.254;37158.688;  -11.282;35130.289
632.834;36775.648;  -13.322;35794.570
633.413;34865.910;  -10.301;35788.922
633.992;31904.234;   -8.582;34532.863
634.571;32307.627;   -8.352;33590.113
635.151;34882.980;  -11.912;34943.863
635.730;33722.859;  -10.511;35352.523
636.309;30831.752;   -7.731;35366.605
636.888;28520.207;   -9.952;36165.637
637.467;29190.859;  -11.672;37515.902
638.046;30444.902;   -8.901;39288.695
638.625;33205.559;   -7.912;38279.699
639.204;32896.641;  -10.022;37741.598
639.782;31772.914;  -12.252;38364.551
640.361;28020.268;  -10.041;36740.621
640.940;25225.033;  -11.161;34950.082
641.519;25900.410;   -9.701;34137.398
642.097;28942.555;  -11.271;35654.258
642.676;31704.570;   -8.651;35637.957
643.255;32681.748;   -8.711;36567.074
643.833;31785.352;   -9.581;37809.434
644.412;32141.781;  -13.711;37337.293
644.990;31497.195;  -11.811;37018.531
645.569;31497.344;   -9.411;36518.469
646.147;30633.092;  -10.291;36186.430
646.726;30365.117;  -12.401;36267.688
647.304;31056.727;  -10.411;36647.625
647.882;32530.953;   -9.651;39286.742
648.461;34346.379;   -9.631;39157.703
649.039;32790.207;  -11.881;35412.883
649.617;31775.236;   -9.661;34744.918
650.195;30855.400;   -9.301;35403.098
650.773;29406.906;  -10.511;35053.797
651.352;27325.229;  -11.521;33756.816
651.930;25251.346;  -12.211;31868.773
652.508;23845.814;   -9.171;33121.551
653.086;27675.738;   -9.371;33564.793
653.663;30460.691;  -13.161;34054.668
654.241;29145.582;  -13.031;35693.309
654.819;30534.203;   -9.371;36422.906
655.397;30497.775;  -10.511;38213.484
655.975;30292.352;  -10.371;39507.625
656.553;29796.971;  -10.051;39498.223
657.130;28092.912;  -10.061;40395.480
657.708;27620.469;   -9.561;39242.020
658.286;27830.221;  -11.511;38920.020
658.863;28955.855;  -10.261;40202.898
659.441;32252.326;   -7.531;39677.938
660.018;32184.215;   -9.501;40413.355
660.596;30931.783;  -13.301;39931.414
661.173;32495.969;  -11.211;39604.531
661.750;32813.715;   -9.951;39700.070
662.328;31756.389;   -9.390;39292.809
662.905;30833.844;  -11.330;38235.648
663.482;26475.762;   -9.050;36212.305
664.060;24752.367;   -8.240;35944.945
664.637;27720.504;  -10.050;35170.785
665.214;29085.771;  -11.760;34197.523
665.791;30410.570;  -10.530;34549.520
666.368;29460.852;   -9.690;35118.578
666.945;30183.084;   -9.320;36019.418
667.522;31683.805;  -11.860;36048.438
668.099;31652.176;  -10.770;36243.914
668.676;30453.766;   -6.260;35958.875
669.253;29064.811;   -7.000;37384.730
669.830;29296.551;  -10.190;36779.629
670.407;29257.889;   -9.550;35231.289
670.984;29395.957;   -9.260;35544.270
671.560;30071.199;   -9.280;35466.867
672.137;29158.650;  -11.810;34280.863
672.714;30096.492;  -11.490;34632.863
673.290;31075.410;   -7.740;35135.422
673.867;31233.240;  -10.660;36114.480
674.443;30772.932;  -12.230;36152.859
675.020;28810.396;  -10.450;35327.238
675.596;29773.379;   -9.260;35795.176
676.173;30320.348;  -10.780;35430.355
676.749;30091.576;  -13.690;33549.516
677.326;30070.504;  -11.980;32210.012
677.902;30030.910;   -8.630;32068.871
678.478;29509.740;  -10.730;32583.891
679.054;28831.539;  -10.520;32088.928
679.631;28935.506;  -11.920;30978.848
680.207;30182.357;   -7.490;33160.887
680.783;31749.695;   -9.860;35570.363
681.359;31006.863;  -13.380;36125.184
681.935;30852.498;  -12.480;35240.922
682.511;30525.221;   -7.900;34429.961
683.087;30935.482;   -7.710;34463.680
683.663;30240.557;  -11.480;34648.898
684.239;28636.006;  -14.090;34546.457
684.815;27985.023;   -7.560;35586.375
685.390;28088.215;   -9.910;35821.895
685.966;28469.047;  -11.159;35085.871
686.542;31033.486;  -11.169;34198.230
687.118;33402.609;   -5.959;32847.707
687.693;33885.309;  -10.329;32794.027
688.269;33537.941;  -12.059;33072.367
688.844;31706.734;  -10.909;33141.664
689.420;29609.930;   -8.019;33965.742
689.995;27574.799;   -8.399;34655.523
690.571;26016.561;  -10.949;33576.742
691.146;26278.781;   -9.619;32657.219
691.722;26271.586;   -8.999;32526.979
692.297;26104.316;  -11.589;33014.617
692.872;27701.041;  -11.739;34012.254
693.448;27309.570;  -11.059;34237.434
694.023;26318.334;  -10.139;34142.672
694.598;28336.492;   -9.029;34132.031
695.173;28984.395;  -13.319;34205.250
695.748;27927.781;  -10.169;32882.488
696.323;27664.438;   -8.339;32864.906
696.898;27978.467;   -8.169;33170.004
697.473;28207.828;  -12.309;32432.984
698.048;27662.273;  -10.989;31649.303
698.623;27550.320;   -9.329;30778.141
699.198;29180.715;   -9.849;31140.119
699.773;30377.795;  -12.329;31764.299
700.348;28978.895;  -10.389;31780.816
700.922;28737.270;   -9.269;32046.375
701.497;29606.400;   -9.329;32603.574
702.072;29962.799;  -10.789;34799.871
702.646;28615.406;  -10.839;35793.172
703.221;26597.818;   -9.099;35201.590
703.795;28437.035;  -10.939;34764.527
704.370;28872.039;  -12.859;34307.367
704.944;29111.756;  -11.559;33509.887
705.519;29728.594;   -7.939;31388.584
706.093;31134.820;  -10.499;31340.104
706.668;31430.393;  -11.289;32630.281
707.242;30388.514;  -11.509;32728.779
707.816;29136.445;   -9.639;32947.238
708.390;27419.502;  -11.429;33277.855
708.965;27969.752;  -11.869;33834.336
709.539;28475.648;  -11.689;33709.273
710.113;28631.658;  -10.478;33044.313
710.687;27884.594;  -10.228;31953.992
711.261;26182.643;  -13.698;30505.949
711.835;25956.248;  -13.378;30262.369
712.409;26545.256;   -9.698;31254.447
712.983;28526.570;  -11.898;32754.986
713.557;29753.713;  -15.138;34018.824
714.131;29613.273;  -14.098;34579.625
714.704;28639.805;   -9.958;33890.262
715.278;26067.398;  -10.028;33531.102
715.852;24976.635;  -11.148;33601.660
716.425;26247.148;   -9.068;33515.117
716.999;27246.326;  -10.038;33185.555
717.573;28061.000;   -9.798;33905.996
718.146;29159.545;  -12.378;35199.293
718.720;29069.012;  -11.918;35060.551
719.293;28762.336;   -8.088;34973.230
719.867;31808.061;  -10.888;36394.449
720.440;31552.578;  -11.938;36663.008
721.013;29718.684;  -12.818;35102.426
721.587;28143.961;  -10.298;33985.266
722.160;27062.318;  -10.048;33524.965
722.733;26074.475;  -12.108;32987.043
723.306;26328.645;  -10.818;33066.301
723.880;28555.748;   -8.908;33399.500
724.453;30573.244;   -9.878;33468.297
725.026;29732.012;  -11.188;33816.637
725.599;27061.764;  -11.678;32797.996
726.172;27296.455;   -9.618;33187.434
726.745;28403.336;   -8.258;35136.613
727.318;29750.691;  -12.978;35751.730
727.891;30309.457;  -12.148;35890.430
728.463;29738.752;   -8.968;34822.090
729.036;28398.092;  -10.188;32895.086
729.609;28763.514;  -11.788;31823.225
730.182;25896.174;  -11.788;31445.283
730.754;23560.014;  -10.268;32373.223
731.327;23980.814;   -9.998;33676.820
731.900;24547.104;  -12.228;33417.000
732.472;25416.281;  -13.848;31978.498
733.045;26708.289;   -8.698;30368.777
733.617;26676.852;  -10.607;30574.215
734.190;26783.334;  -11.507;31280.975
734.762;24383.188;  -13.647;31674.412
735.334;22802.584;   -9.767;31247.291
735.907;23432.330;   -9.897;29876.211
736.479;23576.014;  -11.637;29808.488
737.051;22989.953;   -9.567;30233.547
737.623;23517.463;   -8.187;31469.086
738.195;24131.381;  -11.187;31784.225
738.768;26450.111;  -12.337;32120.523
739.340;26998.693;  -12.227;32094.342
739.912;25785.223;  -11.057;31312.680
740.484;24312.957;  -10.207;31946.238
741.056;22842.996;  -10.047;32984.059
741.628;23989.766;  -13.627;33897.715
742.199;26122.561;   -7.177;33213.016
742.771;24928.943;  -10.797;31369.113
743.343;22800.674;  -11.997;31865.473
743.915;21932.404;  -12.867;32388.631
744.487;22111.717;   -7.617;31079.568
745.058;22244.244;   -9.557;30570.107
745.630;22903.574;   -9.877;29970.127
746.201;24019.574;  -14.177;29186.766
746.773;24443.941;   -9.237;28805.723
747.344;24114.729;   -9.847;29591.223
747.916;22429.447;  -11.657;31412.201
748.487;22704.801;  -10.587;32194.898
749.059;24152.006;   -8.707;32533.719
749.630;24968.779;  -10.537;32158.518
750.201;24175.898;  -11.687;30855.395
750.773;22386.375;  -11.647;28622.555
751.344;22083.563;   -7.147;28405.732
751.915;22942.621;   -9.757;28461.551
752.486;22852.762;  -12.427;27842.850
753.057;20801.293;  -12.227;27845.008
753.628;19608.469;  -10.417;27728.107
754.199;20631.170;  -11.767;27381.086
754.770;21804.758;  -11.187;25882.203
755.341;22080.633;  -10.507;25886.184
755.912;22036.457;   -9.387;26050.861
756.483;21317.768;  -10.647;26798.779
757.054;19473.496;  -11.837;27048.238
757.625;18123.840;  -12.716;26294.838
758.195;18092.275;   -9.666;26142.076
758.766;17797.223;   -8.656;26392.234
759.337;18349.781;  -12.856;26334.594
759.907;19987.807;  -13.366;27579.652
760.478;20952.146;   -8.576;28352.770
761.048;20265.438;  -10.526;27325.088
761.619;19301.672;  -11.116;26460.428
762.189;19420.480;  -12.136;26029.826
762.760;20633.549;   -9.456;26430.145
763.330;21778.318;   -7.136;26670.902
763.900;21244.266;  -11.786;26603.021
764.471;18725.004;  -11.546;25542.740
765.041;17350.000;   -8.096;24358.459
765.611;17194.924;   -8.876;23991.297
766.181;17465.730;  -12.196;24470.236
766.751;18596.693;  -11.636;24845.975
767.321;18422.111;  -10.156;24533.633
767.891;16310.312;  -11.766;24916.492
768.461;15700.552;  -14.936;24776.771
769.031;16236.599;  -12.356;24757.988
769.601;17874.047;   -7.526;24181.088
770.171;17849.813;  -10.766;23670.387
770.741;16996.910;  -13.176;22960.045
771.311;17154.879;  -10.616;22917.523
771.880;17714.223;   -9.576;23562.941
772.450;17643.088;  -10.336;24216.500
773.020;17715.924;  -13.516;24140.398
773.589;16934.902;  -13.466;24414.857
774.159;16170.014;   -8.686;23858.717
774.729;15670.128;   -9.476;22942.135
775.298;15212.709;  -13.666;22324.033
775.867;14812.430;  -11.716;21140.313
776.437;14955.423;   -9.906;20838.092
777.006;14676.551;  -12.166;20599.510
777.576;14351.809;  -12.356;20508.809
778.145;14440.880;  -11.646;20732.947
778.714;14554.398;   -8.226;21062.465
779.283;14007.305;   -9.556;20949.664
779.853;13545.969;  -14.116;20508.623
780.422;13956.686;  -11.506;20649.082
780.991;13519.268;   -9.556;21527.520
781.560;12193.054;   -9.095;22632.658
782.129;11906.841;  -12.135;23048.277
782.698;11893.244;  -10.865;23438.555
783.267;11598.394;   -9.335;23267.734
783.836;11620.619;  -11.045;22415.133
784.404;12589.438;  -13.865;20443.152
784.973;13226.222;  -13.095;19699.150
785.542;13341.336;  -11.575;19763.828
786.111;13184.919;   -9.705;20341.408
786.679;12637.456;  -12.105;20207.967
787.248;12351.601;  -12.455;19516.465
787.817;12165.139;  -11.535;18900.363
788.385;11833.296;   -9.765;17879.121
788.954;11271.040;  -14.005;17658.301
789.522;10578.745;  -11.955;17788.879
790.090;10942.126;  -10.135;18118.277
790.659;11503.329;  -10.975;18338.736
791.227;11179.497;  -13.375;18508.615
791.795;11624.621;  -12.375;17898.254
792.364;11920.148;  -10.725;17295.133
792.932;12151.240;   -9.715;16822.051
793.500;12403.319;  -12.675;17040.148
794.068;12626.367;  -13.495;17179.787
794.636;12751.122;  -10.885;16664.246
795.204;12155.638;  -11.045;16524.545
795.772;12158.331;  -13.175;17274.564
796.340;11698.979;  -12.445;17891.002
796.908;11487.108;   -9.735;17648.561
797.476;11342.542;   -9.815;17064.080
798.044;10934.089;  -13.985;16672.777
798.612;10181.654;  -13.115;17023.996
799.180; 9810.158;  -10.185;16561.615
799.747; 9675.989;   -9.055;15962.773
800.315; 9367.353;  -12.385;15296.992
800.883; 9137.027;  -15.035;14801.771
801.450; 9279.817;  -10.365;14534.430
802.018; 9348.594;   -9.855;14173.248
802.585; 9373.803;  -11.905;14029.547
803.153; 9385.264;  -11.585;13836.846
803.720; 9208.662;   -9.095;13567.324
804.287; 8714.900;   -9.135;13360.622
804.855; 8235.351;  -11.604;13681.981
805.422; 8084.650;  -11.794;13536.560
805.989; 8168.465;  -10.734;13355.958
806.556; 8420.768;  -10.444;13747.896
807.124; 8698.937;  -12.764;13987.376
807.691; 8629.534;  -12.964;14038.674
808.258; 8441.092;  -11.134;14120.152
808.825; 8114.353;   -9.854;13860.111
809.392; 8194.082;  -10.504;13268.790
809.959; 7704.430;  -13.054;12680.389
810.526; 7268.842;   -8.294;12427.308
811.093; 7284.762;   -8.394;12030.105
811.659; 7878.798;  -12.304;11653.664
812.226; 8418.491;  -13.944;11637.183
812.793; 8107.625;  -10.484;11611.521
813.360; 7425.180;  -10.144;11885.181
813.926; 7109.914;  -11.684;12770.539
814.493; 6950.161;  -13.644;12677.638
815.060; 6649.692;   -9.724;11974.336
815.626; 6643.221;   -9.854;11594.715
816.193; 6983.766;  -13.254;11579.474
816.759; 6997.574;  -13.204;11666.972
817.325; 7026.241;   -9.434;11325.530
817.892; 7378.542;  -10.134;11105.369
818.458; 7812.871;  -13.474;10843.928
819.024; 7462.227;  -11.854;10714.406
819.591; 7121.327;  -10.244;10469.165
820.157; 6939.044;  -10.704;10235.523
820.723; 6464.880;  -12.324;10847.563
821.289; 6129.698;   -9.444;11040.980
821.855; 6009.458;   -8.374;10357.100
822.421; 5922.527;  -10.234; 9978.918
822.987; 5893.309;  -13.294; 9754.177
823.553; 5557.677;  -10.884;10065.755
824.119; 5377.101;   -8.884;10036.294
824.685; 5496.957;   -6.784;10029.192
825.251; 5625.515;  -12.004;10199.230
825.816; 5567.785;  -11.474; 9820.189
826.382; 5286.121;   -9.174; 9297.248
826.948; 5456.495;   -9.214; 9381.347
827.513; 5830.524;  -10.774; 9450.726
828.079; 5671.376;  -11.924; 9472.444
828.645; 5102.418;  -10.543; 9292.643
829.210; 4979.619;  -10.533; 9065.341
829.776; 4970.991;  -10.753; 9132.620
830.341; 4838.349;  -10.173; 9092.878
830.906; 4979.837;  -10.743; 9078.557
831.472; 5287.295;  -11.113; 8534.535
832.037; 5047.955;  -10.603; 8677.874
832.602; 4536.430;  -13.323; 8628.692
833.167; 4317.543;  -10.823; 8879.031
833.733; 4281.748;  -10.113; 9189.790
834.298; 4407.437;  -13.583; 9052.608
834.863; 4510.487;  -12.703; 8895.087
835.428; 4492.473;  -10.523; 8824.266
835.993; 4351.898;   -6.963; 8845.385
836.558; 4217.588;  -10.763; 8888.563
837.123; 4337.069;   -9.903; 8966.582
837.688; 4586.274;   -9.913; 8617.860
838.253; 4813.871;  -10.283; 8590.699
838.817; 4988.620;  -12.963; 8443.797
839.382; 4895.287;  -14.243; 8799.356
839.947; 4591.078;  -10.733; 8810.595
840.511; 4288.198;   -9.383; 8796.394
841.076; 3914.520;  -12.563; 8347.231
841.641; 3985.519;  -12.953; 8224.330
842.205; 4113.121;   -7.043; 8223.349
842.770; 4169.757;   -8.163; 8622.107
843.334; 4315.731;  -12.503; 8410.386
843.898; 4292.241;  -11.693; 8337.465
844.463; 4304.654;  -10.203; 8506.283
845.027; 4082.853;   -9.533; 8280.962
845.591; 3899.358;  -13.443; 8231.141
846.156; 3887.704;  -13.143; 7969.179
846.720; 3786.769;   -9.433; 7768.278
847.284; 3668.077;  -11.033; 7630.957
847.848; 3525.287;  -10.403; 7472.395
848.412; 3420.090;  -11.553; 7437.394
848.976; 3447.597;   -8.393; 7674.592
849.540; 3362.557;   -8.713; 7836.011
850.104; 3437.597;  -12.463; 7913.669
850.668; 3799.498;  -12.973; 7694.508
851.232; 3952.917;  -10.793; 7756.887
851.796; 3813.475;  -10.662; 7926.545
852.359; 3491.928;  -13.082; 7827.844
852.923; 3312.863;  -12.192; 7641.163
853.487; 3167.658;  -11.912; 7342.501
854.050; 3132.771;  -10.892; 7042.820
854.614; 3247.671;  -13.992; 7151.338
855.177; 3355.803;  -11.732; 7105.077
855.741; 3400.298;   -8.962; 6989.675
856.304; 3313.257;   -9.442; 6596.634
856.868; 3285.788;  -14.192; 6356.272
857.431; 3427.807;  -12.702; 6468.571
857.995; 3586.991;   -9.942; 6373.210
858.558; 3614.192;   -9.112; 6324.448
859.121; 3335.464;  -12.932; 6408.327
859.684; 3155.988;  -13.442; 6347.886
860.247; 3256.556;  -10.632; 6321.264
860.810; 3271.578;  -11.272; 6301.903
861.374; 3012.774;   -9.832; 6607.881
861.937; 2749.180;  -11.762; 6408.200
862.500; 2744.631;   -9.722; 6572.639
863.062; 2898.662;  -10.512; 6387.297
863.625; 3038.717;  -11.232; 6190.836
864.188; 3206.395;  -14.112; 5807.254
864.751; 3313.909;  -11.302; 5682.413
865.314; 3236.352;  -10.112; 5547.492
865.876; 3009.653;  -12.182; 5500.150
866.439; 2980.200;  -10.722; 5415.909
867.002; 2935.999;   -9.252; 5501.567
867.564; 2741.491;   -9.572; 5413.946
868.127; 2521.556;  -13.142; 5160.325
868.689; 2392.694;  -12.902; 5133.183
869.252; 2278.413;   -9.732; 5252.382
869.814; 2168.036;   -9.432; 5297.141
870.377; 2173.483;  -11.552; 5390.919
870.939; 2242.195;   -9.052; 5599.898
871.501; 2321.003;  -10.982; 5248.336
872.063; 2343.235;  -12.292; 4854.235
872.626; 2298.741;  -14.912; 4817.074
873.188; 2302.501;  -13.112; 4987.732
873.750; 2272.467;  -13.442; 4868.651
874.312; 2197.740;   -9.402; 4779.330
874.874; 2117.129;  -11.062; 4866.348
875.436; 2026.388;  -13.931; 4718.887
875.998; 2011.662;   -9.561; 4660.005
876.560; 2026.401;  -11.321; 4462.964
877.122; 1967.388;  -12.221; 4145.042
877.683; 1873.205;  -12.191; 4056.481
878.245; 1795.166;  -12.101; 3950.740
878.807; 1838.865;   -8.971; 4058.958
879.369; 1867.443;  -12.071; 3954.677
879.930; 1770.934;  -14.621; 3941.495
880.492; 1705.383;  -10.311; 4067.014
881.053; 1679.351;  -10.901; 3859.633
881.615; 1582.103;  -14.411; 3776.071
882.176; 1488.576;  -13.761; 3734.750
882.738; 1443.677;   -9.181; 3678.489
883.299; 1424.537;  -11.791; 3405.407
883.860; 1417.314;  -13.121; 3351.106
884.422; 1406.990;  -11.211; 3394.044
884.983; 1363.571;  -10.091; 3166.443
885.544; 1302.878;   -8.461; 3189.802
886.105; 1264.845;  -12.361; 3160.360
886.666; 1205.698;  -14.141; 3093.059
887.227; 1042.277;  -11.361; 2941.957
887.788;  799.663;  -11.401; 2974.836
888.349;  602.240;  -13.791; 2721.214
888.910;  535.492;  -13.191; 2696.493
889.471;  538.391;   -9.881; 2560.172
890.032;  553.216;   -9.881; 2558.190
890.593;  571.068;  -10.371; 2567.669
891.153;  586.851;  -13.301; 2460.307
891.714;  582.163;  -11.431; 2372.046
892.275;  578.192;  -11.291; 2309.505
892.835;  567.871;  -11.471; 2382.543
893.396;  537.264;  -11.541; 2295.502
893.956;  496.834;  -11.181; 2162.420
894.517;  467.821;  -11.741; 2125.439
895.077;  466.307;  -11.671; 2086.978
895.638;  473.148;  -11.311; 2126.316
896.198;  451.977;   -9.831; 1838.275
896.758;  416.439;   -8.421; 1892.813
897.319;  390.723;  -12.351; 1792.232
897.879;  377.828;  -13.511; 1762.751
898.439;  355.501;  -12.001; 1661.149
898.999;  333.831;  -10.180; 1781.468
899.559;  324.840;  -12.030; 1703.347
900.119;  320.353;  -15.710; 1537.525
900.679;  316.821;   -8.900; 1638.384
901.239;  304.595;   -8.340; 1527.902
901.799;  297.926;  -13.910; 1456.441
902.359;  292.788;  -13.460; 1357.140
902.919;  285.513;  -11.490; 1331.118
903.479;  273.937;  -12.110; 1317.257
904.038;  255.446;  -11.720; 1262.595
904.598;  243.134;  -13.610; 1152.034
905.158;  238.888;  -11.040; 1240.893
905.717;  231.261;  -10.900; 1233.691
906.277;  219.863;  -15.080; 1217.330
906.836;  209.993;  -13.380; 1222.408
907.396;  201.840;  -10.780; 1193.047
907.955;  194.876;   -8.500; 1182.526
908.515;  190.152;  -12.760; 1099.364
909.074;  184.928;  -11.900; 1092.863
909.633;  180.142;   -8.950; 1069.121
910.192;  174.900;   -8.770; 1196.460
910.752;  169.313;  -12.390; 1029.960
911.311;  166.607;  -13.680; 1009.780
911.870;  165.243;  -12.370;  971.460
912.429;  165.071;  -10.900; 1094.080
912.988;  164.431;  -11.690; 1081.060
913.547;  160.438;  -13.240;  940.380
914.106;  155.566;  -11.990;  999.420
914.665;  151.686;   -9.990;  984.020
915.224;  151.611;  -12.880; 1035.760
915.782;  152.334;  -12.350;  922.560
916.341;  152.353;   -9.110; 1049.840
916.900;  147.170;   -9.270;  925.260
917.458;  144.918;  -13.240;  884.220
918.017;  145.066;  -13.550;  942.600
918.576;  145.424;  -12.320;  904.440
919.134;  142.430;  -11.490;  837.980
919.693;  140.674;  -13.670;  893.060
920.251;  139.748;  -15.470;  876.500
920.809;  138.792;  -11.290;  839.580
921.368;  138.079;  -10.210;  885.360
921.926;  137.485;  -12.140;  842.940
922.484;  136.075;  -13.080;  903.360
923.042;  136.040;  -11.720;  880.340
923.601;  137.875;   -7.480;  998.680
924.159;  136.923;  -11.570;  935.560
924.717;  133.404;  -13.840;  841.080
925.275;  133.992;  -10.640;  903.240
925.833;  132.237;  -11.540;  779.320
926.391;  133.035;  -12.960;  938.380
926.949;  131.581;  -14.130;  857.680
927.506;  132.549;  -11.750;  903.500
928.064;  132.948;  -10.250;  877.580
928.622;  131.383;  -13.030;  880.100
929.180;  131.709;  -13.400;  814.180
929.737;  132.628;  -10.700;  808.540
930.295;  135.883;  -10.070;  928.480
930.853;  137.930;  -11.960;  849.100
931.410;  138.560;  -13.120;  821.120
931.968;  137.786;  -10.770;  940.660
932.525;  137.226;  -10.680;  909.380
933.082;  138.902;  -13.130;  811.440
933.640;  139.155;  -13.210;  925.900
934.197;  137.545;  -11.060;  886.360
934.754;  138.183;   -9.580;  897.780
935.312;  141.021;  -14.000;  863.340
935.869;  146.024;  -10.710; 1012.980
936.426;  145.374;   -9.860;  872.800
936.983;  147.164;   -9.710;  889.020
937.540;  146.475;  -13.990;  838.280
938.097;  145.688;  -14.040;  940.120
938.654;  145.693;  -10.310;  898.860
939.211;  147.295;  -10.560;  952.480
939.768;  151.560;  -13.900;  915.420
940.324;  154.751;  -14.760;  904.200
940.881;  155.870;  -10.370;  878.500
941.438;  156.960;   -8.260; 1021.200
941.995;  152.026;  -12.540;  992.560
942.551;  149.842;  -14.670;  875.620
943.108;  149.657;  -10.450;  937.920
943.664;  150.852;  -10.750;  869.340
944.221;  154.943;  -11.550; 1088.140
944.777;  153.412;  -14.770;  869.680
945.334;  153.716;  -12.820;  884.840
945.890;  154.237;  -10.130;  946.480
946.446;  155.313;  -13.470;  947.020
947.003;  156.871;  -12.120;  964.940
947.559;  159.702;   -9.980; 1063.040
948.115;  159.333;   -9.080; 1026.540
948.671;  156.695;  -10.830;  967.300
949.227;  156.231;  -12.440;  859.560
949.783;  153.093;  -12.910;  858.900
950.339;  154.512;  -10.270;  991.000
950.895;  155.157;  -13.630; 1023.840
951.451;  153.810;  -15.100;  925.280
952.007;  154.026;  -11.330;  998.540
952.563;  151.976;  -10.580;  937.780
953.118;  150.681;  -13.440;  904.940
953.674;  151.264;  -12.710;  935.780
954.230;  151.097;  -10.350;  949.640
954.785;  148.052;   -9.190;  936.640
955.341;  146.643;  -11.200;  998.160
955.897;  146.204;  -16.560;  834.660
956.452;  147.891;  -12.570;  953.840
957.008;  146.451;   -7.970; 1083.640
957.563;  144.728;  -11.940; 1009.540
958.118;  139.842;  -13.450;  877.700
958.674;  140.717;  -12.030;  946.780
959.229;  141.173;   -9.410; 1013.980
959.784;  139.779;  -12.000;  832.400
960.339;  138.032;  -14.780; 1001.280
960.894;  135.212;   -9.860;  963.760
961.449;  130.963;   -9.970;  859.960
962.004;  130.682;  -10.900; 1212.840
962.559;  124.903;  -13.150;  860.140
963.114;  123.010;  -13.740;  742.480
963.669;  122.127;   -9.820;  915.500
964.224;  121.138;  -13.890;  874.340
964.779;  119.307;  -12.600;  828.420
965.334;  120.371;  -10.950; 1017.860
965.888;  119.608;  -11.170;  875.360
966.443;  122.809;  -12.540;  972.380
966.998;  121.897;  -15.780;  819.460
967.552;  122.147;   -9.760;  908.380
968.107;  117.563;   -9.060;  868.300
968.661;  117.857;  -11.950;  922.440
969.216;  119.290;  -12.800;  856.280
969.770;  119.096;  -11.210;  917.200
970.324;  117.923;  -11.610;  923.140
970.879;  114.688;  -11.370;  947.180
971.433;  111.883;  -12.540;  952.720
971.987;  107.381;  -11.320;  895.340
972.541;  103.353;  -10.720;  917.100
973.095;  103.257;   -9.680; 1009.460
973.649;  101.874;  -11.440;  809.480
974.203;  101.116;  -11.210;  829.040
974.757;   99.973;  -10.240;  855.220
975.311;  101.211;  -13.720;  872.600
975.865;   99.835;  -13.770;  881.820
976.419;   98.985;  -11.690;  857.400
976.973;   97.419;   -9.510;  849.620
977.526;   99.480;  -12.620;  949.920
978.080;   99.106;  -12.010;  796.780
978.634;  100.188;  -10.170;  921.320
979.187;   97.466;   -9.020;  905.400
979.741;   95.525;   -9.820; 1018.380
980.294;   89.640;  -14.870;  789.160
980.848;   89.304;  -12.380;  717.220
981.401;   90.549;  -10.350;  816.540
981.955;   92.301;  -13.720;  844.300
982.508;   91.580;  -11.490;  746.340
983.061;   91.814;  -10.000;  915.260
983.615;   88.429;  -11.480;  798.800
984.168;   85.260;  -13.220;  770.080
984.721;   84.619;  -13.960;  880.760
985.274;   83.674;  -10.870;  867.500
985.827;   82.505;   -9.790;  834.220
986.380;   80.033;  -13.120;  721.340
986.933;   79.806;  -12.450;  864.800
987.486;   78.173;  -10.210;  861.920
988.039;   76.729;   -8.430;  863.100
988.591;   75.206;  -10.520;  893.260
989.144;   72.984;  -14.860;  737.260
989.697;   71.611;  -13.080;  758.740
990.250;   71.567;  -10.150;  858.100
990.802;   70.909;  -13.430;  755.860
991.355;   73.096;  -12.750;  974.880
991.907;   70.124;  -12.040;  864.320
992.460;   67.152;  -11.330;  753.760
993.012;   67.160;  -13.610;  749.540
993.565;   66.082;  -13.460;  711.360
994.117;   67.685;   -9.360;  950.780
994.669;   63.560;  -11.300;  701.320
995.221;   61.315;  -13.540;  791.920
995.774;   60.446;  -13.430;  787.580
996.326;   58.540;  -12.520;  740.220
996.878;   58.721;  -10.950;  838.420
997.430;   57.145;  -14.300;  699.860
997.982;   55.939;  -13.760;  750.140
998.534;   55.730;  -11.530;  739.060
999.086;   54.288;  -10.310;  738.220
999.638;   52.348;  -12.530;  661.380
1000.190;   52.042;  -11.840;  699.320
1000.741;   53.030;  -10.260;  742.700
1001.293;   51.167;   -8.860;  686.020
1001.845;   49.712;  -13.700;  676.640
1002.396;   50.039;  -12.100;  743.400
1002.948;   49.643;  -12.760;  737.400
1003.500;   47.851;  -10.380;  723.780
1004.051;   49.466;  -11.900;  907.580
1004.603;   46.671;  -12.250;  791.820
1005.154;   43.118;  -13.210;  608.980
1005.705;   42.621;  -10.950;  723.960
1006.257;   41.653;  -13.880;  707.220
1006.808;   41.272;  -12.840;  685.460
1007.359;   41.071;  -10.570;  763.240
1007.910;   39.469;   -9.620;  646.640
1008.461;   39.382;  -13.630;  732.940
1009.013;   38.514;  -17.200;  588.340
1009.564;   40.045;  -10.200;  793.520
1010.115;   37.299;  -12.570;  597.040
1010.665;   37.115;  -15.150;  602.160
1011.216;   37.405;  -14.480;  667.920
1011.767;   36.583;  -11.340;  697.920
1012.318;   36.130;   -9.780;  736.980
1012.869;   34.944;  -12.380;  679.000
1013.419;   35.369;  -15.560;  603.120
1013.970;   35.922;  -11.010;  666.640
1014.521;   34.515;  -11.610;  620.620
1015.071;   34.438;  -13.450;  670.380
1015.622;   35.205;  -13.870;  635.460
1016.172;   34.089;  -11.610;  596.820
1016.723;   33.252;  -12.120;  614.380
1017.273;   33.279;  -13.620;  604.160
1017.823;   34.161;  -14.140;  650.340
1018.374;   33.660;  -12.800;  611.760
1018.924;   32.646;  -12.340;  716.880
1019.474;   33.220;  -11.410;  718.880
1020.024;   32.218;  -14.770;  657.580
1020.574;   33.352;   -9.780;  726.160
1021.124;   32.485;   -8.560;  673.580
1021.674;   30.296;  -15.190;  559.120
1022.224;   32.813;  -13.530;  708.940
1022.774;   31.997;  -13.280;  668.820
1023.324;   32.498;  -10.690;  753.520
1023.874;   33.456;  -10.240;  875.760
1024.423;   30.739;  -12.540;  613.700
1024.973;   30.631;  -10.010;  610.760
1025.523;   29.698;  -10.550;  620.960
1026.072;   28.866;  -13.560;  606.420
1026.622;   29.495;  -15.120;  675.740
1027.172;   30.345;  -11.260;  715.660
1027.721;   29.143;  -11.410;  601.220
1028.270;   29.566;  -13.530;  663.400
1028.820;   29.280;  -13.680;  638.080
1029.369;   29.316;  -13.520;  612.700
1029.918;   29.590;  -10.980;  649.840
1030.468;   27.672;  -13.530;  564.780
1031.017;   29.071;  -13.170;  634.800
1031.566;   28.243;  -12.200;  608.900
1032.115;   28.110;   -9.960;  694.500
1032.664;   27.330;  -13.210;  596.480
1033.213;   28.187;  -12.500;  735.420
1033.762;   27.510;  -11.910;  635.620
1034.311;   26.739;   -9.640;  677.220
1034.860;   28.104;  -13.310;  691.000
1035.408;   27.848;  -11.830;  722.720
1035.957;   28.095;  -12.000;  719.540
1036.506;   25.266;  -11.690;  530.800
1037.055;   28.083;  -10.990;  844.320
1037.603;   26.292;  -15.120;  664.000
1038.152;   24.905;  -12.450;  534.760
1038.700;   24.962;  -10.560;  585.740
1039.249;   24.987;  -11.080;  681.220
1039.797;   25.343;  -12.540;  633.360
1040.345;   26.155;  -11.920;  705.420
1040.894;   24.939;  -11.410;  625.300
1041.442;   24.633;  -14.320;  632.200
1041.990;   23.674;  -16.240;  559.160
1042.538;   23.556;  -11.680;  536.180
1043.087;   24.109;  -10.760;  570.860
1043.635;   24.709;  -11.850;  670.500
1044.183;   22.794;  -15.480;  586.400
1044.731;   23.397;  -11.770;  576.000
1045.279;   22.572;  -13.090;  674.920
1045.827;   24.888;  -12.440;  892.400
1046.374;   22.943;  -13.840;  515.420
1046.922;   22.493;  -13.220;  590.580
1047.470;   23.800;  -10.230;  691.300
1048.018;   22.852;  -14.590;  647.960
1048.565;   24.434;  -12.050;  708.600
1049.113;   22.703;  -11.650;  557.000
1049.660;   21.609;  -10.510;  629.660
1050.208;   21.523;  -13.310;  675.640
1050.755;   21.601;  -15.900;  606.580
1051.303;   22.881;  -11.430;  686.820
1051.850;   21.234;   -8.480;  635.120
1052.397;   19.829;  -15.010;  473.960
1052.945;   21.224;  -13.960;  617.760
1053.492;   22.370;  -13.150;  741.840
1054.039;   21.247;   -9.630;  720.180
1054.586;   20.021;  -13.680;  557.240
1055.133;   21.090;  -14.570;  693.140
1055.680;   21.361;  -13.820;  646.620
1056.227;   20.140;  -11.730;  542.780
1056.774;   21.108;  -12.480;  794.980
1057.321;   19.583;  -13.930;  523.260
1057.868;   20.474;  -11.690;  651.320
1058.415;   19.412;   -9.520;  651.980
1058.961;   20.141;  -13.160;  678.940
1059.508;   19.794;  -12.920;  643.820
1060.055;   20.243;  -11.920;  581.780
1060.601;   19.537;  -11.500;  624.300
1061.148;   19.893;  -14.330;  616.820
1061.694;   18.973;  -16.870;  592.580
1062.241;   19.025;  -10.330;  596.320
1062.787;   18.728;  -10.620;  663.140
1063.334;   20.764;  -10.110;  808.560
1063.880;   18.821;  -13.400;  668.360
1064.426;   19.028;  -10.680;  706.820
1064.972;   18.175;   -9.920;  601.340
1065.518;   16.658;  -10.980;  566.640
1066.065;   18.710;  -14.890;  624.460
1066.611;   17.141;  -12.870;  598.800
1067.157;   18.414;  -12.950;  641.860
1067.703;   17.654;  -13.540;  668.480
1068.249;   17.999;  -13.540;  605.220
1068.794;   18.254;  -12.600;  626.880
1069.340;   15.498;  -10.620;  578.960
1069.886;   17.530;  -12.830;  590.700
1070.432;   16.518;  -14.870;  541.720
1070.977;   16.948;  -11.980;  601.080
1071.523;   16.606;   -8.200;  573.060
1072.068;   16.557;  -12.330;  582.000
1072.614;   16.520;  -16.370;  527.760
1073.160;   17.175;  -11.100;  687.040
1073.705;   15.888;  -10.480;  572.520
1074.250;   15.660;  -14.520;  559.900
1074.796;   16.319;  -11.460;  655.160
1075.341;   16.721;  -11.950;  664.100
1075.886;   15.738;  -11.460;  594.240
1076.431;   15.184;  -13.770;  649.880
1076.976;   15.095;  -12.680;  639.220
1077.521;   15.555;  -13.170;  583.080
1078.067;   14.314;  -10.860;  579.400
1078.612;   14.988;  -13.920;  661.620
1079.156;   14.130;  -13.880;  601.540
1079.701;   15.266;  -13.120;  693.260
1080.246;   14.960;   -9.940;  696.300
1080.791;   14.678;  -14.740;  625.020
1081.336;   15.468;  -13.750;  659.320
1081.880;   15.187;  -13.400;  649.680
1082.425;   13.238;  -12.220;  573.480
1082.970;   14.800;  -11.610;  717.040
1083.514;   13.684;  -13.580;  597.000
1084.059;   13.731;  -12.810;  586.720
1084.603;   12.964;  -12.320;  565.840
1085.147;   14.433;  -13.190;  645.220
1085.692;   14.707;  -12.480;  716.800
1086.236;   13.204;  -13.020;  503.140
1086.780;   14.964;   -9.190;  751.440
1087.325;   13.153;  -12.480;  654.620
1087.869;   13.560;  -12.450;  610.700
1088.413;   13.763;  -12.240;  705.040
1088.957;   11.666;   -9.020;  543.400
1089.501;   14.273;  -10.320;  766.640
1090.045;   13.250;  -12.720;  726.480
1090.589;   12.183;  -13.690;  569.920
1091.133;   12.665;  -10.020;  673.340
1091.676;   12.034;  -12.330;  591.940
1092.220;   12.414;  -14.970;  600.920
1092.764;   13.482;  -12.430;  706.960
1093.307;   12.704;   -9.800;  673.780
1093.851;   11.051;  -14.970;  556.540
1094.395;   12.104;  -15.310;  683.140
1094.938;   11.406;  -10.370;  632.520
1095.482;   11.597;  -11.050;  559.800
1096.025;   11.769;  -11.840;  710.880
1096.568;   12.432;  -12.840;  779.280
1097.112;    9.707;  -14.700;  508.180
1097.655;   11.450;   -8.720;  603.000
1098.198;    9.690;  -13.610;  600.180
1098.741;   10.547;  -13.350;  612.860
1099.285;   11.594;  -11.230;  657.300
1099.828;    9.036;  -11.840;  439.400
1100.371;    9.667;  -10.840;  608.160
1100.914;   10.189;  -14.190;  682.660
1101.457;   10.609;  -11.240;  679.900
1101.999;    9.191;  -11.270;  584.680
1102.542;   10.119;  -11.480;  641.440
1103.085;    9.584;  -11.750;  658.500
1103.628;   11.184;  -11.400;  762.060
1104.170;    8.525;  -10.490;  588.280
1104.713;    9.309;  -10.600;  646.700
1105.256;    9.932;  -14.360;  557.440
1105.798;    8.689;  -13.210;  499.980
1106.341;   10.402;  -10.270;  728.900
1106.883;    9.014;  -12.200;  521.340
1107.425;    9.192;  -13.110;  668.180
1107.968;    8.651;  -12.840;  612.380
1108.510;    8.478;   -6.480;  684.960
1109.052;    7.804;  -13.940;  612.620
1109.594;    7.999;  -13.690;  554.440
1110.136;    9.136;  -11.880;  643.220
1110.679;    7.846;   -9.500;  633.080
1111.221;    8.320;  -14.160;  604.460
1111.763;    7.604;  -13.980;  559.220
1112.304;    7.866;  -13.880;  547.140
1112.846;    7.941;  -12.210;  666.240
1113.388;    9.887;  -11.390;  942.180
1113.930;    7.792;  -14.540;  694.200
1114.472;    7.246;  -12.640;  606.540
1115.013;    6.185;  -11.620;  551.280
1115.555;    6.441;  -13.640;  587.100
1116.097;    6.426;  -15.380;  579.480
1116.638;    7.917;  -12.640;  684.600
1117.180;    7.250;   -9.850;  667.740
1117.721;    6.558;  -13.690;  568.580
1118.262;    7.457;  -12.680;  677.960
1118.804;    7.988;  -12.530;  637.340
1119.345;    5.929;  -11.690;  578.400
1119.886;    6.917;  -13.380;  704.040
1120.427;    6.494;  -14.070;  589.020
1120.969;    6.112;  -13.500;  597.920
1121.510;    5.074;  -11.480;  563.060
1122.051;    6.360;  -12.830;  723.580
1122.592;    5.808;  -14.290;  655.420
1123.133;    5.373;  -12.400;  547.940
1123.673;    6.300;  -10.130;  706.480
1124.214;    5.010;  -12.930;  612.460
1124.755;    6.353;  -14.380;  639.460
1125.296;    6.745;  -14.000;  627.320
1125.836;    6.004;  -10.070;  691.500
1126.377;    4.897;  -12.640;  599.660
1126.918;    5.908;  -12.960;  614.980
1127.458;    4.973;  -13.350;  622.220
1127.999;    5.304;  -10.750;  656.980
1128.539;    4.896;  -12.350;  694.240
1129.079;    4.973;  -14.860;  632.720
1129.620;    4.934;  -13.840;  558.100
1130.160;    4.018;  -12.330;  539.480
1130.700;    4.570;  -14.530;  640.840
1131.240;    5.809;  -12.530;  643.700
1131.781;    4.626;  -14.450;  619.680
1132.321;    4.680;   -9.790;  599.120
1132.861;    2.909;  -14.860;  564.200
1133.401;    3.117;  -14.290;  593.940
1133.941;    4.372;  -11.750;  626.280
1134.481;    3.300;   -9.920;  597.580
1135.020;    3.237;  -12.290;  609.160
1135.560;    4.740;  -11.650;  674.940
1136.100;    4.132;  -16.270;  501.160
1136.640;    3.424;  -10.890;  510.480
1137.179;    3.179;  -14.180;  537.960
1137.719;    3.266;  -16.250;  605.400
1138.258;    3.856;  -14.230;  587.360
1138.798;    3.333;   -9.090;  663.780
1139.337;    2.427;  -15.130;  482.840
1139.877;    3.319;  -13.680;  642.360
1140.416;    4.952;  -11.320;  878.060
1140.955;    2.354;  -10.860;  535.380
1141.494;    2.808;  -12.920;  669.280
1142.034;    2.350;  -13.930;  583.520
1142.573;    3.643;  -11.440;  646.280
1143.112;    2.341;  -12.000;  553.480
1143.651;    1.732;  -13.670;  536.480
1144.190;    3.254;  -12.730;  691.640
1144.729;    2.506;  -14.560;  607.420
1145.267;    2.179;  -11.830;  584.900
1145.806;    2.576;  -12.230;  637.040
1146.345;    2.193;  -14.130;  635.020
1146.884;    2.102;  -11.590;  622.500
1147.422;    1.014;  -12.550;  533.060
1147.961;    3.108;  -11.180;  708.460
1148.500;    2.649;  -11.510;  669.720
1149.038;    2.847;  -11.640;  632.500
1149.577;    2.644;  -10.130;  698.640
1150.115;    0.226;  -13.970;  452.280
1150.653;    1.992;  -14.520;  607.340
1151.192;    2.661;  -12.810;  552.920
1151.730;    1.873;   -9.100;  652.560
1152.268;    0.751;  -12.220;  589.520
1152.806;    0.663;  -14.140;  571.180
1153.344;    0.583;  -12.350;  577.640
1153.882;    1.194;   -8.980;  600.060
1154.421;   -0.607;  -15.190;  470.620
1154.958;    0.543;  -15.210;  595.240
1155.496;    2.758;  -12.850;  645.280
1156.034;    1.147;   -9.940;  721.880
1156.572;    1.485;  -13.570;  667.060
1157.110;   -0.145;  -14.590;  473.940
1157.647;    1.352;  -13.030;  676.960
1158.185;    0.035;  -12.140;  564.320
1158.723;   -1.181;  -14.390;  509.200
1159.260;    0.590;  -14.090;  701.700
1159.798;    1.417;  -11.920;  658.160
1160.335;    0.489;  -11.110;  631.820

