
Integration time [ms]:   3.276
Averaging Nr. [scans]: 1000
Smoothing Nr. [pixels]: 0
Data measured with spectrometer [name]: 7414430SP
Wave   ;Sample   ;Dark     ;Reference
[nm]   ;[counts] ;[counts] ;[counts] 

288.544;  151.816;    7.793;  793.890
289.143;  155.884;    7.462;  681.602
289.742;  156.358;    8.602;  828.814
290.341;  142.038;    1.321;  789.841
290.940;  130.870;   -0.709;  730.702
291.538;  131.445;    0.881;  881.108
292.137;  131.687;    0.122;  792.581
292.736;  136.677;   -1.929;  975.101
293.335;  132.799;   -8.229;  735.086
293.934;  133.603;   -5.279;  781.677
294.532;  131.161;   -1.369; 1031.958
295.131;  117.129;   -7.641;  834.394
295.730;  117.346;   -8.420;  809.588
296.328;  116.647;   -5.611;  783.442
296.927;  116.793;   -5.781;  779.652
297.525;  117.544;   -6.361;  781.236
298.124;  108.750;  -11.382;  654.009
298.722;  112.224;   -7.641;  761.933
299.321;  109.731;   -6.811;  708.597
299.919;  108.077;   -6.991;  751.918
300.518;  105.573;  -10.362;  689.338
301.116;  106.882;   -9.581;  691.381
301.715;  105.991;   -4.891;  730.222
302.313;  105.984;   -8.801;  704.943
302.911;  101.474;   -8.522;  733.830
303.509;  106.760;   -6.171;  925.627
304.108;  104.160;   -7.311;  760.383
304.706;  104.045;   -8.321;  801.664
305.304;   98.218;  -10.222;  796.707
305.902;  102.792;   -6.021;  784.484
306.500;   99.599;   -4.971;  728.200
307.098;   97.904;   -7.061;  746.560
307.696;   95.022;   -8.801;  780.432
308.294;   96.770;   -6.411;  731.359
308.892;   97.399;   -2.901;  759.769
309.490;   94.067;   -5.041;  712.161
310.088;   92.667;   -5.002;  788.444
310.686;   96.669;   -2.041;  821.749
311.284;   92.178;   -2.351;  766.040
311.882;   89.663;   -4.422;  731.225
312.480;   86.650;   -4.192;  697.167
313.078;   88.539;   -1.172;  808.331
313.675;   88.868;   -2.601;  691.600
314.273;   84.406;   -1.312;  797.837
314.871;   84.393;   -3.942;  589.829
315.468;   82.121;   -2.802;  652.090
316.066;   84.417;   -0.701;  694.427
316.664;   77.478;   -4.362;  656.351
317.261;   81.726;   -2.872;  910.128
317.859;   77.420;   -2.022;  768.735
318.456;   76.958;   -0.531;  830.096
319.054;   72.632;   -3.912;  787.828
319.651;   72.345;   -4.752;  759.928
320.249;   71.619;   -2.602;  810.188
320.846;   69.166;   -0.821;  714.286
321.443;   66.916;   -4.642;  832.135
322.041;   63.598;   -5.002;  812.315
322.638;   61.102;   -3.982;  701.456
323.235;   62.327;   -3.411;  665.683
323.833;   59.735;   -7.361;  740.354
324.430;   55.110;   -8.611;  615.900
325.027;   56.054;   -4.061;  876.855
325.624;   55.032;   -4.031;  644.532
326.221;   52.763;   -7.481;  689.717
326.818;   52.639;   -5.281;  818.332
327.415;   55.681;   -7.460;  748.828
328.012;   54.342;   -5.510;  690.585
328.609;   53.003;   -7.880;  731.389
329.206;   51.965;   -8.331;  778.621
329.803;   52.095;   -5.121;  737.841
330.400;   53.450;   -4.510;  704.260
330.997;   55.904;   -6.441;  817.147
331.594;   54.732;   -8.831;  788.185
332.191;   60.202;   -7.621;  728.722
332.787;   62.140;   -4.591;  844.463
333.384;   61.254;   -7.412;  763.093
333.981;   60.520;   -8.293;  815.687
334.578;   62.005;   -7.052;  708.378
335.174;   65.809;   -3.102;  731.469
335.771;   64.368;   -5.943;  836.456
336.367;   61.975;   -7.393;  710.631
336.964;   65.975;   -4.063;  793.266
337.561;   62.779;   -3.813;  731.112
338.157;   59.912;   -4.654;  911.916
338.754;   56.990;   -7.934;  796.589
339.350;   55.082;   -4.414;  722.493
339.946;   57.290;   -4.664;  773.135
340.543;   49.672;   -6.375;  846.136
341.139;   43.961;   -9.815;  720.836
341.735;   41.395;   -4.526;  772.593
342.332;   39.553;   -4.895;  691.472
342.928;   41.406;   -4.295;  795.394
343.524;   34.422;   -5.476;  761.684
344.120;   31.530;   -5.856;  738.562
344.716;   33.236;   -2.155;  723.717
345.313;   32.077;   -6.275;  795.342
345.909;   26.538;   -8.815;  627.336
346.505;   28.760;   -5.305;  740.247
347.101;   28.791;   -2.674;  827.864
347.697;   29.713;   -4.344;  785.398
348.293;   24.123;   -9.975;  627.244
348.889;   24.535;   -5.774;  745.914
349.485;   23.982;   -5.004;  688.205
350.081;   24.387;   -4.704;  772.592
350.676;   20.207;   -6.635;  691.606
351.272;   24.712;   -4.504;  809.530
351.868;   23.484;   -3.914;  780.497
352.464;   20.803;   -9.044;  723.932
353.059;   17.666;   -8.314;  646.017
353.655;   21.054;   -7.024;  777.063
354.251;   20.990;   -5.343;  759.845
354.846;   16.531;   -8.604;  740.646
355.442;   14.036;   -6.945;  753.071
356.038;   16.963;   -7.564;  751.708
356.633;   16.240;   -5.814;  728.594
357.229;   14.218;   -7.364;  724.757
357.824;   12.850;   -8.024;  703.600
358.420;   12.332;   -9.384;  679.726
359.015;   12.268;   -5.104;  695.357
359.610;   13.194;   -6.854;  763.920
360.206;    7.519;  -10.185;  603.240
360.801;    9.842;   -7.054;  646.503
361.396;   11.310;   -5.034;  725.975
361.992;    7.683;   -8.284;  668.220
362.587;    5.173;   -8.625;  670.160
363.182;    7.615;   -7.674;  689.631
363.777;    6.849;   -5.164;  738.242
364.372;    6.895;   -8.604;  737.314
364.967;    3.595;   -9.055;  680.744
365.563;    8.077;   -6.114;  815.567
366.158;    4.506;   -5.814;  685.161
366.753;    5.456;   -7.854;  649.263
367.348;    3.518;   -7.804;  746.056
367.942;    3.511;   -7.954;  697.298
368.537;    2.187;   -4.984;  754.245
369.132;    2.795;   -8.564;  703.428
369.727;   -1.140;   -8.855;  638.079
370.322;    0.997;   -6.245;  580.186
370.917;   -0.081;   -6.425;  710.646
371.511;    1.802;   -6.294;  861.834
372.106;   -0.789;   -7.685;  776.964
372.701;   -3.956;   -7.335;  585.988
373.296;    1.431;   -4.564;  863.135
373.890;   -2.595;  -10.235;  647.840
374.485;   -5.431;   -7.885;  691.199
375.079;   -0.984;   -7.324;  738.685
375.674;    0.291;   -3.494;  812.970
376.268;   -3.900;   -8.525;  691.759
376.863;   -9.477;  -10.086;  580.327
377.457;   -4.048;   -7.025;  662.490
378.052;   -5.288;   -3.585;  764.884
378.646;   -7.017;   -7.595;  741.167
379.240;   -6.984;   -8.335;  721.176
379.835;   -5.957;   -5.785;  636.978
380.429;   -7.458;   -4.335;  562.557
381.023;   -7.704;   -6.805;  779.205
381.617;   -9.767;   -9.195;  680.106
382.212;   -6.214;   -6.905;  685.303
382.806;   -5.823;   -3.745;  760.690
383.400;   -9.995;   -7.745;  672.281
383.994;  -11.018;   -9.765;  664.870
384.588;   -7.175;   -6.564;  697.701
385.182;   -6.359;   -5.344;  726.624
385.776;   -6.795;   -8.514;  706.875
386.370;  -10.278;   -9.555;  681.968
386.964;   -9.208;   -8.715;  684.155
387.558;   -8.037;   -6.174;  598.360
388.152;  -11.364;   -8.725;  681.959
388.745;   -9.395;   -7.965;  814.707
389.339;   -7.511;   -5.924;  747.642
389.933;   -7.110;   -5.524;  695.370
390.527;   -8.157;   -7.114;  859.029
391.120;  -13.742;  -10.725;  595.318
391.714;  -10.648;   -8.035;  711.633
392.308;   -8.349;   -3.574;  780.253
392.901;  -11.726;   -7.245;  642.460
393.495;  -12.863;   -9.285;  595.414
394.089;  -10.654;   -5.895;  760.452
394.682;  -11.815;   -4.295;  697.188
395.275;  -11.958;   -9.875;  719.927
395.869;  -13.645;   -8.485;  667.314
396.462;  -11.971;   -7.455;  616.609
397.056;   -8.021;   -5.424;  776.621
397.649;  -12.471;   -6.605;  731.575
398.242;   -9.415;   -8.224;  712.645
398.836;   -9.299;   -7.474;  766.408
399.429;  -10.618;   -7.094;  631.041
400.022;  -13.665;   -9.475;  665.902
400.615;  -10.621;   -7.145;  805.609
401.208;   -9.029;   -7.174;  691.451
401.802;  -11.741;   -5.515;  699.329
402.395;  -12.263;   -9.875;  683.502
402.988;  -13.912;   -8.845;  696.627
403.581;  -10.320;   -8.874;  646.878
404.174;   -8.216;   -5.324;  686.568
404.767;  -11.313;   -9.575;  638.583
405.360;  -13.633;  -10.965;  621.445
405.953;   -7.864;   -8.764;  759.034
406.545;   -8.065;   -7.514;  725.342
407.138;  -11.302;  -10.025;  618.350
407.731;  -10.230;  -10.034;  613.303
408.324;   -6.275;   -9.374;  660.554
408.917;   -8.034;   -6.534;  681.864
409.509;   -9.259;   -8.004;  740.396
410.102;  -11.302;   -9.875;  643.948
410.695;   -5.316;   -8.604;  665.758
411.287;   -6.322;   -6.794;  599.821
411.880;   -7.236;   -9.334;  585.421
412.472;  -10.542;  -10.254;  613.092
413.065;   -7.427;   -6.714;  629.408
413.657;   -5.823;   -7.234;  576.678
414.250;   -5.065;  -10.544;  646.681
414.842;   -6.710;   -9.744;  676.353
415.434;   -4.288;   -6.994;  570.463
416.027;   -0.251;   -5.893;  652.196
416.619;   -3.122;   -7.264;  713.400
417.211;   -2.639;  -10.374;  599.352
417.804;    0.425;   -7.993;  628.499
418.396;   -3.118;   -7.234;  607.643
418.988;   -1.352;   -9.443;  659.238
419.580;   -4.448;  -10.724;  568.276
420.172;   -2.618;  -10.323;  536.196
420.764;    1.703;   -8.793;  672.482
421.356;    0.425;  -11.143;  636.898
421.948;    0.596;   -8.293;  677.661
422.540;    5.046;   -7.893;  680.027
423.132;    4.552;   -7.082;  600.641
423.724;    0.821;   -8.653;  561.267
424.316;    3.200;  -10.213;  621.345
424.908;    6.309;   -9.762;  591.517
425.500;    6.894;   -5.572;  647.978
426.092;    7.374;   -8.422;  648.268
426.683;    6.701;   -9.283;  684.836
427.275;    9.449;   -7.852;  641.471
427.867;   10.621;   -5.272;  668.948
428.458;   11.198;   -7.682;  732.344
429.050;   10.834;  -10.612;  680.749
429.642;   12.381;   -9.882;  743.124
430.233;   13.027;   -6.962;  569.356
430.825;   14.147;   -6.842;  724.809
431.416;   11.545;   -9.672;  698.241
432.008;   15.242;   -6.552;  651.723
432.599;   15.548;   -6.891;  656.073
433.190;   12.601;  -10.912;  637.670
433.782;   12.466;  -11.172;  590.395
434.373;   19.614;   -6.061;  884.765
434.964;   18.117;   -8.251;  602.920
435.556;   15.671;   -9.722;  634.537
436.147;   18.806;   -9.082;  758.490
436.738;   18.993;   -8.041;  701.099
437.329;   23.710;   -7.341;  721.723
437.920;   17.419;   -8.162;  666.688
438.511;   17.392;  -11.802;  564.526
439.103;   24.324;  -10.191;  623.998
439.694;   25.269;   -7.601;  681.583
440.285;   26.232;   -8.541;  764.432
440.876;   24.388;   -9.751;  845.738
441.466;   23.781;   -9.401;  575.162
442.057;   29.828;   -7.760;  665.814
442.648;   27.675;   -9.971;  746.255
443.239;   26.183;  -11.001;  620.477
443.830;   31.697;   -7.990;  704.958
444.421;   33.607;   -7.910;  655.474
445.011;   29.700;   -8.131;  693.619
445.602;   29.271;   -7.111;  743.126
446.193;   31.430;  -10.920;  488.117
446.783;   35.540;   -6.500;  640.397
447.374;   31.902;   -8.671;  692.759
447.964;   32.311;  -10.781;  713.770
448.555;   40.506;   -9.650;  822.742
449.145;   36.802;   -8.660;  662.853
449.736;   37.527;   -8.990;  803.179
450.326;   38.234;   -9.500;  713.626
450.917;   43.086;   -8.680;  675.324
451.507;   41.971;   -7.520;  600.661
452.097;   42.027;   -8.590;  746.267
452.688;   43.919;  -11.340;  742.160
453.278;   43.449;  -10.100;  566.840
453.868;   47.775;   -6.019;  793.550
454.458;   46.222;   -9.440;  651.141
455.048;   46.406;  -10.560;  711.783
455.639;   48.150;  -11.799;  567.096
456.229;   51.734;   -6.899;  710.694
456.819;   53.230;   -7.389;  751.158
457.409;   53.526;  -11.119;  773.993
457.999;   56.763;   -9.289;  737.505
458.589;   56.394;   -6.139;  686.606
459.179;   56.287;   -8.729;  717.658
459.769;   55.241;   -9.789;  627.099
460.358;   59.991;  -10.259;  797.262
460.948;   59.424;   -7.299;  689.503
461.538;   60.648;  -10.289;  660.677
462.128;   58.698;  -11.269;  664.934
462.717;   66.646;   -9.368;  710.326
463.307;   69.162;   -7.908;  705.846
463.897;   64.854;   -9.599;  656.942
464.486;   63.788;   -9.769;  837.128
465.076;   69.544;   -8.048;  733.776
465.666;   72.385;   -9.358;  652.900
466.255;   69.863;   -7.919;  785.651
466.845;   68.835;  -11.689;  666.749
467.434;   71.787;   -7.818;  725.873
468.023;   73.481;   -7.678;  658.357
468.613;   71.675;  -10.939;  713.946
469.202;   75.638;  -10.118;  646.507
469.791;   79.595;   -9.108;  737.811
470.381;   81.132;   -6.058;  742.813
470.970;   81.401;  -10.428;  711.099
471.559;   81.057;  -10.268;  733.291
472.148;   84.829;   -8.448;  675.737
472.738;   86.570;   -6.917;  765.466
473.327;   86.436;  -11.978;  637.529
473.916;   86.341;  -11.888;  737.446
474.505;   90.571;   -9.437;  751.703
475.094;   93.527;   -6.747;  806.570
475.683;   92.535;   -9.367;  797.699
476.272;   94.369;  -12.637;  730.632
476.861;   97.048;  -10.027;  706.754
477.449;  103.687;   -8.716;  728.487
478.038;   98.128;   -9.577;  692.513
478.627;   99.423;   -9.718;  714.852
479.216;  105.914;   -8.947;  769.441
479.805;  108.669;   -6.256;  783.375
480.393;  108.528;   -7.937; 1008.945
480.982;  108.459;   -7.717;  874.501
481.571;  114.471;   -9.266;  858.333
482.159;  114.557;   -7.636;  705.386
482.748;  114.319;   -9.667;  821.385
483.336;  119.976;  -10.376;  858.209
483.925;  121.263;   -7.147;  774.373
484.513;  127.249;   -7.996;  758.962
485.102;  123.831;  -10.027;  810.965
485.690;  132.944;  -10.446; 1011.050
486.278;  135.552;   -8.446;  979.329
486.867;  135.679;   -6.356;  809.662
487.455;  137.601;   -9.136;  898.229
488.043;  139.173;  -10.646;  748.361
488.631;  149.042;   -7.456; 1005.079
489.220;  152.477;   -6.636;  908.626
489.808;  152.689;  -11.036;  741.415
490.396;  161.687;  -10.246;  914.645
490.984;  168.395;   -8.556;  830.161
491.572;  178.576;   -5.886;  940.315
492.160;  186.215;   -9.486;  919.081
492.748;  200.493;  -10.976;  884.341
493.336;  224.805;   -8.776; 1019.693
493.924;  254.434;   -5.465;  958.077
494.512;  285.823;   -9.986; 1066.638
495.100;  329.209;  -10.636; 1103.280
495.687;  386.343;  -10.885; 1206.373
496.275;  453.122;   -8.126; 1150.796
496.863;  527.352;  -10.586; 1281.171
497.451;  634.737;  -11.926; 1386.805
498.038;  781.872;  -10.885; 1556.729
498.626;  898.909;   -6.315; 1741.407
499.214; 1052.400;   -7.326; 2016.609
499.801; 1260.448;  -11.906; 2220.633
500.389; 1528.608;  -10.466; 2312.494
500.976; 1873.157;   -5.236; 2744.849
501.564; 2311.956;   -8.936; 3148.565
502.151; 2698.097;  -13.176; 3515.999
502.738; 3194.934;  -10.646; 3971.274
503.326; 3613.695;   -9.525; 4403.796
503.913; 4032.665;  -10.856; 5161.749
504.500; 4381.758;  -11.586; 5986.420
505.088; 4858.100;  -10.336; 6381.201
505.675; 5401.917;   -6.355; 6925.547
506.262; 6075.217;   -9.046; 7619.060
506.849; 6856.458;  -10.416; 8733.969
507.436; 7369.810;  -10.305; 9790.121
508.023; 7968.873;   -5.496; 9985.472
508.610; 8252.011;   -7.856;10434.618
509.197; 8894.476;  -10.097;11198.435
509.784;10321.478;  -10.886;12391.194
510.371;11342.697;   -9.315;13603.713
510.958;12161.920;   -9.936;14426.586
511.545;13050.351;   -9.326;15243.775
512.132;13984.993;  -10.075;15945.876
512.719;14639.237;   -7.796;16340.369
513.305;15575.657;  -10.606;18011.766
513.892;16531.938;  -11.486;19754.971
514.479;18095.652;   -9.126;20967.805
515.066;19570.439;   -6.026;22299.793
515.652;20725.438;   -8.466;22908.660
516.239;21980.117;  -10.886;23798.875
516.825;23108.059;  -11.496;25567.275
517.412;24256.520;   -5.796;28154.959
517.998;25220.734;  -10.506;28344.111
518.585;25245.260;  -10.076;27134.219
519.171;25406.484;   -8.315;27268.576
519.758;26806.434;   -8.596;28964.129
520.344;28833.115;   -8.466;30664.494
520.930;29035.771;  -11.006;32550.605
521.516;30744.217;  -10.495;35422.895
522.103;33483.922;   -5.526;38280.004
522.689;34479.418;   -8.746;37835.117
523.275;34155.590;  -11.376;37288.613
523.861;34895.547;  -11.156;37281.395
524.447;36089.727;   -8.135;37846.949
525.033;35594.820;   -7.896;38321.949
525.619;35934.133;  -12.476;38579.285
526.205;37733.434;   -9.516;40622.875
526.791;40698.008;   -6.926;42258.836
527.377;40502.043;   -8.346;42966.902
527.963;42557.918;   -8.717;42018.949
528.549;41480.906;  -11.016;42476.828
529.135;39621.938;   -8.536;41854.852
529.721;38884.297;   -9.666;41237.711
530.306;38420.035;  -10.066;41259.445
530.892;38666.551;  -11.356;41506.047
531.478;40051.336;   -6.596;43559.613
532.063;42624.305;   -8.836;47695.563
532.649;42944.961;  -10.047;50808.324
533.235;44044.871;   -9.746;51787.500
533.820;45587.789;   -6.566;52145.035
534.406;46621.398;  -10.817;51133.488
534.991;46086.801;   -9.416;49996.805
535.576;44734.449;   -9.036;48882.852
536.162;45244.262;   -6.156;46942.285
536.747;46608.031;  -11.607;45711.746
537.333;50156.223;  -11.787;48510.180
537.918;53548.617;  -12.437;50439.891
538.503;52281.719;   -7.196;50863.711
539.088;48961.961;  -10.556;50906.922
539.673;48987.367;   -8.767;52621.965
540.259;48748.883;  -10.026;52368.094
540.844;45846.477;   -7.416;50879.109
541.429;46586.719;   -9.467;52077.777
542.014;50184.711;   -9.527;52716.695
542.599;50148.398;   -9.946;52363.281
543.184;46796.859;   -7.927;53187.137
543.769;47717.082;   -9.297;54697.605
544.354;47529.563;  -10.127;53913.914
544.938;46677.023;   -9.267;49680.164
545.523;48931.145;   -6.506;47386.277
546.108;51131.699;   -9.787;49151.949
546.693;53353.840;  -11.587;51384.637
547.278;53555.652;  -10.986;51853.254
547.862;49964.652;   -8.206;51173.750
548.447;44891.469;  -10.067;51691.395
549.031;44442.844;   -9.637;52456.703
549.616;49347.406;   -9.926;52714.516
550.201;48300.844;   -6.347;52414.598
550.785;48961.164;   -7.917;52355.059
551.370;48567.773;  -10.867;54589.453
551.954;49003.316;   -9.047;58267.348
552.538;50570.023;   -7.827;59062.176
553.123;48755.141;  -10.287;58115.285
553.707;46255.879;  -12.178;56556.285
554.291;46938.215;   -8.717;56201.668
554.876;48814.238;   -7.457;55335.762
555.460;49539.070;  -10.387;54155.703
556.044;51243.621;   -9.618;53721.484
556.628;49265.066;  -11.567;53731.016
557.212;47666.168;   -8.097;54312.531
557.796;45492.102;  -11.077;53797.773
558.380;45597.609;  -11.108;56145.984
558.964;46987.246;   -9.057;57277.930
559.548;48007.742;   -6.977;56459.641
560.132;45779.918;  -11.457;54434.543
560.716;44423.008;  -11.378;54800.617
561.300;45295.684;   -9.577;57606.945
561.884;46553.789;   -7.127;58972.445
562.467;45387.750;   -7.118;57327.570
563.051;44464.828;  -13.358;54962.434
563.635;44707.789;  -10.178;52594.473
564.219;45570.949;   -7.837;50610.410
564.802;46507.871;  -11.398;49551.180
565.386;46595.656;  -12.788;48370.953
565.969;46108.211;   -9.077;48178.871
566.553;45020.953;   -6.207;49957.305
567.136;45192.551;   -8.568;50369.594
567.720;41292.539;  -11.868;49492.004
568.303;39751.273;   -8.268;50616.352
568.887;39759.332;   -8.698;50727.148
569.470;39936.184;   -6.808;51698.379
570.053;38897.055;  -13.188;52122.078
570.637;37278.152;  -12.037;52536.438
571.220;36686.305;   -8.577;51186.098
571.803;36718.809;   -8.498;51032.762
572.386;38611.797;  -10.498;49609.887
572.969;41452.723;   -9.388;48285.926
573.552;40272.063;   -8.338;47624.285
574.135;39218.695;   -8.518;45498.641
574.718;36615.469;  -13.628;41970.434
575.301;35158.344;  -10.893;41447.137
575.884;33701.215;   -8.158;40923.836
576.467;34802.438;  -10.328;45267.723
577.050;37249.242;  -13.058;48175.543
577.633;39008.852;   -9.458;47729.328
578.216;37921.852;   -8.928;47579.793
578.799;36815.188;   -9.358;47820.996
579.381;35136.105;  -11.388;48115.551
579.964;33442.496;  -11.718;47333.766
580.547;34874.070;   -8.588;46668.969
581.129;35837.961;   -8.859;44466.141
581.712;36409.711;  -10.729;44164.922
582.294;37144.387;  -11.118;46477.855
582.877;37350.965;   -5.218;48244.254
583.459;35372.102;   -8.679;47437.895
584.042;33492.168;  -10.709;46943.219
584.624;33996.340;  -11.669;46792.227
585.206;33614.000;   -8.218;46557.250
585.789;33730.984;  -10.569;45793.773
586.371;36628.152;  -11.859;43836.391
586.953;37482.742;  -10.719;42972.492
587.536;38443.375;   -7.198;42487.211
588.118;38309.695;   -8.720;42086.414
588.700;34393.586;  -10.439;43389.930
589.282;33445.824;   -9.198;43646.039
589.864;34539.203;   -9.199;43438.109
590.446;35892.633;  -11.319;43151.926
591.028;35636.090;  -11.159;42781.867
591.610;34578.828;  -11.779;42839.098
592.192;31643.010;   -7.668;42820.402
592.774;29913.535;  -11.949;40724.277
593.356;28865.162;  -12.129;39874.789
593.937;28531.668;  -10.669;39980.648
594.519;30732.637;   -6.509;42069.633
595.101;32895.328;  -10.849;42976.031
595.683;33161.078;  -11.679;44084.441
596.264;34203.586;   -9.049;43478.797
596.846;32987.613;   -8.849;43803.672
597.427;32242.350;   -9.570;42986.934
598.009;34051.152;  -12.620;42832.219
598.591;34379.254;  -10.039;42580.086
599.172;33410.820;  -10.369;43061.805
599.753;33347.582;   -9.140;41691.469
600.335;35284.129;  -11.430;40692.520
600.916;34013.047;   -9.939;39982.422
601.498;31405.936;   -8.479;40318.617
602.079;30079.014;  -10.920;40670.609
602.660;30065.195;  -11.480;41450.898
603.241;31167.693;  -11.699;41137.738
603.823;29913.477;   -9.579;38868.797
604.404;29786.686;  -10.620;38182.785
604.985;31207.514;  -10.450;38078.047
605.566;30452.166;   -9.129;38056.633
606.147;30471.939;   -7.510;37020.418
606.728;32704.426;  -10.660;37883.359
607.309;31578.287;  -11.740;38748.273
607.890;30676.975;   -9.759;38850.230
608.471;30463.436;   -8.250;37457.918
609.051;29936.863;   -9.240;36066.457
609.632;28959.555;  -12.120;35991.074
610.213;29755.516;   -9.110;37402.641
610.794;30295.928;   -8.030;38383.363
611.374;29683.523;   -8.110;40562.387
611.955;30241.395;  -13.560;38533.727
612.536;31788.893;  -11.400;36951.789
613.116;31278.859;   -8.070;37197.891
613.697;31438.096;  -10.830;38411.125
614.277;29867.064;  -11.641;38673.938
614.858;30882.281;  -13.310;37075.863
615.438;30420.973;   -7.460;35092.906
616.019;27468.549;   -7.601;33666.301
616.599;27901.432;  -12.020;34189.023
617.179;30073.148;  -11.780;36952.047
617.760;30813.391;   -8.570;39582.574
618.340;31825.080;  -11.471;38943.977
618.920;33337.238;  -11.170;37594.156
619.500;33190.340;  -11.071;37866.938
620.080;32291.320;   -7.750;37869.043
620.660;33240.496;  -12.711;36868.617
621.241;34218.301;  -10.211;36352.309
621.821;34220.148;  -10.961;35459.520
622.401;33788.125;   -7.720;35207.414
622.980;32845.703;   -8.981;35980.422
623.560;31272.180;   -9.331;37351.328
624.140;30555.480;   -9.850;34388.582
624.720;25745.400;   -7.451;32368.764
625.300;22063.332;   -9.070;32638.629
625.880;25267.529;  -12.601;34599.035
626.459;29136.213;  -11.751;36831.738
627.039;32258.631;   -9.281;38299.098
627.619;32188.383;   -8.801;38289.574
628.198;30360.500;  -12.071;37220.695
628.778;29418.322;   -9.461;37632.563
629.357;30104.582;   -8.491;38003.012
629.937;30166.693;   -9.721;38402.039
630.516;29779.357;   -9.951;37868.801
631.096;29670.420;  -11.731;35760.410
631.675;32642.920;   -8.572;35225.219
632.254;37889.102;  -11.282;35130.289
632.834;37070.281;  -13.322;35794.570
633.413;35043.926;  -10.301;35788.922
633.992;32068.975;   -8.582;34532.863
634.571;33405.883;   -8.352;33590.113
635.151;36000.996;  -11.912;34943.863
635.730;34272.039;  -10.511;35352.523
636.309;30869.096;   -7.731;35366.605
636.888;28410.396;   -9.952;36165.637
637.467;29207.059;  -11.672;37515.902
638.046;31253.932;   -8.901;39288.695
638.625;34542.918;   -7.912;38279.699
639.204;34242.508;  -10.022;37741.598
639.782;32161.791;  -12.252;38364.551
640.361;28300.166;  -10.041;36740.621
640.940;25374.730;  -11.161;34950.082
641.519;25819.357;   -9.701;34137.398
642.097;28373.113;  -11.271;35654.258
642.676;31208.078;   -8.651;35637.957
643.255;32414.791;   -8.711;36567.074
643.833;31702.885;   -9.581;37809.434
644.412;32208.242;  -13.711;37337.293
644.990;31467.678;  -11.811;37018.531
645.569;31356.016;   -9.411;36518.469
646.147;30397.373;  -10.291;36186.430
646.726;29518.523;  -12.401;36267.688
647.304;30724.076;  -10.411;36647.625
647.882;32744.086;   -9.651;39286.742
648.461;34270.355;   -9.631;39157.703
649.039;32670.334;  -11.881;35412.883
649.617;31715.260;   -9.661;34744.918
650.195;31378.689;   -9.301;35403.098
650.773;30363.561;  -10.511;35053.797
651.352;27990.438;  -11.521;33756.816
651.930;25843.887;  -12.211;31868.773
652.508;24167.457;   -9.171;33121.551
653.086;28098.943;   -9.371;33564.793
653.663;31147.832;  -13.161;34054.668
654.241;29946.373;  -13.031;35693.309
654.819;31430.682;   -9.371;36422.906
655.397;31101.939;  -10.511;38213.484
655.975;30956.768;  -10.371;39507.625
656.553;31113.076;  -10.051;39498.223
657.130;29312.646;  -10.061;40395.480
657.708;28688.211;   -9.561;39242.020
658.286;28590.361;  -11.511;38920.020
658.863;29700.641;  -10.261;40202.898
659.441;32595.949;   -7.531;39677.938
660.018;31892.650;   -9.501;40413.355
660.596;30787.607;  -13.301;39931.414
661.173;32649.850;  -11.211;39604.531
661.750;32827.336;   -9.951;39700.070
662.328;32080.023;   -9.390;39292.809
662.905;31322.701;  -11.330;38235.648
663.482;26650.031;   -9.050;36212.305
664.060;24643.631;   -8.240;35944.945
664.637;27542.238;  -10.050;35170.785
665.214;29681.227;  -11.760;34197.523
665.791;31578.145;  -10.530;34549.520
666.368;29895.787;   -9.690;35118.578
666.945;30257.666;   -9.320;36019.418
667.522;31965.098;  -11.860;36048.438
668.099;32382.668;  -10.770;36243.914
668.676;31584.957;   -6.260;35958.875
669.253;29763.098;   -7.000;37384.730
669.830;30095.102;  -10.190;36779.629
670.407;29760.566;   -9.550;35231.289
670.984;29934.055;   -9.260;35544.270
671.560;30120.551;   -9.280;35466.867
672.137;28788.492;  -11.810;34280.863
672.714;29618.311;  -11.490;34632.863
673.290;29903.488;   -7.740;35135.422
673.867;30144.621;  -10.660;36114.480
674.443;30495.697;  -12.230;36152.859
675.020;28804.738;  -10.450;35327.238
675.596;29880.215;   -9.260;35795.176
676.173;30476.283;  -10.780;35430.355
676.749;30122.609;  -13.690;33549.516
677.326;30358.486;  -11.980;32210.012
677.902;30561.453;   -8.630;32068.871
678.478;29741.377;  -10.730;32583.891
679.054;29437.949;  -10.520;32088.928
679.631;30230.992;  -11.920;30978.848
680.207;31065.680;   -7.490;33160.887
680.783;32185.672;   -9.860;35570.363
681.359;31334.861;  -13.380;36125.184
681.935;30580.217;  -12.480;35240.922
682.511;29668.582;   -7.900;34429.961
683.087;29684.617;   -7.710;34463.680
683.663;29530.744;  -11.480;34648.898
684.239;28683.768;  -14.090;34546.457
684.815;28221.197;   -7.560;35586.375
685.390;28663.771;   -9.910;35821.895
685.966;29070.838;  -11.159;35085.871
686.542;31686.246;  -11.169;34198.230
687.118;33892.520;   -5.959;32847.707
687.693;33982.168;  -10.329;32794.027
688.269;33020.414;  -12.059;33072.367
688.844;30646.719;  -10.909;33141.664
689.420;28517.787;   -8.019;33965.742
689.995;26399.918;   -8.399;34655.523
690.571;25366.355;  -10.949;33576.742
691.146;25981.627;   -9.619;32657.219
691.722;25362.953;   -8.999;32526.979
692.297;25298.764;  -11.589;33014.617
692.872;27212.178;  -11.739;34012.254
693.448;26734.646;  -11.059;34237.434
694.023;25994.172;  -10.139;34142.672
694.598;28243.449;   -9.029;34132.031
695.173;28443.113;  -13.319;34205.250
695.748;27748.869;  -10.169;32882.488
696.323;27429.949;   -8.339;32864.906
696.898;27362.264;   -8.169;33170.004
697.473;27358.672;  -12.309;32432.984
698.048;27176.537;  -10.989;31649.303
698.623;27463.352;   -9.329;30778.141
699.198;29431.230;   -9.849;31140.119
699.773;30401.195;  -12.329;31764.299
700.348;28908.059;  -10.389;31780.816
700.922;28931.584;   -9.269;32046.375
701.497;29378.586;   -9.329;32603.574
702.072;29375.445;  -10.789;34799.871
702.646;28466.535;  -10.839;35793.172
703.221;26499.969;   -9.099;35201.590
703.795;28393.543;  -10.939;34764.527
704.370;28852.561;  -12.859;34307.367
704.944;29329.453;  -11.559;33509.887
705.519;30558.850;   -7.939;31388.584
706.093;31656.111;  -10.499;31340.104
706.668;31644.109;  -11.289;32630.281
707.242;30247.041;  -11.509;32728.779
707.816;28735.807;   -9.639;32947.238
708.390;27297.346;  -11.429;33277.855
708.965;28325.828;  -11.869;33834.336
709.539;29128.723;  -11.689;33709.273
710.113;29567.346;  -10.478;33044.313
710.687;28731.928;  -10.228;31953.992
711.261;26418.746;  -13.698;30505.949
711.835;26047.045;  -13.378;30262.369
712.409;26962.943;   -9.698;31254.447
712.983;28581.342;  -11.898;32754.986
713.557;29459.084;  -15.138;34018.824
714.131;29320.609;  -14.098;34579.625
714.704;28724.363;   -9.958;33890.262
715.278;26344.945;  -10.028;33531.102
715.852;25612.637;  -11.148;33601.660
716.425;26328.465;   -9.068;33515.117
716.999;26902.535;  -10.038;33185.555
717.573;28052.604;   -9.798;33905.996
718.146;29389.881;  -12.378;35199.293
718.720;28833.898;  -11.918;35060.551
719.293;28169.709;   -8.088;34973.230
719.867;31057.750;  -10.888;36394.449
720.440;30856.752;  -11.938;36663.008
721.013;29404.801;  -12.818;35102.426
721.587;28125.516;  -10.298;33985.266
722.160;26466.471;  -10.048;33524.965
722.733;25536.420;  -12.108;32987.043
723.306;26337.570;  -10.818;33066.301
723.880;28439.631;   -8.908;33399.500
724.453;30097.355;   -9.878;33468.297
725.026;28956.443;  -11.188;33816.637
725.599;26352.289;  -11.678;32797.996
726.172;26745.607;   -9.618;33187.434
726.745;28107.684;   -8.258;35136.613
727.318;29789.035;  -12.978;35751.730
727.891;30390.129;  -12.148;35890.430
728.463;30149.271;   -8.968;34822.090
729.036;29071.086;  -10.188;32895.086
729.609;29336.084;  -11.788;31823.225
730.182;25969.064;  -11.788;31445.283
730.754;23568.977;  -10.268;32373.223
731.327;23783.318;   -9.998;33676.820
731.900;23904.818;  -12.228;33417.000
732.472;25209.039;  -13.848;31978.498
733.045;27274.742;   -8.698;30368.777
733.617;27172.037;  -10.607;30574.215
734.190;26604.496;  -11.507;31280.975
734.762;23661.648;  -13.647;31674.412
735.334;22167.650;   -9.767;31247.291
735.907;22848.459;   -9.897;29876.211
736.479;22592.730;  -11.637;29808.488
737.051;22156.393;   -9.567;30233.547
737.623;23571.391;   -8.187;31469.086
738.195;24716.658;  -11.187;31784.225
738.768;26418.623;  -12.337;32120.523
739.340;26168.301;  -12.227;32094.342
739.912;24851.895;  -11.057;31312.680
740.484;23841.373;  -10.207;31946.238
741.056;22838.574;  -10.047;32984.059
741.628;24498.797;  -13.627;33897.715
742.199;26915.102;   -7.177;33213.016
742.771;25300.947;  -10.797;31369.113
743.343;22801.998;  -11.997;31865.473
743.915;21585.521;  -12.867;32388.631
744.487;21756.238;   -7.617;31079.568
745.058;21934.439;   -9.557;30570.107
745.630;22591.566;   -9.877;29970.127
746.201;23507.203;  -14.177;29186.766
746.773;23796.391;   -9.237;28805.723
747.344;23726.986;   -9.847;29591.223
747.916;22431.223;  -11.657;31412.201
748.487;22357.814;  -10.587;32194.898
749.059;23598.279;   -8.707;32533.719
749.630;24688.652;  -10.537;32158.518
750.201;23824.246;  -11.687;30855.395
750.773;22129.189;  -11.647;28622.555
751.344;22140.041;   -7.147;28405.732
751.915;23079.727;   -9.757;28461.551
752.486;22252.332;  -12.427;27842.850
753.057;20031.766;  -12.227;27845.008
753.628;18967.734;  -10.417;27728.107
754.199;20169.066;  -11.767;27381.086
754.770;21302.348;  -11.187;25882.203
755.341;21213.002;  -10.507;25886.184
755.912;21387.494;   -9.387;26050.861
756.483;20744.424;  -10.647;26798.779
757.054;18827.652;  -11.837;27048.238
757.625;17619.494;  -12.716;26294.838
758.195;17502.893;   -9.666;26142.076
758.766;17212.967;   -8.656;26392.234
759.337;18058.250;  -12.856;26334.594
759.907;19932.391;  -13.366;27579.652
760.478;20779.939;   -8.576;28352.770
761.048;20111.213;  -10.526;27325.088
761.619;19294.314;  -11.116;26460.428
762.189;19225.760;  -12.136;26029.826
762.760;20289.105;   -9.456;26430.145
763.330;21452.895;   -7.136;26670.902
763.900;20799.838;  -11.786;26603.021
764.471;18073.199;  -11.546;25542.740
765.041;16763.053;   -8.096;24358.459
765.611;16923.369;   -8.876;23991.297
766.181;17470.400;  -12.196;24470.236
766.751;18320.166;  -11.636;24845.975
767.321;18141.311;  -10.156;24533.633
767.891;16056.033;  -11.766;24916.492
768.461;15404.562;  -14.936;24776.771
769.031;15834.039;  -12.356;24757.988
769.601;17487.373;   -7.526;24181.088
770.171;17570.971;  -10.766;23670.387
770.741;16835.145;  -13.176;22960.045
771.311;17107.773;  -10.616;22917.523
771.880;17472.910;   -9.576;23562.941
772.450;16936.154;  -10.336;24216.500
773.020;16768.838;  -13.516;24140.398
773.589;16325.780;  -13.466;24414.857
774.159;15879.811;   -8.686;23858.717
774.729;15525.275;   -9.476;22942.135
775.298;15076.808;  -13.666;22324.033
775.867;14685.217;  -11.716;21140.313
776.437;14632.025;   -9.906;20838.092
777.006;14240.104;  -12.166;20599.510
777.576;14221.290;  -12.356;20508.809
778.145;14522.530;  -11.646;20732.947
778.714;14473.159;   -8.226;21062.465
779.283;13705.756;   -9.556;20949.664
779.853;13338.052;  -14.116;20508.623
780.422;13783.931;  -11.506;20649.082
780.991;13308.087;   -9.556;21527.520
781.560;12221.729;   -9.095;22632.658
782.129;11982.988;  -12.135;23048.277
782.698;11954.299;  -10.865;23438.555
783.267;11659.346;   -9.335;23267.734
783.836;11651.153;  -11.045;22415.133
784.404;12544.334;  -13.865;20443.152
784.973;12880.640;  -13.095;19699.150
785.542;12772.854;  -11.575;19763.828
786.111;12741.436;   -9.705;20341.408
786.679;12377.160;  -12.105;20207.967
787.248;12117.617;  -12.455;19516.465
787.817;11813.979;  -11.535;18900.363
788.385;11312.990;   -9.765;17879.121
788.954;10699.884;  -14.005;17658.301
789.522;10308.604;  -11.955;17788.879
790.090;10910.145;  -10.135;18118.277
790.659;11288.602;  -10.975;18338.736
791.227;10691.622;  -13.375;18508.615
791.795;11160.650;  -12.375;17898.254
792.364;11529.726;  -10.725;17295.133
792.932;11780.630;   -9.715;16822.051
793.500;11993.308;  -12.675;17040.148
794.068;12283.764;  -13.495;17179.787
794.636;12411.965;  -10.885;16664.246
795.204;11890.917;  -11.045;16524.545
795.772;11871.954;  -13.175;17274.564
796.340;11374.041;  -12.445;17891.002
796.908;11206.419;   -9.735;17648.561
797.476;11216.514;   -9.815;17064.080
798.044;10820.802;  -13.985;16672.777
798.612;10005.346;  -13.115;17023.996
799.180; 9674.997;  -10.185;16561.615
799.747; 9560.990;   -9.055;15962.773
800.315; 9221.445;  -12.385;15296.992
800.883; 8877.581;  -15.035;14801.771
801.450; 8862.885;  -10.365;14534.430
802.018; 8898.049;   -9.855;14173.248
802.585; 8923.738;  -11.905;14029.547
803.153; 8978.977;  -11.585;13836.846
803.720; 8955.333;   -9.095;13567.324
804.287; 8653.431;   -9.135;13360.622
804.855; 8194.527;  -11.604;13681.981
805.422; 8051.818;  -11.794;13536.560
805.989; 8022.502;  -10.734;13355.958
806.556; 8175.848;  -10.444;13747.896
807.124; 8491.313;  -12.764;13987.376
807.691; 8418.214;  -12.964;14038.674
808.258; 8193.053;  -11.134;14120.152
808.825; 7860.387;   -9.854;13860.111
809.392; 7932.329;  -10.504;13268.790
809.959; 7512.609;  -13.054;12680.389
810.526; 7123.108;   -8.294;12427.308
811.093; 7165.307;   -8.394;12030.105
811.659; 7721.769;  -12.304;11653.664
812.226; 8129.975;  -13.944;11637.183
812.793; 7781.498;  -10.484;11611.521
813.360; 7120.349;  -10.144;11885.181
813.926; 6719.821;  -11.684;12770.539
814.493; 6476.713;  -13.644;12677.638
815.060; 6142.284;   -9.724;11974.336
815.626; 6215.394;   -9.854;11594.715
816.193; 6641.883;  -13.254;11579.474
816.759; 6679.692;  -13.204;11666.972
817.325; 6804.866;   -9.434;11325.530
817.892; 7177.635;  -10.134;11105.369
818.458; 7569.604;  -13.474;10843.928
819.024; 7224.205;  -11.854;10714.406
819.591; 6902.350;  -10.244;10469.165
820.157; 6646.452;  -10.704;10235.523
820.723; 6121.575;  -12.324;10847.563
821.289; 5836.258;   -9.444;11040.980
821.855; 5766.419;   -8.374;10357.100
822.421; 5794.614;  -10.234; 9978.918
822.987; 5736.388;  -13.294; 9754.177
823.553; 5403.387;  -10.884;10065.755
824.119; 5239.007;   -8.884;10036.294
824.685; 5334.473;   -6.784;10029.192
825.251; 5413.329;  -12.004;10199.230
825.816; 5371.111;  -11.474; 9820.189
826.382; 5181.714;   -9.174; 9297.248
826.948; 5398.936;   -9.214; 9381.347
827.513; 5782.502;  -10.774; 9450.726
828.079; 5577.912;  -11.924; 9472.444
828.645; 5026.275;  -10.543; 9292.643
829.210; 4949.270;  -10.533; 9065.341
829.776; 4911.583;  -10.753; 9132.620
830.341; 4767.349;  -10.173; 9092.878
830.906; 4930.104;  -10.743; 9078.557
831.472; 5279.655;  -11.113; 8534.535
832.037; 5062.707;  -10.603; 8677.874
832.602; 4520.614;  -13.323; 8628.692
833.167; 4193.572;  -10.823; 8879.031
833.733; 4131.892;  -10.113; 9189.790
834.298; 4235.926;  -13.583; 9052.608
834.863; 4249.458;  -12.703; 8895.087
835.428; 4216.376;  -10.523; 8824.266
835.993; 4139.231;   -6.963; 8845.385
836.558; 4033.152;  -10.763; 8888.563
837.123; 4162.672;   -9.903; 8966.582
837.688; 4362.787;   -9.913; 8617.860
838.253; 4542.036;  -10.283; 8590.699
838.817; 4747.833;  -12.963; 8443.797
839.382; 4697.048;  -14.243; 8799.356
839.947; 4399.669;  -10.733; 8810.595
840.511; 4095.234;   -9.383; 8796.394
841.076; 3744.622;  -12.563; 8347.231
841.641; 3791.394;  -12.953; 8224.330
842.205; 3847.790;   -7.043; 8223.349
842.770; 3942.583;   -8.163; 8622.107
843.334; 4178.816;  -12.503; 8410.386
843.898; 4189.715;  -11.693; 8337.465
844.463; 4218.131;  -10.203; 8506.283
845.027; 3963.830;   -9.533; 8280.962
845.591; 3745.863;  -13.443; 8231.141
846.156; 3759.779;  -13.143; 7969.179
846.720; 3658.992;   -9.433; 7768.278
847.284; 3533.990;  -11.033; 7630.957
847.848; 3360.341;  -10.403; 7472.395
848.412; 3258.436;  -11.553; 7437.394
848.976; 3303.127;   -8.393; 7674.592
849.540; 3261.444;   -8.713; 7836.011
850.104; 3338.411;  -12.463; 7913.669
850.668; 3662.065;  -12.973; 7694.508
851.232; 3781.346;  -10.793; 7756.887
851.796; 3612.645;  -10.662; 7926.545
852.359; 3305.377;  -13.082; 7827.844
852.923; 3161.844;  -12.192; 7641.163
853.487; 3008.846;  -11.912; 7342.501
854.050; 2945.469;  -10.892; 7042.820
854.614; 3062.828;  -13.992; 7151.338
855.177; 3161.354;  -11.732; 7105.077
855.741; 3206.939;   -8.962; 6989.675
856.304; 3106.518;   -9.442; 6596.634
856.868; 3042.555;  -14.192; 6356.272
857.431; 3149.317;  -12.702; 6468.571
857.995; 3252.527;   -9.942; 6373.210
858.558; 3263.935;   -9.112; 6324.448
859.121; 3027.110;  -12.932; 6408.327
859.684; 2918.813;  -13.442; 6347.886
860.247; 3042.157;  -10.632; 6321.264
860.810; 3028.686;  -11.272; 6301.903
861.374; 2785.297;   -9.832; 6607.881
861.937; 2535.455;  -11.762; 6408.200
862.500; 2512.630;   -9.722; 6572.639
863.062; 2658.741;  -10.512; 6387.297
863.625; 2828.068;  -11.232; 6190.836
864.188; 2993.421;  -14.112; 5807.254
864.751; 3048.641;  -11.302; 5682.413
865.314; 2942.288;  -10.112; 5547.492
865.876; 2765.613;  -12.182; 5500.150
866.439; 2769.502;  -10.722; 5415.909
867.002; 2721.880;   -9.252; 5501.567
867.564; 2511.644;   -9.572; 5413.946
868.127; 2303.628;  -13.142; 5160.325
868.689; 2223.076;  -12.902; 5133.183
869.252; 2149.788;   -9.732; 5252.382
869.814; 2064.985;   -9.432; 5297.141
870.377; 2077.879;  -11.552; 5390.919
870.939; 2152.689;   -9.052; 5599.898
871.501; 2212.194;  -10.982; 5248.336
872.063; 2214.703;  -12.292; 4854.235
872.626; 2172.848;  -14.912; 4817.074
873.188; 2178.508;  -13.112; 4987.732
873.750; 2134.156;  -13.442; 4868.651
874.312; 2047.204;   -9.402; 4779.330
874.874; 1960.868;  -11.062; 4866.348
875.436; 1884.698;  -13.931; 4718.887
875.998; 1881.540;   -9.561; 4660.005
876.560; 1895.246;  -11.321; 4462.964
877.122; 1843.929;  -12.221; 4145.042
877.683; 1757.095;  -12.191; 4056.481
878.245; 1683.679;  -12.101; 3950.740
878.807; 1708.280;   -8.971; 4058.958
879.369; 1721.526;  -12.071; 3954.677
879.930; 1635.381;  -14.621; 3941.495
880.492; 1584.466;  -10.311; 4067.014
881.053; 1549.090;  -10.901; 3859.633
881.615; 1433.708;  -14.411; 3776.071
882.176; 1350.755;  -13.761; 3734.750
882.738; 1321.284;   -9.181; 3678.489
883.299; 1298.182;  -11.791; 3405.407
883.860; 1297.760;  -13.121; 3351.106
884.422; 1308.078;  -11.211; 3394.044
884.983; 1265.944;  -10.091; 3166.443
885.544; 1171.185;   -8.461; 3189.802
886.105; 1092.844;  -12.361; 3160.360
886.666; 1030.550;  -14.141; 3093.059
887.227;  973.944;  -11.361; 2941.957
887.788;  912.183;  -11.401; 2974.836
888.349;  852.200;  -13.791; 2721.214
888.910;  852.074;  -13.191; 2696.493
889.471;  860.621;   -9.881; 2560.172
890.032;  844.856;   -9.881; 2558.190
890.593;  820.370;  -10.371; 2567.669
891.153;  793.130;  -13.301; 2460.307
891.714;  745.994;  -11.431; 2372.046
892.275;  707.617;  -11.291; 2309.505
892.835;  670.185;  -11.471; 2382.543
893.396;  613.540;  -11.541; 2295.502
893.956;  556.213;  -11.181; 2162.420
894.517;  520.205;  -11.741; 2125.439
895.077;  514.842;  -11.671; 2086.978
895.638;  515.484;  -11.311; 2126.316
896.198;  487.345;   -9.831; 1838.275
896.758;  446.180;   -8.421; 1892.813
897.319;  412.815;  -12.351; 1792.232
897.879;  395.610;  -13.511; 1762.751
898.439;  370.026;  -12.001; 1661.149
898.999;  345.463;  -10.180; 1781.468
899.559;  335.886;  -12.030; 1703.347
900.119;  332.931;  -15.710; 1537.525
900.679;  329.198;   -8.900; 1638.384
901.239;  316.098;   -8.340; 1527.902
901.799;  304.640;  -13.910; 1456.441
902.359;  298.804;  -13.460; 1357.140
902.919;  293.062;  -11.490; 1331.118
903.479;  278.971;  -12.110; 1317.257
904.038;  258.221;  -11.720; 1262.595
904.598;  243.482;  -13.610; 1152.034
905.158;  238.479;  -11.040; 1240.893
905.717;  230.957;  -10.900; 1233.691
906.277;  220.077;  -15.080; 1217.330
906.836;  210.329;  -13.380; 1222.408
907.396;  203.558;  -10.780; 1193.047
907.955;  196.085;   -8.500; 1182.526
908.515;  190.459;  -12.760; 1099.364
909.074;  184.216;  -11.900; 1092.863
909.633;  179.027;   -8.950; 1069.121
910.192;  173.759;   -8.770; 1196.460
910.752;  168.847;  -12.390; 1029.960
911.311;  165.149;  -13.680; 1009.780
911.870;  162.747;  -12.370;  971.460
912.429;  163.799;  -10.900; 1094.080
912.988;  161.739;  -11.690; 1081.060
913.547;  156.708;  -13.240;  940.380
914.106;  152.676;  -11.990;  999.420
914.665;  149.011;   -9.990;  984.020
915.224;  148.565;  -12.880; 1035.760
915.782;  149.739;  -12.350;  922.560
916.341;  148.449;   -9.110; 1049.840
916.900;  143.644;   -9.270;  925.260
917.458;  141.663;  -13.240;  884.220
918.017;  142.035;  -13.550;  942.600
918.576;  141.118;  -12.320;  904.440
919.134;  140.316;  -11.490;  837.980
919.693;  137.837;  -13.670;  893.060
920.251;  135.930;  -15.470;  876.500
920.809;  134.941;  -11.290;  839.580
921.368;  134.455;  -10.210;  885.360
921.926;  133.253;  -12.140;  842.940
922.484;  131.968;  -13.080;  903.360
923.042;  131.547;  -11.720;  880.340
923.601;  134.296;   -7.480;  998.680
924.159;  132.326;  -11.570;  935.560
924.717;  130.088;  -13.840;  841.080
925.275;  129.636;  -10.640;  903.240
925.833;  128.473;  -11.540;  779.320
926.391;  130.089;  -12.960;  938.380
926.949;  128.556;  -14.130;  857.680
927.506;  128.511;  -11.750;  903.500
928.064;  128.195;  -10.250;  877.580
928.622;  127.038;  -13.030;  880.100
929.180;  127.247;  -13.400;  814.180
929.737;  128.420;  -10.700;  808.540
930.295;  131.696;  -10.070;  928.480
930.853;  133.282;  -11.960;  849.100
931.410;  134.303;  -13.120;  821.120
931.968;  133.724;  -10.770;  940.660
932.525;  133.170;  -10.680;  909.380
933.082;  133.391;  -13.130;  811.440
933.640;  134.434;  -13.210;  925.900
934.197;  132.859;  -11.060;  886.360
934.754;  132.835;   -9.580;  897.780
935.312;  136.388;  -14.000;  863.340
935.869;  141.175;  -10.710; 1012.980
936.426;  141.324;   -9.860;  872.800
936.983;  141.105;   -9.710;  889.020
937.540;  141.176;  -13.990;  838.280
938.097;  140.325;  -14.040;  940.120
938.654;  140.309;  -10.310;  898.860
939.211;  143.174;  -10.560;  952.480
939.768;  146.718;  -13.900;  915.420
940.324;  149.012;  -14.760;  904.200
940.881;  150.380;  -10.370;  878.500
941.438;  150.332;   -8.260; 1021.200
941.995;  146.605;  -12.540;  992.560
942.551;  143.822;  -14.670;  875.620
943.108;  144.903;  -10.450;  937.920
943.664;  146.701;  -10.750;  869.340
944.221;  149.560;  -11.550; 1088.140
944.777;  148.010;  -14.770;  869.680
945.334;  149.876;  -12.820;  884.840
945.890;  151.206;  -10.130;  946.480
946.446;  151.857;  -13.470;  947.020
947.003;  153.088;  -12.120;  964.940
947.559;  155.336;   -9.980; 1063.040
948.115;  153.560;   -9.080; 1026.540
948.671;  152.501;  -10.830;  967.300
949.227;  149.769;  -12.440;  859.560
949.783;  147.361;  -12.910;  858.900
950.339;  147.589;  -10.270;  991.000
950.895;  148.114;  -13.630; 1023.840
951.451;  148.686;  -15.100;  925.280
952.007;  149.495;  -11.330;  998.540
952.563;  150.751;  -10.580;  937.780
953.118;  150.152;  -13.440;  904.940
953.674;  149.516;  -12.710;  935.780
954.230;  148.533;  -10.350;  949.640
954.785;  145.782;   -9.190;  936.640
955.341;  143.241;  -11.200;  998.160
955.897;  142.544;  -16.560;  834.660
956.452;  142.660;  -12.570;  953.840
957.008;  142.145;   -7.970; 1083.640
957.563;  139.707;  -11.940; 1009.540
958.118;  135.578;  -13.450;  877.700
958.674;  136.879;  -12.030;  946.780
959.229;  137.876;   -9.410; 1013.980
959.784;  134.786;  -12.000;  832.400
960.339;  133.851;  -14.780; 1001.280
960.894;  129.785;   -9.860;  963.760
961.449;  125.479;   -9.970;  859.960
962.004;  125.959;  -10.900; 1212.840
962.559;  122.182;  -13.150;  860.140
963.114;  119.035;  -13.740;  742.480
963.669;  118.211;   -9.820;  915.500
964.224;  118.364;  -13.890;  874.340
964.779;  117.773;  -12.600;  828.420
965.334;  118.022;  -10.950; 1017.860
965.888;  116.961;  -11.170;  875.360
966.443;  119.752;  -12.540;  972.380
966.998;  118.742;  -15.780;  819.460
967.552;  117.659;   -9.760;  908.380
968.107;  114.517;   -9.060;  868.300
968.661;  114.872;  -11.950;  922.440
969.216;  115.342;  -12.800;  856.280
969.770;  115.939;  -11.210;  917.200
970.324;  114.198;  -11.610;  923.140
970.879;  112.306;  -11.370;  947.180
971.433;  108.649;  -12.540;  952.720
971.987;  103.306;  -11.320;  895.340
972.541;  100.596;  -10.720;  917.100
973.095;   99.993;   -9.680; 1009.460
973.649;   99.241;  -11.440;  809.480
974.203;   99.238;  -11.210;  829.040
974.757;   98.663;  -10.240;  855.220
975.311;   98.730;  -13.720;  872.600
975.865;   98.616;  -13.770;  881.820
976.419;   96.880;  -11.690;  857.400
976.973;   97.052;   -9.510;  849.620
977.526;   99.287;  -12.620;  949.920
978.080;   98.301;  -12.010;  796.780
978.634;   99.125;  -10.170;  921.320
979.187;   96.322;   -9.020;  905.400
979.741;   93.730;   -9.820; 1018.380
980.294;   89.371;  -14.870;  789.160
980.848;   87.744;  -12.380;  717.220
981.401;   89.461;  -10.350;  816.540
981.955;   91.742;  -13.720;  844.300
982.508;   89.786;  -11.490;  746.340
983.061;   89.904;  -10.000;  915.260
983.615;   86.480;  -11.480;  798.800
984.168;   83.646;  -13.220;  770.080
984.721;   83.066;  -13.960;  880.760
985.274;   82.894;  -10.870;  867.500
985.827;   80.959;   -9.790;  834.220
986.380;   79.042;  -13.120;  721.340
986.933;   78.186;  -12.450;  864.800
987.486;   76.467;  -10.210;  861.920
988.039;   75.060;   -8.430;  863.100
988.591;   73.263;  -10.520;  893.260
989.144;   70.728;  -14.860;  737.260
989.697;   70.717;  -13.080;  758.740
990.250;   70.967;  -10.150;  858.100
990.802;   70.703;  -13.430;  755.860
991.355;   70.921;  -12.750;  974.880
991.907;   68.428;  -12.040;  864.320
992.460;   65.936;  -11.330;  753.760
993.012;   65.470;  -13.610;  749.540
993.565;   63.807;  -13.460;  711.360
994.117;   66.943;   -9.360;  950.780
994.669;   62.430;  -11.300;  701.320
995.221;   60.049;  -13.540;  791.920
995.774;   58.692;  -13.430;  787.580
996.326;   57.426;  -12.520;  740.220
996.878;   56.640;  -10.950;  838.420
997.430;   55.540;  -14.300;  699.860
997.982;   54.125;  -13.760;  750.140
998.534;   53.794;  -11.530;  739.060
999.086;   52.652;  -10.310;  738.220
999.638;   51.050;  -12.530;  661.380
1000.190;   50.862;  -11.840;  699.320
1000.741;   50.449;  -10.260;  742.700
1001.293;   49.867;   -8.860;  686.020
1001.845;   48.155;  -13.700;  676.640
1002.396;   48.622;  -12.100;  743.400
1002.948;   48.401;  -12.760;  737.400
1003.500;   46.494;  -10.380;  723.780
1004.051;   47.492;  -11.900;  907.580
1004.603;   44.755;  -12.250;  791.820
1005.154;   41.979;  -13.210;  608.980
1005.705;   41.182;  -10.950;  723.960
1006.257;   41.051;  -13.880;  707.220
1006.808;   39.512;  -12.840;  685.460
1007.359;   39.862;  -10.570;  763.240
1007.910;   38.103;   -9.620;  646.640
1008.461;   38.136;  -13.630;  732.940
1009.013;   37.713;  -17.200;  588.340
1009.564;   38.826;  -10.200;  793.520
1010.115;   36.561;  -12.570;  597.040
1010.665;   36.488;  -15.150;  602.160
1011.216;   36.322;  -14.480;  667.920
1011.767;   36.271;  -11.340;  697.920
1012.318;   35.584;   -9.780;  736.980
1012.869;   35.085;  -12.380;  679.000
1013.419;   34.197;  -15.560;  603.120
1013.970;   35.003;  -11.010;  666.640
1014.521;   33.169;  -11.610;  620.620
1015.071;   33.698;  -13.450;  670.380
1015.622;   34.177;  -13.870;  635.460
1016.172;   33.930;  -11.610;  596.820
1016.723;   32.530;  -12.120;  614.380
1017.273;   32.363;  -13.620;  604.160
1017.823;   32.746;  -14.140;  650.340
1018.374;   32.230;  -12.800;  611.760
1018.924;   32.183;  -12.340;  716.880
1019.474;   32.170;  -11.410;  718.880
1020.024;   30.730;  -14.770;  657.580
1020.574;   32.348;   -9.780;  726.160
1021.124;   31.969;   -8.560;  673.580
1021.674;   30.355;  -15.190;  559.120
1022.224;   31.695;  -13.530;  708.940
1022.774;   31.275;  -13.280;  668.820
1023.324;   31.340;  -10.690;  753.520
1023.874;   32.590;  -10.240;  875.760
1024.423;   29.708;  -12.540;  613.700
1024.973;   29.817;  -10.010;  610.760
1025.523;   29.000;  -10.550;  620.960
1026.072;   28.793;  -13.560;  606.420
1026.622;   28.886;  -15.120;  675.740
1027.172;   30.123;  -11.260;  715.660
1027.721;   28.318;  -11.410;  601.220
1028.270;   28.881;  -13.530;  663.400
1028.820;   28.558;  -13.680;  638.080
1029.369;   27.976;  -13.520;  612.700
1029.918;   27.928;  -10.980;  649.840
1030.468;   27.830;  -13.530;  564.780
1031.017;   28.056;  -13.170;  634.800
1031.566;   26.584;  -12.200;  608.900
1032.115;   27.404;   -9.960;  694.500
1032.664;   26.771;  -13.210;  596.480
1033.213;   27.685;  -12.500;  735.420
1033.762;   26.641;  -11.910;  635.620
1034.311;   26.505;   -9.640;  677.220
1034.860;   26.658;  -13.310;  691.000
1035.408;   26.735;  -11.830;  722.720
1035.957;   27.121;  -12.000;  719.540
1036.506;   24.653;  -11.690;  530.800
1037.055;   26.727;  -10.990;  844.320
1037.603;   25.302;  -15.120;  664.000
1038.152;   24.287;  -12.450;  534.760
1038.700;   24.041;  -10.560;  585.740
1039.249;   24.053;  -11.080;  681.220
1039.797;   24.767;  -12.540;  633.360
1040.345;   24.589;  -11.920;  705.420
1040.894;   24.553;  -11.410;  625.300
1041.442;   24.612;  -14.320;  632.200
1041.990;   22.829;  -16.240;  559.160
1042.538;   22.996;  -11.680;  536.180
1043.087;   22.762;  -10.760;  570.860
1043.635;   23.790;  -11.850;  670.500
1044.183;   22.422;  -15.480;  586.400
1044.731;   22.761;  -11.770;  576.000
1045.279;   22.613;  -13.090;  674.920
1045.827;   24.541;  -12.440;  892.400
1046.374;   22.014;  -13.840;  515.420
1046.922;   21.677;  -13.220;  590.580
1047.470;   22.684;  -10.230;  691.300
1048.018;   21.900;  -14.590;  647.960
1048.565;   22.955;  -12.050;  708.600
1049.113;   20.994;  -11.650;  557.000
1049.660;   20.947;  -10.510;  629.660
1050.208;   21.722;  -13.310;  675.640
1050.755;   21.118;  -15.900;  606.580
1051.303;   21.685;  -11.430;  686.820
1051.850;   21.058;   -8.480;  635.120
1052.397;   19.362;  -15.010;  473.960
1052.945;   20.232;  -13.960;  617.760
1053.492;   22.485;  -13.150;  741.840
1054.039;   21.416;   -9.630;  720.180
1054.586;   19.551;  -13.680;  557.240
1055.133;   20.894;  -14.570;  693.140
1055.680;   20.481;  -13.820;  646.620
1056.227;   19.522;  -11.730;  542.780
1056.774;   20.793;  -12.480;  794.980
1057.321;   18.927;  -13.930;  523.260
1057.868;   19.551;  -11.690;  651.320
1058.415;   19.075;   -9.520;  651.980
1058.961;   19.714;  -13.160;  678.940
1059.508;   19.591;  -12.920;  643.820
1060.055;   19.016;  -11.920;  581.780
1060.601;   18.692;  -11.500;  624.300
1061.148;   18.526;  -14.330;  616.820
1061.694;   18.609;  -16.870;  592.580
1062.241;   18.481;  -10.330;  596.320
1062.787;   17.640;  -10.620;  663.140
1063.334;   19.364;  -10.110;  808.560
1063.880;   18.424;  -13.400;  668.360
1064.426;   17.818;  -10.680;  706.820
1064.972;   17.193;   -9.920;  601.340
1065.518;   16.787;  -10.980;  566.640
1066.065;   17.418;  -14.890;  624.460
1066.611;   17.159;  -12.870;  598.800
1067.157;   17.695;  -12.950;  641.860
1067.703;   17.183;  -13.540;  668.480
1068.249;   17.191;  -13.540;  605.220
1068.794;   16.607;  -12.600;  626.880
1069.340;   15.760;  -10.620;  578.960
1069.886;   16.859;  -12.830;  590.700
1070.432;   15.406;  -14.870;  541.720
1070.977;   16.125;  -11.980;  601.080
1071.523;   15.934;   -8.200;  573.060
1072.068;   15.885;  -12.330;  582.000
1072.614;   15.232;  -16.370;  527.760
1073.160;   15.829;  -11.100;  687.040
1073.705;   15.425;  -10.480;  572.520
1074.250;   15.117;  -14.520;  559.900
1074.796;   16.250;  -11.460;  655.160
1075.341;   16.235;  -11.950;  664.100
1075.886;   14.863;  -11.460;  594.240
1076.431;   14.392;  -13.770;  649.880
1076.976;   15.207;  -12.680;  639.220
1077.521;   14.635;  -13.170;  583.080
1078.067;   13.366;  -10.860;  579.400
1078.612;   14.544;  -13.920;  661.620
1079.156;   14.480;  -13.880;  601.540
1079.701;   14.547;  -13.120;  693.260
1080.246;   15.202;   -9.940;  696.300
1080.791;   14.812;  -14.740;  625.020
1081.336;   14.343;  -13.750;  659.320
1081.880;   14.424;  -13.400;  649.680
1082.425;   13.085;  -12.220;  573.480
1082.970;   14.627;  -11.610;  717.040
1083.514;   13.663;  -13.580;  597.000
1084.059;   12.993;  -12.810;  586.720
1084.603;   12.241;  -12.320;  565.840
1085.147;   13.405;  -13.190;  645.220
1085.692;   13.736;  -12.480;  716.800
1086.236;   12.175;  -13.020;  503.140
1086.780;   13.961;   -9.190;  751.440
1087.325;   13.262;  -12.480;  654.620
1087.869;   13.008;  -12.450;  610.700
1088.413;   13.254;  -12.240;  705.040
1088.957;   11.356;   -9.020;  543.400
1089.501;   12.982;  -10.320;  766.640
1090.045;   12.140;  -12.720;  726.480
1090.589;   10.377;  -13.690;  569.920
1091.133;   11.723;  -10.020;  673.340
1091.676;   12.027;  -12.330;  591.940
1092.220;   12.104;  -14.970;  600.920
1092.764;   12.484;  -12.430;  706.960
1093.307;   11.922;   -9.800;  673.780
1093.851;    9.908;  -14.970;  556.540
1094.395;   12.041;  -15.310;  683.140
1094.938;   11.002;  -10.370;  632.520
1095.482;   10.579;  -11.050;  559.800
1096.025;   10.990;  -11.840;  710.880
1096.568;   11.346;  -12.840;  779.280
1097.112;   10.244;  -14.700;  508.180
1097.655;   10.717;   -8.720;  603.000
1098.198;    9.500;  -13.610;  600.180
1098.741;    9.998;  -13.350;  612.860
1099.285;   11.062;  -11.230;  657.300
1099.828;    9.083;  -11.840;  439.400
1100.371;    9.479;  -10.840;  608.160
1100.914;    9.986;  -14.190;  682.660
1101.457;    9.798;  -11.240;  679.900
1101.999;    8.486;  -11.270;  584.680
1102.542;    8.941;  -11.480;  641.440
1103.085;    9.285;  -11.750;  658.500
1103.628;    9.869;  -11.400;  762.060
1104.170;    9.085;  -10.490;  588.280
1104.713;    8.765;  -10.600;  646.700
1105.256;    9.039;  -14.360;  557.440
1105.798;    8.234;  -13.210;  499.980
1106.341;    9.589;  -10.270;  728.900
1106.883;    7.902;  -12.200;  521.340
1107.425;    8.389;  -13.110;  668.180
1107.968;    8.321;  -12.840;  612.380
1108.510;    9.100;   -6.480;  684.960
1109.052;    7.133;  -13.940;  612.620
1109.594;    7.661;  -13.690;  554.440
1110.136;    8.664;  -11.880;  643.220
1110.679;    7.116;   -9.500;  633.080
1111.221;    7.957;  -14.160;  604.460
1111.763;    7.729;  -13.980;  559.220
1112.304;    6.799;  -13.880;  547.140
1112.846;    7.770;  -12.210;  666.240
1113.388;   10.381;  -11.390;  942.180
1113.930;    7.539;  -14.540;  694.200
1114.472;    6.669;  -12.640;  606.540
1115.013;    5.721;  -11.620;  551.280
1115.555;    6.157;  -13.640;  587.100
1116.097;    5.498;  -15.380;  579.480
1116.638;    7.282;  -12.640;  684.600
1117.180;    7.242;   -9.850;  667.740
1117.721;    6.243;  -13.690;  568.580
1118.262;    7.086;  -12.680;  677.960
1118.804;    7.729;  -12.530;  637.340
1119.345;    5.931;  -11.690;  578.400
1119.886;    7.088;  -13.380;  704.040
1120.427;    5.824;  -14.070;  589.020
1120.969;    5.118;  -13.500;  597.920
1121.510;    4.888;  -11.480;  563.060
1122.051;    5.234;  -12.830;  723.580
1122.592;    5.305;  -14.290;  655.420
1123.133;    4.250;  -12.400;  547.940
1123.673;    6.823;  -10.130;  706.480
1124.214;    4.195;  -12.930;  612.460
1124.755;    6.263;  -14.380;  639.460
1125.296;    5.420;  -14.000;  627.320
1125.836;    5.924;  -10.070;  691.500
1126.377;    4.301;  -12.640;  599.660
1126.918;    4.824;  -12.960;  614.980
1127.458;    3.844;  -13.350;  622.220
1127.999;    5.055;  -10.750;  656.980
1128.539;    4.953;  -12.350;  694.240
1129.079;    4.391;  -14.860;  632.720
1129.620;    3.927;  -13.840;  558.100
1130.160;    3.962;  -12.330;  539.480
1130.700;    4.559;  -14.530;  640.840
1131.240;    5.096;  -12.530;  643.700
1131.781;    4.268;  -14.450;  619.680
1132.321;    4.113;   -9.790;  599.120
1132.861;    2.891;  -14.860;  564.200
1133.401;    3.030;  -14.290;  593.940
1133.941;    3.518;  -11.750;  626.280
1134.481;    2.943;   -9.920;  597.580
1135.020;    3.294;  -12.290;  609.160
1135.560;    4.171;  -11.650;  674.940
1136.100;    3.140;  -16.270;  501.160
1136.640;    2.603;  -10.890;  510.480
1137.179;    2.695;  -14.180;  537.960
1137.719;    3.809;  -16.250;  605.400
1138.258;    3.530;  -14.230;  587.360
1138.798;    3.160;   -9.090;  663.780
1139.337;    1.804;  -15.130;  482.840
1139.877;    2.738;  -13.680;  642.360
1140.416;    4.793;  -11.320;  878.060
1140.955;    2.341;  -10.860;  535.380
1141.494;    2.100;  -12.920;  669.280
1142.034;    2.493;  -13.930;  583.520
1142.573;    3.914;  -11.440;  646.280
1143.112;    1.813;  -12.000;  553.480
1143.651;    1.948;  -13.670;  536.480
1144.190;    2.968;  -12.730;  691.640
1144.729;    2.631;  -14.560;  607.420
1145.267;    1.754;  -11.830;  584.900
1145.806;    1.927;  -12.230;  637.040
1146.345;    1.686;  -14.130;  635.020
1146.884;    1.330;  -11.590;  622.500
1147.422;    0.875;  -12.550;  533.060
1147.961;    2.519;  -11.180;  708.460
1148.500;    2.971;  -11.510;  669.720
1149.038;    2.612;  -11.640;  632.500
1149.577;    2.641;  -10.130;  698.640
1150.115;   -0.391;  -13.970;  452.280
1150.653;    1.497;  -14.520;  607.340
1151.192;    1.361;  -12.810;  552.920
1151.730;    1.438;   -9.100;  652.560
1152.268;    0.581;  -12.220;  589.520
1152.806;    0.607;  -14.140;  571.180
1153.344;    0.630;  -12.350;  577.640
1153.882;    1.208;   -8.980;  600.060
1154.421;   -0.353;  -15.190;  470.620
1154.958;   -0.403;  -15.210;  595.240
1155.496;    2.205;  -12.850;  645.280
1156.034;    0.744;   -9.940;  721.880
1156.572;    1.340;  -13.570;  667.060
1157.110;   -0.802;  -14.590;  473.940
1157.647;    0.963;  -13.030;  676.960
1158.185;   -0.433;  -12.140;  564.320
1158.723;   -1.230;  -14.390;  509.200
1159.260;    0.286;  -14.090;  701.700
1159.798;    1.151;  -11.920;  658.160
1160.335;    0.069;  -11.110;  631.820

