
Integration time [ms]:   3.882
Averaging Nr. [scans]: 1000
Smoothing Nr. [pixels]: 0
Data measured with spectrometer [name]: 7414430SP
Wave   ;Sample   ;Dark     ;Reference
[nm]   ;[counts] ;[counts] ;[counts] 

288.544;  140.337;    7.153;  793.890
289.143;  144.234;    8.402;  681.602
289.742;  145.886;    7.062;  828.814
290.341;  132.638;    0.191;  789.841
290.940;  123.574;    0.321;  730.702
291.538;  123.845;    3.811;  881.108
292.137;  122.747;   -3.438;  792.581
292.736;  125.363;   -2.809;  975.101
293.335;  122.045;   -5.239;  735.086
293.934;  123.417;   -4.939;  781.677
294.532;  124.165;   -2.199; 1031.958
295.131;  109.625;   -6.831;  834.394
295.730;  109.219;   -6.620;  809.588
296.328;  106.982;   -6.471;  783.442
296.927;  106.856;   -6.571;  779.652
297.525;  108.008;   -7.391;  781.236
298.124;   99.691;   -9.402;  654.009
298.722;  104.511;   -5.781;  761.933
299.321;  101.354;   -6.351;  708.597
299.919;   99.550;   -8.661;  751.918
300.518;   95.358;  -11.922;  689.338
301.116;   97.272;   -6.941;  691.381
301.715;   97.671;   -5.471;  730.222
302.313;   96.716;   -8.361;  704.943
302.911;   91.608;   -9.082;  733.830
303.509;   97.790;   -4.571;  925.627
304.108;   94.618;   -7.111;  760.383
304.706;   94.918;   -7.681;  801.664
305.304;   90.020;   -9.162;  796.707
305.902;   94.860;   -6.761;  784.484
306.500;   89.472;   -6.921;  728.200
307.098;   89.242;   -6.491;  746.560
307.696;   87.059;   -6.941;  780.432
308.294;   87.344;   -6.301;  731.359
308.892;   88.805;   -4.771;  759.769
309.490;   85.877;   -5.141;  712.161
310.088;   84.743;   -2.912;  788.444
310.686;   88.502;   -0.421;  821.749
311.284;   83.703;   -3.461;  766.040
311.882;   82.453;   -6.282;  731.225
312.480;   78.794;   -3.632;  697.167
313.078;   81.125;   -2.112;  808.331
313.675;   80.909;   -1.931;  691.600
314.273;   76.524;   -1.442;  797.837
314.871;   75.514;   -3.002;  589.829
315.468;   74.237;   -2.252;  652.090
316.066;   76.724;   -1.091;  694.427
316.664;   69.725;   -4.512;  656.351
317.261;   74.972;   -0.062;  910.128
317.859;   70.799;   -0.952;  768.735
318.456;   70.755;    0.719;  830.096
319.054;   66.270;   -4.002;  787.828
319.651;   66.198;   -4.972;  759.928
320.249;   65.419;   -1.162;  810.188
320.846;   62.985;   -2.651;  714.286
321.443;   61.083;   -3.832;  832.135
322.041;   57.791;   -4.312;  812.315
322.638;   55.853;   -3.872;  701.456
323.235;   57.287;   -4.361;  665.683
323.833;   54.586;   -4.821;  740.354
324.430;   50.481;   -6.971;  615.900
325.027;   52.351;   -4.361;  876.855
325.624;   51.277;   -5.581;  644.532
326.221;   48.535;   -6.601;  689.717
326.818;   48.509;   -7.301;  818.332
327.415;   51.030;   -6.180;  748.828
328.012;   50.468;   -5.920;  690.585
328.609;   47.584;   -8.390;  731.389
329.206;   47.121;   -6.121;  778.621
329.803;   46.696;   -5.241;  737.841
330.400;   48.697;   -7.420;  704.260
330.997;   48.756;   -5.931;  817.147
331.594;   47.088;   -5.641;  788.185
332.191;   52.021;   -6.451;  728.722
332.787;   55.709;   -4.651;  844.463
333.384;   53.352;   -5.472;  763.093
333.981;   50.520;   -6.303;  815.687
334.578;   54.346;   -5.892;  708.378
335.174;   56.708;   -4.102;  731.469
335.771;   55.793;   -8.053;  836.456
336.367;   52.932;   -7.363;  710.631
336.964;   56.508;   -6.243;  793.266
337.561;   55.288;   -5.653;  731.112
338.157;   51.463;   -7.074;  911.916
338.754;   49.322;   -5.474;  796.589
339.350;   47.873;   -5.624;  722.493
339.946;   50.006;   -5.054;  773.135
340.543;   42.056;   -6.695;  846.136
341.139;   36.769;   -6.215;  720.836
341.735;   36.217;   -5.746;  772.593
342.332;   34.096;   -7.335;  691.472
342.928;   33.991;   -4.835;  795.394
343.524;   28.793;   -4.586;  761.684
344.120;   26.561;   -3.946;  738.562
344.716;   29.029;   -4.835;  723.717
345.313;   26.080;   -5.325;  795.342
345.909;   22.516;   -6.535;  627.336
346.505;   24.095;   -4.725;  740.247
347.101;   24.559;   -4.164;  827.864
347.697;   24.449;   -5.274;  785.398
348.293;   19.152;   -7.145;  627.244
348.889;   19.619;   -4.364;  745.914
349.485;   19.166;   -6.404;  688.205
350.081;   19.749;   -7.534;  772.592
350.676;   14.587;   -6.995;  691.606
351.272;   19.380;   -3.544;  809.530
351.868;   19.194;   -5.324;  780.497
352.464;   17.436;   -7.204;  723.932
353.059;   13.130;   -6.894;  646.017
353.655;   16.855;   -3.754;  777.063
354.251;   17.668;   -6.143;  759.845
354.846;   12.300;   -9.464;  740.646
355.442;   10.504;   -7.555;  753.071
356.038;   12.219;   -5.474;  751.708
356.633;   12.128;   -5.914;  728.594
357.229;   10.178;   -8.944;  724.757
357.824;    8.675;   -6.794;  703.600
358.420;    7.402;   -5.754;  679.726
359.015;    8.709;   -5.664;  695.357
359.610;    8.669;   -8.004;  763.920
360.206;    3.785;   -8.815;  603.240
360.801;    6.682;   -8.834;  646.503
361.396;    8.678;   -6.274;  725.975
361.992;    3.217;   -8.574;  668.220
362.587;    2.272;   -9.265;  670.160
363.182;    3.279;   -5.484;  689.631
363.777;    4.681;   -5.164;  738.242
364.372;    4.601;   -6.954;  737.314
364.967;    0.255;   -7.065;  680.744
365.563;    5.301;   -5.684;  815.567
366.158;    1.965;   -6.484;  685.161
366.753;    2.575;   -8.004;  649.263
367.348;    1.352;  -10.114;  746.056
367.942;    1.106;   -7.764;  697.298
368.537;    0.141;   -4.554;  754.245
369.132;    0.038;   -7.664;  703.428
369.727;   -3.279;   -8.905;  638.079
370.322;   -2.026;   -4.945;  580.186
370.917;   -2.502;   -7.095;  710.646
371.511;    0.220;   -6.574;  861.834
372.106;   -2.363;   -6.515;  776.964
372.701;   -6.270;   -8.225;  585.988
373.296;   -0.306;   -4.494;  863.135
373.890;   -5.998;   -7.965;  647.840
374.485;   -6.965;   -9.745;  691.199
375.079;   -3.494;   -5.554;  738.685
375.674;   -2.219;   -4.724;  812.970
376.268;   -7.177;   -8.365;  691.759
376.863;  -12.015;   -8.126;  580.327
377.457;   -5.527;   -6.045;  662.490
378.052;   -7.455;   -6.835;  764.884
378.646;   -8.251;   -9.375;  741.167
379.240;   -8.697;   -6.185;  721.176
379.835;   -7.456;   -6.135;  636.978
380.429;  -10.002;   -8.365;  562.557
381.023;  -10.469;   -7.935;  779.205
381.617;  -11.825;   -8.325;  680.106
382.212;   -8.613;   -7.405;  685.303
382.806;   -7.755;   -4.155;  760.690
383.400;  -11.625;   -8.945;  672.281
383.994;  -12.457;   -8.365;  664.870
384.588;   -7.760;   -7.824;  697.701
385.182;   -7.159;   -7.984;  726.624
385.776;   -9.286;  -10.404;  706.875
386.370;  -12.107;   -7.335;  681.968
386.964;  -11.052;   -7.485;  684.155
387.558;   -9.247;   -8.174;  598.360
388.152;  -12.473;  -10.415;  681.959
388.745;  -11.064;   -9.595;  814.707
389.339;   -8.526;   -6.454;  747.642
389.933;   -8.546;   -5.804;  695.370
390.527;   -9.322;   -6.854;  859.029
391.120;  -15.802;   -7.665;  595.318
391.714;  -12.345;   -7.245;  711.633
392.308;   -8.890;   -4.514;  780.253
392.901;  -13.497;   -7.935;  642.460
393.495;  -14.857;   -8.585;  595.414
394.089;  -12.050;   -5.245;  760.452
394.682;  -13.055;   -6.305;  697.188
395.275;  -13.642;   -9.335;  719.927
395.869;  -14.341;   -7.375;  667.314
396.462;  -13.790;   -7.055;  616.609
397.056;   -9.010;   -5.434;  776.621
397.649;  -13.797;   -9.525;  731.575
398.242;  -10.794;   -7.574;  712.645
398.836;  -10.347;   -5.134;  766.408
399.429;  -11.848;   -6.544;  631.041
400.022;  -15.526;   -9.215;  665.902
400.615;  -11.776;   -8.105;  805.609
401.208;  -11.288;   -7.614;  691.451
401.802;  -12.890;   -8.085;  699.329
402.395;  -13.592;   -9.575;  683.502
402.988;  -14.962;   -9.285;  696.627
403.581;  -12.019;   -7.514;  646.878
404.174;   -9.222;   -6.404;  686.568
404.767;  -12.694;   -8.775;  638.583
405.360;  -14.105;   -7.415;  621.445
405.953;   -9.288;   -5.624;  759.034
406.545;   -8.673;   -6.474;  725.342
407.138;  -13.219;   -8.445;  618.350
407.731;  -11.409;  -10.044;  613.303
408.324;   -8.001;   -8.484;  660.554
408.917;   -9.137;   -7.624;  681.864
409.509;  -10.440;   -8.304;  740.396
410.102;  -12.649;   -8.495;  643.948
410.695;   -6.475;   -7.824;  665.758
411.287;   -6.938;   -7.754;  599.821
411.880;   -8.513;   -9.294;  585.421
412.472;  -11.623;   -8.814;  613.092
413.065;   -8.522;   -6.674;  629.408
413.657;   -6.889;   -9.664;  576.678
414.250;   -6.134;  -10.264;  646.681
414.842;   -8.122;   -8.664;  676.353
415.434;   -6.214;   -8.584;  570.463
416.027;   -1.846;   -9.423;  652.196
416.619;   -4.026;  -10.764;  713.400
417.211;   -4.064;   -7.404;  599.352
417.804;    0.313;   -7.383;  628.499
418.396;   -4.274;   -8.334;  607.643
418.988;   -2.336;   -9.633;  659.238
419.580;   -5.239;  -10.554;  568.276
420.172;   -2.813;   -8.683;  536.196
420.764;    0.783;   -9.713;  672.482
421.356;    0.089;  -11.303;  636.898
421.948;   -0.774;   -8.453;  677.661
422.540;    3.901;   -5.793;  680.027
423.132;    3.729;   -7.162;  600.641
423.724;   -0.408;   -7.933;  561.267
424.316;    1.769;   -9.083;  621.345
424.908;    5.552;   -8.392;  591.517
425.500;    5.910;   -8.062;  647.978
426.092;    7.022;   -9.692;  648.268
426.683;    6.260;   -8.223;  684.836
427.275;    8.608;   -8.602;  641.471
427.867;    9.001;   -8.382;  668.948
428.458;   10.189;  -10.472;  732.344
429.050;    9.112;   -9.112;  680.749
429.642;   12.016;   -7.752;  743.124
430.233;   11.440;   -8.832;  569.356
430.825;   13.042;   -8.292;  724.809
431.416;   10.532;   -7.522;  698.241
432.008;   14.097;   -9.262;  651.723
432.599;   14.762;   -6.441;  656.073
433.190;   11.797;   -9.222;  637.670
433.782;   10.782;  -11.832;  590.395
434.373;   19.469;   -7.121;  884.765
434.964;   16.519;   -9.141;  602.920
435.556;   14.441;   -9.332;  634.537
436.147;   18.008;   -8.892;  758.490
436.738;   17.973;   -8.151;  701.099
437.329;   22.969;   -8.281;  721.723
437.920;   16.138;   -9.062;  666.688
438.511;   15.997;  -11.182;  564.526
439.103;   22.732;   -7.461;  623.998
439.694;   24.571;   -8.541;  681.583
440.285;   24.889;   -7.351;  764.432
440.876;   25.099;   -8.201;  845.738
441.466;   23.382;  -10.381;  575.162
442.057;   28.164;   -7.620;  665.814
442.648;   26.650;   -8.461;  746.255
443.239;   24.491;   -8.991;  620.477
443.830;   30.468;   -7.910;  704.958
444.421;   32.604;   -7.340;  655.474
445.011;   28.323;   -8.981;  693.619
445.602;   28.614;   -9.341;  743.126
446.193;   30.366;  -11.390;  488.117
446.783;   35.168;  -11.240;  640.397
447.374;   29.969;   -8.471;  692.759
447.964;   30.750;   -8.471;  713.770
448.555;   40.103;   -6.590;  822.742
449.145;   35.359;   -8.200;  662.853
449.736;   36.179;  -11.040;  803.179
450.326;   36.805;   -9.640;  713.626
450.917;   42.130;   -9.480;  675.324
451.507;   40.721;   -8.020;  600.661
452.097;   41.308;  -10.210;  746.267
452.688;   43.031;   -7.810;  742.160
453.278;   43.004;   -9.360;  566.840
453.868;   47.664;   -8.669;  793.550
454.458;   44.697;  -10.950;  651.141
455.048;   45.470;  -10.200;  711.783
455.639;   46.398;   -9.369;  567.096
456.229;   50.092;   -7.739;  710.694
456.819;   51.930;   -8.939;  751.158
457.409;   52.336;   -7.169;  773.993
457.999;   55.388;   -7.779;  737.505
458.589;   55.268;   -7.039;  686.606
459.179;   54.975;   -9.019;  717.658
459.769;   52.400;   -8.909;  627.099
460.358;   58.306;   -8.659;  797.262
460.948;   57.102;   -8.209;  689.503
461.538;   59.568;   -9.879;  660.677
462.128;   57.142;   -9.379;  664.934
462.717;   63.995;   -9.158;  710.326
463.307;   67.190;   -8.638;  705.846
463.897;   63.154;   -8.869;  656.942
464.486;   63.180;   -7.409;  837.128
465.076;   67.696;   -9.618;  733.776
465.666;   70.559;   -7.578;  652.900
466.255;   68.701;   -9.369;  785.651
466.845;   67.786;  -10.049;  666.749
467.434;   71.210;   -8.168;  725.873
468.023;   71.370;   -9.188;  658.357
468.613;   69.456;   -9.849;  713.946
469.202;   73.978;  -12.958;  646.507
469.791;   78.843;   -9.488;  737.811
470.381;   80.422;   -6.468;  742.813
470.970;   79.210;  -10.248;  711.099
471.559;   79.596;  -11.428;  733.291
472.148;   81.991;   -9.738;  675.737
472.738;   85.569;   -7.877;  765.466
473.327;   84.665;  -11.868;  637.529
473.916;   84.641;   -8.578;  737.446
474.505;   88.964;  -11.137;  751.703
475.094;   91.856;   -9.407;  806.570
475.683;   90.988;   -9.977;  797.699
476.272;   92.082;  -10.807;  730.632
476.861;   95.335;  -11.017;  706.754
477.449;  101.187;  -10.316;  728.487
478.038;   95.648;  -10.187;  692.513
478.627;   97.162;  -12.458;  714.852
479.216;  103.704;  -10.127;  769.441
479.805;  106.504;   -6.256;  783.375
480.393;  106.921;   -8.737; 1008.945
480.982;  105.430;   -9.087;  874.501
481.571;  112.117;   -7.806;  858.333
482.159;  112.640;  -10.596;  705.386
482.748;  112.242;  -11.507;  821.385
483.336;  117.341;   -8.366;  858.209
483.925;  117.366;   -7.497;  774.373
484.513;  124.102;   -8.326;  758.962
485.102;  120.810;  -10.277;  810.965
485.690;  130.585;   -8.256; 1011.050
486.278;  132.758;   -7.146;  979.329
486.867;  131.801;   -7.986;  809.662
487.455;  134.830;   -9.926;  898.229
488.043;  135.479;  -10.026;  748.361
488.631;  145.127;   -7.226; 1005.079
489.220;  149.349;   -8.696;  908.626
489.808;  148.791;  -12.276;  741.415
490.396;  157.027;   -9.386;  914.645
490.984;  163.240;   -8.506;  830.161
491.572;  171.996;   -8.226;  940.315
492.160;  179.055;   -9.836;  919.081
492.748;  189.717;  -10.316;  884.341
493.336;  210.806;   -7.146; 1019.693
493.924;  234.633;   -7.965;  958.077
494.512;  265.116;  -10.316; 1066.638
495.100;  301.684;  -10.186; 1103.280
495.687;  362.090;   -7.805; 1206.373
496.275;  428.863;   -9.686; 1150.796
496.863;  518.804;  -11.566; 1281.171
497.451;  605.485;  -11.406; 1386.805
498.038;  719.079;   -8.235; 1556.729
498.626;  860.396;   -7.485; 1741.407
499.214; 1038.703;   -8.646; 2016.609
499.801; 1316.249;   -9.936; 2220.633
500.389; 1553.500;   -8.056; 2312.494
500.976; 1713.559;   -6.166; 2744.849
501.564; 1925.367;   -9.126; 3148.565
502.151; 2248.950;  -12.456; 3515.999
502.738; 2663.830;  -10.056; 3971.274
503.326; 3127.354;  -10.605; 4403.796
503.913; 3571.243;  -10.576; 5161.749
504.500; 4094.407;   -9.056; 5986.420
505.088; 4704.639;  -10.136; 6381.201
505.675; 5458.049;   -9.075; 6925.547
506.262; 5975.697;  -11.346; 7619.060
506.849; 6954.321;   -9.376; 8733.969
507.436; 7837.577;   -7.365; 9790.121
508.023; 7734.764;   -8.686; 9985.472
508.610; 7899.309;   -8.846;10434.618
509.197; 8767.586;   -9.077;11198.435
509.784;10412.948;  -10.246;12391.194
510.371;11794.823;   -9.825;13603.713
510.958;12931.453;  -10.896;14426.586
511.545;13676.424;   -9.006;15243.775
512.132;13439.735;   -8.765;15945.876
512.719;14012.001;   -8.286;16340.369
513.305;16273.596;   -9.256;18011.766
513.892;18486.398;  -11.106;19754.971
514.479;21709.660;   -8.576;20967.805
515.066;24936.789;   -9.046;22299.793
515.652;25781.547;  -10.676;22908.660
516.239;26372.242;  -10.166;23798.875
516.825;25902.805;  -11.266;25567.275
517.412;25020.896;   -7.446;28154.959
517.998;24503.301;  -10.916;28344.111
518.585;24154.014;   -9.166;27134.219
519.171;23425.645;  -10.135;27268.576
519.758;24434.805;   -8.806;28964.129
520.344;27586.082;   -6.716;30664.494
520.930;30499.535;  -10.166;32550.605
521.516;30631.088;   -9.615;35422.895
522.103;33166.305;   -8.656;38280.004
522.689;34169.699;   -9.646;37835.117
523.275;33430.207;  -10.786;37288.613
523.861;36221.934;   -9.266;37281.395
524.447;37465.418;   -8.285;37846.949
525.033;36443.047;   -9.426;38321.949
525.619;36283.199;   -9.836;38579.285
526.205;38818.594;   -8.136;40622.875
526.791;40070.961;   -9.986;42258.836
527.377;39804.441;   -8.236;42966.902
527.963;38925.832;  -12.117;42018.949
528.549;37048.551;   -8.376;42476.828
529.135;37882.664;   -8.696;41854.852
529.721;40645.094;   -9.686;41237.711
530.306;43408.047;   -8.616;41259.445
530.892;45918.957;   -9.396;41506.047
531.478;46745.730;   -9.926;43559.613
532.063;46739.215;  -10.236;47695.563
532.649;47816.645;   -8.257;50808.324
533.235;49314.426;  -11.476;51787.500
533.820;49389.938;   -8.156;52145.035
534.406;50630.254;  -12.257;51133.488
534.991;47198.633;   -8.686;49996.805
535.576;43942.563;   -9.426;48882.852
536.162;43488.387;   -8.436;46942.285
536.747;44367.793;  -10.957;45711.746
537.333;44063.184;  -13.147;48510.180
537.918;46029.227;   -9.027;50439.891
538.503;48566.008;   -8.256;50863.711
539.088;49455.438;  -10.576;50906.922
539.673;50495.320;  -10.907;52621.965
540.259;51799.531;   -9.126;52368.094
540.844;51554.012;   -9.026;50879.109
541.429;51632.129;   -9.597;52077.777
542.014;54393.004;  -11.447;52716.695
542.599;55722.512;   -9.236;52363.281
543.184;55143.535;  -12.267;53187.137
543.769;56004.801;  -10.367;54697.605
544.354;56145.242;  -10.887;53913.914
544.938;49730.434;  -11.687;49680.164
545.523;44740.188;   -8.286;47386.277
546.108;45150.887;   -9.317;49151.949
546.693;46382.293;  -10.187;51384.637
547.278;44394.164;   -9.926;51853.254
547.862;43473.727;   -9.196;51173.750
548.447;43112.836;   -9.657;51691.395
549.031;44841.148;   -9.127;52456.703
549.616;47226.438;  -10.836;52714.516
550.201;48025.996;   -8.507;52414.598
550.785;49070.434;  -10.537;52355.059
551.370;52478.109;  -11.727;54589.453
551.954;52115.445;   -9.457;58267.348
552.538;50353.273;   -8.147;59062.176
553.123;49931.945;   -9.397;58115.285
553.707;51697.766;   -9.558;56556.285
554.291;51010.852;   -9.417;56201.668
554.876;52825.551;   -7.627;55335.762
555.460;51194.691;  -10.457;54155.703
556.044;46234.852;  -10.078;53721.484
556.628;45197.594;   -9.407;53731.016
557.212;44318.531;   -7.957;54312.531
557.796;43876.797;  -11.327;53797.773
558.380;48128.672;  -10.868;56145.984
558.964;48360.258;   -9.637;57277.930
559.548;46283.992;   -8.807;56459.641
560.132;48563.742;  -10.187;54434.543
560.716;49786.145;   -9.868;54800.617
561.300;51370.410;  -10.217;57606.945
561.884;51505.020;   -4.947;58972.445
562.467;48577.469;   -9.588;57327.570
563.051;44169.551;  -11.138;54962.434
563.635;44622.750;   -9.358;52594.473
564.219;45493.320;   -9.797;50610.410
564.802;43928.828;   -9.918;49551.180
565.386;42733.250;  -10.838;48370.953
565.969;41890.473;   -8.037;48178.871
566.553;40820.418;   -5.667;49957.305
567.136;40779.586;   -8.258;50369.594
567.720;41569.672;  -11.278;49492.004
568.303;39469.027;   -9.028;50616.352
568.887;38094.332;   -7.508;50727.148
569.470;37019.641;  -11.068;51698.379
570.053;39129.375;  -10.028;52122.078
570.637;39738.871;  -11.077;52536.438
571.220;41361.734;   -8.747;51186.098
571.803;43703.348;   -8.868;51032.762
572.386;44554.961;  -10.608;49609.887
572.969;43650.793;  -10.548;48285.926
573.552;41127.539;   -7.898;47624.285
574.135;40432.719;   -9.918;45498.641
574.718;36036.289;  -10.328;41970.434
575.301;33164.434;   -9.548;41447.137
575.884;30292.580;   -8.768;40923.836
576.467;36029.371;   -9.858;45267.723
577.050;37159.090;  -11.018;48175.543
577.633;38580.656;  -10.048;47729.328
578.216;37543.246;  -10.268;47579.793
578.799;35429.766;  -11.808;47820.996
579.381;34516.211;   -7.338;48115.551
579.964;36239.711;   -9.728;47333.766
580.547;36879.855;   -8.928;46668.969
581.129;36682.207;   -9.149;44466.141
581.712;38357.969;  -11.359;44164.922
582.294;38610.645;  -10.738;46477.855
582.877;36753.148;   -8.788;48244.254
583.459;35407.445;   -9.859;47437.895
584.042;36238.922;   -9.649;46943.219
584.624;36486.117;  -10.529;46792.227
585.206;34809.113;  -10.298;46557.250
585.789;32953.711;  -11.029;45793.773
586.371;33155.051;   -9.359;43836.391
586.953;33874.109;   -8.799;42972.492
587.536;33928.160;   -8.928;42487.211
588.118;33432.859;   -9.180;42086.414
588.700;31991.555;  -10.519;43389.930
589.282;30804.139;   -8.098;43646.039
589.864;30968.910;   -8.139;43438.109
590.446;32651.090;  -10.509;43151.926
591.028;35521.668;  -11.119;42781.867
591.610;36203.457;  -10.019;42839.098
592.192;34351.602;   -8.838;42820.402
592.774;32085.393;  -11.549;40724.277
593.356;29919.889;  -11.609;39874.789
593.937;30660.063;  -10.019;39980.648
594.519;33260.215;   -7.839;42069.633
595.101;34420.199;  -10.779;42976.031
595.683;35684.832;  -10.049;44084.441
596.264;35769.027;   -9.969;43478.797
596.846;34140.875;   -9.699;43803.672
597.427;33269.055;  -10.970;42986.934
598.009;34397.758;  -13.090;42832.219
598.591;34643.031;   -9.509;42580.086
599.172;32889.980;   -9.019;43061.805
599.753;30241.590;  -13.310;41691.469
600.335;30179.709;  -11.010;40692.520
600.916;31094.510;  -10.309;39982.422
601.498;31582.428;   -8.209;40318.617
602.079;31939.285;  -11.440;40670.609
602.660;33242.855;   -8.690;41450.898
603.241;34543.527;  -12.759;41137.738
603.823;32805.684;  -10.409;38868.797
604.404;32880.980;  -11.790;38182.785
604.985;31167.213;  -10.280;38078.047
605.566;31523.303;   -8.059;38056.633
606.147;32213.574;   -8.960;37020.418
606.728;31982.121;  -10.710;37883.359
607.309;30997.416;  -12.760;38748.273
607.890;28941.719;   -9.959;38850.230
608.471;27198.400;   -9.780;37457.918
609.051;28835.645;   -8.940;36066.457
609.632;31861.582;  -12.070;35991.074
610.213;33986.715;   -9.610;37402.641
610.794;34346.523;   -8.750;38383.363
611.374;33645.668;  -11.100;40562.387
611.955;34078.871;  -12.200;38533.727
612.536;33615.438;  -10.410;36951.789
613.116;33519.512;  -10.010;37197.891
613.697;32679.795;  -10.480;38411.125
614.277;30984.934;  -12.751;38673.938
614.858;30751.074;  -11.600;37075.863
615.438;30087.777;   -8.190;35092.906
616.019;28621.854;   -8.941;33666.301
616.599;29597.537;  -13.540;34189.023
617.179;30057.582;  -10.890;36952.047
617.760;30878.037;   -7.610;39582.574
618.340;30352.705;  -14.441;38943.977
618.920;29738.773;   -9.180;37594.156
619.500;29791.010;  -11.881;37866.938
620.080;31755.932;   -9.870;37869.043
620.660;31791.256;  -13.211;36868.617
621.241;30905.262;  -11.921;36352.309
621.821;29908.270;  -10.271;35459.520
622.401;29414.840;   -8.200;35207.414
622.980;30210.475;  -11.141;35980.422
623.560;31725.859;  -14.321;37351.328
624.140;31512.910;   -9.360;34388.582
624.720;27941.100;   -7.481;32368.764
625.300;24731.604;  -12.730;32638.629
625.880;29529.629;  -11.441;34599.035
626.459;33122.434;  -10.971;36831.738
627.039;34586.746;   -9.011;38299.098
627.619;34526.613;   -8.521;38289.574
628.198;35483.422;   -9.861;37220.695
628.778;35275.324;   -8.841;37632.563
629.357;33977.758;   -9.891;38003.012
629.937;31687.104;  -11.871;38402.039
630.516;30306.480;  -10.641;37868.801
631.096;32610.172;  -11.391;35760.410
631.675;34323.195;   -6.622;35225.219
632.254;32249.822;  -13.002;35130.289
632.834;30602.549;  -11.622;35794.570
633.413;32547.402;   -8.321;35788.922
633.992;30844.766;   -7.732;34532.863
634.571;30055.164;  -10.992;33590.113
635.151;31465.152;  -10.422;34943.863
635.730;31770.092;  -11.511;35352.523
636.309;30875.785;   -7.901;35366.605
636.888;30087.557;  -11.452;36165.637
637.467;30122.701;  -10.672;37515.902
638.046;30127.074;   -9.301;39288.695
638.625;31014.863;  -11.452;38279.699
639.204;32514.137;  -12.262;37741.598
639.782;32095.346;  -11.892;38364.551
640.361;30711.211;  -11.411;36740.621
640.940;27509.857;  -11.501;34950.082
641.519;27773.189;  -10.921;34137.398
642.097;30988.256;  -10.101;35654.258
642.676;31534.584;  -10.821;35637.957
643.255;33895.215;   -8.631;36567.074
643.833;36293.098;  -11.411;37809.434
644.412;37526.117;  -12.021;37337.293
644.990;36944.141;  -12.271;37018.531
645.569;35880.535;   -9.741;36518.469
646.147;34931.832;   -9.051;36186.430
646.726;33009.055;  -13.861;36267.688
647.304;32762.422;   -9.461;36647.625
647.882;31704.279;  -13.171;39286.742
648.461;31762.561;  -11.911;39157.703
649.039;32298.607;   -9.541;35412.883
649.617;34442.719;   -8.901;34744.918
650.195;32681.129;   -8.591;35403.098
650.773;30909.715;  -13.031;35053.797
651.352;29122.539;  -12.211;33756.816
651.930;26244.514;  -11.361;31868.773
652.508;23600.924;   -8.601;33121.551
653.086;27183.080;   -9.991;33564.793
653.663;31657.721;  -11.931;34054.668
654.241;33744.184;  -10.821;35693.309
654.819;34346.250;   -9.341;36422.906
655.397;31947.297;  -10.851;38213.484
655.975;30080.191;  -11.461;39507.625
656.553;30806.289;   -8.841;39498.223
657.130;30266.336;  -10.371;40395.480
657.708;28781.801;  -11.071;39242.020
658.286;28687.039;  -11.141;38920.020
658.863;31072.699;  -10.861;40202.898
659.441;36809.445;  -11.181;39677.938
660.018;38379.645;  -10.851;40413.355
660.596;37141.836;  -12.571;39931.414
661.173;37871.551;  -12.141;39604.531
661.750;34575.363;  -11.571;39700.070
662.328;31270.611;  -10.780;39292.809
662.905;30198.203;  -10.750;38235.648
663.482;27207.992;  -11.320;36212.305
664.060;26037.205;  -10.160;35944.945
664.637;31581.326;  -13.120;35170.785
665.214;34345.613;  -11.500;34197.523
665.791;32443.195;  -12.430;34549.520
666.368;30020.793;   -9.840;35118.578
666.945;28793.846;  -11.290;36019.418
667.522;29155.418;  -13.540;36048.438
668.099;29893.691;  -10.250;36243.914
668.676;29031.006;  -11.270;35958.875
669.253;28382.535;   -8.210;37384.730
669.830;26979.971;   -9.710;36779.629
670.407;26518.004;   -9.700;35231.289
670.984;26461.080;   -9.190;35544.270
671.560;25292.738;   -9.560;35466.867
672.137;24877.227;  -11.820;34280.863
672.714;27679.813;  -12.460;34632.863
673.290;32053.170;  -10.940;35135.422
673.867;33368.742;  -10.510;36114.480
674.443;31489.670;  -12.110;36152.859
675.020;31652.371;  -11.760;35327.238
675.596;32663.844;   -9.380;35795.176
676.173;31940.146;  -11.120;35430.355
676.749;30840.729;  -13.390;33549.516
677.326;29629.000;  -12.600;32210.012
677.902;28672.469;  -10.830;32068.871
678.478;27824.086;  -12.400;32583.891
679.054;28955.488;   -8.610;32088.928
679.631;30320.061;  -11.640;30978.848
680.207;31063.742;   -8.140;33160.887
680.783;30975.100;  -12.300;35570.363
681.359;29698.133;  -10.910;36125.184
681.935;28686.586;  -11.040;35240.922
682.511;29068.615;  -11.130;34429.961
683.087;29220.480;  -11.080;34463.680
683.663;30876.934;  -10.530;34648.898
684.239;31384.836;  -12.120;34546.457
684.815;30368.572;   -8.870;35586.375
685.390;28972.076;   -8.940;35821.895
685.966;28026.424;  -12.109;35085.871
686.542;26772.244;  -13.539;34198.230
687.118;25908.576;  -10.379;32847.707
687.693;26680.117;  -10.189;32794.027
688.269;26113.867;  -12.939;33072.367
688.844;24729.609;   -8.679;33141.664
689.420;25637.629;  -10.919;33965.742
689.995;26404.527;   -7.489;34655.523
690.571;25728.754;  -12.199;33576.742
691.146;25862.508;   -8.979;32657.219
691.722;27404.633;   -9.119;32526.979
692.297;27620.182;  -10.519;33014.617
692.872;27635.879;  -10.629;34012.254
693.448;27795.500;  -12.119;34237.434
694.023;26907.520;   -8.219;34142.672
694.598;25217.850;  -13.209;34132.031
695.173;24037.365;  -11.879;34205.250
695.748;24639.514;  -12.039;32882.488
696.323;25867.242;  -11.779;32864.906
696.898;26382.041;  -10.219;33170.004
697.473;27896.877;  -13.639;32432.984
698.048;28550.850;  -11.239;31649.303
698.623;30442.225;  -10.859;30778.141
699.198;32424.170;  -13.379;31140.119
699.773;32585.666;  -13.409;31764.299
700.348;31489.865;  -12.329;31780.816
700.922;31535.264;   -8.749;32046.375
701.497;31558.086;  -12.449;32603.574
702.072;30037.361;   -8.879;34799.871
702.646;28200.258;  -10.719;35793.172
703.221;27474.172;   -8.469;35201.590
703.795;28305.479;  -11.389;34764.527
704.370;27320.893;  -12.499;34307.367
704.944;25814.857;  -11.449;33509.887
705.519;25663.373;  -10.659;31388.584
706.093;24894.920;  -12.909;31340.104
706.668;25155.693;  -13.509;32630.281
707.242;26110.172;  -10.049;32728.779
707.816;26129.641;  -10.629;32947.238
708.390;25417.287;  -11.829;33277.855
708.965;24004.113;  -11.159;33834.336
709.539;24252.219;  -11.069;33709.273
710.113;24061.221;  -10.908;33044.313
710.687;22282.244;   -9.488;31953.992
711.261;22519.980;  -13.068;30505.949
711.835;24934.494;  -12.748;30262.369
712.409;27137.703;  -10.678;31254.447
712.983;26775.578;  -11.658;32754.986
713.557;26156.973;  -13.718;34018.824
714.131;26800.287;  -13.388;34579.625
714.704;29379.135;   -9.818;33890.262
715.278;31368.154;  -11.818;33531.102
715.852;31369.594;  -11.328;33601.660
716.425;31876.857;   -9.118;33515.117
716.999;32201.670;  -10.188;33185.555
717.573;31450.828;   -9.808;33905.996
718.146;30343.953;  -11.478;35199.293
718.720;29103.766;  -10.998;35060.551
719.293;28418.982;   -9.508;34973.230
719.867;29434.318;  -12.138;36394.449
720.440;28799.957;  -11.288;36663.008
721.013;30489.037;  -11.428;35102.426
721.587;31954.402;  -11.698;33985.266
722.160;33459.270;  -11.608;33524.965
722.733;34008.535;  -11.428;32987.043
723.306;31016.428;  -12.518;33066.301
723.880;29415.615;   -7.408;33399.500
724.453;29013.848;  -11.048;33468.297
725.026;27823.027;  -11.678;33816.637
725.599;26385.344;  -10.978;32797.996
726.172;24732.854;   -8.838;33187.434
726.745;24531.639;  -11.438;35136.613
727.318;25888.984;   -9.828;35751.730
727.891;26597.826;  -10.868;35890.430
728.463;26632.363;  -11.348;34822.090
729.036;25561.379;  -11.608;32895.086
729.609;25312.254;  -14.738;31823.225
730.182;25630.480;   -8.448;31445.283
730.754;26304.578;  -11.228;32373.223
731.327;26403.830;  -12.018;33676.820
731.900;28067.816;  -13.748;33417.000
732.472;29143.816;  -10.928;31978.498
733.045;28892.367;   -9.478;30368.777
733.617;27239.455;  -12.967;30574.215
734.190;26427.330;  -11.707;31280.975
734.762;25835.988;  -11.067;31674.412
735.334;25061.400;  -10.587;31247.291
735.907;24122.314;  -11.947;29876.211
736.479;24443.225;  -11.667;29808.488
737.051;25808.285;  -10.187;30233.547
737.623;26238.980;   -6.887;31469.086
738.195;27380.137;  -12.117;31784.225
738.768;29570.859;  -14.077;32120.523
739.340;29173.393;  -12.207;32094.342
739.912;26969.508;   -8.977;31312.680
740.484;25697.652;  -11.017;31946.238
741.056;27571.352;  -13.517;32984.059
741.628;30079.734;  -11.507;33897.715
742.199;30485.020;   -7.597;33213.016
742.771;30017.014;  -12.227;31369.113
743.343;28616.693;  -12.427;31865.473
743.915;26689.619;   -9.827;32388.631
744.487;25580.848;  -10.007;31079.568
745.058;24813.781;  -11.887;30570.107
745.630;23764.646;  -10.787;29970.127
746.201;23319.926;  -10.887;29186.766
746.773;24943.502;   -9.707;28805.723
747.344;26200.725;  -11.137;29591.223
747.916;25564.465;  -11.887;31412.201
748.487;24793.299;   -9.707;32194.898
749.059;24368.041;  -10.027;32533.719
749.630;23802.170;  -11.787;32158.518
750.201;22580.170;  -12.767;30855.395
750.773;20610.934;  -11.497;28622.555
751.344;21321.920;   -9.937;28405.732
751.915;21253.406;  -11.567;28461.551
752.486;19094.508;  -13.267;27842.850
753.057;18033.340;  -10.627;27845.008
753.628;18055.246;  -11.657;27728.107
754.199;20265.352;  -12.097;27381.086
754.770;21821.688;  -11.447;25882.203
755.341;22321.777;  -11.997;25886.184
755.912;20800.100;  -10.207;26050.861
756.483;18816.709;  -10.937;26798.779
757.054;19134.615;  -11.527;27048.238
757.625;19480.574;  -12.886;26294.838
758.195;19041.555;  -11.226;26142.076
758.766;19496.146;  -12.366;26392.234
759.337;18350.213;  -11.946;26334.594
759.907;17900.635;  -13.856;27579.652
760.478;19151.900;   -9.606;28352.770
761.048;20711.084;  -11.606;27325.088
761.619;21381.467;  -11.036;26460.428
762.189;19868.203;  -12.206;26029.826
762.760;18991.699;   -9.666;26430.145
763.330;19835.848;   -9.796;26670.902
763.900;19662.539;  -10.896;26603.021
764.471;19202.055;  -11.726;25542.740
765.041;19973.883;   -9.656;24358.459
765.611;20485.133;  -11.276;23991.297
766.181;20071.111;  -12.116;24470.236
766.751;19828.855;  -12.376;24845.975
767.321;19976.096;  -11.626;24533.633
767.891;19666.611;  -10.426;24916.492
768.461;18050.615;  -13.456;24776.771
769.031;15829.649;  -11.616;24757.988
769.601;14893.176;  -11.356;24181.088
770.171;14742.307;  -11.586;23670.387
770.741;15197.375;  -12.696;22960.045
771.311;16900.629;  -10.226;22917.523
771.880;17782.029;  -11.146;23562.941
772.450;18175.902;  -11.716;24216.500
773.020;17907.238;  -13.226;24140.398
773.589;16673.539;  -12.586;24414.857
774.159;16324.369;  -10.246;23858.717
774.729;15786.549;  -11.586;22942.135
775.298;15626.651;  -15.926;22324.033
775.867;15636.221;  -10.426;21140.313
776.437;15292.438;  -11.416;20838.092
777.006;13475.073;  -12.766;20599.510
777.576;13348.631;  -13.666;20508.809
778.145;14767.227;  -10.066;20732.947
778.714;15124.861;  -10.276;21062.465
779.283;14596.229;  -12.086;20949.664
779.853;14328.354;  -14.016;20508.623
780.422;14155.959;  -12.376;20649.082
780.991;13540.806;   -9.246;21527.520
781.560;13319.371;   -9.775;22632.658
782.129;13615.059;  -12.495;23048.277
782.698;13649.498;  -11.775;23438.555
783.267;13489.389;  -10.065;23267.734
783.836;14278.833;  -12.455;22415.133
784.404;14830.244;  -13.385;20443.152
784.973;14823.924;  -11.045;19699.150
785.542;14345.903;   -9.505;19763.828
786.111;13621.809;   -9.385;20341.408
786.679;13412.000;  -13.475;20207.967
787.248;13325.492;  -11.245;19516.465
787.817;11926.000;  -12.485;18900.363
788.385;10445.929;  -11.165;17879.121
788.954;10937.358;  -11.755;17658.301
789.522;11878.704;   -9.625;17788.879
790.090;12166.896;   -9.665;18118.277
790.659;11498.732;   -9.295;18338.736
791.227;11441.074;  -12.175;18508.615
791.795;12200.046;  -12.145;17898.254
792.364;12249.038;  -11.575;17295.133
792.932;11654.311;  -11.085;16822.051
793.500;11280.596;  -11.345;17040.148
794.068;10948.971;  -12.565;17179.787
794.636;11494.428;  -12.105;16664.246
795.204;12578.176;  -11.995;16524.545
795.772;12593.613;  -12.615;17274.564
796.340;12025.878;  -12.425;17891.002
796.908;11571.377;  -11.455;17648.561
797.476;10709.916;  -12.165;17064.080
798.044; 9600.990;  -15.795;16672.777
798.612; 9103.967;  -10.985;17023.996
799.180; 9645.836;  -12.055;16561.615
799.747;10121.339;  -12.525;15962.773
800.315; 9288.650;  -14.765;15296.992
800.883; 8100.939;  -12.435;14801.771
801.450; 7973.304;  -11.295;14534.430
802.018; 8422.911;  -11.185;14173.248
802.585; 8597.452;  -11.625;14029.547
803.153; 7937.121;  -10.665;13836.846
803.720; 7430.515;  -10.275;13567.324
804.287; 7601.211;  -12.865;13360.622
804.855; 7884.117;  -12.324;13681.981
805.422; 7854.276;  -11.574;13536.560
805.989; 7516.802;  -11.004;13355.958
806.556; 7710.621;  -12.214;13747.896
807.124; 8086.782;  -13.304;13987.376
807.691; 8008.424;  -12.034;14038.674
808.258; 7815.450;  -11.014;14120.152
808.825; 7718.312;  -11.804;13860.111
809.392; 7499.937;  -11.544;13268.790
809.959; 7295.668;  -14.954;12680.389
810.526; 7597.512;  -10.214;12427.308
811.093; 7673.574;  -10.754;12030.105
811.659; 7289.308;  -12.194;11653.664
812.226; 6553.823;   -9.194;11637.183
812.793; 6353.735;   -9.644;11611.521
813.360; 6991.307;  -11.544;11885.181
813.926; 7964.896;  -12.814;12770.539
814.493; 8062.124;  -11.524;12677.638
815.060; 7844.885;  -12.254;11974.336
815.626; 7670.532;  -12.114;11594.715
816.193; 7167.398;  -11.994;11579.474
816.759; 6624.164;  -11.464;11666.972
817.325; 6178.724;  -10.444;11325.530
817.892; 5905.138;  -11.124;11105.369
818.458; 5923.438;  -11.864;10843.928
819.024; 6391.090;  -10.634;10714.406
819.591; 6582.691;  -10.554;10469.165
820.157; 6639.239;  -13.334;10235.523
820.723; 6687.549;  -13.044;10847.563
821.289; 6589.328;   -9.664;11040.980
821.855; 6650.530;  -10.994;10357.100
822.421; 6881.768;  -11.784; 9978.918
822.987; 7039.325;  -12.554; 9754.177
823.553; 7050.781;  -12.554;10065.755
824.119; 6725.734;   -8.544;10036.294
824.685; 6000.114;  -12.144;10029.192
825.251; 5683.513;  -12.754;10199.230
825.816; 5368.580;  -11.354; 9820.189
826.382; 4988.957;  -11.004; 9297.248
826.948; 4930.554;  -11.004; 9381.347
827.513; 5145.858;  -12.474; 9450.726
828.079; 5278.540;  -13.084; 9472.444
828.645; 5411.273;  -10.813; 9292.643
829.210; 5248.708;  -11.593; 9065.341
829.776; 5249.273;  -12.633; 9132.620
830.341; 5541.205;  -10.473; 9092.878
830.906; 5473.878;   -8.763; 9078.557
831.472; 4812.557;  -13.453; 8534.535
832.037; 3881.221;  -12.173; 8677.874
832.602; 3577.688;  -14.093; 8628.692
833.167; 3931.271;  -13.593; 8879.031
833.733; 4541.391;  -10.793; 9189.790
834.298; 4916.316;  -14.783; 9052.608
834.863; 4570.586;  -11.023; 8895.087
835.428; 4221.145;  -11.113; 8824.266
835.993; 4512.799;   -9.983; 8845.385
836.558; 4766.640;  -13.003; 8888.563
837.123; 4679.717;  -10.733; 8966.582
837.688; 4342.585;   -9.683; 8617.860
838.253; 4116.823;  -12.253; 8590.699
838.817; 4292.647;  -11.643; 8443.797
839.382; 4511.782;  -11.953; 8799.356
839.947; 4488.043;  -11.443; 8810.595
840.511; 4337.886;  -10.843; 8796.394
841.076; 4319.564;  -13.533; 8347.231
841.641; 4447.807;  -11.743; 8224.330
842.205; 4331.406;  -10.013; 8223.349
842.770; 4184.885;  -11.023; 8622.107
843.334; 4175.319;  -14.273; 8410.386
843.898; 4332.373;  -11.323; 8337.465
844.463; 4687.768;  -10.263; 8506.283
845.027; 4849.023;  -10.353; 8280.962
845.591; 4784.312;  -12.163; 8231.141
846.156; 4602.188;  -12.263; 7969.179
846.720; 4601.990;  -11.553; 7768.278
847.284; 4526.895;  -12.393; 7630.957
847.848; 3937.712;  -12.623; 7472.395
848.412; 3368.973;  -11.863; 7437.394
848.976; 3272.300;  -10.203; 7674.592
849.540; 3356.072;  -10.603; 7836.011
850.104; 3483.912;  -12.423; 7913.669
850.668; 3561.442;  -14.613; 7694.508
851.232; 3501.382;  -12.873; 7756.887
851.796; 3505.015;  -14.192; 7926.545
852.359; 3637.803;  -13.652; 7827.844
852.923; 3626.550;  -11.402; 7641.163
853.487; 3523.531;  -12.022; 7342.501
854.050; 3400.699;  -15.202; 7042.820
854.614; 3382.708;  -14.592; 7151.338
855.177; 3324.968;  -12.572; 7105.077
855.741; 3323.511;   -9.932; 6989.675
856.304; 3495.309;  -12.192; 6596.634
856.868; 3572.373;  -13.462; 6356.272
857.431; 3548.438;  -11.542; 6468.571
857.995; 3560.605;  -12.062; 6373.210
858.558; 3318.119;  -11.142; 6324.448
859.121; 3018.138;  -11.742; 6408.327
859.684; 2837.701;  -10.332; 6347.886
860.247; 2810.601;  -11.962; 6321.264
860.810; 2928.777;  -12.332; 6301.903
861.374; 2961.445;  -10.292; 6607.881
861.937; 2887.187;  -12.062; 6408.200
862.500; 2968.881;  -11.702; 6572.639
863.062; 3119.271;  -13.852; 6387.297
863.625; 3208.177;  -12.972; 6190.836
864.188; 3111.207;  -10.292; 5807.254
864.751; 2975.292;  -12.382; 5682.413
865.314; 2811.179;  -13.232; 5547.492
865.876; 2614.183;  -12.772; 5500.150
866.439; 2446.171;  -11.952; 5415.909
867.002; 2412.157;   -9.332; 5501.567
867.564; 2602.379;  -11.712; 5413.946
868.127; 2775.317;  -12.012; 5160.325
868.689; 2591.006;  -11.882; 5133.183
869.252; 2290.505;  -11.572; 5252.382
869.814; 2154.315;  -10.692; 5297.141
870.377; 2222.077;  -12.392; 5390.919
870.939; 2334.836;  -10.582; 5599.898
871.501; 2360.798;  -12.782; 5248.336
872.063; 2318.202;  -15.612; 4854.235
872.626; 2302.698;  -13.922; 4817.074
873.188; 2200.277;  -13.832; 4987.732
873.750; 2059.168;  -10.962; 4868.651
874.312; 2079.884;  -11.022; 4779.330
874.874; 2114.473;  -13.152; 4866.348
875.436; 2090.709;  -13.401; 4718.887
875.998; 2048.356;   -8.891; 4660.005
876.560; 1993.451;  -12.591; 4462.964
877.122; 1924.571;  -14.531; 4145.042
877.683; 1841.237;  -10.781; 4056.481
878.245; 1774.719;  -14.281; 3950.740
878.807; 1774.263;  -10.311; 4058.958
879.369; 1714.137;  -13.201; 3954.677
879.930; 1671.319;  -12.061; 3941.495
880.492; 1680.696;   -9.181; 4067.014
881.053; 1703.676;  -12.051; 3859.633
881.615; 1679.793;  -11.501; 3776.071
882.176; 1588.866;  -12.221; 3734.750
882.738; 1461.482;   -8.931; 3678.489
883.299; 1344.948;  -13.571; 3405.407
883.860; 1347.325;  -12.331; 3351.106
884.422; 1308.547;  -10.201; 3394.044
884.983; 1175.104;  -12.521; 3166.443
885.544; 1068.905;  -12.291; 3189.802
886.105; 1038.291;  -12.991; 3160.360
886.666; 1040.394;  -12.901; 3093.059
887.227; 1022.642;  -12.061; 2941.957
887.788;  978.398;  -11.641; 2974.836
888.349;  931.714;  -14.691; 2721.214
888.910;  888.876;   -9.681; 2696.493
889.471;  869.357;   -9.971; 2560.172
890.032;  852.806;  -13.151; 2558.190
890.593;  828.217;  -12.051; 2567.669
891.153;  796.677;  -12.841; 2460.307
891.714;  771.304;  -13.561; 2372.046
892.275;  752.761;  -12.401; 2309.505
892.835;  722.322;  -13.191; 2382.543
893.396;  675.367;  -12.551; 2295.502
893.956;  657.523;  -11.981; 2162.420
894.517;  661.475;  -12.221; 2125.439
895.077;  638.046;  -12.021; 2086.978
895.638;  575.042;  -10.891; 2126.316
896.198;  516.009;  -13.171; 1838.275
896.758;  476.681;  -11.891; 1892.813
897.319;  434.786;  -12.491; 1792.232
897.879;  414.228;  -12.401; 1762.751
898.439;  388.348;  -13.431; 1661.149
898.999;  370.457;  -11.340; 1781.468
899.559;  361.033;  -13.930; 1703.347
900.119;  347.271;  -13.730; 1537.525
900.679;  331.313;   -9.210; 1638.384
901.239;  317.296;  -10.860; 1527.902
901.799;  298.564;  -11.450; 1456.441
902.359;  277.999;  -13.800; 1357.140
902.919;  268.280;  -12.130; 1331.118
903.479;  265.171;  -12.650; 1317.257
904.038;  254.723;  -16.110; 1262.595
904.598;  238.006;  -13.690; 1152.034
905.158;  224.630;  -10.290; 1240.893
905.717;  216.336;  -10.670; 1233.691
906.277;  213.692;  -14.040; 1217.330
906.836;  214.504;  -13.510; 1222.408
907.396;  208.255;  -11.530; 1193.047
907.955;  199.179;  -13.190; 1182.526
908.515;  187.590;  -12.950; 1099.364
909.074;  179.279;  -12.390; 1092.863
909.633;  175.036;  -10.340; 1069.121
910.192;  171.670;  -11.170; 1196.460
910.752;  168.364;  -14.200; 1029.960
911.311;  165.132;  -13.810; 1009.780
911.870;  163.230;  -12.750;  971.460
912.429;  162.466;  -12.380; 1094.080
912.988;  159.861;  -11.930; 1081.060
913.547;  154.930;  -10.990;  940.380
914.106;  152.633;  -11.200;  999.420
914.665;  150.035;  -13.150;  984.020
915.224;  147.373;  -13.310; 1035.760
915.782;  145.122;  -13.340;  922.560
916.341;  145.665;  -10.710; 1049.840
916.900;  143.259;  -12.980;  925.260
917.458;  141.700;  -13.060;  884.220
918.017;  141.026;  -10.900;  942.600
918.576;  139.573;  -11.630;  904.440
919.134;  138.839;  -12.860;  837.980
919.693;  138.611;  -15.160;  893.060
920.251;  138.364;  -13.470;  876.500
920.809;  137.385;  -13.700;  839.580
921.368;  137.553;  -13.420;  885.360
921.926;  138.926;  -14.710;  842.940
922.484;  139.659;  -12.560;  903.360
923.042;  140.661;  -11.930;  880.340
923.601;  140.116;  -10.270;  998.680
924.159;  137.447;  -12.960;  935.560
924.717;  135.511;  -13.040;  841.080
925.275;  136.454;  -12.560;  903.240
925.833;  138.013;  -13.040;  779.320
926.391;  140.862;  -13.360;  938.380
926.949;  140.415;  -13.940;  857.680
927.506;  140.520;   -9.400;  903.500
928.064;  139.930;  -10.940;  877.580
928.622;  139.379;  -13.180;  880.100
929.180;  139.541;  -12.730;  814.180
929.737;  139.515;  -12.840;  808.540
930.295;  142.976;  -11.810;  928.480
930.853;  148.519;  -13.650;  849.100
931.410;  152.618;  -13.580;  821.120
931.968;  154.102;  -12.020;  940.660
932.525;  154.346;  -13.320;  909.380
933.082;  153.683;  -13.800;  811.440
933.640;  157.173;  -11.380;  925.900
934.197;  160.125;  -11.480;  886.360
934.754;  161.979;  -13.220;  897.780
935.312;  160.663;  -14.950;  863.340
935.869;  159.271;  -10.940; 1012.980
936.426;  152.797;  -12.100;  872.800
936.983;  152.941;  -12.930;  889.020
937.540;  153.581;  -14.250;  838.280
938.097;  158.779;  -12.600;  940.120
938.654;  165.316;  -11.260;  898.860
939.211;  168.304;  -13.020;  952.480
939.768;  169.916;  -15.760;  915.420
940.324;  174.161;  -13.920;  904.200
940.881;  171.939;  -11.620;  878.500
941.438;  169.544;   -9.870; 1021.200
941.995;  165.282;  -13.920;  992.560
942.551;  163.030;  -12.830;  875.620
943.108;  163.469;  -11.980;  937.920
943.664;  165.430;  -13.740;  869.340
944.221;  174.259;  -12.670; 1088.140
944.777;  174.738;  -13.250;  869.680
945.334;  170.594;  -13.000;  884.840
945.890;  169.292;  -13.020;  946.480
946.446;  168.006;  -13.880;  947.020
947.003;  168.745;  -12.660;  964.940
947.559;  169.285;   -8.730; 1063.040
948.115;  168.401;  -11.960; 1026.540
948.671;  163.845;  -12.360;  967.300
949.227;  158.325;  -12.700;  859.560
949.783;  156.177;  -13.450;  858.900
950.339;  154.857;  -10.620;  991.000
950.895;  151.436;  -14.770; 1023.840
951.451;  149.944;  -13.650;  925.280
952.007;  150.914;  -11.180;  998.540
952.563;  150.784;  -11.680;  937.780
953.118;  149.716;  -13.280;  904.940
953.674;  149.929;  -12.510;  935.780
954.230;  151.160;  -12.220;  949.640
954.785;  147.038;  -12.190;  936.640
955.341;  142.998;  -12.270;  998.160
955.897;  140.965;  -14.900;  834.660
956.452;  141.898;  -12.520;  953.840
957.008;  141.172;   -9.410; 1083.640
957.563;  138.315;  -11.280; 1009.540
958.118;  136.188;  -13.470;  877.700
958.674;  135.491;  -12.190;  946.780
959.229;  136.900;  -12.760; 1013.980
959.784;  140.016;  -15.710;  832.400
960.339;  145.978;  -12.540; 1001.280
960.894;  145.107;  -11.680;  963.760
961.449;  141.213;  -11.410;  859.960
962.004;  139.803;  -10.430; 1212.840
962.559;  133.247;  -14.040;  860.140
963.114;  128.194;  -14.270;  742.480
963.669;  129.066;  -11.320;  915.500
964.224;  127.926;  -14.620;  874.340
964.779;  127.697;  -14.150;  828.420
965.334;  126.221;  -10.850; 1017.860
965.888;  126.534;  -14.530;  875.360
966.443;  128.041;  -13.520;  972.380
966.998;  125.565;  -13.370;  819.460
967.552;  124.568;   -9.960;  908.380
968.107;  120.262;  -12.360;  868.300
968.661;  120.917;  -12.270;  922.440
969.216;  119.017;  -12.140;  856.280
969.770;  119.563;  -11.860;  917.200
970.324;  119.511;  -12.170;  923.140
970.879;  118.246;  -14.160;  947.180
971.433;  116.472;  -12.940;  952.720
971.987;  112.685;  -10.180;  895.340
972.541;  111.552;  -12.130;  917.100
973.095;  111.664;  -14.980; 1009.460
973.649;  110.702;  -14.480;  809.480
974.203;  112.452;  -13.530;  829.040
974.757;  114.323;  -12.060;  855.220
975.311;  112.700;  -13.240;  872.600
975.865;  110.470;  -12.550;  881.820
976.419;  108.952;  -13.180;  857.400
976.973;  108.550;  -14.100;  849.620
977.526;  108.324;  -13.330;  949.920
978.080;  102.923;  -15.390;  796.780
978.634;  102.719;  -11.670;  921.320
979.187;   98.967;  -10.640;  905.400
979.741;   99.563;  -13.330; 1018.380
980.294;   97.190;  -14.480;  789.160
980.848;   97.183;  -13.420;  717.220
981.401;   96.022;  -12.360;  816.540
981.955;   92.436;  -12.480;  844.300
982.508;   88.395;  -14.000;  746.340
983.061;   88.260;  -10.440;  915.260
983.615;   85.168;  -14.340;  798.800
984.168;   83.181;  -14.950;  770.080
984.721;   83.115;  -13.270;  880.760
985.274;   81.461;  -12.240;  867.500
985.827;   78.524;  -12.720;  834.220
986.380;   75.291;  -14.920;  721.340
986.933;   76.062;  -12.860;  864.800
987.486;   74.695;  -10.440;  861.920
988.039;   73.581;  -11.820;  863.100
988.591;   71.462;  -13.760;  893.260
989.144;   69.857;  -14.080;  737.260
989.697;   70.769;  -13.440;  758.740
990.250;   70.282;  -12.050;  858.100
990.802;   68.234;  -14.550;  755.860
991.355;   70.242;  -10.770;  974.880
991.907;   68.360;  -11.710;  864.320
992.460;   66.478;  -12.650;  753.760
993.012;   65.367;  -13.860;  749.540
993.565;   63.246;  -14.310;  711.360
994.117;   63.073;   -9.920;  950.780
994.669;   59.321;  -13.420;  701.320
995.221;   58.479;  -14.200;  791.920
995.774;   58.557;  -13.400;  787.580
996.326;   56.445;  -11.850;  740.220
996.878;   57.166;  -12.230;  838.420
997.430;   54.764;  -14.260;  699.860
997.982;   55.336;  -11.430;  750.140
998.534;   54.961;  -11.590;  739.060
999.086;   53.406;  -11.960;  738.220
999.638;   52.668;  -13.640;  661.380
1000.190;   52.283;  -13.660;  699.320
1000.741;   52.053;   -9.980;  742.700
1001.293;   51.357;  -11.860;  686.020
1001.845;   49.309;  -14.280;  676.640
1002.396;   50.243;  -12.270;  743.400
1002.948;   49.350;  -13.670;  737.400
1003.500;   48.150;  -12.010;  723.780
1004.051;   49.556;  -11.890;  907.580
1004.603;   48.497;  -11.220;  791.820
1005.154;   44.022;  -13.210;  608.980
1005.705;   43.900;  -11.850;  723.960
1006.257;   42.942;  -13.670;  707.220
1006.808;   42.777;  -12.060;  685.460
1007.359;   43.266;  -10.250;  763.240
1007.910;   40.197;  -13.440;  646.640
1008.461;   40.377;  -13.170;  732.940
1009.013;   38.964;  -14.590;  588.340
1009.564;   40.724;  -12.100;  793.520
1010.115;   37.530;  -14.000;  597.040
1010.665;   37.596;  -15.020;  602.160
1011.216;   38.467;  -12.560;  667.920
1011.767;   38.273;  -11.330;  697.920
1012.318;   38.515;  -11.450;  736.980
1012.869;   36.476;  -11.000;  679.000
1013.419;   37.138;  -11.760;  603.120
1013.970;   37.501;  -11.800;  666.640
1014.521;   36.123;  -14.750;  620.620
1015.071;   36.350;  -14.430;  670.380
1015.622;   35.792;  -14.170;  635.460
1016.172;   35.240;  -11.700;  596.820
1016.723;   34.974;  -13.230;  614.380
1017.273;   33.983;  -16.120;  604.160
1017.823;   34.791;  -13.360;  650.340
1018.374;   34.028;  -13.710;  611.760
1018.924;   34.626;  -11.050;  716.880
1019.474;   34.105;  -14.120;  718.880
1020.024;   33.580;  -12.990;  657.580
1020.574;   33.587;  -12.010;  726.160
1021.124;   33.727;  -12.080;  673.580
1021.674;   32.122;  -15.860;  559.120
1022.224;   34.024;  -11.710;  708.940
1022.774;   32.719;  -13.030;  668.820
1023.324;   33.588;  -11.000;  753.520
1023.874;   34.630;  -13.270;  875.760
1024.423;   31.940;  -14.570;  613.700
1024.973;   31.924;  -12.620;  610.760
1025.523;   30.720;  -12.630;  620.960
1026.072;   30.145;  -14.110;  606.420
1026.622;   30.590;  -15.390;  675.740
1027.172;   31.927;   -9.090;  715.660
1027.721;   30.072;  -12.250;  601.220
1028.270;   29.930;  -15.590;  663.400
1028.820;   30.197;  -13.840;  638.080
1029.369;   30.088;  -13.170;  612.700
1029.918;   29.596;  -14.080;  649.840
1030.468;   29.249;  -13.860;  564.780
1031.017;   30.132;  -12.970;  634.800
1031.566;   29.109;  -12.320;  608.900
1032.115;   29.733;  -13.140;  694.500
1032.664;   27.520;  -14.560;  596.480
1033.213;   28.871;  -11.620;  735.420
1033.762;   28.479;  -13.190;  635.620
1034.311;   27.752;  -13.460;  677.220
1034.860;   28.077;  -15.770;  691.000
1035.408;   28.793;  -13.100;  722.720
1035.957;   28.903;  -12.880;  719.540
1036.506;   25.848;  -13.640;  530.800
1037.055;   29.585;  -12.420;  844.320
1037.603;   27.299;  -13.740;  664.000
1038.152;   26.064;  -13.840;  534.760
1038.700;   25.833;  -10.770;  585.740
1039.249;   26.200;  -13.520;  681.220
1039.797;   26.658;  -13.060;  633.360
1040.345;   26.233;  -11.760;  705.420
1040.894;   25.757;  -10.790;  625.300
1041.442;   25.395;  -15.420;  632.200
1041.990;   24.507;  -14.550;  559.160
1042.538;   23.981;  -15.620;  536.180
1043.087;   24.291;  -14.940;  570.860
1043.635;   26.002;  -12.100;  670.500
1044.183;   24.735;  -13.200;  586.400
1044.731;   24.785;  -11.630;  576.000
1045.279;   23.967;  -14.200;  674.920
1045.827;   25.979;  -12.510;  892.400
1046.374;   23.333;  -14.960;  515.420
1046.922;   23.131;  -11.850;  590.580
1047.470;   24.317;  -13.770;  691.300
1048.018;   23.738;  -15.380;  647.960
1048.565;   24.530;  -14.010;  708.600
1049.113;   23.163;  -14.620;  557.000
1049.660;   22.721;  -14.940;  629.660
1050.208;   23.029;  -14.540;  675.640
1050.755;   22.501;  -13.710;  606.580
1051.303;   23.128;  -11.880;  686.820
1051.850;   22.635;  -12.160;  635.120
1052.397;   20.395;  -15.110;  473.960
1052.945;   21.924;  -14.770;  617.760
1053.492;   23.546;  -12.320;  741.840
1054.039;   22.605;  -13.290;  720.180
1054.586;   21.489;  -15.210;  557.240
1055.133;   22.349;  -12.920;  693.140
1055.680;   22.394;  -12.610;  646.620
1056.227;   20.737;  -12.620;  542.780
1056.774;   22.457;  -13.010;  794.980
1057.321;   20.006;  -16.180;  523.260
1057.868;   21.261;  -11.230;  651.320
1058.415;   21.299;  -10.890;  651.980
1058.961;   21.315;  -12.530;  678.940
1059.508;   20.905;  -14.120;  643.820
1060.055;   20.320;  -13.340;  581.780
1060.601;   20.210;  -12.920;  624.300
1061.148;   19.943;  -14.430;  616.820
1061.694;   19.712;  -14.140;  592.580
1062.241;   20.128;  -12.550;  596.320
1062.787;   19.443;  -13.370;  663.140
1063.334;   22.038;  -12.260;  808.560
1063.880;   20.333;  -10.800;  668.360
1064.426;   20.145;   -9.920;  706.820
1064.972;   18.407;  -12.970;  601.340
1065.518;   17.100;  -14.440;  566.640
1066.065;   18.757;  -12.680;  624.460
1066.611;   18.548;  -13.520;  598.800
1067.157;   18.980;  -11.100;  641.860
1067.703;   17.926;  -14.100;  668.480
1068.249;   18.703;  -13.750;  605.220
1068.794;   18.115;  -11.070;  626.880
1069.340;   17.675;  -13.210;  578.960
1069.886;   17.191;  -14.850;  590.700
1070.432;   16.585;  -14.580;  541.720
1070.977;   15.980;  -12.930;  601.080
1071.523;   16.849;  -11.970;  573.060
1072.068;   17.022;  -13.730;  582.000
1072.614;   16.738;  -14.550;  527.760
1073.160;   17.901;  -13.690;  687.040
1073.705;   15.921;  -14.780;  572.520
1074.250;   16.065;  -15.430;  559.900
1074.796;   17.463;  -11.620;  655.160
1075.341;   17.823;  -11.580;  664.100
1075.886;   15.950;  -13.190;  594.240
1076.431;   15.981;  -13.630;  649.880
1076.976;   16.034;  -11.670;  639.220
1077.521;   15.442;  -11.600;  583.080
1078.067;   15.513;  -13.920;  579.400
1078.612;   15.628;  -12.910;  661.620
1079.156;   15.083;  -15.340;  601.540
1079.701;   15.332;  -12.560;  693.260
1080.246;   16.342;  -12.490;  696.300
1080.791;   14.916;  -14.550;  625.020
1081.336;   15.780;  -15.210;  659.320
1081.880;   15.663;  -11.280;  649.680
1082.425;   14.649;  -12.830;  573.480
1082.970;   15.972;  -11.680;  717.040
1083.514;   15.151;  -15.500;  597.000
1084.059;   13.874;  -11.770;  586.720
1084.603;   13.093;  -13.480;  565.840
1085.147;   13.817;  -13.940;  645.220
1085.692;   15.080;  -13.170;  716.800
1086.236;   13.200;  -15.740;  503.140
1086.780;   15.303;  -10.750;  751.440
1087.325;   14.091;  -14.900;  654.620
1087.869;   13.982;  -15.160;  610.700
1088.413;   15.117;  -11.030;  705.040
1088.957;   11.842;  -15.210;  543.400
1089.501;   14.155;  -12.310;  766.640
1090.045;   14.639;  -12.790;  726.480
1090.589;   11.705;  -14.040;  569.920
1091.133;   12.608;  -12.800;  673.340
1091.676;   12.062;  -13.600;  591.940
1092.220;   12.367;  -12.960;  600.920
1092.764;   14.002;  -10.830;  706.960
1093.307;   12.615;  -12.390;  673.780
1093.851;   11.798;  -15.850;  556.540
1094.395;   12.810;  -12.980;  683.140
1094.938;   11.819;  -13.670;  632.520
1095.482;   11.987;  -12.740;  559.800
1096.025;   12.900;  -13.340;  710.880
1096.568;   12.676;  -10.500;  779.280
1097.112;   10.117;  -13.500;  508.180
1097.655;   11.717;  -13.060;  603.000
1098.198;   10.212;  -13.240;  600.180
1098.741;   10.903;  -15.490;  612.860
1099.285;   11.574;  -13.410;  657.300
1099.828;    9.331;  -15.640;  439.400
1100.371;   11.181;  -13.980;  608.160
1100.914;   11.470;  -13.990;  682.660
1101.457;   11.230;  -15.030;  679.900
1101.999;   10.317;  -12.480;  584.680
1102.542;   11.240;  -12.410;  641.440
1103.085;   10.542;  -14.730;  658.500
1103.628;   11.036;  -12.190;  762.060
1104.170;    9.943;  -12.360;  588.280
1104.713;   10.305;  -13.350;  646.700
1105.256;    9.252;  -14.930;  557.440
1105.798;    8.424;  -15.150;  499.980
1106.341;   10.689;  -13.230;  728.900
1106.883;    9.131;  -14.680;  521.340
1107.425;   10.158;  -14.810;  668.180
1107.968;    9.467;  -12.940;  612.380
1108.510;    9.830;  -10.550;  684.960
1109.052;    7.755;  -15.640;  612.620
1109.594;    8.446;  -14.440;  554.440
1110.136;    9.431;  -11.380;  643.220
1110.679;    8.549;  -13.090;  633.080
1111.221;    8.382;  -14.230;  604.460
1111.763;    7.974;  -14.260;  559.220
1112.304;    8.069;  -14.510;  547.140
1112.846;    8.695;  -14.700;  666.240
1113.388;   12.076;  -12.270;  942.180
1113.930;    9.193;  -13.340;  694.200
1114.472;    8.525;  -12.560;  606.540
1115.013;    7.071;  -14.280;  551.280
1115.555;    6.848;  -14.010;  587.100
1116.097;    7.084;  -14.730;  579.480
1116.638;    7.594;  -12.160;  684.600
1117.180;    8.759;  -14.320;  667.740
1117.721;    7.546;  -15.730;  568.580
1118.262;    8.789;  -13.480;  677.960
1118.804;    8.034;  -11.530;  637.340
1119.345;    5.743;  -13.540;  578.400
1119.886;    8.309;  -14.470;  704.040
1120.427;    6.688;  -13.030;  589.020
1120.969;    5.994;  -13.150;  597.920
1121.510;    5.836;  -13.940;  563.060
1122.051;    6.874;  -12.310;  723.580
1122.592;    6.485;  -13.870;  655.420
1123.133;    5.319;  -12.890;  547.940
1123.673;    6.640;  -13.300;  706.480
1124.214;    6.573;  -14.000;  612.460
1124.755;    7.926;  -13.210;  639.460
1125.296;    6.325;  -13.450;  627.320
1125.836;    6.839;  -12.610;  691.500
1126.377;    5.601;  -15.840;  599.660
1126.918;    7.142;  -11.830;  614.980
1127.458;    5.446;  -11.830;  622.220
1127.999;    6.230;  -11.490;  656.980
1128.539;    6.310;  -12.900;  694.240
1129.079;    5.296;  -14.910;  632.720
1129.620;    4.445;  -12.920;  558.100
1130.160;    4.732;  -14.640;  539.480
1130.700;    5.254;  -13.270;  640.840
1131.240;    6.258;  -14.110;  643.700
1131.781;    5.277;  -13.130;  619.680
1132.321;    4.393;  -15.220;  599.120
1132.861;    3.176;  -15.670;  564.200
1133.401;    3.678;  -13.970;  593.940
1133.941;    4.731;  -13.740;  626.280
1134.481;    3.764;  -13.200;  597.580
1135.020;    3.590;  -14.830;  609.160
1135.560;    5.049;  -14.590;  674.940
1136.100;    3.125;  -13.730;  501.160
1136.640;    2.910;  -15.240;  510.480
1137.179;    2.930;  -14.710;  537.960
1137.719;    4.361;  -14.090;  605.400
1138.258;    3.770;  -12.470;  587.360
1138.798;    4.176;  -12.580;  663.780
1139.337;    2.350;  -16.480;  482.840
1139.877;    4.306;  -13.970;  642.360
1140.416;    6.205;   -9.870;  878.060
1140.955;    1.787;  -14.860;  535.380
1141.494;    4.172;  -14.530;  669.280
1142.034;    3.057;  -13.940;  583.520
1142.573;    4.027;  -11.160;  646.280
1143.112;    3.190;  -15.050;  553.480
1143.651;    2.992;  -15.390;  536.480
1144.190;    3.442;  -12.990;  691.640
1144.729;    2.869;  -12.220;  607.420
1145.267;    3.194;  -14.020;  584.900
1145.806;    3.781;  -12.740;  637.040
1146.345;    2.279;  -14.810;  635.020
1146.884;    2.317;  -12.920;  622.500
1147.422;    1.829;  -13.930;  533.060
1147.961;    3.800;  -11.830;  708.460
1148.500;    3.357;  -12.710;  669.720
1149.038;    3.240;  -14.420;  632.500
1149.577;    2.829;  -13.920;  698.640
1150.115;    0.429;  -17.050;  452.280
1150.653;    2.011;  -14.890;  607.340
1151.192;    2.168;  -15.270;  552.920
1151.730;    1.969;  -13.160;  652.560
1152.268;    1.808;  -15.430;  589.520
1152.806;    1.806;  -15.880;  571.180
1153.344;    0.873;  -13.240;  577.640
1153.882;    2.115;  -13.010;  600.060
1154.421;    0.313;  -16.180;  470.620
1154.958;    0.897;  -13.880;  595.240
1155.496;    2.288;  -13.590;  645.280
1156.034;    1.770;  -11.910;  721.880
1156.572;    2.006;  -12.010;  667.060
1157.110;    0.297;  -16.250;  473.940
1157.647;    2.032;  -15.230;  676.960
1158.185;    0.139;  -13.770;  564.320
1158.723;   -0.542;  -15.300;  509.200
1159.260;    1.625;  -13.130;  701.700
1159.798;    1.304;  -11.300;  658.160
1160.335;    0.379;  -13.210;  631.820

