
Integration time [ms]:   3.276
Averaging Nr. [scans]: 1000
Smoothing Nr. [pixels]: 0
Data measured with spectrometer [name]: 7414430SP
Wave   ;Sample   ;Dark     ;Reference
[nm]   ;[counts] ;[counts] ;[counts] 

288.544;  157.527;    7.793;  793.890
289.143;  159.481;    7.462;  681.602
289.742;  161.353;    8.602;  828.814
290.341;  148.774;    1.321;  789.841
290.940;  138.348;   -0.709;  730.702
291.538;  139.852;    0.881;  881.108
292.137;  139.636;    0.122;  792.581
292.736;  142.581;   -1.929;  975.101
293.335;  137.931;   -8.229;  735.086
293.934;  139.232;   -5.279;  781.677
294.532;  139.995;   -1.369; 1031.958
295.131;  125.612;   -7.641;  834.394
295.730;  126.657;   -8.420;  809.588
296.328;  122.688;   -5.611;  783.442
296.927;  122.641;   -5.781;  779.652
297.525;  124.243;   -6.361;  781.236
298.124;  116.248;  -11.382;  654.009
298.722;  118.851;   -7.641;  761.933
299.321;  116.662;   -6.811;  708.597
299.919;  113.972;   -6.991;  751.918
300.518;  109.938;  -10.362;  689.338
301.116;  111.763;   -9.581;  691.381
301.715;  113.042;   -4.891;  730.222
302.313;  111.561;   -8.801;  704.943
302.911;  105.990;   -8.522;  733.830
303.509;  110.193;   -6.171;  925.627
304.108;  109.269;   -7.311;  760.383
304.706;  108.888;   -8.321;  801.664
305.304;  103.759;  -10.222;  796.707
305.902;  108.051;   -6.021;  784.484
306.500;  103.509;   -4.971;  728.200
307.098;  102.776;   -7.061;  746.560
307.696;  100.867;   -8.801;  780.432
308.294;  101.067;   -6.411;  731.359
308.892;  102.413;   -2.901;  759.769
309.490;   99.223;   -5.041;  712.161
310.088;   97.251;   -5.002;  788.444
310.686;  101.485;   -2.041;  821.749
311.284;   97.323;   -2.351;  766.040
311.882;   94.954;   -4.422;  731.225
312.480;   91.238;   -4.192;  697.167
313.078;   92.773;   -1.172;  808.331
313.675;   94.015;   -2.601;  691.600
314.273;   88.774;   -1.312;  797.837
314.871;   87.835;   -3.942;  589.829
315.468;   85.392;   -2.802;  652.090
316.066;   88.946;   -0.701;  694.427
316.664;   81.879;   -4.362;  656.351
317.261;   86.112;   -2.872;  910.128
317.859;   80.697;   -2.022;  768.735
318.456;   82.428;   -0.531;  830.096
319.054;   77.934;   -3.912;  787.828
319.651;   75.923;   -4.752;  759.928
320.249;   75.009;   -2.602;  810.188
320.846;   72.035;   -0.821;  714.286
321.443;   70.784;   -4.642;  832.135
322.041;   67.424;   -5.002;  812.315
322.638;   64.516;   -3.982;  701.456
323.235;   66.103;   -3.411;  665.683
323.833;   62.956;   -7.361;  740.354
324.430;   58.025;   -8.611;  615.900
325.027;   59.020;   -4.061;  876.855
325.624;   58.567;   -4.031;  644.532
326.221;   56.572;   -7.481;  689.717
326.818;   55.706;   -5.281;  818.332
327.415;   57.841;   -7.460;  748.828
328.012;   57.882;   -5.510;  690.585
328.609;   56.490;   -7.880;  731.389
329.206;   54.361;   -8.331;  778.621
329.803;   53.672;   -5.121;  737.841
330.400;   57.354;   -4.510;  704.260
330.997;   58.540;   -6.441;  817.147
331.594;   56.626;   -8.831;  788.185
332.191;   62.184;   -7.621;  728.722
332.787;   65.620;   -4.591;  844.463
333.384;   64.999;   -7.412;  763.093
333.981;   64.168;   -8.293;  815.687
334.578;   66.167;   -7.052;  708.378
335.174;   69.403;   -3.102;  731.469
335.771;   68.309;   -5.943;  836.456
336.367;   65.752;   -7.393;  710.631
336.964;   70.287;   -4.063;  793.266
337.561;   68.301;   -3.813;  731.112
338.157;   64.238;   -4.654;  911.916
338.754;   62.995;   -7.934;  796.589
339.350;   60.146;   -4.414;  722.493
339.946;   62.438;   -4.664;  773.135
340.543;   54.912;   -6.375;  846.136
341.139;   47.842;   -9.815;  720.836
341.735;   44.845;   -4.526;  772.593
342.332;   44.505;   -4.895;  691.472
342.928;   44.810;   -4.295;  795.394
343.524;   37.809;   -5.476;  761.684
344.120;   33.803;   -5.856;  738.562
344.716;   37.000;   -2.155;  723.717
345.313;   35.501;   -6.275;  795.342
345.909;   29.133;   -8.815;  627.336
346.505;   29.853;   -5.305;  740.247
347.101;   31.604;   -2.674;  827.864
347.697;   32.632;   -4.344;  785.398
348.293;   26.413;   -9.975;  627.244
348.889;   27.037;   -5.774;  745.914
349.485;   25.737;   -5.004;  688.205
350.081;   27.144;   -4.704;  772.592
350.676;   22.926;   -6.635;  691.606
351.272;   26.040;   -4.504;  809.530
351.868;   26.258;   -3.914;  780.497
352.464;   24.134;   -9.044;  723.932
353.059;   19.607;   -8.314;  646.017
353.655;   22.513;   -7.024;  777.063
354.251;   23.720;   -5.343;  759.845
354.846;   17.931;   -8.604;  740.646
355.442;   16.377;   -6.945;  753.071
356.038;   17.967;   -7.564;  751.708
356.633;   18.570;   -5.814;  728.594
357.229;   14.795;   -7.364;  724.757
357.824;   13.969;   -8.024;  703.600
358.420;   13.047;   -9.384;  679.726
359.015;   13.228;   -5.104;  695.357
359.610;   14.843;   -6.854;  763.920
360.206;    7.741;  -10.185;  603.240
360.801;   11.705;   -7.054;  646.503
361.396;   13.558;   -5.034;  725.975
361.992;    9.140;   -8.284;  668.220
362.587;    6.320;   -8.625;  670.160
363.182;    8.221;   -7.674;  689.631
363.777;    8.796;   -5.164;  738.242
364.372;    8.657;   -8.604;  737.314
364.967;    4.454;   -9.055;  680.744
365.563;    8.808;   -6.114;  815.567
366.158;    6.278;   -5.814;  685.161
366.753;    6.934;   -7.854;  649.263
367.348;    4.656;   -7.804;  746.056
367.942;    4.404;   -7.954;  697.298
368.537;    3.749;   -4.984;  754.245
369.132;    3.729;   -8.564;  703.428
369.727;   -0.459;   -8.855;  638.079
370.322;    0.327;   -6.245;  580.186
370.917;    0.923;   -6.425;  710.646
371.511;    3.567;   -6.294;  861.834
372.106;    0.687;   -7.685;  776.964
372.701;   -3.000;   -7.335;  585.988
373.296;    1.915;   -4.564;  863.135
373.890;   -2.100;  -10.235;  647.840
374.485;   -4.128;   -7.885;  691.199
375.079;   -1.078;   -7.324;  738.685
375.674;    0.184;   -3.494;  812.970
376.268;   -3.584;   -8.525;  691.759
376.863;   -9.542;  -10.086;  580.327
377.457;   -3.891;   -7.025;  662.490
378.052;   -4.998;   -3.585;  764.884
378.646;   -5.959;   -7.595;  741.167
379.240;   -6.304;   -8.335;  721.176
379.835;   -6.696;   -5.785;  636.978
380.429;   -8.167;   -4.335;  562.557
381.023;   -8.232;   -6.805;  779.205
381.617;  -10.371;   -9.195;  680.106
382.212;   -7.037;   -6.905;  685.303
382.806;   -6.645;   -3.745;  760.690
383.400;  -11.092;   -7.745;  672.281
383.994;  -11.620;   -9.765;  664.870
384.588;   -7.883;   -6.564;  697.701
385.182;   -6.481;   -5.344;  726.624
385.776;   -7.596;   -8.514;  706.875
386.370;  -11.234;   -9.555;  681.968
386.964;  -10.013;   -8.715;  684.155
387.558;   -8.843;   -6.174;  598.360
388.152;  -12.466;   -8.725;  681.959
388.745;   -9.979;   -7.965;  814.707
389.339;   -9.378;   -5.924;  747.642
389.933;   -7.761;   -5.524;  695.370
390.527;   -8.433;   -7.114;  859.029
391.120;  -14.702;  -10.725;  595.318
391.714;  -12.618;   -8.035;  711.633
392.308;   -8.728;   -3.574;  780.253
392.901;  -12.542;   -7.245;  642.460
393.495;  -14.692;   -9.285;  595.414
394.089;  -12.755;   -5.895;  760.452
394.682;  -12.827;   -4.295;  697.188
395.275;  -13.106;   -9.875;  719.927
395.869;  -14.656;   -8.485;  667.314
396.462;  -13.464;   -7.455;  616.609
397.056;   -9.991;   -5.424;  776.621
397.649;  -13.866;   -6.605;  731.575
398.242;  -11.654;   -8.224;  712.645
398.836;  -11.353;   -7.474;  766.408
399.429;  -11.656;   -7.094;  631.041
400.022;  -15.628;   -9.475;  665.902
400.615;  -12.214;   -7.145;  805.609
401.208;  -11.020;   -7.174;  691.451
401.802;  -12.880;   -5.515;  699.329
402.395;  -14.261;   -9.875;  683.502
402.988;  -15.219;   -8.845;  696.627
403.581;  -12.192;   -8.874;  646.878
404.174;  -10.183;   -5.324;  686.568
404.767;  -12.461;   -9.575;  638.583
405.360;  -14.946;  -10.965;  621.445
405.953;   -9.879;   -8.764;  759.034
406.545;   -9.670;   -7.514;  725.342
407.138;  -13.738;  -10.025;  618.350
407.731;  -12.405;  -10.034;  613.303
408.324;   -8.553;   -9.374;  660.554
408.917;   -9.775;   -6.534;  681.864
409.509;  -11.117;   -8.004;  740.396
410.102;  -13.504;   -9.875;  643.948
410.695;   -7.769;   -8.604;  665.758
411.287;   -8.077;   -6.794;  599.821
411.880;   -9.654;   -9.334;  585.421
412.472;  -12.535;  -10.254;  613.092
413.065;   -9.676;   -6.714;  629.408
413.657;   -7.551;   -7.234;  576.678
414.250;   -7.431;  -10.544;  646.681
414.842;   -8.935;   -9.744;  676.353
415.434;   -6.961;   -6.994;  570.463
416.027;   -2.978;   -5.893;  652.196
416.619;   -5.246;   -7.264;  713.400
417.211;   -5.364;  -10.374;  599.352
417.804;   -2.106;   -7.993;  628.499
418.396;   -6.327;   -7.234;  607.643
418.988;   -4.200;   -9.443;  659.238
419.580;   -6.853;  -10.724;  568.276
420.172;   -5.411;  -10.323;  536.196
420.764;   -0.484;   -8.793;  672.482
421.356;   -1.847;  -11.143;  636.898
421.948;   -2.899;   -8.293;  677.661
422.540;    1.402;   -7.893;  680.027
423.132;    1.924;   -7.082;  600.641
423.724;   -1.746;   -8.653;  561.267
424.316;    0.350;  -10.213;  621.345
424.908;    3.479;   -9.762;  591.517
425.500;    4.756;   -5.572;  647.978
426.092;    4.974;   -8.422;  648.268
426.683;    4.187;   -9.283;  684.836
427.275;    5.770;   -7.852;  641.471
427.867;    7.808;   -5.272;  668.948
428.458;    8.982;   -7.682;  732.344
429.050;    7.548;  -10.612;  680.749
429.642;    8.990;   -9.882;  743.124
430.233;    9.756;   -6.962;  569.356
430.825;   10.782;   -6.842;  724.809
431.416;    8.409;   -9.672;  698.241
432.008;   11.373;   -6.552;  651.723
432.599;   12.904;   -6.891;  656.073
433.190;    9.029;  -10.912;  637.670
433.782;    8.924;  -11.172;  590.395
434.373;   15.648;   -6.061;  884.765
434.964;   15.204;   -8.251;  602.920
435.556;   11.937;   -9.722;  634.537
436.147;   15.944;   -9.082;  758.490
436.738;   15.114;   -8.041;  701.099
437.329;   20.558;   -7.341;  721.723
437.920;   13.966;   -8.162;  666.688
438.511;   14.024;  -11.802;  564.526
439.103;   19.059;  -10.191;  623.998
439.694;   21.961;   -7.601;  681.583
440.285;   22.610;   -8.541;  764.432
440.876;   21.548;   -9.751;  845.738
441.466;   19.853;   -9.401;  575.162
442.057;   26.321;   -7.760;  665.814
442.648;   24.164;   -9.971;  746.255
443.239;   22.710;  -11.001;  620.477
443.830;   27.591;   -7.990;  704.958
444.421;   28.934;   -7.910;  655.474
445.011;   26.571;   -8.131;  693.619
445.602;   25.294;   -7.111;  743.126
446.193;   27.215;  -10.920;  488.117
446.783;   31.930;   -6.500;  640.397
447.374;   27.154;   -8.671;  692.759
447.964;   28.195;  -10.781;  713.770
448.555;   36.337;   -9.650;  822.742
449.145;   32.851;   -8.660;  662.853
449.736;   33.886;   -8.990;  803.179
450.326;   32.656;   -9.500;  713.626
450.917;   38.441;   -8.680;  675.324
451.507;   37.490;   -7.520;  600.661
452.097;   39.145;   -8.590;  746.267
452.688;   40.432;  -11.340;  742.160
453.278;   38.069;  -10.100;  566.840
453.868;   43.578;   -6.019;  793.550
454.458;   41.731;   -9.440;  651.141
455.048;   42.526;  -10.560;  711.783
455.639;   42.450;  -11.799;  567.096
456.229;   47.462;   -6.899;  710.694
456.819;   48.762;   -7.389;  751.158
457.409;   49.495;  -11.119;  773.993
457.999;   51.629;   -9.289;  737.505
458.589;   51.776;   -6.139;  686.606
459.179;   52.429;   -8.729;  717.658
459.769;   50.660;   -9.789;  627.099
460.358;   54.716;  -10.259;  797.262
460.948;   54.544;   -7.299;  689.503
461.538;   56.408;  -10.289;  660.677
462.128;   54.602;  -11.269;  664.934
462.717;   60.722;   -9.368;  710.326
463.307;   64.477;   -7.908;  705.846
463.897;   59.860;   -9.599;  656.942
464.486;   58.587;   -9.769;  837.128
465.076;   64.139;   -8.048;  733.776
465.666;   66.884;   -9.358;  652.900
466.255;   64.902;   -7.919;  785.651
466.845;   63.840;  -11.689;  666.749
467.434;   66.820;   -7.818;  725.873
468.023;   67.303;   -7.678;  658.357
468.613;   65.223;  -10.939;  713.946
469.202;   70.057;  -10.118;  646.507
469.791;   74.137;   -9.108;  737.811
470.381;   76.532;   -6.058;  742.813
470.970;   76.162;  -10.428;  711.099
471.559;   75.009;  -10.268;  733.291
472.148;   78.479;   -8.448;  675.737
472.738;   81.748;   -6.917;  765.466
473.327;   81.160;  -11.978;  637.529
473.916;   80.133;  -11.888;  737.446
474.505;   84.224;   -9.437;  751.703
475.094;   87.766;   -6.747;  806.570
475.683;   87.211;   -9.367;  797.699
476.272;   87.625;  -12.637;  730.632
476.861;   90.282;  -10.027;  706.754
477.449;   96.841;   -8.716;  728.487
478.038;   91.954;   -9.577;  692.513
478.627;   92.616;   -9.718;  714.852
479.216;   99.167;   -8.947;  769.441
479.805;  102.500;   -6.256;  783.375
480.393;  102.274;   -7.937; 1008.945
480.982;  101.266;   -7.717;  874.501
481.571;  107.328;   -9.266;  858.333
482.159;  107.869;   -7.636;  705.386
482.748;  108.079;   -9.667;  821.385
483.336;  113.305;  -10.376;  858.209
483.925;  113.719;   -7.147;  774.373
484.513;  120.047;   -7.996;  758.962
485.102;  117.699;  -10.027;  810.965
485.690;  126.478;  -10.446; 1011.050
486.278;  127.373;   -8.446;  979.329
486.867;  128.438;   -6.356;  809.662
487.455;  129.936;   -9.136;  898.229
488.043;  132.051;  -10.646;  748.361
488.631;  140.560;   -7.456; 1005.079
489.220;  144.435;   -6.636;  908.626
489.808;  144.482;  -11.036;  741.415
490.396;  153.186;  -10.246;  914.645
490.984;  159.135;   -8.556;  830.161
491.572;  171.591;   -5.886;  940.315
492.160;  179.502;   -9.486;  919.081
492.748;  191.244;  -10.976;  884.341
493.336;  213.984;   -8.776; 1019.693
493.924;  242.965;   -5.465;  958.077
494.512;  276.279;   -9.986; 1066.638
495.100;  323.754;  -10.636; 1103.280
495.687;  383.270;  -10.885; 1206.373
496.275;  437.116;   -8.126; 1150.796
496.863;  501.923;  -10.586; 1281.171
497.451;  614.233;  -11.926; 1386.805
498.038;  726.033;  -10.885; 1556.729
498.626;  821.878;   -6.315; 1741.407
499.214;  979.080;   -7.326; 2016.609
499.801; 1197.644;  -11.906; 2220.633
500.389; 1443.064;  -10.466; 2312.494
500.976; 1678.902;   -5.236; 2744.849
501.564; 2107.165;   -8.936; 3148.565
502.151; 2578.929;  -13.176; 3515.999
502.738; 3093.053;  -10.646; 3971.274
503.326; 3493.499;   -9.525; 4403.796
503.913; 3759.939;  -10.856; 5161.749
504.500; 4234.682;  -11.586; 5986.420
505.088; 4579.919;  -10.336; 6381.201
505.675; 5028.836;   -6.355; 6925.547
506.262; 5487.458;   -9.046; 7619.060
506.849; 6007.867;  -10.416; 8733.969
507.436; 6438.204;  -10.305; 9790.121
508.023; 6861.979;   -5.496; 9985.472
508.610; 7783.582;   -7.856;10434.618
509.197; 9141.116;  -10.097;11198.435
509.784;10468.158;  -10.886;12391.194
510.371;11722.729;   -9.315;13603.713
510.958;12560.040;   -9.936;14426.586
511.545;13281.841;   -9.326;15243.775
512.132;13962.039;  -10.075;15945.876
512.719;14043.279;   -7.796;16340.369
513.305;14801.808;  -10.606;18011.766
513.892;16177.112;  -11.486;19754.971
514.479;18023.359;   -9.126;20967.805
515.066;19707.066;   -6.026;22299.793
515.652;20133.287;   -8.466;22908.660
516.239;21053.920;  -10.886;23798.875
516.825;23210.594;  -11.496;25567.275
517.412;25204.582;   -5.796;28154.959
517.998;27127.537;  -10.506;28344.111
518.585;26797.525;  -10.076;27134.219
519.171;25401.223;   -8.315;27268.576
519.758;26059.465;   -8.596;28964.129
520.344;27275.207;   -8.466;30664.494
520.930;29793.613;  -11.006;32550.605
521.516;30138.719;  -10.495;35422.895
522.103;28601.514;   -5.526;38280.004
522.689;28912.285;   -8.746;37835.117
523.275;30717.799;  -11.376;37288.613
523.861;32939.520;  -11.156;37281.395
524.447;36375.883;   -8.135;37846.949
525.033;37411.363;   -7.896;38321.949
525.619;36952.473;  -12.476;38579.285
526.205;37040.031;   -9.516;40622.875
526.791;36920.863;   -6.926;42258.836
527.377;38175.922;   -8.346;42966.902
527.963;39809.414;   -8.717;42018.949
528.549;38837.570;  -11.016;42476.828
529.135;39056.609;   -8.536;41854.852
529.721;38604.246;   -9.666;41237.711
530.306;36735.906;  -10.066;41259.445
530.892;36772.293;  -11.356;41506.047
531.478;36016.793;   -6.596;43559.613
532.063;36187.281;   -8.836;47695.563
532.649;39750.719;  -10.047;50808.324
533.235;41382.008;   -9.746;51787.500
533.820;40663.563;   -6.566;52145.035
534.406;40188.836;  -10.817;51133.488
534.991;43125.531;   -9.416;49996.805
535.576;44325.965;   -9.036;48882.852
536.162;44502.199;   -6.156;46942.285
536.747;45574.625;  -11.607;45711.746
537.333;45934.184;  -11.787;48510.180
537.918;45604.262;  -12.437;50439.891
538.503;46585.980;   -7.196;50863.711
539.088;45059.199;  -10.556;50906.922
539.673;43713.852;   -8.767;52621.965
540.259;44484.656;  -10.026;52368.094
540.844;46374.887;   -7.416;50879.109
541.429;45388.656;   -9.467;52077.777
542.014;45183.719;   -9.527;52716.695
542.599;47311.977;   -9.946;52363.281
543.184;50069.801;   -7.927;53187.137
543.769;48769.188;   -9.297;54697.605
544.354;45092.355;  -10.127;53913.914
544.938;42830.055;   -9.267;49680.164
545.523;44879.340;   -6.506;47386.277
546.108;48715.734;   -9.787;49151.949
546.693;48579.941;  -11.587;51384.637
547.278;48604.426;  -10.986;51853.254
547.862;45576.465;   -8.206;51173.750
548.447;43105.590;  -10.067;51691.395
549.031;43785.488;   -9.637;52456.703
549.616;44766.645;   -9.926;52714.516
550.201;43731.813;   -6.347;52414.598
550.785;42831.793;   -7.917;52355.059
551.370;43931.160;  -10.867;54589.453
551.954;45094.551;   -9.047;58267.348
552.538;46208.250;   -7.827;59062.176
553.123;45813.410;  -10.287;58115.285
553.707;41684.797;  -12.178;56556.285
554.291;42853.406;   -8.717;56201.668
554.876;46160.941;   -7.457;55335.762
555.460;46884.883;  -10.387;54155.703
556.044;47566.488;   -9.618;53721.484
556.628;46592.395;  -11.567;53731.016
557.212;44417.266;   -8.097;54312.531
557.796;45601.707;  -11.077;53797.773
558.380;43794.543;  -11.108;56145.984
558.964;42723.191;   -9.057;57277.930
559.548;42932.973;   -6.977;56459.641
560.132;42072.273;  -11.457;54434.543
560.716;40773.203;  -11.378;54800.617
561.300;41634.168;   -9.577;57606.945
561.884;43864.781;   -7.127;58972.445
562.467;44463.430;   -7.118;57327.570
563.051;44207.363;  -13.358;54962.434
563.635;42118.863;  -10.178;52594.473
564.219;41625.848;   -7.837;50610.410
564.802;41011.723;  -11.398;49551.180
565.386;41727.996;  -12.788;48370.953
565.969;42590.949;   -9.077;48178.871
566.553;42794.691;   -6.207;49957.305
567.136;40246.613;   -8.568;50369.594
567.720;39290.152;  -11.868;49492.004
568.303;39457.242;   -8.268;50616.352
568.887;38240.652;   -8.698;50727.148
569.470;38226.980;   -6.808;51698.379
570.053;36632.125;  -13.188;52122.078
570.637;35008.699;  -12.037;52536.438
571.220;34447.379;   -8.577;51186.098
571.803;34930.145;   -8.498;51032.762
572.386;36963.852;  -10.498;49609.887
572.969;37815.844;   -9.388;48285.926
573.552;33605.051;   -8.338;47624.285
574.135;31466.389;   -8.518;45498.641
574.718;29230.176;  -13.628;41970.434
575.301;29654.045;  -10.893;41447.137
575.884;30077.914;   -8.158;40923.836
576.467;35227.313;  -10.328;45267.723
577.050;33773.516;  -13.058;48175.543
577.633;32699.570;   -9.458;47729.328
578.216;33952.625;   -8.928;47579.793
578.799;34977.539;   -9.358;47820.996
579.381;34474.063;  -11.388;48115.551
579.964;31889.166;  -11.718;47333.766
580.547;31770.129;   -8.588;46668.969
581.129;33002.887;   -8.859;44466.141
581.712;33209.828;  -10.729;44164.922
582.294;34521.477;  -11.118;46477.855
582.877;32498.725;   -5.218;48244.254
583.459;32559.488;   -8.679;47437.895
584.042;34709.809;  -10.709;46943.219
584.624;36801.527;  -11.669;46792.227
585.206;35449.813;   -8.218;46557.250
585.789;34061.066;  -10.569;45793.773
586.371;34656.047;  -11.859;43836.391
586.953;33132.516;  -10.719;42972.492
587.536;34638.566;   -7.198;42487.211
588.118;36043.008;   -8.720;42086.414
588.700;35083.676;  -10.439;43389.930
589.282;34756.387;   -9.198;43646.039
589.864;33572.328;   -9.199;43438.109
590.446;31652.445;  -11.319;43151.926
591.028;31261.219;  -11.159;42781.867
591.610;31068.527;  -11.779;42839.098
592.192;27930.582;   -7.668;42820.402
592.774;27760.441;  -11.949;40724.277
593.356;27373.746;  -12.129;39874.789
593.937;24335.008;  -10.669;39980.648
594.519;25592.201;   -6.509;42069.633
595.101;29068.703;  -10.849;42976.031
595.683;29982.957;  -11.679;44084.441
596.264;30340.736;   -9.049;43478.797
596.846;32559.451;   -8.849;43803.672
597.427;32657.492;   -9.570;42986.934
598.009;33482.895;  -12.620;42832.219
598.591;32975.422;  -10.039;42580.086
599.172;32210.186;  -10.369;43061.805
599.753;30515.584;   -9.140;41691.469
600.335;30325.721;  -11.430;40692.520
600.916;30908.023;   -9.939;39982.422
601.498;29658.516;   -8.479;40318.617
602.079;28356.023;  -10.920;40670.609
602.660;30517.914;  -11.480;41450.898
603.241;32036.029;  -11.699;41137.738
603.823;32130.629;   -9.579;38868.797
604.404;31702.365;  -10.620;38182.785
604.985;30635.115;  -10.450;38078.047
605.566;30138.379;   -9.129;38056.633
606.147;29974.262;   -7.510;37020.418
606.728;31019.783;  -10.660;37883.359
607.309;31836.029;  -11.740;38748.273
607.890;31502.508;   -9.759;38850.230
608.471;30143.852;   -8.250;37457.918
609.051;30810.094;   -9.240;36066.457
609.632;29131.012;  -12.120;35991.074
610.213;27728.705;   -9.110;37402.641
610.794;29319.313;   -8.030;38383.363
611.374;31928.568;   -8.110;40562.387
611.955;31991.383;  -13.560;38533.727
612.536;29370.783;  -11.400;36951.789
613.116;28088.865;   -8.070;37197.891
613.697;30009.775;  -10.830;38411.125
614.277;31128.709;  -11.641;38673.938
614.858;30445.619;  -13.310;37075.863
615.438;29255.760;   -7.460;35092.906
616.019;27807.684;   -7.601;33666.301
616.599;28462.021;  -12.020;34189.023
617.179;30060.141;  -11.780;36952.047
617.760;32692.521;   -8.570;39582.574
618.340;32951.480;  -11.471;38943.977
618.920;31491.711;  -11.170;37594.156
619.500;33282.484;  -11.071;37866.938
620.080;33552.594;   -7.750;37869.043
620.660;31702.607;  -12.711;36868.617
621.241;30093.723;  -10.211;36352.309
621.821;28971.326;  -10.961;35459.520
622.401;28429.537;   -7.720;35207.414
622.980;29774.479;   -8.981;35980.422
623.560;29817.717;   -9.331;37351.328
624.140;28542.063;   -9.850;34388.582
624.720;26273.068;   -7.451;32368.764
625.300;24604.908;   -9.070;32638.629
625.880;27906.188;  -12.601;34599.035
626.459;29717.010;  -11.751;36831.738
627.039;30813.236;   -9.281;38299.098
627.619;32743.557;   -8.801;38289.574
628.198;31735.783;  -12.071;37220.695
628.778;30525.836;   -9.461;37632.563
629.357;31572.098;   -8.491;38003.012
629.937;31824.998;   -9.721;38402.039
630.516;32159.145;   -9.951;37868.801
631.096;32365.529;  -11.731;35760.410
631.675;33522.617;   -8.572;35225.219
632.254;33242.590;  -11.282;35130.289
632.834;32568.498;  -13.322;35794.570
633.413;32370.607;  -10.301;35788.922
633.992;31550.480;   -8.582;34532.863
634.571;32845.563;   -8.352;33590.113
635.151;32924.832;  -11.912;34943.863
635.730;32313.576;  -10.511;35352.523
636.309;34394.660;   -7.731;35366.605
636.888;32492.371;   -9.952;36165.637
637.467;30971.305;  -11.672;37515.902
638.046;31056.027;   -8.901;39288.695
638.625;31865.783;   -7.912;38279.699
639.204;32014.100;  -10.022;37741.598
639.782;30302.836;  -12.252;38364.551
640.361;28427.170;  -10.041;36740.621
640.940;27288.830;  -11.161;34950.082
641.519;28259.172;   -9.701;34137.398
642.097;30097.168;  -11.271;35654.258
642.676;31936.408;   -8.651;35637.957
643.255;33317.430;   -8.711;36567.074
643.833;30761.266;   -9.581;37809.434
644.412;28365.072;  -13.711;37337.293
644.990;30294.270;  -11.811;37018.531
645.569;32980.250;   -9.411;36518.469
646.147;32302.426;  -10.291;36186.430
646.726;30953.807;  -12.401;36267.688
647.304;30780.281;  -10.411;36647.625
647.882;30101.582;   -9.651;39286.742
648.461;31519.521;   -9.631;39157.703
649.039;34910.520;  -11.881;35412.883
649.617;35015.012;   -9.661;34744.918
650.195;32748.703;   -9.301;35403.098
650.773;31752.738;  -10.511;35053.797
651.352;30912.773;  -11.521;33756.816
651.930;28611.336;  -12.211;31868.773
652.508;25685.455;   -9.171;33121.551
653.086;26403.361;   -9.371;33564.793
653.663;32082.486;  -13.161;34054.668
654.241;35731.938;  -13.031;35693.309
654.819;36454.242;   -9.371;36422.906
655.397;36564.531;  -10.511;38213.484
655.975;33138.996;  -10.371;39507.625
656.553;29989.264;  -10.051;39498.223
657.130;28484.572;  -10.061;40395.480
657.708;26667.904;   -9.561;39242.020
658.286;23971.854;  -11.511;38920.020
658.863;26286.408;  -10.261;40202.898
659.441;30186.100;   -7.531;39677.938
660.018;32188.678;   -9.501;40413.355
660.596;31542.100;  -13.301;39931.414
661.173;31407.328;  -11.211;39604.531
661.750;32948.445;   -9.951;39700.070
662.328;31887.457;   -9.390;39292.809
662.905;30545.971;  -11.330;38235.648
663.482;28036.176;   -9.050;36212.305
664.060;25185.959;   -8.240;35944.945
664.637;26012.090;  -10.050;35170.785
665.214;29433.059;  -11.760;34197.523
665.791;30037.541;  -10.530;34549.520
666.368;28692.980;   -9.690;35118.578
666.945;29875.986;   -9.320;36019.418
667.522;30336.658;  -11.860;36048.438
668.099;31650.236;  -10.770;36243.914
668.676;31590.344;   -6.260;35958.875
669.253;33931.168;   -7.000;37384.730
669.830;35318.422;  -10.190;36779.629
670.407;32493.754;   -9.550;35231.289
670.984;33274.098;   -9.260;35544.270
671.560;30703.057;   -9.280;35466.867
672.137;26453.217;  -11.810;34280.863
672.714;28312.006;  -11.490;34632.863
673.290;31698.734;   -7.740;35135.422
673.867;30994.422;  -10.660;36114.480
674.443;31147.439;  -12.230;36152.859
675.020;30949.176;  -10.450;35327.238
675.596;29868.516;   -9.260;35795.176
676.173;28996.457;  -10.780;35430.355
676.749;28674.170;  -13.690;33549.516
677.326;28592.375;  -11.980;32210.012
677.902;27981.176;   -8.630;32068.871
678.478;29435.252;  -10.730;32583.891
679.054;30103.922;  -10.520;32088.928
679.631;29539.098;  -11.920;30978.848
680.207;29428.850;   -7.490;33160.887
680.783;31025.471;   -9.860;35570.363
681.359;32471.764;  -13.380;36125.184
681.935;33298.813;  -12.480;35240.922
682.511;32581.752;   -7.900;34429.961
683.087;31516.898;   -7.710;34463.680
683.663;31164.486;  -11.480;34648.898
684.239;29777.152;  -14.090;34546.457
684.815;28738.477;   -7.560;35586.375
685.390;29296.732;   -9.910;35821.895
685.966;30688.133;  -11.159;35085.871
686.542;32126.209;  -11.169;34198.230
687.118;33578.988;   -5.959;32847.707
687.693;32605.920;  -10.329;32794.027
688.269;33377.512;  -12.059;33072.367
688.844;33316.309;  -10.909;33141.664
689.420;30568.248;   -8.019;33965.742
689.995;29477.885;   -8.399;34655.523
690.571;30962.037;  -10.949;33576.742
691.146;30406.420;   -9.619;32657.219
691.722;28763.957;   -8.999;32526.979
692.297;28087.375;  -11.589;33014.617
692.872;28129.959;  -11.739;34012.254
693.448;30936.314;  -11.059;34237.434
694.023;31509.813;  -10.139;34142.672
694.598;29597.887;   -9.029;34132.031
695.173;30637.773;  -13.319;34205.250
695.748;31036.561;  -10.169;32882.488
696.323;28738.992;   -8.339;32864.906
696.898;27231.008;   -8.169;33170.004
697.473;27963.645;  -12.309;32432.984
698.048;27897.186;  -10.989;31649.303
698.623;26673.070;   -9.329;30778.141
699.198;27699.230;   -9.849;31140.119
699.773;28654.584;  -12.329;31764.299
700.348;29933.563;  -10.389;31780.816
700.922;30044.580;   -9.269;32046.375
701.497;30846.092;   -9.329;32603.574
702.072;32130.834;  -10.789;34799.871
702.646;31202.445;  -10.839;35793.172
703.221;30542.758;   -9.099;35201.590
703.795;32628.994;  -10.939;34764.527
704.370;30235.775;  -12.859;34307.367
704.944;28624.139;  -11.559;33509.887
705.519;29528.945;   -7.939;31388.584
706.093;31394.814;  -10.499;31340.104
706.668;33311.605;  -11.289;32630.281
707.242;32707.547;  -11.509;32728.779
707.816;30850.770;   -9.639;32947.238
708.390;29707.887;  -11.429;33277.855
708.965;29119.545;  -11.869;33834.336
709.539;30630.291;  -11.689;33709.273
710.113;31165.545;  -10.478;33044.313
710.687;30336.283;  -10.228;31953.992
711.261;29550.314;  -13.698;30505.949
711.835;30026.986;  -13.378;30262.369
712.409;28946.670;   -9.698;31254.447
712.983;28201.547;  -11.898;32754.986
713.557;30539.043;  -15.138;34018.824
714.131;28853.443;  -14.098;34579.625
714.704;28428.359;   -9.958;33890.262
715.278;30733.020;  -10.028;33531.102
715.852;29475.395;  -11.148;33601.660
716.425;28302.721;   -9.068;33515.117
716.999;26909.463;  -10.038;33185.555
717.573;26725.664;   -9.798;33905.996
718.146;26155.389;  -12.378;35199.293
718.720;26286.707;  -11.918;35060.551
719.293;26502.053;   -8.088;34973.230
719.867;28929.869;  -10.888;36394.449
720.440;30975.188;  -11.938;36663.008
721.013;31830.018;  -12.818;35102.426
721.587;29607.182;  -10.298;33985.266
722.160;27568.449;  -10.048;33524.965
722.733;26742.953;  -12.108;32987.043
723.306;27038.123;  -10.818;33066.301
723.880;28977.818;   -8.908;33399.500
724.453;28492.713;   -9.878;33468.297
725.026;28634.631;  -11.188;33816.637
725.599;31133.752;  -11.678;32797.996
726.172;30507.113;   -9.618;33187.434
726.745;27916.320;   -8.258;35136.613
727.318;27368.490;  -12.978;35751.730
727.891;27198.000;  -12.148;35890.430
728.463;26693.848;   -8.968;34822.090
729.036;26526.598;  -10.188;32895.086
729.609;26313.469;  -11.788;31823.225
730.182;24137.250;  -11.788;31445.283
730.754;22815.521;  -10.268;32373.223
731.327;23075.012;   -9.998;33676.820
731.900;24174.373;  -12.228;33417.000
732.472;24032.117;  -13.848;31978.498
733.045;23175.879;   -8.698;30368.777
733.617;22817.918;  -10.607;30574.215
734.190;24861.553;  -11.507;31280.975
734.762;25792.166;  -13.647;31674.412
735.334;27058.674;   -9.767;31247.291
735.907;27386.230;   -9.897;29876.211
736.479;26780.818;  -11.637;29808.488
737.051;27638.172;   -9.567;30233.547
737.623;27063.617;   -8.187;31469.086
738.195;25883.908;  -11.187;31784.225
738.768;24777.879;  -12.337;32120.523
739.340;23199.254;  -12.227;32094.342
739.912;22507.424;  -11.057;31312.680
740.484;22642.990;  -10.207;31946.238
741.056;22306.178;  -10.047;32984.059
741.628;23221.457;  -13.627;33897.715
742.199;23959.619;   -7.177;33213.016
742.771;25975.789;  -10.797;31369.113
743.343;26839.287;  -11.997;31865.473
743.915;26565.492;  -12.867;32388.631
744.487;24077.750;   -7.617;31079.568
745.058;21416.406;   -9.557;30570.107
745.630;22563.492;   -9.877;29970.127
746.201;24062.635;  -14.177;29186.766
746.773;24537.793;   -9.237;28805.723
747.344;22690.438;   -9.847;29591.223
747.916;21004.203;  -11.657;31412.201
748.487;22155.752;  -10.587;32194.898
749.059;23920.162;   -8.707;32533.719
749.630;24261.336;  -10.537;32158.518
750.201;23484.314;  -11.687;30855.395
750.773;22028.293;  -11.647;28622.555
751.344;21769.717;   -7.147;28405.732
751.915;24013.014;   -9.757;28461.551
752.486;25308.859;  -12.427;27842.850
753.057;24315.703;  -12.227;27845.008
753.628;24193.563;  -10.417;27728.107
754.199;23584.986;  -11.767;27381.086
754.770;23217.471;  -11.187;25882.203
755.341;22309.205;  -10.507;25886.184
755.912;20683.490;   -9.387;26050.861
756.483;19235.484;  -10.647;26798.779
757.054;19696.049;  -11.837;27048.238
757.625;19869.266;  -12.716;26294.838
758.195;19693.826;   -9.666;26142.076
758.766;19883.996;   -8.656;26392.234
759.337;19388.428;  -12.856;26334.594
759.907;19102.668;  -13.366;27579.652
760.478;18890.041;   -8.576;28352.770
761.048;19930.445;  -10.526;27325.088
761.619;20024.395;  -11.116;26460.428
762.189;18731.391;  -12.136;26029.826
762.760;18420.461;   -9.456;26430.145
763.330;18848.398;   -7.136;26670.902
763.900;18990.936;  -11.786;26603.021
764.471;18439.836;  -11.546;25542.740
765.041;17579.424;   -8.096;24358.459
765.611;16855.629;   -8.876;23991.297
766.181;16822.512;  -12.196;24470.236
766.751;16506.258;  -11.636;24845.975
767.321;17473.775;  -10.156;24533.633
767.891;16893.025;  -11.766;24916.492
768.461;17028.902;  -14.936;24776.771
769.031;18029.064;  -12.356;24757.988
769.601;18575.588;   -7.526;24181.088
770.171;18262.074;  -10.766;23670.387
770.741;17492.875;  -13.176;22960.045
771.311;17211.855;  -10.616;22917.523
771.880;17696.354;   -9.576;23562.941
772.450;17535.078;  -10.336;24216.500
773.020;17119.477;  -13.516;24140.398
773.589;17550.410;  -13.466;24414.857
774.159;17304.211;   -8.686;23858.717
774.729;16088.280;   -9.476;22942.135
775.298;14415.773;  -13.666;22324.033
775.867;13947.393;  -11.716;21140.313
776.437;14028.808;   -9.906;20838.092
777.006;13401.766;  -12.166;20599.510
777.576;12842.196;  -12.356;20508.809
778.145;12777.485;  -11.646;20732.947
778.714;13191.879;   -8.226;21062.465
779.283;14118.093;   -9.556;20949.664
779.853;14705.703;  -14.116;20508.623
780.422;14137.797;  -11.506;20649.082
780.991;13676.101;   -9.556;21527.520
781.560;13337.820;   -9.095;22632.658
782.129;13212.234;  -12.135;23048.277
782.698;13083.048;  -10.865;23438.555
783.267;12679.275;   -9.335;23267.734
783.836;12902.646;  -11.045;22415.133
784.404;13705.972;  -13.865;20443.152
784.973;13009.840;  -13.095;19699.150
785.542;11685.241;  -11.575;19763.828
786.111;11067.309;   -9.705;20341.408
786.679;11768.826;  -12.105;20207.967
787.248;12006.836;  -12.455;19516.465
787.817;11587.628;  -11.535;18900.363
788.385;11679.219;   -9.765;17879.121
788.954;11856.419;  -14.005;17658.301
789.522;11322.790;  -11.955;17788.879
790.090;11488.018;  -10.135;18118.277
790.659;12291.662;  -10.975;18338.736
791.227;12114.664;  -13.375;18508.615
791.795;11530.600;  -12.375;17898.254
792.364;11106.379;  -10.725;17295.133
792.932;11287.831;   -9.715;16822.051
793.500;11520.475;  -12.675;17040.148
794.068;11380.079;  -13.495;17179.787
794.636;10190.412;  -10.885;16664.246
795.204; 9138.342;  -11.045;16524.545
795.772; 9867.569;  -13.175;17274.564
796.340;11042.820;  -12.445;17891.002
796.908;10777.958;   -9.735;17648.561
797.476;11120.931;   -9.815;17064.080
798.044;11871.471;  -13.985;16672.777
798.612;11634.288;  -13.115;17023.996
799.180;10374.693;  -10.185;16561.615
799.747; 9353.893;   -9.055;15962.773
800.315; 8699.481;  -12.385;15296.992
800.883; 8947.153;  -15.035;14801.771
801.450; 9306.174;  -10.365;14534.430
802.018; 9460.808;   -9.855;14173.248
802.585; 9580.083;  -11.905;14029.547
803.153; 9147.286;  -11.585;13836.846
803.720; 8508.574;   -9.095;13567.324
804.287; 8506.317;   -9.135;13360.622
804.855; 8797.452;  -11.604;13681.981
805.422; 8982.237;  -11.794;13536.560
805.989; 8896.849;  -10.734;13355.958
806.556; 8486.704;  -10.444;13747.896
807.124; 8395.729;  -12.764;13987.376
807.691; 8959.235;  -12.964;14038.674
808.258; 9303.194;  -11.134;14120.152
808.825; 9494.436;   -9.854;13860.111
809.392; 9143.972;  -10.504;13268.790
809.959; 8675.427;  -13.054;12680.389
810.526; 8525.393;   -8.294;12427.308
811.093; 8192.590;   -8.394;12030.105
811.659; 7459.868;  -12.304;11653.664
812.226; 7267.132;  -13.944;11637.183
812.793; 7785.744;  -10.484;11611.521
813.360; 7894.402;  -10.144;11885.181
813.926; 7218.816;  -11.684;12770.539
814.493; 6623.210;  -13.644;12677.638
815.060; 6438.774;   -9.724;11974.336
815.626; 6740.333;   -9.854;11594.715
816.193; 6780.048;  -13.254;11579.474
816.759; 6750.665;  -13.204;11666.972
817.325; 6531.801;   -9.434;11325.530
817.892; 6216.083;  -10.134;11105.369
818.458; 6153.899;  -13.474;10843.928
819.024; 6154.891;  -11.854;10714.406
819.591; 6458.607;  -10.244;10469.165
820.157; 6590.488;  -10.704;10235.523
820.723; 6881.416;  -12.324;10847.563
821.289; 7322.362;   -9.444;11040.980
821.855; 7358.175;   -8.374;10357.100
822.421; 6932.776;  -10.234; 9978.918
822.987; 6676.180;  -13.294; 9754.177
823.553; 6531.964;  -10.884;10065.755
824.119; 6102.542;   -8.884;10036.294
824.685; 5915.268;   -6.784;10029.192
825.251; 5845.146;  -12.004;10199.230
825.816; 5955.178;  -11.474; 9820.189
826.382; 5736.536;   -9.174; 9297.248
826.948; 5448.269;   -9.214; 9381.347
827.513; 5220.936;  -10.774; 9450.726
828.079; 5186.887;  -11.924; 9472.444
828.645; 5258.533;  -10.543; 9292.643
829.210; 5433.180;  -10.533; 9065.341
829.776; 5440.677;  -10.753; 9132.620
830.341; 5385.425;  -10.173; 9092.878
830.906; 5516.490;  -10.743; 9078.557
831.472; 5387.984;  -11.113; 8534.535
832.037; 4881.816;  -10.603; 8677.874
832.602; 4815.126;  -13.323; 8628.692
833.167; 5204.562;  -10.823; 8879.031
833.733; 5150.114;  -10.113; 9189.790
834.298; 4842.445;  -13.583; 9052.608
834.863; 4708.793;  -12.703; 8895.087
835.428; 4595.734;  -10.523; 8824.266
835.993; 4541.563;   -6.963; 8845.385
836.558; 4613.665;  -10.763; 8888.563
837.123; 4746.939;   -9.903; 8966.582
837.688; 4616.413;   -9.913; 8617.860
838.253; 4483.721;  -10.283; 8590.699
838.817; 4624.431;  -12.963; 8443.797
839.382; 4780.495;  -14.243; 8799.356
839.947; 4639.728;  -10.733; 8810.595
840.511; 4743.128;   -9.383; 8796.394
841.076; 4809.842;  -12.563; 8347.231
841.641; 4627.823;  -12.953; 8224.330
842.205; 4319.961;   -7.043; 8223.349
842.770; 4255.915;   -8.163; 8622.107
843.334; 4301.706;  -12.503; 8410.386
843.898; 4292.394;  -11.693; 8337.465
844.463; 4194.171;  -10.203; 8506.283
845.027; 4083.039;   -9.533; 8280.962
845.591; 4108.133;  -13.443; 8231.141
846.156; 4016.792;  -13.143; 7969.179
846.720; 3803.114;   -9.433; 7768.278
847.284; 3519.462;  -11.033; 7630.957
847.848; 3375.983;  -10.403; 7472.395
848.412; 3404.130;  -11.553; 7437.394
848.976; 3603.377;   -8.393; 7674.592
849.540; 3659.495;   -8.713; 7836.011
850.104; 3640.109;  -12.463; 7913.669
850.668; 3758.274;  -12.973; 7694.508
851.232; 3777.314;  -10.793; 7756.887
851.796; 3674.411;  -10.662; 7926.545
852.359; 3692.071;  -13.082; 7827.844
852.923; 3420.294;  -12.192; 7641.163
853.487; 3312.819;  -11.912; 7342.501
854.050; 3479.452;  -10.892; 7042.820
854.614; 3474.112;  -13.992; 7151.338
855.177; 3350.800;  -11.732; 7105.077
855.741; 3272.259;   -8.962; 6989.675
856.304; 3177.595;   -9.442; 6596.634
856.868; 2942.191;  -14.192; 6356.272
857.431; 2727.561;  -12.702; 6468.571
857.995; 2770.244;   -9.942; 6373.210
858.558; 2805.198;   -9.112; 6324.448
859.121; 2621.495;  -12.932; 6408.327
859.684; 2563.374;  -13.442; 6347.886
860.247; 2985.185;  -10.632; 6321.264
860.810; 3308.564;  -11.272; 6301.903
861.374; 3293.180;   -9.832; 6607.881
861.937; 3240.650;  -11.762; 6408.200
862.500; 3101.224;   -9.722; 6572.639
863.062; 2808.785;  -10.512; 6387.297
863.625; 2713.149;  -11.232; 6190.836
864.188; 2732.255;  -14.112; 5807.254
864.751; 2753.705;  -11.302; 5682.413
865.314; 2885.298;  -10.112; 5547.492
865.876; 2908.595;  -12.182; 5500.150
866.439; 2814.855;  -10.722; 5415.909
867.002; 2660.761;   -9.252; 5501.567
867.564; 2557.055;   -9.572; 5413.946
868.127; 2424.148;  -13.142; 5160.325
868.689; 2144.127;  -12.902; 5133.183
869.252; 2010.988;   -9.732; 5252.382
869.814; 2020.487;   -9.432; 5297.141
870.377; 2121.833;  -11.552; 5390.919
870.939; 2112.510;   -9.052; 5599.898
871.501; 2033.848;  -10.982; 5248.336
872.063; 2053.119;  -12.292; 4854.235
872.626; 2048.347;  -14.912; 4817.074
873.188; 2055.305;  -13.112; 4987.732
873.750; 2005.315;  -13.442; 4868.651
874.312; 2065.899;   -9.402; 4779.330
874.874; 2196.944;  -11.062; 4866.348
875.436; 2073.496;  -13.931; 4718.887
875.998; 1783.235;   -9.561; 4660.005
876.560; 1638.084;  -11.321; 4462.964
877.122; 1637.770;  -12.221; 4145.042
877.683; 1608.808;  -12.191; 4056.481
878.245; 1685.258;  -12.101; 3950.740
878.807; 1836.026;   -8.971; 4058.958
879.369; 1875.962;  -12.071; 3954.677
879.930; 1803.708;  -14.621; 3941.495
880.492; 1632.450;  -10.311; 4067.014
881.053; 1482.064;  -10.901; 3859.633
881.615; 1465.386;  -14.411; 3776.071
882.176; 1497.626;  -13.761; 3734.750
882.738; 1521.198;   -9.181; 3678.489
883.299; 1479.001;  -11.791; 3405.407
883.860; 1397.874;  -13.121; 3351.106
884.422; 1289.886;  -11.211; 3394.044
884.983; 1212.778;  -10.091; 3166.443
885.544; 1188.863;   -8.461; 3189.802
886.105; 1129.015;  -12.361; 3160.360
886.666; 1046.600;  -14.141; 3093.059
887.227; 1017.752;  -11.361; 2941.957
887.788; 1038.294;  -11.401; 2974.836
888.349;  995.072;  -13.791; 2721.214
888.910;  895.963;  -13.191; 2696.493
889.471;  791.636;   -9.881; 2560.172
890.032;  719.014;   -9.881; 2558.190
890.593;  719.628;  -10.371; 2567.669
891.153;  718.918;  -13.301; 2460.307
891.714;  653.601;  -11.431; 2372.046
892.275;  602.982;  -11.291; 2309.505
892.835;  590.130;  -11.471; 2382.543
893.396;  579.385;  -11.541; 2295.502
893.956;  571.796;  -11.181; 2162.420
894.517;  556.297;  -11.741; 2125.439
895.077;  506.504;  -11.671; 2086.978
895.638;  454.460;  -11.311; 2126.316
896.198;  433.296;   -9.831; 1838.275
896.758;  434.246;   -8.421; 1892.813
897.319;  429.488;  -12.351; 1792.232
897.879;  411.285;  -13.511; 1762.751
898.439;  385.178;  -12.001; 1661.149
898.999;  364.854;  -10.180; 1781.468
899.559;  349.366;  -12.030; 1703.347
900.119;  339.500;  -15.710; 1537.525
900.679;  317.722;   -8.900; 1638.384
901.239;  290.714;   -8.340; 1527.902
901.799;  276.563;  -13.910; 1456.441
902.359;  267.100;  -13.460; 1357.140
902.919;  262.094;  -11.490; 1331.118
903.479;  258.674;  -12.110; 1317.257
904.038;  251.726;  -11.720; 1262.595
904.598;  236.140;  -13.610; 1152.034
905.158;  222.991;  -11.040; 1240.893
905.717;  218.156;  -10.900; 1233.691
906.277;  212.912;  -15.080; 1217.330
906.836;  210.122;  -13.380; 1222.408
907.396;  206.625;  -10.780; 1193.047
907.955;  200.237;   -8.500; 1182.526
908.515;  192.773;  -12.760; 1099.364
909.074;  188.252;  -11.900; 1092.863
909.633;  184.791;   -8.950; 1069.121
910.192;  183.349;   -8.770; 1196.460
910.752;  177.561;  -12.390; 1029.960
911.311;  174.197;  -13.680; 1009.780
911.870;  168.822;  -12.370;  971.460
912.429;  165.801;  -10.900; 1094.080
912.988;  163.995;  -11.690; 1081.060
913.547;  159.717;  -13.240;  940.380
914.106;  158.802;  -11.990;  999.420
914.665;  158.743;   -9.990;  984.020
915.224;  157.849;  -12.880; 1035.760
915.782;  156.242;  -12.350;  922.560
916.341;  156.863;   -9.110; 1049.840
916.900;  153.697;   -9.270;  925.260
917.458;  151.400;  -13.240;  884.220
918.017;  149.257;  -13.550;  942.600
918.576;  149.082;  -12.320;  904.440
919.134;  148.885;  -11.490;  837.980
919.693;  146.679;  -13.670;  893.060
920.251;  145.432;  -15.470;  876.500
920.809;  144.704;  -11.290;  839.580
921.368;  144.828;  -10.210;  885.360
921.926;  145.483;  -12.140;  842.940
922.484;  143.617;  -13.080;  903.360
923.042;  143.211;  -11.720;  880.340
923.601;  144.309;   -7.480;  998.680
924.159;  143.247;  -11.570;  935.560
924.717;  142.848;  -13.840;  841.080
925.275;  144.094;  -10.640;  903.240
925.833;  143.283;  -11.540;  779.320
926.391;  144.041;  -12.960;  938.380
926.949;  142.964;  -14.130;  857.680
927.506;  142.664;  -11.750;  903.500
928.064;  142.358;  -10.250;  877.580
928.622;  142.046;  -13.030;  880.100
929.180;  142.186;  -13.400;  814.180
929.737;  144.258;  -10.700;  808.540
930.295;  146.886;  -10.070;  928.480
930.853;  146.295;  -11.960;  849.100
931.410;  145.015;  -13.120;  821.120
931.968;  145.478;  -10.770;  940.660
932.525;  146.916;  -10.680;  909.380
933.082;  150.189;  -13.130;  811.440
933.640;  155.563;  -13.210;  925.900
934.197;  156.515;  -11.060;  886.360
934.754;  157.069;   -9.580;  897.780
935.312;  157.471;  -14.000;  863.340
935.869;  161.688;  -10.710; 1012.980
936.426;  159.374;   -9.860;  872.800
936.983;  158.693;   -9.710;  889.020
937.540;  156.929;  -13.990;  838.280
938.097;  155.762;  -14.040;  940.120
938.654;  159.063;  -10.310;  898.860
939.211;  160.192;  -10.560;  952.480
939.768;  158.261;  -13.900;  915.420
940.324;  159.861;  -14.760;  904.200
940.881;  164.026;  -10.370;  878.500
941.438;  170.772;   -8.260; 1021.200
941.995;  173.010;  -12.540;  992.560
942.551;  170.280;  -14.670;  875.620
943.108;  170.033;  -10.450;  937.920
943.664;  170.479;  -10.750;  869.340
944.221;  176.750;  -11.550; 1088.140
944.777;  179.277;  -14.770;  869.680
945.334;  178.520;  -12.820;  884.840
945.890;  176.795;  -10.130;  946.480
946.446;  174.243;  -13.470;  947.020
947.003;  175.942;  -12.120;  964.940
947.559;  175.328;   -9.980; 1063.040
948.115;  172.947;   -9.080; 1026.540
948.671;  168.963;  -10.830;  967.300
949.227;  166.440;  -12.440;  859.560
949.783;  166.309;  -12.910;  858.900
950.339;  169.784;  -10.270;  991.000
950.895;  171.226;  -13.630; 1023.840
951.451;  169.757;  -15.100;  925.280
952.007;  169.253;  -11.330;  998.540
952.563;  167.196;  -10.580;  937.780
953.118;  163.530;  -13.440;  904.940
953.674;  160.315;  -12.710;  935.780
954.230;  161.913;  -10.350;  949.640
954.785;  165.918;   -9.190;  936.640
955.341;  168.343;  -11.200;  998.160
955.897;  165.031;  -16.560;  834.660
956.452;  161.998;  -12.570;  953.840
957.008;  160.354;   -7.970; 1083.640
957.563;  159.529;  -11.940; 1009.540
958.118;  157.309;  -13.450;  877.700
958.674;  157.604;  -12.030;  946.780
959.229;  157.562;   -9.410; 1013.980
959.784;  156.267;  -12.000;  832.400
960.339;  153.640;  -14.780; 1001.280
960.894;  149.485;   -9.860;  963.760
961.449;  144.308;   -9.970;  859.960
962.004;  143.516;  -10.900; 1212.840
962.559;  135.711;  -13.150;  860.140
963.114;  127.826;  -13.740;  742.480
963.669;  123.678;   -9.820;  915.500
964.224;  114.351;  -13.890;  874.340
964.779;  105.382;  -12.600;  828.420
965.334;  101.605;  -10.950; 1017.860
965.888;   98.152;  -11.170;  875.360
966.443;  100.121;  -12.540;  972.380
966.998;  102.848;  -15.780;  819.460
967.552;  107.222;   -9.760;  908.380
968.107;  106.194;   -9.060;  868.300
968.661;  107.418;  -11.950;  922.440
969.216;  107.613;  -12.800;  856.280
969.770;  107.116;  -11.210;  917.200
970.324;  107.025;  -11.610;  923.140
970.879;  105.064;  -11.370;  947.180
971.433;  105.903;  -12.540;  952.720
971.987;  104.446;  -11.320;  895.340
972.541;  104.618;  -10.720;  917.100
973.095;  105.011;   -9.680; 1009.460
973.649;  104.749;  -11.440;  809.480
974.203;  104.498;  -11.210;  829.040
974.757;  105.724;  -10.240;  855.220
975.311;  106.250;  -13.720;  872.600
975.865;  106.814;  -13.770;  881.820
976.419;  105.350;  -11.690;  857.400
976.973;  104.948;   -9.510;  849.620
977.526;  105.587;  -12.620;  949.920
978.080;  102.495;  -12.010;  796.780
978.634;  101.289;  -10.170;  921.320
979.187;   97.539;   -9.020;  905.400
979.741;   97.428;   -9.820; 1018.380
980.294;   93.077;  -14.870;  789.160
980.848;   90.186;  -12.380;  717.220
981.401;   90.321;  -10.350;  816.540
981.955;   89.998;  -13.720;  844.300
982.508;   86.767;  -11.490;  746.340
983.061;   86.487;  -10.000;  915.260
983.615;   86.079;  -11.480;  798.800
984.168;   85.289;  -13.220;  770.080
984.721;   85.154;  -13.960;  880.760
985.274;   82.812;  -10.870;  867.500
985.827;   81.427;   -9.790;  834.220
986.380;   80.694;  -13.120;  721.340
986.933;   80.933;  -12.450;  864.800
987.486;   80.433;  -10.210;  861.920
988.039;   79.712;   -8.430;  863.100
988.591;   77.844;  -10.520;  893.260
989.144;   73.380;  -14.860;  737.260
989.697;   72.527;  -13.080;  758.740
990.250;   71.709;  -10.150;  858.100
990.802;   69.647;  -13.430;  755.860
991.355;   68.284;  -12.750;  974.880
991.907;   66.034;  -12.040;  864.320
992.460;   63.784;  -11.330;  753.760
993.012;   63.401;  -13.610;  749.540
993.565;   61.651;  -13.460;  711.360
994.117;   63.161;   -9.360;  950.780
994.669;   61.197;  -11.300;  701.320
995.221;   60.578;  -13.540;  791.920
995.774;   59.505;  -13.430;  787.580
996.326;   58.300;  -12.520;  740.220
996.878;   59.495;  -10.950;  838.420
997.430;   56.849;  -14.300;  699.860
997.982;   55.982;  -13.760;  750.140
998.534;   54.736;  -11.530;  739.060
999.086;   52.765;  -10.310;  738.220
999.638;   52.576;  -12.530;  661.380
1000.190;   51.538;  -11.840;  699.320
1000.741;   51.263;  -10.260;  742.700
1001.293;   51.045;   -8.860;  686.020
1001.845;   50.627;  -13.700;  676.640
1002.396;   50.579;  -12.100;  743.400
1002.948;   50.073;  -12.760;  737.400
1003.500;   48.719;  -10.380;  723.780
1004.051;   49.078;  -11.900;  907.580
1004.603;   48.181;  -12.250;  791.820
1005.154;   43.885;  -13.210;  608.980
1005.705;   43.980;  -10.950;  723.960
1006.257;   43.731;  -13.880;  707.220
1006.808;   43.174;  -12.840;  685.460
1007.359;   41.679;  -10.570;  763.240
1007.910;   40.642;   -9.620;  646.640
1008.461;   40.637;  -13.630;  732.940
1009.013;   39.279;  -17.200;  588.340
1009.564;   40.228;  -10.200;  793.520
1010.115;   37.882;  -12.570;  597.040
1010.665;   38.369;  -15.150;  602.160
1011.216;   38.524;  -14.480;  667.920
1011.767;   38.076;  -11.340;  697.920
1012.318;   38.266;   -9.780;  736.980
1012.869;   36.804;  -12.380;  679.000
1013.419;   36.385;  -15.560;  603.120
1013.970;   36.051;  -11.010;  666.640
1014.521;   36.418;  -11.610;  620.620
1015.071;   36.284;  -13.450;  670.380
1015.622;   35.804;  -13.870;  635.460
1016.172;   35.383;  -11.610;  596.820
1016.723;   33.746;  -12.120;  614.380
1017.273;   34.522;  -13.620;  604.160
1017.823;   34.140;  -14.140;  650.340
1018.374;   33.218;  -12.800;  611.760
1018.924;   34.517;  -12.340;  716.880
1019.474;   34.471;  -11.410;  718.880
1020.024;   32.165;  -14.770;  657.580
1020.574;   33.051;   -9.780;  726.160
1021.124;   33.168;   -8.560;  673.580
1021.674;   32.014;  -15.190;  559.120
1022.224;   33.865;  -13.530;  708.940
1022.774;   32.784;  -13.280;  668.820
1023.324;   33.638;  -10.690;  753.520
1023.874;   34.874;  -10.240;  875.760
1024.423;   31.639;  -12.540;  613.700
1024.973;   31.074;  -10.010;  610.760
1025.523;   31.353;  -10.550;  620.960
1026.072;   30.669;  -13.560;  606.420
1026.622;   30.784;  -15.120;  675.740
1027.172;   31.021;  -11.260;  715.660
1027.721;   29.719;  -11.410;  601.220
1028.270;   30.589;  -13.530;  663.400
1028.820;   31.040;  -13.680;  638.080
1029.369;   29.432;  -13.520;  612.700
1029.918;   30.313;  -10.980;  649.840
1030.468;   29.540;  -13.530;  564.780
1031.017;   30.237;  -13.170;  634.800
1031.566;   28.603;  -12.200;  608.900
1032.115;   29.673;   -9.960;  694.500
1032.664;   27.614;  -13.210;  596.480
1033.213;   29.629;  -12.500;  735.420
1033.762;   28.095;  -11.910;  635.620
1034.311;   28.060;   -9.640;  677.220
1034.860;   28.568;  -13.310;  691.000
1035.408;   28.020;  -11.830;  722.720
1035.957;   28.199;  -12.000;  719.540
1036.506;   26.119;  -11.690;  530.800
1037.055;   29.038;  -10.990;  844.320
1037.603;   26.671;  -15.120;  664.000
1038.152;   24.996;  -12.450;  534.760
1038.700;   26.154;  -10.560;  585.740
1039.249;   25.928;  -11.080;  681.220
1039.797;   26.070;  -12.540;  633.360
1040.345;   25.661;  -11.920;  705.420
1040.894;   25.509;  -11.410;  625.300
1041.442;   25.991;  -14.320;  632.200
1041.990;   24.880;  -16.240;  559.160
1042.538;   24.512;  -11.680;  536.180
1043.087;   24.185;  -10.760;  570.860
1043.635;   26.252;  -11.850;  670.500
1044.183;   24.659;  -15.480;  586.400
1044.731;   24.565;  -11.770;  576.000
1045.279;   24.298;  -13.090;  674.920
1045.827;   26.118;  -12.440;  892.400
1046.374;   23.880;  -13.840;  515.420
1046.922;   22.317;  -13.220;  590.580
1047.470;   24.335;  -10.230;  691.300
1048.018;   24.067;  -14.590;  647.960
1048.565;   24.747;  -12.050;  708.600
1049.113;   22.652;  -11.650;  557.000
1049.660;   22.640;  -10.510;  629.660
1050.208;   23.507;  -13.310;  675.640
1050.755;   22.694;  -15.900;  606.580
1051.303;   22.579;  -11.430;  686.820
1051.850;   22.376;   -8.480;  635.120
1052.397;   20.677;  -15.010;  473.960
1052.945;   21.821;  -13.960;  617.760
1053.492;   23.123;  -13.150;  741.840
1054.039;   22.257;   -9.630;  720.180
1054.586;   21.613;  -13.680;  557.240
1055.133;   22.662;  -14.570;  693.140
1055.680;   22.698;  -13.820;  646.620
1056.227;   20.611;  -11.730;  542.780
1056.774;   23.082;  -12.480;  794.980
1057.321;   20.358;  -13.930;  523.260
1057.868;   21.021;  -11.690;  651.320
1058.415;   20.491;   -9.520;  651.980
1058.961;   20.913;  -13.160;  678.940
1059.508;   20.173;  -12.920;  643.820
1060.055;   19.605;  -11.920;  581.780
1060.601;   20.844;  -11.500;  624.300
1061.148;   19.931;  -14.330;  616.820
1061.694;   19.461;  -16.870;  592.580
1062.241;   19.762;  -10.330;  596.320
1062.787;   20.708;  -10.620;  663.140
1063.334;   21.591;  -10.110;  808.560
1063.880;   19.521;  -13.400;  668.360
1064.426;   19.485;  -10.680;  706.820
1064.972;   18.780;   -9.920;  601.340
1065.518;   17.707;  -10.980;  566.640
1066.065;   19.210;  -14.890;  624.460
1066.611;   18.278;  -12.870;  598.800
1067.157;   18.899;  -12.950;  641.860
1067.703;   19.191;  -13.540;  668.480
1068.249;   18.890;  -13.540;  605.220
1068.794;   18.288;  -12.600;  626.880
1069.340;   17.622;  -10.620;  578.960
1069.886;   18.148;  -12.830;  590.700
1070.432;   16.923;  -14.870;  541.720
1070.977;   16.167;  -11.980;  601.080
1071.523;   17.220;   -8.200;  573.060
1072.068;   17.238;  -12.330;  582.000
1072.614;   17.245;  -16.370;  527.760
1073.160;   17.310;  -11.100;  687.040
1073.705;   16.228;  -10.480;  572.520
1074.250;   17.250;  -14.520;  559.900
1074.796;   17.877;  -11.460;  655.160
1075.341;   17.464;  -11.950;  664.100
1075.886;   16.669;  -11.460;  594.240
1076.431;   16.199;  -13.770;  649.880
1076.976;   16.371;  -12.680;  639.220
1077.521;   15.482;  -13.170;  583.080
1078.067;   15.903;  -10.860;  579.400
1078.612;   15.980;  -13.920;  661.620
1079.156;   15.872;  -13.880;  601.540
1079.701;   15.713;  -13.120;  693.260
1080.246;   16.110;   -9.940;  696.300
1080.791;   15.691;  -14.740;  625.020
1081.336;   15.511;  -13.750;  659.320
1081.880;   15.078;  -13.400;  649.680
1082.425;   14.923;  -12.220;  573.480
1082.970;   16.357;  -11.610;  717.040
1083.514;   14.612;  -13.580;  597.000
1084.059;   14.391;  -12.810;  586.720
1084.603;   13.216;  -12.320;  565.840
1085.147;   14.976;  -13.190;  645.220
1085.692;   15.310;  -12.480;  716.800
1086.236;   12.843;  -13.020;  503.140
1086.780;   15.471;   -9.190;  751.440
1087.325;   13.970;  -12.480;  654.620
1087.869;   14.065;  -12.450;  610.700
1088.413;   14.636;  -12.240;  705.040
1088.957;   12.149;   -9.020;  543.400
1089.501;   14.857;  -10.320;  766.640
1090.045;   13.884;  -12.720;  726.480
1090.589;   11.563;  -13.690;  569.920
1091.133;   13.292;  -10.020;  673.340
1091.676;   13.788;  -12.330;  591.940
1092.220;   12.524;  -14.970;  600.920
1092.764;   12.815;  -12.430;  706.960
1093.307;   13.272;   -9.800;  673.780
1093.851;   12.332;  -14.970;  556.540
1094.395;   12.830;  -15.310;  683.140
1094.938;   11.726;  -10.370;  632.520
1095.482;   12.198;  -11.050;  559.800
1096.025;   12.920;  -11.840;  710.880
1096.568;   13.953;  -12.840;  779.280
1097.112;    9.890;  -14.700;  508.180
1097.655;   12.297;   -8.720;  603.000
1098.198;   10.057;  -13.610;  600.180
1098.741;   10.913;  -13.350;  612.860
1099.285;   11.606;  -11.230;  657.300
1099.828;    9.612;  -11.840;  439.400
1100.371;   10.623;  -10.840;  608.160
1100.914;   11.861;  -14.190;  682.660
1101.457;   11.400;  -11.240;  679.900
1101.999;    9.758;  -11.270;  584.680
1102.542;   11.336;  -11.480;  641.440
1103.085;   10.117;  -11.750;  658.500
1103.628;   10.584;  -11.400;  762.060
1104.170;    9.859;  -10.490;  588.280
1104.713;   10.147;  -10.600;  646.700
1105.256;    9.678;  -14.360;  557.440
1105.798;    9.308;  -13.210;  499.980
1106.341;   10.589;  -10.270;  728.900
1106.883;    9.678;  -12.200;  521.340
1107.425;   10.076;  -13.110;  668.180
1107.968;    9.258;  -12.840;  612.380
1108.510;   10.327;   -6.480;  684.960
1109.052;    8.852;  -13.940;  612.620
1109.594;    9.557;  -13.690;  554.440
1110.136;    9.806;  -11.880;  643.220
1110.679;    8.591;   -9.500;  633.080
1111.221;    9.417;  -14.160;  604.460
1111.763;    8.599;  -13.980;  559.220
1112.304;    8.424;  -13.880;  547.140
1112.846;    8.799;  -12.210;  666.240
1113.388;   11.464;  -11.390;  942.180
1113.930;    8.901;  -14.540;  694.200
1114.472;    8.195;  -12.640;  606.540
1115.013;    5.931;  -11.620;  551.280
1115.555;    7.682;  -13.640;  587.100
1116.097;    7.379;  -15.380;  579.480
1116.638;    7.358;  -12.640;  684.600
1117.180;    8.492;   -9.850;  667.740
1117.721;    7.673;  -13.690;  568.580
1118.262;    8.348;  -12.680;  677.960
1118.804;    8.012;  -12.530;  637.340
1119.345;    7.124;  -11.690;  578.400
1119.886;    8.473;  -13.380;  704.040
1120.427;    6.721;  -14.070;  589.020
1120.969;    6.198;  -13.500;  597.920
1121.510;    6.311;  -11.480;  563.060
1122.051;    7.535;  -12.830;  723.580
1122.592;    6.725;  -14.290;  655.420
1123.133;    4.832;  -12.400;  547.940
1123.673;    6.735;  -10.130;  706.480
1124.214;    6.511;  -12.930;  612.460
1124.755;    7.254;  -14.380;  639.460
1125.296;    6.253;  -14.000;  627.320
1125.836;    7.231;  -10.070;  691.500
1126.377;    6.156;  -12.640;  599.660
1126.918;    6.617;  -12.960;  614.980
1127.458;    5.049;  -13.350;  622.220
1127.999;    6.282;  -10.750;  656.980
1128.539;    6.311;  -12.350;  694.240
1129.079;    5.364;  -14.860;  632.720
1129.620;    4.974;  -13.840;  558.100
1130.160;    4.418;  -12.330;  539.480
1130.700;    5.918;  -14.530;  640.840
1131.240;    6.531;  -12.530;  643.700
1131.781;    5.167;  -14.450;  619.680
1132.321;    4.597;   -9.790;  599.120
1132.861;    4.394;  -14.860;  564.200
1133.401;    3.960;  -14.290;  593.940
1133.941;    5.048;  -11.750;  626.280
1134.481;    4.425;   -9.920;  597.580
1135.020;    4.321;  -12.290;  609.160
1135.560;    5.242;  -11.650;  674.940
1136.100;    3.706;  -16.270;  501.160
1136.640;    4.002;  -10.890;  510.480
1137.179;    3.966;  -14.180;  537.960
1137.719;    5.240;  -16.250;  605.400
1138.258;    4.450;  -14.230;  587.360
1138.798;    4.672;   -9.090;  663.780
1139.337;    3.162;  -15.130;  482.840
1139.877;    4.466;  -13.680;  642.360
1140.416;    5.798;  -11.320;  878.060
1140.955;    3.165;  -10.860;  535.380
1141.494;    3.828;  -12.920;  669.280
1142.034;    3.253;  -13.930;  583.520
1142.573;    3.708;  -11.440;  646.280
1143.112;    2.515;  -12.000;  553.480
1143.651;    3.335;  -13.670;  536.480
1144.190;    4.127;  -12.730;  691.640
1144.729;    3.315;  -14.560;  607.420
1145.267;    2.977;  -11.830;  584.900
1145.806;    3.669;  -12.230;  637.040
1146.345;    3.693;  -14.130;  635.020
1146.884;    2.149;  -11.590;  622.500
1147.422;    1.564;  -12.550;  533.060
1147.961;    4.341;  -11.180;  708.460
1148.500;    3.091;  -11.510;  669.720
1149.038;    3.580;  -11.640;  632.500
1149.577;    2.990;  -10.130;  698.640
1150.115;    1.260;  -13.970;  452.280
1150.653;    3.120;  -14.520;  607.340
1151.192;    3.124;  -12.810;  552.920
1151.730;    1.452;   -9.100;  652.560
1152.268;    2.248;  -12.220;  589.520
1152.806;    2.693;  -14.140;  571.180
1153.344;    0.720;  -12.350;  577.640
1153.882;    2.103;   -8.980;  600.060
1154.421;    0.147;  -15.190;  470.620
1154.958;    1.489;  -15.210;  595.240
1155.496;    1.994;  -12.850;  645.280
1156.034;    1.587;   -9.940;  721.880
1156.572;    2.764;  -13.570;  667.060
1157.110;    0.636;  -14.590;  473.940
1157.647;    2.022;  -13.030;  676.960
1158.185;    1.004;  -12.140;  564.320
1158.723;    0.436;  -14.390;  509.200
1159.260;    1.657;  -14.090;  701.700
1159.798;    1.740;  -11.920;  658.160
1160.335;    0.608;  -11.110;  631.820

