
Integration time [ms]:   3.276
Averaging Nr. [scans]: 1000
Smoothing Nr. [pixels]: 0
Data measured with spectrometer [name]: 7414430SP
Wave   ;Sample   ;Dark     ;Reference
[nm]   ;[counts] ;[counts] ;[counts] 

288.544;  149.379;    7.793;  793.890
289.143;  153.421;    7.462;  681.602
289.742;  153.786;    8.602;  828.814
290.341;  138.739;    1.321;  789.841
290.940;  126.772;   -0.709;  730.702
291.538;  127.947;    0.881;  881.108
292.137;  128.789;    0.122;  792.581
292.736;  133.710;   -1.929;  975.101
293.335;  130.270;   -8.229;  735.086
293.934;  130.841;   -5.279;  781.677
294.532;  128.795;   -1.369; 1031.958
295.131;  114.302;   -7.641;  834.394
295.730;  114.475;   -8.420;  809.588
296.328;  114.938;   -5.611;  783.442
296.927;  115.902;   -5.781;  779.652
297.525;  115.238;   -6.361;  781.236
298.124;  106.308;  -11.382;  654.009
298.722;  109.358;   -7.641;  761.933
299.321;  107.369;   -6.811;  708.597
299.919;  106.041;   -6.991;  751.918
300.518;  102.725;  -10.362;  689.338
301.116;  104.487;   -9.581;  691.381
301.715;  104.364;   -4.891;  730.222
302.313;  102.373;   -8.801;  704.943
302.911;   99.253;   -8.522;  733.830
303.509;  103.848;   -6.171;  925.627
304.108;  100.799;   -7.311;  760.383
304.706;  100.814;   -8.321;  801.664
305.304;   95.153;  -10.222;  796.707
305.902;  100.508;   -6.021;  784.484
306.500;   96.403;   -4.971;  728.200
307.098;   95.331;   -7.061;  746.560
307.696;   92.462;   -8.801;  780.432
308.294;   93.493;   -6.411;  731.359
308.892;   95.536;   -2.901;  759.769
309.490;   91.195;   -5.041;  712.161
310.088;   89.854;   -5.002;  788.444
310.686;   94.401;   -2.041;  821.749
311.284;   89.744;   -2.351;  766.040
311.882;   87.040;   -4.422;  731.225
312.480;   85.055;   -4.192;  697.167
313.078;   86.388;   -1.172;  808.331
313.675;   86.819;   -2.601;  691.600
314.273;   81.553;   -1.312;  797.837
314.871;   81.618;   -3.942;  589.829
315.468;   79.384;   -2.802;  652.090
316.066;   81.735;   -0.701;  694.427
316.664;   74.818;   -4.362;  656.351
317.261;   79.040;   -2.872;  910.128
317.859;   74.065;   -2.022;  768.735
318.456;   75.049;   -0.531;  830.096
319.054;   70.676;   -3.912;  787.828
319.651;   70.547;   -4.752;  759.928
320.249;   69.023;   -2.602;  810.188
320.846;   66.046;   -0.821;  714.286
321.443;   64.070;   -4.642;  832.135
322.041;   60.913;   -5.002;  812.315
322.638;   58.509;   -3.982;  701.456
323.235;   59.681;   -3.411;  665.683
323.833;   57.500;   -7.361;  740.354
324.430;   52.219;   -8.611;  615.900
325.027;   53.035;   -4.061;  876.855
325.624;   52.968;   -4.031;  644.532
326.221;   50.160;   -7.481;  689.717
326.818;   49.815;   -5.281;  818.332
327.415;   52.947;   -7.460;  748.828
328.012;   52.617;   -5.510;  690.585
328.609;   50.286;   -7.880;  731.389
329.206;   48.885;   -8.331;  778.621
329.803;   50.224;   -5.121;  737.841
330.400;   51.532;   -4.510;  704.260
330.997;   53.542;   -6.441;  817.147
331.594;   51.943;   -8.831;  788.185
332.191;   57.806;   -7.621;  728.722
332.787;   60.431;   -4.591;  844.463
333.384;   58.534;   -7.412;  763.093
333.981;   57.018;   -8.293;  815.687
334.578;   60.481;   -7.052;  708.378
335.174;   63.399;   -3.102;  731.469
335.771;   62.087;   -5.943;  836.456
336.367;   59.653;   -7.393;  710.631
336.964;   63.129;   -4.063;  793.266
337.561;   60.526;   -3.813;  731.112
338.157;   56.215;   -4.654;  911.916
338.754;   53.514;   -7.934;  796.589
339.350;   52.529;   -4.414;  722.493
339.946;   54.424;   -4.664;  773.135
340.543;   46.468;   -6.375;  846.136
341.139;   41.045;   -9.815;  720.836
341.735;   39.131;   -4.526;  772.593
342.332;   37.347;   -4.895;  691.472
342.928;   37.824;   -4.295;  795.394
343.524;   32.200;   -5.476;  761.684
344.120;   28.246;   -5.856;  738.562
344.716;   31.898;   -2.155;  723.717
345.313;   28.712;   -6.275;  795.342
345.909;   23.828;   -8.815;  627.336
346.505;   25.680;   -5.305;  740.247
347.101;   26.746;   -2.674;  827.864
347.697;   27.172;   -4.344;  785.398
348.293;   21.640;   -9.975;  627.244
348.889;   22.179;   -5.774;  745.914
349.485;   22.375;   -5.004;  688.205
350.081;   22.275;   -4.704;  772.592
350.676;   17.291;   -6.635;  691.606
351.272;   22.324;   -4.504;  809.530
351.868;   21.191;   -3.914;  780.497
352.464;   19.213;   -9.044;  723.932
353.059;   14.942;   -8.314;  646.017
353.655;   17.800;   -7.024;  777.063
354.251;   19.349;   -5.343;  759.845
354.846;   14.146;   -8.604;  740.646
355.442;   11.333;   -6.945;  753.071
356.038;   14.109;   -7.564;  751.708
356.633;   13.056;   -5.814;  728.594
357.229;   11.531;   -7.364;  724.757
357.824;   10.708;   -8.024;  703.600
358.420;    8.997;   -9.384;  679.726
359.015;   10.004;   -5.104;  695.357
359.610;   10.591;   -6.854;  763.920
360.206;    4.856;  -10.185;  603.240
360.801;    7.232;   -7.054;  646.503
361.396;    9.798;   -5.034;  725.975
361.992;    5.115;   -8.284;  668.220
362.587;    3.101;   -8.625;  670.160
363.182;    5.046;   -7.674;  689.631
363.777;    5.389;   -5.164;  738.242
364.372;    5.320;   -8.604;  737.314
364.967;    1.190;   -9.055;  680.744
365.563;    5.387;   -6.114;  815.567
366.158;    2.601;   -5.814;  685.161
366.753;    2.493;   -7.854;  649.263
367.348;    1.138;   -7.804;  746.056
367.942;    1.312;   -7.954;  697.298
368.537;    0.851;   -4.984;  754.245
369.132;    0.360;   -8.564;  703.428
369.727;   -3.309;   -8.855;  638.079
370.322;   -1.427;   -6.245;  580.186
370.917;   -1.971;   -6.425;  710.646
371.511;    0.490;   -6.294;  861.834
372.106;   -2.646;   -7.685;  776.964
372.701;   -6.050;   -7.335;  585.988
373.296;   -0.151;   -4.564;  863.135
373.890;   -5.899;  -10.235;  647.840
374.485;   -7.507;   -7.885;  691.199
375.079;   -4.098;   -7.324;  738.685
375.674;   -2.057;   -3.494;  812.970
376.268;   -6.801;   -8.525;  691.759
376.863;  -12.543;  -10.086;  580.327
377.457;   -6.026;   -7.025;  662.490
378.052;   -7.629;   -3.585;  764.884
378.646;   -9.340;   -7.595;  741.167
379.240;   -9.178;   -8.335;  721.176
379.835;   -8.223;   -5.785;  636.978
380.429;   -9.964;   -4.335;  562.557
381.023;  -11.007;   -6.805;  779.205
381.617;  -12.939;   -9.195;  680.106
382.212;   -9.213;   -6.905;  685.303
382.806;   -7.831;   -3.745;  760.690
383.400;  -13.046;   -7.745;  672.281
383.994;  -13.285;   -9.765;  664.870
384.588;  -10.205;   -6.564;  697.701
385.182;   -8.640;   -5.344;  726.624
385.776;  -10.325;   -8.514;  706.875
386.370;  -13.057;   -9.555;  681.968
386.964;  -12.321;   -8.715;  684.155
387.558;  -10.047;   -6.174;  598.360
388.152;  -13.551;   -8.725;  681.959
388.745;  -11.867;   -7.965;  814.707
389.339;  -10.094;   -5.924;  747.642
389.933;   -9.320;   -5.524;  695.370
390.527;  -10.457;   -7.114;  859.029
391.120;  -16.154;  -10.725;  595.318
391.714;  -13.339;   -8.035;  711.633
392.308;  -11.022;   -3.574;  780.253
392.901;  -14.745;   -7.245;  642.460
393.495;  -16.061;   -9.285;  595.414
394.089;  -13.349;   -5.895;  760.452
394.682;  -14.314;   -4.295;  697.188
395.275;  -14.985;   -9.875;  719.927
395.869;  -16.929;   -8.485;  667.314
396.462;  -14.477;   -7.455;  616.609
397.056;  -10.795;   -5.424;  776.621
397.649;  -15.170;   -6.605;  731.575
398.242;  -13.011;   -8.224;  712.645
398.836;  -12.755;   -7.474;  766.408
399.429;  -13.502;   -7.094;  631.041
400.022;  -17.404;   -9.475;  665.902
400.615;  -14.908;   -7.145;  805.609
401.208;  -13.024;   -7.174;  691.451
401.802;  -14.214;   -5.515;  699.329
402.395;  -16.456;   -9.875;  683.502
402.988;  -17.061;   -8.845;  696.627
403.581;  -13.214;   -8.874;  646.878
404.174;  -11.550;   -5.324;  686.568
404.767;  -14.634;   -9.575;  638.583
405.360;  -16.941;  -10.965;  621.445
405.953;  -11.279;   -8.764;  759.034
406.545;  -10.759;   -7.514;  725.342
407.138;  -14.886;  -10.025;  618.350
407.731;  -13.546;  -10.034;  613.303
408.324;   -8.910;   -9.374;  660.554
408.917;  -11.266;   -6.534;  681.864
409.509;  -13.241;   -8.004;  740.396
410.102;  -14.573;   -9.875;  643.948
410.695;   -8.430;   -8.604;  665.758
411.287;   -9.910;   -6.794;  599.821
411.880;  -11.645;   -9.334;  585.421
412.472;  -13.667;  -10.254;  613.092
413.065;  -10.628;   -6.714;  629.408
413.657;   -8.555;   -7.234;  576.678
414.250;   -8.800;  -10.544;  646.681
414.842;  -10.509;   -9.744;  676.353
415.434;   -8.466;   -6.994;  570.463
416.027;   -5.215;   -5.893;  652.196
416.619;   -6.729;   -7.264;  713.400
417.211;   -6.831;  -10.374;  599.352
417.804;   -3.902;   -7.993;  628.499
418.396;   -7.889;   -7.234;  607.643
418.988;   -5.389;   -9.443;  659.238
419.580;   -8.153;  -10.724;  568.276
420.172;   -6.717;  -10.323;  536.196
420.764;   -2.339;   -8.793;  672.482
421.356;   -3.573;  -11.143;  636.898
421.948;   -4.237;   -8.293;  677.661
422.540;    1.235;   -7.893;  680.027
423.132;    0.166;   -7.082;  600.641
423.724;   -3.445;   -8.653;  561.267
424.316;   -1.249;  -10.213;  621.345
424.908;    2.065;   -9.762;  591.517
425.500;    2.706;   -5.572;  647.978
426.092;    3.157;   -8.422;  648.268
426.683;    2.668;   -9.283;  684.836
427.275;    5.178;   -7.852;  641.471
427.867;    6.549;   -5.272;  668.948
428.458;    6.941;   -7.682;  732.344
429.050;    5.693;  -10.612;  680.749
429.642;    7.696;   -9.882;  743.124
430.233;    7.976;   -6.962;  569.356
430.825;    9.320;   -6.842;  724.809
431.416;    5.921;   -9.672;  698.241
432.008;   10.490;   -6.552;  651.723
432.599;   11.346;   -6.891;  656.073
433.190;    8.337;  -10.912;  637.670
433.782;    6.951;  -11.172;  590.395
434.373;   14.746;   -6.061;  884.765
434.964;   13.124;   -8.251;  602.920
435.556;   11.009;   -9.722;  634.537
436.147;   13.868;   -9.082;  758.490
436.738;   13.900;   -8.041;  701.099
437.329;   19.112;   -7.341;  721.723
437.920;   11.393;   -8.162;  666.688
438.511;   11.987;  -11.802;  564.526
439.103;   18.380;  -10.191;  623.998
439.694;   20.075;   -7.601;  681.583
440.285;   20.884;   -8.541;  764.432
440.876;   19.668;   -9.751;  845.738
441.466;   18.486;   -9.401;  575.162
442.057;   24.102;   -7.760;  665.814
442.648;   22.690;   -9.971;  746.255
443.239;   20.953;  -11.001;  620.477
443.830;   26.227;   -7.990;  704.958
444.421;   27.137;   -7.910;  655.474
445.011;   23.630;   -8.131;  693.619
445.602;   24.068;   -7.111;  743.126
446.193;   25.270;  -10.920;  488.117
446.783;   30.149;   -6.500;  640.397
447.374;   25.412;   -8.671;  692.759
447.964;   25.866;  -10.781;  713.770
448.555;   33.972;   -9.650;  822.742
449.145;   30.878;   -8.660;  662.853
449.736;   32.066;   -8.990;  803.179
450.326;   31.417;   -9.500;  713.626
450.917;   35.786;   -8.680;  675.324
451.507;   35.532;   -7.520;  600.661
452.097;   36.618;   -8.590;  746.267
452.688;   37.546;  -11.340;  742.160
453.278;   36.892;  -10.100;  566.840
453.868;   41.468;   -6.019;  793.550
454.458;   39.367;   -9.440;  651.141
455.048;   39.213;  -10.560;  711.783
455.639;   41.058;  -11.799;  567.096
456.229;   44.933;   -6.899;  710.694
456.819;   46.579;   -7.389;  751.158
457.409;   46.491;  -11.119;  773.993
457.999;   49.710;   -9.289;  737.505
458.589;   49.658;   -6.139;  686.606
459.179;   48.565;   -8.729;  717.658
459.769;   46.981;   -9.789;  627.099
460.358;   52.821;  -10.259;  797.262
460.948;   51.928;   -7.299;  689.503
461.538;   53.663;  -10.289;  660.677
462.128;   52.174;  -11.269;  664.934
462.717;   58.380;   -9.368;  710.326
463.307;   61.436;   -7.908;  705.846
463.897;   56.731;   -9.599;  656.942
464.486;   55.566;   -9.769;  837.128
465.076;   60.987;   -8.048;  733.776
465.666;   64.204;   -9.358;  652.900
466.255;   62.019;   -7.919;  785.651
466.845;   61.015;  -11.689;  666.749
467.434;   63.551;   -7.818;  725.873
468.023;   64.843;   -7.678;  658.357
468.613;   63.040;  -10.939;  713.946
469.202;   67.000;  -10.118;  646.507
469.791;   71.268;   -9.108;  737.811
470.381;   72.720;   -6.058;  742.813
470.970;   72.228;  -10.428;  711.099
471.559;   72.923;  -10.268;  733.291
472.148;   76.023;   -8.448;  675.737
472.738;   78.353;   -6.917;  765.466
473.327;   77.434;  -11.978;  637.529
473.916;   77.285;  -11.888;  737.446
474.505;   81.429;   -9.437;  751.703
475.094;   84.070;   -6.747;  806.570
475.683;   83.461;   -9.367;  797.699
476.272;   85.072;  -12.637;  730.632
476.861;   88.267;  -10.027;  706.754
477.449;   93.573;   -8.716;  728.487
478.038;   87.542;   -9.577;  692.513
478.627;   89.883;   -9.718;  714.852
479.216;   96.349;   -8.947;  769.441
479.805;   98.604;   -6.256;  783.375
480.393;   98.257;   -7.937; 1008.945
480.982;   97.928;   -7.717;  874.501
481.571;  104.576;   -9.266;  858.333
482.159;  105.039;   -7.636;  705.386
482.748;  103.861;   -9.667;  821.385
483.336;  109.420;  -10.376;  858.209
483.925;  109.163;   -7.147;  774.373
484.513;  116.606;   -7.996;  758.962
485.102;  112.813;  -10.027;  810.965
485.690;  121.700;  -10.446; 1011.050
486.278;  123.771;   -8.446;  979.329
486.867;  124.677;   -6.356;  809.662
487.455;  126.517;   -9.136;  898.229
488.043;  128.195;  -10.646;  748.361
488.631;  136.902;   -7.456; 1005.079
489.220;  140.827;   -6.636;  908.626
489.808;  140.925;  -11.036;  741.415
490.396;  149.024;  -10.246;  914.645
490.984;  155.228;   -8.556;  830.161
491.572;  165.712;   -5.886;  940.315
492.160;  172.643;   -9.486;  919.081
492.748;  185.593;  -10.976;  884.341
493.336;  210.346;   -8.776; 1019.693
493.924;  238.047;   -5.465;  958.077
494.512;  269.991;   -9.986; 1066.638
495.100;  313.599;  -10.636; 1103.280
495.687;  372.199;  -10.885; 1206.373
496.275;  434.930;   -8.126; 1150.796
496.863;  501.900;  -10.586; 1281.171
497.451;  606.910;  -11.926; 1386.805
498.038;  760.321;  -10.885; 1556.729
498.626;  892.191;   -6.315; 1741.407
499.214; 1033.688;   -7.326; 2016.609
499.801; 1250.427;  -11.906; 2220.633
500.389; 1524.955;  -10.466; 2312.494
500.976; 1898.219;   -5.236; 2744.849
501.564; 2315.363;   -8.936; 3148.565
502.151; 2709.917;  -13.176; 3515.999
502.738; 3240.423;  -10.646; 3971.274
503.326; 3636.583;   -9.525; 4403.796
503.913; 4098.287;  -10.856; 5161.749
504.500; 4435.700;  -11.586; 5986.420
505.088; 4849.450;  -10.336; 6381.201
505.675; 5389.110;   -6.355; 6925.547
506.262; 5961.891;   -9.046; 7619.060
506.849; 6711.803;  -10.416; 8733.969
507.436; 7175.783;  -10.305; 9790.121
508.023; 7486.685;   -5.496; 9985.472
508.610; 7833.268;   -7.856;10434.618
509.197; 8631.290;  -10.097;11198.435
509.784;10196.090;  -10.886;12391.194
510.371;11386.576;   -9.315;13603.713
510.958;12175.208;   -9.936;14426.586
511.545;12749.320;   -9.326;15243.775
512.132;13109.624;  -10.075;15945.876
512.719;13713.584;   -7.796;16340.369
513.305;15080.464;  -10.606;18011.766
513.892;16002.032;  -11.486;19754.971
514.479;17343.271;   -9.126;20967.805
515.066;18310.412;   -6.026;22299.793
515.652;19050.668;   -8.466;22908.660
516.239;20461.934;  -10.886;23798.875
516.825;20882.271;  -11.496;25567.275
517.412;21564.660;   -5.796;28154.959
517.998;22720.719;  -10.506;28344.111
518.585;23153.844;  -10.076;27134.219
519.171;23186.689;   -8.315;27268.576
519.758;24589.135;   -8.596;28964.129
520.344;25643.869;   -8.466;30664.494
520.930;25881.600;  -11.006;32550.605
521.516;27568.439;  -10.495;35422.895
522.103;30304.338;   -5.526;38280.004
522.689;31360.195;   -8.746;37835.117
523.275;30392.822;  -11.376;37288.613
523.861;30059.121;  -11.156;37281.395
524.447;31791.529;   -8.135;37846.949
525.033;31735.162;   -7.896;38321.949
525.619;32191.490;  -12.476;38579.285
526.205;33553.699;   -9.516;40622.875
526.791;36031.957;   -6.926;42258.836
527.377;36551.578;   -8.346;42966.902
527.963;38455.117;   -8.717;42018.949
528.549;37487.801;  -11.016;42476.828
529.135;34919.266;   -8.536;41854.852
529.721;34506.047;   -9.666;41237.711
530.306;34293.465;  -10.066;41259.445
530.892;34766.043;  -11.356;41506.047
531.478;35659.281;   -6.596;43559.613
532.063;37033.094;   -8.836;47695.563
532.649;37483.863;  -10.047;50808.324
533.235;40012.188;   -9.746;51787.500
533.820;41637.000;   -6.566;52145.035
534.406;41535.852;  -10.817;51133.488
534.991;40861.164;   -9.416;49996.805
535.576;39723.078;   -9.036;48882.852
536.162;40144.246;   -6.156;46942.285
536.747;41069.391;  -11.607;45711.746
537.333;44169.766;  -11.787;48510.180
537.918;45959.344;  -12.437;50439.891
538.503;44418.492;   -7.196;50863.711
539.088;42168.461;  -10.556;50906.922
539.673;44077.840;   -8.767;52621.965
540.259;44303.867;  -10.026;52368.094
540.844;40865.191;   -7.416;50879.109
541.429;40414.859;   -9.467;52077.777
542.014;44550.738;   -9.527;52716.695
542.599;45654.789;   -9.946;52363.281
543.184;42261.254;   -7.927;53187.137
543.769;42849.742;   -9.297;54697.605
544.354;42826.930;  -10.127;53913.914
544.938;42722.480;   -9.267;49680.164
545.523;44819.012;   -6.506;47386.277
546.108;46126.250;   -9.787;49151.949
546.693;47736.738;  -11.587;51384.637
547.278;47582.230;  -10.986;51853.254
547.862;43586.875;   -8.206;51173.750
548.447;39545.813;  -10.067;51691.395
549.031;39127.852;   -9.637;52456.703
549.616;43495.020;   -9.926;52714.516
550.201;43476.719;   -6.347;52414.598
550.785;42724.910;   -7.917;52355.059
551.370;42720.773;  -10.867;54589.453
551.954;44215.211;   -9.047;58267.348
552.538;46110.309;   -7.827;59062.176
553.123;45228.734;  -10.287;58115.285
553.707;43323.879;  -12.178;56556.285
554.291;43249.738;   -8.717;56201.668
554.876;41965.281;   -7.457;55335.762
555.460;42704.734;  -10.387;54155.703
556.044;45565.859;   -9.618;53721.484
556.628;43655.090;  -11.567;53731.016
557.212;43583.535;   -8.097;54312.531
557.796;42306.484;  -11.077;53797.773
558.380;42438.035;  -11.108;56145.984
558.964;42334.504;   -9.057;57277.930
559.548;42175.840;   -6.977;56459.641
560.132;40911.871;  -11.457;54434.543
560.716;40020.676;  -11.378;54800.617
561.300;39623.129;   -9.577;57606.945
561.884;40968.027;   -7.127;58972.445
562.467;41034.980;   -7.118;57327.570
563.051;40406.707;  -13.358;54962.434
563.635;40971.074;  -10.178;52594.473
564.219;42434.184;   -7.837;50610.410
564.802;43046.621;  -11.398;49551.180
565.386;42946.926;  -12.788;48370.953
565.969;42255.867;   -9.077;48178.871
566.553;42323.910;   -6.207;49957.305
567.136;41937.395;   -8.568;50369.594
567.720;38259.512;  -11.868;49492.004
568.303;37048.359;   -8.268;50616.352
568.887;37025.152;   -8.698;50727.148
569.470;37278.051;   -6.808;51698.379
570.053;35459.102;  -13.188;52122.078
570.637;34524.250;  -12.037;52536.438
571.220;34318.820;   -8.577;51186.098
571.803;34588.730;   -8.498;51032.762
572.386;36453.859;  -10.498;49609.887
572.969;39225.664;   -9.388;48285.926
573.552;37820.281;   -8.338;47624.285
574.135;36852.473;   -8.518;45498.641
574.718;33267.090;  -13.628;41970.434
575.301;31548.240;  -10.893;41447.137
575.884;29829.391;   -8.158;40923.836
576.467;31145.313;  -10.328;45267.723
577.050;35234.684;  -13.058;48175.543
577.633;37514.266;   -9.458;47729.328
578.216;36398.934;   -8.928;47579.793
578.799;35528.859;   -9.358;47820.996
579.381;34145.996;  -11.388;48115.551
579.964;32674.473;  -11.718;47333.766
580.547;33423.355;   -8.588;46668.969
581.129;33643.133;   -8.859;44466.141
581.712;33227.043;  -10.729;44164.922
582.294;33801.742;  -11.118;46477.855
582.877;35263.508;   -5.218;48244.254
583.459;34313.598;   -8.679;47437.895
584.042;32828.953;  -10.709;46943.219
584.624;32627.861;  -11.669;46792.227
585.206;31226.283;   -8.218;46557.250
585.789;31983.600;  -10.569;45793.773
586.371;35100.059;  -11.859;43836.391
586.953;35264.328;  -10.719;42972.492
587.536;35337.656;   -7.198;42487.211
588.118;34697.320;   -8.720;42086.414
588.700;32567.316;  -10.439;43389.930
589.282;31863.988;   -9.198;43646.039
589.864;31904.521;   -9.199;43438.109
590.446;32508.953;  -11.319;43151.926
591.028;31308.352;  -11.159;42781.867
591.610;29059.578;  -11.779;42839.098
592.192;25298.174;   -7.668;42820.402
592.774;24296.836;  -11.949;40724.277
593.356;25660.125;  -12.129;39874.789
593.937;28017.893;  -10.669;39980.648
594.519;30858.105;   -6.509;42069.633
595.101;32480.162;  -10.849;42976.031
595.683;32575.240;  -11.679;44084.441
596.264;33876.730;   -9.049;43478.797
596.846;32430.727;   -8.849;43803.672
597.427;31299.865;   -9.570;42986.934
598.009;33228.121;  -12.620;42832.219
598.591;33658.574;  -10.039;42580.086
599.172;33193.703;  -10.369;43061.805
599.753;33416.293;   -9.140;41691.469
600.335;34246.234;  -11.430;40692.520
600.916;32589.053;   -9.939;39982.422
601.498;31497.287;   -8.479;40318.617
602.079;30954.637;  -10.920;40670.609
602.660;30671.822;  -11.480;41450.898
603.241;30321.125;  -11.699;41137.738
603.823;28944.363;   -9.579;38868.797
604.404;29970.035;  -10.620;38182.785
604.985;31015.055;  -10.450;38078.047
605.566;30117.254;   -9.129;38056.633
606.147;30095.277;   -7.510;37020.418
606.728;32779.398;  -10.660;37883.359
607.309;31784.834;  -11.740;38748.273
607.890;30669.275;   -9.759;38850.230
608.471;30381.299;   -8.250;37457.918
609.051;30290.869;   -9.240;36066.457
609.632;29292.145;  -12.120;35991.074
610.213;29886.801;   -9.110;37402.641
610.794;29917.314;   -8.030;38383.363
611.374;28408.309;   -8.110;40562.387
611.955;27926.553;  -13.560;38533.727
612.536;29468.758;  -11.400;36951.789
613.116;30381.662;   -8.070;37197.891
613.697;31317.232;  -10.830;38411.125
614.277;29757.545;  -11.641;38673.938
614.858;30368.664;  -13.310;37075.863
615.438;30705.707;   -7.460;35092.906
616.019;28020.625;   -7.601;33666.301
616.599;28233.879;  -12.020;34189.023
617.179;30205.980;  -11.780;36952.047
617.760;30404.771;   -8.570;39582.574
618.340;31860.723;  -11.471;38943.977
618.920;33519.445;  -11.170;37594.156
619.500;33063.418;  -11.071;37866.938
620.080;32875.676;   -7.750;37869.043
620.660;33710.336;  -12.711;36868.617
621.241;33920.152;  -10.211;36352.309
621.821;32971.172;  -10.961;35459.520
622.401;32699.012;   -7.720;35207.414
622.980;31679.051;   -8.981;35980.422
623.560;30289.080;   -9.331;37351.328
624.140;30378.813;   -9.850;34388.582
624.720;26555.598;   -7.451;32368.764
625.300;22445.393;   -9.070;32638.629
625.880;25036.250;  -12.601;34599.035
626.459;28465.533;  -11.751;36831.738
627.039;31194.209;   -9.281;38299.098
627.619;31289.508;   -8.801;38289.574
628.198;29617.703;  -12.071;37220.695
628.778;29890.854;   -9.461;37632.563
629.357;30999.004;   -8.491;38003.012
629.937;30511.963;   -9.721;38402.039
630.516;29342.256;   -9.951;37868.801
631.096;29340.297;  -11.731;35760.410
631.675;32714.111;   -8.572;35225.219
632.254;37639.246;  -11.282;35130.289
632.834;37008.488;  -13.322;35794.570
633.413;35943.402;  -10.301;35788.922
633.992;33426.746;   -8.582;34532.863
634.571;34449.770;   -8.352;33590.113
635.151;35943.605;  -11.912;34943.863
635.730;33663.402;  -10.511;35352.523
636.309;30735.631;   -7.731;35366.605
636.888;28358.418;   -9.952;36165.637
637.467;28903.586;  -11.672;37515.902
638.046;31212.182;   -8.901;39288.695
638.625;33957.297;   -7.912;38279.699
639.204;33425.582;  -10.022;37741.598
639.782;32036.250;  -12.252;38364.551
640.361;29093.102;  -10.041;36740.621
640.940;26315.615;  -11.161;34950.082
641.519;25673.285;   -9.701;34137.398
642.097;27718.445;  -11.271;35654.258
642.676;30989.221;   -8.651;35637.957
643.255;32621.102;   -8.711;36567.074
643.833;31361.125;   -9.581;37809.434
644.412;31894.535;  -13.711;37337.293
644.990;31831.600;  -11.811;37018.531
645.569;31992.277;   -9.411;36518.469
646.147;30147.389;  -10.291;36186.430
646.726;28702.922;  -12.401;36267.688
647.304;29789.162;  -10.411;36647.625
647.882;31213.086;   -9.651;39286.742
648.461;33157.938;   -9.631;39157.703
649.039;32868.344;  -11.881;35412.883
649.617;32799.617;   -9.661;34744.918
650.195;32668.656;   -9.301;35403.098
650.773;31815.861;  -10.511;35053.797
651.352;29880.984;  -11.521;33756.816
651.930;26971.959;  -12.211;31868.773
652.508;23971.344;   -9.171;33121.551
653.086;27166.998;   -9.371;33564.793
653.663;30912.832;  -13.161;34054.668
654.241;29970.215;  -13.031;35693.309
654.819;30590.574;   -9.371;36422.906
655.397;29636.877;  -10.511;38213.484
655.975;29913.832;  -10.371;39507.625
656.553;30615.016;  -10.051;39498.223
657.130;29742.406;  -10.061;40395.480
657.708;29423.658;   -9.561;39242.020
658.286;29180.785;  -11.511;38920.020
658.863;29550.305;  -10.261;40202.898
659.441;30997.203;   -7.531;39677.938
660.018;30202.553;   -9.501;40413.355
660.596;29896.033;  -13.301;39931.414
661.173;32073.289;  -11.211;39604.531
661.750;32174.904;   -9.951;39700.070
662.328;31102.160;   -9.390;39292.809
662.905;30220.861;  -11.330;38235.648
663.482;25858.023;   -9.050;36212.305
664.060;24012.883;   -8.240;35944.945
664.637;26771.299;  -10.050;35170.785
665.214;28384.590;  -11.760;34197.523
665.791;29999.299;  -10.530;34549.520
666.368;29462.598;   -9.690;35118.578
666.945;30453.570;   -9.320;36019.418
667.522;31248.332;  -11.860;36048.438
668.099;31563.574;  -10.770;36243.914
668.676;31604.842;   -6.260;35958.875
669.253;30166.977;   -7.000;37384.730
669.830;30071.879;  -10.190;36779.629
670.407;29524.854;   -9.550;35231.289
670.984;30618.908;   -9.260;35544.270
671.560;29844.652;   -9.280;35466.867
672.137;28023.328;  -11.810;34280.863
672.714;28944.262;  -11.490;34632.863
673.290;28908.566;   -7.740;35135.422
673.867;29107.748;  -10.660;36114.480
674.443;29686.352;  -12.230;36152.859
675.020;28064.600;  -10.450;35327.238
675.596;29242.459;   -9.260;35795.176
676.173;29986.797;  -10.780;35430.355
676.749;29158.695;  -13.690;33549.516
677.326;29066.889;  -11.980;32210.012
677.902;29241.139;   -8.630;32068.871
678.478;28373.688;  -10.730;32583.891
679.054;29053.660;  -10.520;32088.928
679.631;30920.686;  -11.920;30978.848
680.207;31287.395;   -7.490;33160.887
680.783;32178.902;   -9.860;35570.363
681.359;31100.814;  -13.380;36125.184
681.935;29067.752;  -12.480;35240.922
682.511;27243.379;   -7.900;34429.961
683.087;27278.734;   -7.710;34463.680
683.663;28511.582;  -11.480;34648.898
684.239;29010.393;  -14.090;34546.457
684.815;28929.697;   -7.560;35586.375
685.390;29064.713;   -9.910;35821.895
685.966;29333.635;  -11.159;35085.871
686.542;31672.838;  -11.169;34198.230
687.118;33568.102;   -5.959;32847.707
687.693;33230.414;  -10.329;32794.027
688.269;32002.838;  -12.059;33072.367
688.844;28894.982;  -10.909;33141.664
689.420;27407.504;   -8.019;33965.742
689.995;26235.732;   -8.399;34655.523
690.571;25691.865;  -10.949;33576.742
691.146;26508.332;   -9.619;32657.219
691.722;25539.555;   -8.999;32526.979
692.297;25064.908;  -11.589;33014.617
692.872;26996.123;  -11.739;34012.254
693.448;27249.172;  -11.059;34237.434
694.023;25945.236;  -10.139;34142.672
694.598;27501.266;   -9.029;34132.031
695.173;27220.078;  -13.319;34205.250
695.748;26809.148;  -10.169;32882.488
696.323;26673.682;   -8.339;32864.906
696.898;26336.510;   -8.169;33170.004
697.473;26174.109;  -12.309;32432.984
698.048;26465.896;  -10.989;31649.303
698.623;27361.430;   -9.329;30778.141
699.198;28897.848;   -9.849;31140.119
699.773;29555.945;  -12.329;31764.299
700.348;28723.197;  -10.389;31780.816
700.922;29230.723;   -9.269;32046.375
701.497;29239.934;   -9.329;32603.574
702.072;28941.207;  -10.789;34799.871
702.646;28905.514;  -10.839;35793.172
703.221;28326.850;   -9.099;35201.590
703.795;30370.520;  -10.939;34764.527
704.370;29662.213;  -12.859;34307.367
704.944;29283.652;  -11.559;33509.887
705.519;30746.416;   -7.939;31388.584
706.093;32015.443;  -10.499;31340.104
706.668;31530.563;  -11.289;32630.281
707.242;29911.361;  -11.509;32728.779
707.816;28768.068;   -9.639;32947.238
708.390;27024.281;  -11.429;33277.855
708.965;27731.988;  -11.869;33834.336
709.539;28700.594;  -11.689;33709.273
710.113;29147.418;  -10.478;33044.313
710.687;28119.395;  -10.228;31953.992
711.261;25396.443;  -13.698;30505.949
711.835;25226.797;  -13.378;30262.369
712.409;26696.213;   -9.698;31254.447
712.983;28024.082;  -11.898;32754.986
713.557;29003.486;  -15.138;34018.824
714.131;28864.141;  -14.098;34579.625
714.704;27829.717;   -9.958;33890.262
715.278;25441.855;  -10.028;33531.102
715.852;25820.109;  -11.148;33601.660
716.425;27234.205;   -9.068;33515.117
716.999;27302.881;  -10.038;33185.555
717.573;27760.754;   -9.798;33905.996
718.146;28875.271;  -12.378;35199.293
718.720;28847.422;  -11.918;35060.551
719.293;28786.121;   -8.088;34973.230
719.867;31256.018;  -10.888;36394.449
720.440;31493.699;  -11.938;36663.008
721.013;30716.547;  -12.818;35102.426
721.587;29499.594;  -10.298;33985.266
722.160;27071.182;  -10.048;33524.965
722.733;25868.600;  -12.108;32987.043
723.306;26675.145;  -10.818;33066.301
723.880;28263.473;   -8.908;33399.500
724.453;29916.139;   -9.878;33468.297
725.026;28888.059;  -11.188;33816.637
725.599;26038.344;  -11.678;32797.996
726.172;26742.701;   -9.618;33187.434
726.745;28653.951;   -8.258;35136.613
727.318;30446.395;  -12.978;35751.730
727.891;30809.727;  -12.148;35890.430
728.463;30666.398;   -8.968;34822.090
729.036;29583.170;  -10.188;32895.086
729.609;29626.160;  -11.788;31823.225
730.182;25968.811;  -11.788;31445.283
730.754;23706.820;  -10.268;32373.223
731.327;23817.131;   -9.998;33676.820
731.900;23482.004;  -12.228;33417.000
732.472;25107.900;  -13.848;31978.498
733.045;28037.506;   -8.698;30368.777
733.617;28270.637;  -10.607;30574.215
734.190;27145.246;  -11.507;31280.975
734.762;24033.691;  -13.647;31674.412
735.334;22931.051;   -9.767;31247.291
735.907;23631.609;   -9.897;29876.211
736.479;23444.100;  -11.637;29808.488
737.051;22830.475;   -9.567;30233.547
737.623;24002.133;   -8.187;31469.086
738.195;25213.639;  -11.187;31784.225
738.768;26729.078;  -12.337;32120.523
739.340;26073.057;  -12.227;32094.342
739.912;24403.361;  -11.057;31312.680
740.484;24054.916;  -10.207;31946.238
741.056;23292.279;  -10.047;32984.059
741.628;24662.287;  -13.627;33897.715
742.199;27282.447;   -7.177;33213.016
742.771;26326.449;  -10.797;31369.113
743.343;23871.059;  -11.997;31865.473
743.915;22324.133;  -12.867;32388.631
744.487;22348.828;   -7.617;31079.568
745.058;23205.170;   -9.557;30570.107
745.630;24545.410;   -9.877;29970.127
746.201;25557.184;  -14.177;29186.766
746.773;25274.943;   -9.237;28805.723
747.344;24635.402;   -9.847;29591.223
747.916;23072.600;  -11.657;31412.201
748.487;22459.766;  -10.587;32194.898
749.059;23857.752;   -8.707;32533.719
749.630;25054.070;  -10.537;32158.518
750.201;24562.920;  -11.687;30855.395
750.773;23460.309;  -11.647;28622.555
751.344;23611.850;   -7.147;28405.732
751.915;24571.572;   -9.757;28461.551
752.486;23318.758;  -12.427;27842.850
753.057;20937.641;  -12.227;27845.008
753.628;19999.068;  -10.417;27728.107
754.199;20696.094;  -11.767;27381.086
754.770;21616.494;  -11.187;25882.203
755.341;21691.336;  -10.507;25886.184
755.912;21476.836;   -9.387;26050.861
756.483;20768.807;  -10.647;26798.779
757.054;19130.303;  -11.837;27048.238
757.625;18189.408;  -12.716;26294.838
758.195;18025.445;   -9.666;26142.076
758.766;17769.088;   -8.656;26392.234
759.337;18730.125;  -12.856;26334.594
759.907;20446.344;  -13.366;27579.652
760.478;21524.354;   -8.576;28352.770
761.048;21722.813;  -10.526;27325.088
761.619;21305.236;  -11.116;26460.428
762.189;20488.303;  -12.136;26029.826
762.760;20669.471;   -9.456;26430.145
763.330;21469.090;   -7.136;26670.902
763.900;20566.393;  -11.786;26603.021
764.471;17589.436;  -11.546;25542.740
765.041;16722.951;   -8.096;24358.459
765.611;17812.891;   -8.876;23991.297
766.181;18476.895;  -12.196;24470.236
766.751;19021.814;  -11.636;24845.975
767.321;18661.744;  -10.156;24533.633
767.891;16482.553;  -11.766;24916.492
768.461;15803.848;  -14.936;24776.771
769.031;16124.931;  -12.356;24757.988
769.601;17749.844;   -7.526;24181.088
770.171;17829.820;  -10.766;23670.387
770.741;17315.736;  -13.176;22960.045
771.311;17449.137;  -10.616;22917.523
771.880;17407.203;   -9.576;23562.941
772.450;16936.576;  -10.336;24216.500
773.020;17129.650;  -13.516;24140.398
773.589;16906.119;  -13.466;24414.857
774.159;16620.322;   -8.686;23858.717
774.729;16189.494;   -9.476;22942.135
775.298;15312.011;  -13.666;22324.033
775.867;14774.518;  -11.716;21140.313
776.437;14788.986;   -9.906;20838.092
777.006;14564.057;  -12.166;20599.510
777.576;14645.547;  -12.356;20508.809
778.145;14951.352;  -11.646;20732.947
778.714;14614.982;   -8.226;21062.465
779.283;13380.208;   -9.556;20949.664
779.853;13188.544;  -14.116;20508.623
780.422;13672.866;  -11.506;20649.082
780.991;13111.657;   -9.556;21527.520
781.560;12356.183;   -9.095;22632.658
782.129;12318.443;  -12.135;23048.277
782.698;12034.369;  -10.865;23438.555
783.267;11605.926;   -9.335;23267.734
783.836;11603.677;  -11.045;22415.133
784.404;12199.457;  -13.865;20443.152
784.973;11941.803;  -13.095;19699.150
785.542;11619.663;  -11.575;19763.828
786.111;11745.585;   -9.705;20341.408
786.679;11625.819;  -12.105;20207.967
787.248;11535.833;  -12.455;19516.465
787.817;11085.890;  -11.535;18900.363
788.385;10425.110;   -9.765;17879.121
788.954; 9619.164;  -14.005;17658.301
789.522; 9427.883;  -11.955;17788.879
790.090;10141.559;  -10.135;18118.277
790.659;10462.257;  -10.975;18338.736
791.227; 9907.770;  -13.375;18508.615
791.795;10260.873;  -12.375;17898.254
792.364;10539.449;  -10.725;17295.133
792.932;10636.866;   -9.715;16822.051
793.500;10673.039;  -12.675;17040.148
794.068;10883.883;  -13.495;17179.787
794.636;11028.055;  -10.885;16664.246
795.204;10671.102;  -11.045;16524.545
795.772;10477.841;  -13.175;17274.564
796.340; 9992.210;  -12.445;17891.002
796.908; 9832.002;   -9.735;17648.561
797.476; 9742.317;   -9.815;17064.080
798.044; 9230.066;  -13.985;16672.777
798.612; 8518.633;  -13.115;17023.996
799.180; 8290.228;  -10.185;16561.615
799.747; 8312.023;   -9.055;15962.773
800.315; 8157.674;  -12.385;15296.992
800.883; 7825.544;  -15.035;14801.771
801.450; 7695.524;  -10.365;14534.430
802.018; 7693.742;   -9.855;14173.248
802.585; 7781.134;  -11.905;14029.547
803.153; 7918.658;  -11.585;13836.846
803.720; 7881.031;   -9.095;13567.324
804.287; 7533.653;   -9.135;13360.622
804.855; 7194.992;  -11.604;13681.981
805.422; 7048.638;  -11.794;13536.560
805.989; 6884.203;  -10.734;13355.958
806.556; 7053.340;  -10.444;13747.896
807.124; 7528.749;  -12.764;13987.376
807.691; 7635.968;  -12.964;14038.674
808.258; 7496.972;  -11.134;14120.152
808.825; 7209.341;   -9.854;13860.111
809.392; 7197.265;  -10.504;13268.790
809.959; 6807.740;  -13.054;12680.389
810.526; 6504.028;   -8.294;12427.308
811.093; 6567.126;   -8.394;12030.105
811.659; 7122.699;  -12.304;11653.664
812.226; 7533.951;  -13.944;11637.183
812.793; 7253.207;  -10.484;11611.521
813.360; 6714.982;  -10.144;11885.181
813.926; 6295.067;  -11.684;12770.539
814.493; 6093.155;  -13.644;12677.638
815.060; 5732.347;   -9.724;11974.336
815.626; 5766.822;   -9.854;11594.715
816.193; 6247.243;  -13.254;11579.474
816.759; 6416.108;  -13.204;11666.972
817.325; 6689.581;   -9.434;11325.530
817.892; 7070.119;  -10.134;11105.369
818.458; 7492.498;  -13.474;10843.928
819.024; 7210.205;  -11.854;10714.406
819.591; 6906.967;  -10.244;10469.165
820.157; 6692.899;  -10.704;10235.523
820.723; 6363.796;  -12.324;10847.563
821.289; 6198.977;   -9.444;11040.980
821.855; 6169.244;   -8.374;10357.100
822.421; 6270.191;  -10.234; 9978.918
822.987; 6150.517;  -13.294; 9754.177
823.553; 5797.924;  -10.884;10065.755
824.119; 5723.570;   -8.884;10036.294
824.685; 5890.042;   -6.784;10029.192
825.251; 5929.216;  -12.004;10199.230
825.816; 5841.357;  -11.474; 9820.189
826.382; 5716.491;   -9.174; 9297.248
826.948; 6009.605;   -9.214; 9381.347
827.513; 6420.598;  -10.774; 9450.726
828.079; 6227.667;  -11.924; 9472.444
828.645; 5698.484;  -10.543; 9292.643
829.210; 5667.500;  -10.533; 9065.341
829.776; 5627.548;  -10.753; 9132.620
830.341; 5514.902;  -10.173; 9092.878
830.906; 5697.810;  -10.743; 9078.557
831.472; 6083.925;  -11.113; 8534.535
832.037; 5913.816;  -10.603; 8677.874
832.602; 5351.287;  -13.323; 8628.692
833.167; 4893.080;  -10.823; 8879.031
833.733; 4756.680;  -10.113; 9189.790
834.298; 4824.292;  -13.583; 9052.608
834.863; 4739.026;  -12.703; 8895.087
835.428; 4762.094;  -10.523; 8824.266
835.993; 4924.396;   -6.963; 8845.385
836.558; 4890.876;  -10.763; 8888.563
837.123; 4923.996;   -9.903; 8966.582
837.688; 4972.684;   -9.913; 8617.860
838.253; 5063.074;  -10.283; 8590.699
838.817; 5212.758;  -12.963; 8443.797
839.382; 5179.409;  -14.243; 8799.356
839.947; 4918.746;  -10.733; 8810.595
840.511; 4619.721;   -9.383; 8796.394
841.076; 4231.123;  -12.563; 8347.231
841.641; 4221.731;  -12.953; 8224.330
842.205; 4248.268;   -7.043; 8223.349
842.770; 4413.404;   -8.163; 8622.107
843.334; 4774.060;  -12.503; 8410.386
843.898; 4769.557;  -11.693; 8337.465
844.463; 4697.161;  -10.203; 8506.283
845.027; 4369.810;   -9.533; 8280.962
845.591; 4159.985;  -13.443; 8231.141
846.156; 4159.307;  -13.143; 7969.179
846.720; 4028.739;   -9.433; 7768.278
847.284; 3909.720;  -11.033; 7630.957
847.848; 3686.021;  -10.403; 7472.395
848.412; 3494.378;  -11.553; 7437.394
848.976; 3503.902;   -8.393; 7674.592
849.540; 3452.727;   -8.713; 7836.011
850.104; 3515.073;  -12.463; 7913.669
850.668; 3771.172;  -12.973; 7694.508
851.232; 3827.822;  -10.793; 7756.887
851.796; 3667.382;  -10.662; 7926.545
852.359; 3376.184;  -13.082; 7827.844
852.923; 3254.075;  -12.192; 7641.163
853.487; 3116.625;  -11.912; 7342.501
854.050; 3048.917;  -10.892; 7042.820
854.614; 3177.381;  -13.992; 7151.338
855.177; 3304.880;  -11.732; 7105.077
855.741; 3333.081;   -8.962; 6989.675
856.304; 3187.438;   -9.442; 6596.634
856.868; 3151.926;  -14.192; 6356.272
857.431; 3296.724;  -12.702; 6468.571
857.995; 3389.655;   -9.942; 6373.210
858.558; 3421.767;   -9.112; 6324.448
859.121; 3174.787;  -12.932; 6408.327
859.684; 3052.109;  -13.442; 6347.886
860.247; 3138.696;  -10.632; 6321.264
860.810; 3064.306;  -11.272; 6301.903
861.374; 2755.857;   -9.832; 6607.881
861.937; 2484.430;  -11.762; 6408.200
862.500; 2436.341;   -9.722; 6572.639
863.062; 2549.293;  -10.512; 6387.297
863.625; 2664.612;  -11.232; 6190.836
864.188; 2797.165;  -14.112; 5807.254
864.751; 2896.091;  -11.302; 5682.413
865.314; 2819.954;  -10.112; 5547.492
865.876; 2692.158;  -12.182; 5500.150
866.439; 2723.658;  -10.722; 5415.909
867.002; 2631.080;   -9.252; 5501.567
867.564; 2395.435;   -9.572; 5413.946
868.127; 2194.279;  -13.142; 5160.325
868.689; 2174.544;  -12.902; 5133.183
869.252; 2160.800;   -9.732; 5252.382
869.814; 2076.149;   -9.432; 5297.141
870.377; 2073.800;  -11.552; 5390.919
870.939; 2157.208;   -9.052; 5599.898
871.501; 2212.487;  -10.982; 5248.336
872.063; 2225.180;  -12.292; 4854.235
872.626; 2208.185;  -14.912; 4817.074
873.188; 2185.677;  -13.112; 4987.732
873.750; 2108.025;  -13.442; 4868.651
874.312; 2018.066;   -9.402; 4779.330
874.874; 1961.347;  -11.062; 4866.348
875.436; 1923.657;  -13.931; 4718.887
875.998; 1922.413;   -9.561; 4660.005
876.560; 1908.314;  -11.321; 4462.964
877.122; 1850.242;  -12.221; 4145.042
877.683; 1767.039;  -12.191; 4056.481
878.245; 1704.651;  -12.101; 3950.740
878.807; 1727.961;   -8.971; 4058.958
879.369; 1713.601;  -12.071; 3954.677
879.930; 1615.101;  -14.621; 3941.495
880.492; 1581.109;  -10.311; 4067.014
881.053; 1550.939;  -10.901; 3859.633
881.615; 1440.057;  -14.411; 3776.071
882.176; 1379.736;  -13.761; 3734.750
882.738; 1385.667;   -9.181; 3678.489
883.299; 1400.058;  -11.791; 3405.407
883.860; 1420.334;  -13.121; 3351.106
884.422; 1417.027;  -11.211; 3394.044
884.983; 1358.313;  -10.091; 3166.443
885.544; 1244.123;   -8.461; 3189.802
886.105; 1165.532;  -12.361; 3160.360
886.666; 1122.896;  -14.141; 3093.059
887.227; 1072.025;  -11.361; 2941.957
887.788;  988.383;  -11.401; 2974.836
888.349;  913.842;  -13.791; 2721.214
888.910;  926.725;  -13.191; 2696.493
889.471;  941.807;   -9.881; 2560.172
890.032;  909.115;   -9.881; 2558.190
890.593;  871.254;  -10.371; 2567.669
891.153;  844.437;  -13.301; 2460.307
891.714;  798.716;  -11.431; 2372.046
892.275;  758.639;  -11.291; 2309.505
892.835;  717.437;  -11.471; 2382.543
893.396;  659.174;  -11.541; 2295.502
893.956;  603.859;  -11.181; 2162.420
894.517;  564.614;  -11.741; 2125.439
895.077;  558.438;  -11.671; 2086.978
895.638;  562.660;  -11.311; 2126.316
896.198;  534.422;   -9.831; 1838.275
896.758;  484.936;   -8.421; 1892.813
897.319;  450.690;  -12.351; 1792.232
897.879;  438.812;  -13.511; 1762.751
898.439;  411.795;  -12.001; 1661.149
898.999;  379.369;  -10.180; 1781.468
899.559;  367.909;  -12.030; 1703.347
900.119;  362.413;  -15.710; 1537.525
900.679;  359.434;   -8.900; 1638.384
901.239;  345.425;   -8.340; 1527.902
901.799;  335.104;  -13.910; 1456.441
902.359;  326.209;  -13.460; 1357.140
902.919;  314.830;  -11.490; 1331.118
903.479;  297.542;  -12.110; 1317.257
904.038;  273.399;  -11.720; 1262.595
904.598;  257.056;  -13.610; 1152.034
905.158;  251.475;  -11.040; 1240.893
905.717;  241.344;  -10.900; 1233.691
906.277;  229.812;  -15.080; 1217.330
906.836;  220.816;  -13.380; 1222.408
907.396;  211.869;  -10.780; 1193.047
907.955;  204.559;   -8.500; 1182.526
908.515;  198.993;  -12.760; 1099.364
909.074;  192.345;  -11.900; 1092.863
909.633;  185.634;   -8.950; 1069.121
910.192;  182.157;   -8.770; 1196.460
910.752;  177.057;  -12.390; 1029.960
911.311;  171.632;  -13.680; 1009.780
911.870;  169.115;  -12.370;  971.460
912.429;  169.769;  -10.900; 1094.080
912.988;  167.161;  -11.690; 1081.060
913.547;  162.207;  -13.240;  940.380
914.106;  156.581;  -11.990;  999.420
914.665;  153.516;   -9.990;  984.020
915.224;  152.081;  -12.880; 1035.760
915.782;  152.230;  -12.350;  922.560
916.341;  151.542;   -9.110; 1049.840
916.900;  147.468;   -9.270;  925.260
917.458;  145.700;  -13.240;  884.220
918.017;  145.755;  -13.550;  942.600
918.576;  145.067;  -12.320;  904.440
919.134;  142.843;  -11.490;  837.980
919.693;  140.332;  -13.670;  893.060
920.251;  138.271;  -15.470;  876.500
920.809;  136.504;  -11.290;  839.580
921.368;  137.258;  -10.210;  885.360
921.926;  135.928;  -12.140;  842.940
922.484;  135.038;  -13.080;  903.360
923.042;  134.316;  -11.720;  880.340
923.601;  137.247;   -7.480;  998.680
924.159;  135.547;  -11.570;  935.560
924.717;  131.793;  -13.840;  841.080
925.275;  132.424;  -10.640;  903.240
925.833;  131.645;  -11.540;  779.320
926.391;  132.339;  -12.960;  938.380
926.949;  129.650;  -14.130;  857.680
927.506;  130.959;  -11.750;  903.500
928.064;  131.288;  -10.250;  877.580
928.622;  130.537;  -13.030;  880.100
929.180;  130.978;  -13.400;  814.180
929.737;  132.507;  -10.700;  808.540
930.295;  135.628;  -10.070;  928.480
930.853;  137.710;  -11.960;  849.100
931.410;  138.744;  -13.120;  821.120
931.968;  137.418;  -10.770;  940.660
932.525;  136.861;  -10.680;  909.380
933.082;  137.380;  -13.130;  811.440
933.640;  137.865;  -13.210;  925.900
934.197;  136.018;  -11.060;  886.360
934.754;  137.825;   -9.580;  897.780
935.312;  141.049;  -14.000;  863.340
935.869;  145.118;  -10.710; 1012.980
936.426;  145.200;   -9.860;  872.800
936.983;  145.304;   -9.710;  889.020
937.540;  143.614;  -13.990;  838.280
938.097;  143.925;  -14.040;  940.120
938.654;  144.431;  -10.310;  898.860
939.211;  147.025;  -10.560;  952.480
939.768;  151.493;  -13.900;  915.420
940.324;  154.606;  -14.760;  904.200
940.881;  154.992;  -10.370;  878.500
941.438;  156.448;   -8.260; 1021.200
941.995;  152.896;  -12.540;  992.560
942.551;  149.868;  -14.670;  875.620
943.108;  148.787;  -10.450;  937.920
943.664;  151.100;  -10.750;  869.340
944.221;  155.659;  -11.550; 1088.140
944.777;  154.078;  -14.770;  869.680
945.334;  156.931;  -12.820;  884.840
945.890;  160.454;  -10.130;  946.480
946.446;  159.500;  -13.470;  947.020
947.003;  161.186;  -12.120;  964.940
947.559;  161.801;   -9.980; 1063.040
948.115;  160.213;   -9.080; 1026.540
948.671;  158.032;  -10.830;  967.300
949.227;  154.548;  -12.440;  859.560
949.783;  151.507;  -12.910;  858.900
950.339;  154.742;  -10.270;  991.000
950.895;  154.958;  -13.630; 1023.840
951.451;  154.368;  -15.100;  925.280
952.007;  156.913;  -11.330;  998.540
952.563;  159.408;  -10.580;  937.780
953.118;  157.042;  -13.440;  904.940
953.674;  156.882;  -12.710;  935.780
954.230;  157.661;  -10.350;  949.640
954.785;  155.463;   -9.190;  936.640
955.341;  154.038;  -11.200;  998.160
955.897;  152.101;  -16.560;  834.660
956.452;  151.308;  -12.570;  953.840
957.008;  150.188;   -7.970; 1083.640
957.563;  148.110;  -11.940; 1009.540
958.118;  143.200;  -13.450;  877.700
958.674;  145.345;  -12.030;  946.780
959.229;  146.666;   -9.410; 1013.980
959.784;  144.136;  -12.000;  832.400
960.339;  141.806;  -14.780; 1001.280
960.894;  137.189;   -9.860;  963.760
961.449;  133.310;   -9.970;  859.960
962.004;  135.959;  -10.900; 1212.840
962.559;  131.175;  -13.150;  860.140
963.114;  128.147;  -13.740;  742.480
963.669;  126.676;   -9.820;  915.500
964.224;  123.778;  -13.890;  874.340
964.779;  122.545;  -12.600;  828.420
965.334;  125.095;  -10.950; 1017.860
965.888;  126.860;  -11.170;  875.360
966.443;  128.802;  -12.540;  972.380
966.998;  122.016;  -15.780;  819.460
967.552;  113.333;   -9.760;  908.380
968.107;   99.637;   -9.060;  868.300
968.661;   92.734;  -11.950;  922.440
969.216;   88.869;  -12.800;  856.280
969.770;   89.826;  -11.210;  917.200
970.324;   94.035;  -11.610;  923.140
970.879;   95.990;  -11.370;  947.180
971.433;   96.587;  -12.540;  952.720
971.987;   93.181;  -11.320;  895.340
972.541;   91.192;  -10.720;  917.100
973.095;   92.898;   -9.680; 1009.460
973.649;   92.629;  -11.440;  809.480
974.203;   93.124;  -11.210;  829.040
974.757;   93.775;  -10.240;  855.220
975.311;   94.950;  -13.720;  872.600
975.865;   94.628;  -13.770;  881.820
976.419;   93.086;  -11.690;  857.400
976.973;   94.073;   -9.510;  849.620
977.526;   94.720;  -12.620;  949.920
978.080;   94.395;  -12.010;  796.780
978.634;   96.782;  -10.170;  921.320
979.187;   94.494;   -9.020;  905.400
979.741;   92.724;   -9.820; 1018.380
980.294;   88.294;  -14.870;  789.160
980.848;   86.761;  -12.380;  717.220
981.401;   87.717;  -10.350;  816.540
981.955;   89.798;  -13.720;  844.300
982.508;   89.578;  -11.490;  746.340
983.061;   90.230;  -10.000;  915.260
983.615;   87.176;  -11.480;  798.800
984.168;   85.095;  -13.220;  770.080
984.721;   84.149;  -13.960;  880.760
985.274;   82.534;  -10.870;  867.500
985.827;   82.529;   -9.790;  834.220
986.380;   79.933;  -13.120;  721.340
986.933;   79.350;  -12.450;  864.800
987.486;   77.906;  -10.210;  861.920
988.039;   76.619;   -8.430;  863.100
988.591;   74.306;  -10.520;  893.260
989.144;   72.122;  -14.860;  737.260
989.697;   70.771;  -13.080;  758.740
990.250;   72.830;  -10.150;  858.100
990.802;   71.814;  -13.430;  755.860
991.355;   73.041;  -12.750;  974.880
991.907;   70.506;  -12.040;  864.320
992.460;   67.971;  -11.330;  753.760
993.012;   66.900;  -13.610;  749.540
993.565;   65.614;  -13.460;  711.360
994.117;   68.051;   -9.360;  950.780
994.669;   64.754;  -11.300;  701.320
995.221;   62.770;  -13.540;  791.920
995.774;   60.771;  -13.430;  787.580
996.326;   58.408;  -12.520;  740.220
996.878;   58.396;  -10.950;  838.420
997.430;   56.391;  -14.300;  699.860
997.982;   55.345;  -13.760;  750.140
998.534;   55.137;  -11.530;  739.060
999.086;   53.933;  -10.310;  738.220
999.638;   53.098;  -12.530;  661.380
1000.190;   52.505;  -11.840;  699.320
1000.741;   51.973;  -10.260;  742.700
1001.293;   51.631;   -8.860;  686.020
1001.845;   50.249;  -13.700;  676.640
1002.396;   50.137;  -12.100;  743.400
1002.948;   48.609;  -12.760;  737.400
1003.500;   47.179;  -10.380;  723.780
1004.051;   47.621;  -11.900;  907.580
1004.603;   45.538;  -12.250;  791.820
1005.154;   41.484;  -13.210;  608.980
1005.705;   40.889;  -10.950;  723.960
1006.257;   40.415;  -13.880;  707.220
1006.808;   40.545;  -12.840;  685.460
1007.359;   39.819;  -10.570;  763.240
1007.910;   38.979;   -9.620;  646.640
1008.461;   38.403;  -13.630;  732.940
1009.013;   37.995;  -17.200;  588.340
1009.564;   38.045;  -10.200;  793.520
1010.115;   36.688;  -12.570;  597.040
1010.665;   36.022;  -15.150;  602.160
1011.216;   36.929;  -14.480;  667.920
1011.767;   36.466;  -11.340;  697.920
1012.318;   36.319;   -9.780;  736.980
1012.869;   35.231;  -12.380;  679.000
1013.419;   34.478;  -15.560;  603.120
1013.970;   34.237;  -11.010;  666.640
1014.521;   34.129;  -11.610;  620.620
1015.071;   34.513;  -13.450;  670.380
1015.622;   33.965;  -13.870;  635.460
1016.172;   33.421;  -11.610;  596.820
1016.723;   33.010;  -12.120;  614.380
1017.273;   32.664;  -13.620;  604.160
1017.823;   33.305;  -14.140;  650.340
1018.374;   32.120;  -12.800;  611.760
1018.924;   31.618;  -12.340;  716.880
1019.474;   33.119;  -11.410;  718.880
1020.024;   31.119;  -14.770;  657.580
1020.574;   32.043;   -9.780;  726.160
1021.124;   32.753;   -8.560;  673.580
1021.674;   30.949;  -15.190;  559.120
1022.224;   32.402;  -13.530;  708.940
1022.774;   30.894;  -13.280;  668.820
1023.324;   31.545;  -10.690;  753.520
1023.874;   32.969;  -10.240;  875.760
1024.423;   30.362;  -12.540;  613.700
1024.973;   29.771;  -10.010;  610.760
1025.523;   30.059;  -10.550;  620.960
1026.072;   29.001;  -13.560;  606.420
1026.622;   28.707;  -15.120;  675.740
1027.172;   29.740;  -11.260;  715.660
1027.721;   28.623;  -11.410;  601.220
1028.270;   29.223;  -13.530;  663.400
1028.820;   28.472;  -13.680;  638.080
1029.369;   28.070;  -13.520;  612.700
1029.918;   27.979;  -10.980;  649.840
1030.468;   27.947;  -13.530;  564.780
1031.017;   27.795;  -13.170;  634.800
1031.566;   27.307;  -12.200;  608.900
1032.115;   27.698;   -9.960;  694.500
1032.664;   26.810;  -13.210;  596.480
1033.213;   27.343;  -12.500;  735.420
1033.762;   27.107;  -11.910;  635.620
1034.311;   26.710;   -9.640;  677.220
1034.860;   26.442;  -13.310;  691.000
1035.408;   26.997;  -11.830;  722.720
1035.957;   26.576;  -12.000;  719.540
1036.506;   24.419;  -11.690;  530.800
1037.055;   27.513;  -10.990;  844.320
1037.603;   26.295;  -15.120;  664.000
1038.152;   24.274;  -12.450;  534.760
1038.700;   24.217;  -10.560;  585.740
1039.249;   24.596;  -11.080;  681.220
1039.797;   25.243;  -12.540;  633.360
1040.345;   25.487;  -11.920;  705.420
1040.894;   24.603;  -11.410;  625.300
1041.442;   23.918;  -14.320;  632.200
1041.990;   23.387;  -16.240;  559.160
1042.538;   22.560;  -11.680;  536.180
1043.087;   23.092;  -10.760;  570.860
1043.635;   24.885;  -11.850;  670.500
1044.183;   23.252;  -15.480;  586.400
1044.731;   23.184;  -11.770;  576.000
1045.279;   22.743;  -13.090;  674.920
1045.827;   24.526;  -12.440;  892.400
1046.374;   22.007;  -13.840;  515.420
1046.922;   21.056;  -13.220;  590.580
1047.470;   23.077;  -10.230;  691.300
1048.018;   22.527;  -14.590;  647.960
1048.565;   23.938;  -12.050;  708.600
1049.113;   21.209;  -11.650;  557.000
1049.660;   21.228;  -10.510;  629.660
1050.208;   21.580;  -13.310;  675.640
1050.755;   21.049;  -15.900;  606.580
1051.303;   22.152;  -11.430;  686.820
1051.850;   20.720;   -8.480;  635.120
1052.397;   19.055;  -15.010;  473.960
1052.945;   20.438;  -13.960;  617.760
1053.492;   22.296;  -13.150;  741.840
1054.039;   21.309;   -9.630;  720.180
1054.586;   20.176;  -13.680;  557.240
1055.133;   20.555;  -14.570;  693.140
1055.680;   20.657;  -13.820;  646.620
1056.227;   19.633;  -11.730;  542.780
1056.774;   20.961;  -12.480;  794.980
1057.321;   19.547;  -13.930;  523.260
1057.868;   19.465;  -11.690;  651.320
1058.415;   20.006;   -9.520;  651.980
1058.961;   19.568;  -13.160;  678.940
1059.508;   19.672;  -12.920;  643.820
1060.055;   18.555;  -11.920;  581.780
1060.601;   18.957;  -11.500;  624.300
1061.148;   19.199;  -14.330;  616.820
1061.694;   17.916;  -16.870;  592.580
1062.241;   18.345;  -10.330;  596.320
1062.787;   18.291;  -10.620;  663.140
1063.334;   20.305;  -10.110;  808.560
1063.880;   18.833;  -13.400;  668.360
1064.426;   18.263;  -10.680;  706.820
1064.972;   16.645;   -9.920;  601.340
1065.518;   16.655;  -10.980;  566.640
1066.065;   18.023;  -14.890;  624.460
1066.611;   17.023;  -12.870;  598.800
1067.157;   17.532;  -12.950;  641.860
1067.703;   17.325;  -13.540;  668.480
1068.249;   17.606;  -13.540;  605.220
1068.794;   17.407;  -12.600;  626.880
1069.340;   16.117;  -10.620;  578.960
1069.886;   16.987;  -12.830;  590.700
1070.432;   15.782;  -14.870;  541.720
1070.977;   15.980;  -11.980;  601.080
1071.523;   15.484;   -8.200;  573.060
1072.068;   15.468;  -12.330;  582.000
1072.614;   15.904;  -16.370;  527.760
1073.160;   17.022;  -11.100;  687.040
1073.705;   15.254;  -10.480;  572.520
1074.250;   15.265;  -14.520;  559.900
1074.796;   15.991;  -11.460;  655.160
1075.341;   15.944;  -11.950;  664.100
1075.886;   15.361;  -11.460;  594.240
1076.431;   15.019;  -13.770;  649.880
1076.976;   15.137;  -12.680;  639.220
1077.521;   13.905;  -13.170;  583.080
1078.067;   14.097;  -10.860;  579.400
1078.612;   15.091;  -13.920;  661.620
1079.156;   13.618;  -13.880;  601.540
1079.701;   15.053;  -13.120;  693.260
1080.246;   15.052;   -9.940;  696.300
1080.791;   15.062;  -14.740;  625.020
1081.336;   14.515;  -13.750;  659.320
1081.880;   13.852;  -13.400;  649.680
1082.425;   13.330;  -12.220;  573.480
1082.970;   15.298;  -11.610;  717.040
1083.514;   13.324;  -13.580;  597.000
1084.059;   12.847;  -12.810;  586.720
1084.603;   13.229;  -12.320;  565.840
1085.147;   12.969;  -13.190;  645.220
1085.692;   13.751;  -12.480;  716.800
1086.236;   11.664;  -13.020;  503.140
1086.780;   13.528;   -9.190;  751.440
1087.325;   13.391;  -12.480;  654.620
1087.869;   12.695;  -12.450;  610.700
1088.413;   13.023;  -12.240;  705.040
1088.957;   11.498;   -9.020;  543.400
1089.501;   13.441;  -10.320;  766.640
1090.045;   12.643;  -12.720;  726.480
1090.589;   10.667;  -13.690;  569.920
1091.133;   12.316;  -10.020;  673.340
1091.676;   12.117;  -12.330;  591.940
1092.220;   11.946;  -14.970;  600.920
1092.764;   12.055;  -12.430;  706.960
1093.307;   12.167;   -9.800;  673.780
1093.851;   10.857;  -14.970;  556.540
1094.395;   12.271;  -15.310;  683.140
1094.938;   11.046;  -10.370;  632.520
1095.482;   10.561;  -11.050;  559.800
1096.025;   11.340;  -11.840;  710.880
1096.568;   11.888;  -12.840;  779.280
1097.112;    9.492;  -14.700;  508.180
1097.655;   10.745;   -8.720;  603.000
1098.198;    9.602;  -13.610;  600.180
1098.741;    9.404;  -13.350;  612.860
1099.285;   11.017;  -11.230;  657.300
1099.828;    8.410;  -11.840;  439.400
1100.371;    9.882;  -10.840;  608.160
1100.914;    9.918;  -14.190;  682.660
1101.457;   10.021;  -11.240;  679.900
1101.999;    8.665;  -11.270;  584.680
1102.542;    9.326;  -11.480;  641.440
1103.085;    9.598;  -11.750;  658.500
1103.628;    9.669;  -11.400;  762.060
1104.170;    8.880;  -10.490;  588.280
1104.713;    9.838;  -10.600;  646.700
1105.256;    8.823;  -14.360;  557.440
1105.798;    8.434;  -13.210;  499.980
1106.341;   10.179;  -10.270;  728.900
1106.883;    8.524;  -12.200;  521.340
1107.425;    9.119;  -13.110;  668.180
1107.968;    7.892;  -12.840;  612.380
1108.510;    8.575;   -6.480;  684.960
1109.052;    7.572;  -13.940;  612.620
1109.594;    8.228;  -13.690;  554.440
1110.136;    7.777;  -11.880;  643.220
1110.679;    7.987;   -9.500;  633.080
1111.221;    9.021;  -14.160;  604.460
1111.763;    7.817;  -13.980;  559.220
1112.304;    6.779;  -13.880;  547.140
1112.846;    7.628;  -12.210;  666.240
1113.388;   10.028;  -11.390;  942.180
1113.930;    7.974;  -14.540;  694.200
1114.472;    6.445;  -12.640;  606.540
1115.013;    6.146;  -11.620;  551.280
1115.555;    6.323;  -13.640;  587.100
1116.097;    5.839;  -15.380;  579.480
1116.638;    7.069;  -12.640;  684.600
1117.180;    7.099;   -9.850;  667.740
1117.721;    6.157;  -13.690;  568.580
1118.262;    6.990;  -12.680;  677.960
1118.804;    7.324;  -12.530;  637.340
1119.345;    5.558;  -11.690;  578.400
1119.886;    7.322;  -13.380;  704.040
1120.427;    5.868;  -14.070;  589.020
1120.969;    5.106;  -13.500;  597.920
1121.510;    5.057;  -11.480;  563.060
1122.051;    5.555;  -12.830;  723.580
1122.592;    5.218;  -14.290;  655.420
1123.133;    4.554;  -12.400;  547.940
1123.673;    6.465;  -10.130;  706.480
1124.214;    5.091;  -12.930;  612.460
1124.755;    6.010;  -14.380;  639.460
1125.296;    5.396;  -14.000;  627.320
1125.836;    6.512;  -10.070;  691.500
1126.377;    4.826;  -12.640;  599.660
1126.918;    5.763;  -12.960;  614.980
1127.458;    4.616;  -13.350;  622.220
1127.999;    5.329;  -10.750;  656.980
1128.539;    5.254;  -12.350;  694.240
1129.079;    3.859;  -14.860;  632.720
1129.620;    3.877;  -13.840;  558.100
1130.160;    3.754;  -12.330;  539.480
1130.700;    5.250;  -14.530;  640.840
1131.240;    5.260;  -12.530;  643.700
1131.781;    3.837;  -14.450;  619.680
1132.321;    3.967;   -9.790;  599.120
1132.861;    2.957;  -14.860;  564.200
1133.401;    3.506;  -14.290;  593.940
1133.941;    3.392;  -11.750;  626.280
1134.481;    3.327;   -9.920;  597.580
1135.020;    3.082;  -12.290;  609.160
1135.560;    3.503;  -11.650;  674.940
1136.100;    2.590;  -16.270;  501.160
1136.640;    3.235;  -10.890;  510.480
1137.179;    3.058;  -14.180;  537.960
1137.719;    3.230;  -16.250;  605.400
1138.258;    2.841;  -14.230;  587.360
1138.798;    3.556;   -9.090;  663.780
1139.337;    1.641;  -15.130;  482.840
1139.877;    3.122;  -13.680;  642.360
1140.416;    4.566;  -11.320;  878.060
1140.955;    2.732;  -10.860;  535.380
1141.494;    2.659;  -12.920;  669.280
1142.034;    2.201;  -13.930;  583.520
1142.573;    3.134;  -11.440;  646.280
1143.112;    2.254;  -12.000;  553.480
1143.651;    1.784;  -13.670;  536.480
1144.190;    2.694;  -12.730;  691.640
1144.729;    1.484;  -14.560;  607.420
1145.267;    2.268;  -11.830;  584.900
1145.806;    3.222;  -12.230;  637.040
1146.345;    1.325;  -14.130;  635.020
1146.884;    1.679;  -11.590;  622.500
1147.422;    1.140;  -12.550;  533.060
1147.961;    3.396;  -11.180;  708.460
1148.500;    2.678;  -11.510;  669.720
1149.038;    1.844;  -11.640;  632.500
1149.577;    1.833;  -10.130;  698.640
1150.115;   -0.609;  -13.970;  452.280
1150.653;    1.577;  -14.520;  607.340
1151.192;    1.658;  -12.810;  552.920
1151.730;    1.268;   -9.100;  652.560
1152.268;    0.621;  -12.220;  589.520
1152.806;    0.664;  -14.140;  571.180
1153.344;   -0.374;  -12.350;  577.640
1153.882;    1.334;   -8.980;  600.060
1154.421;    0.179;  -15.190;  470.620
1154.958;    0.218;  -15.210;  595.240
1155.496;    1.264;  -12.850;  645.280
1156.034;    0.425;   -9.940;  721.880
1156.572;    2.185;  -13.570;  667.060
1157.110;   -0.497;  -14.590;  473.940
1157.647;    1.381;  -13.030;  676.960
1158.185;    0.198;  -12.140;  564.320
1158.723;   -1.290;  -14.390;  509.200
1159.260;   -0.149;  -14.090;  701.700
1159.798;    0.800;  -11.920;  658.160
1160.335;   -0.594;  -11.110;  631.820

