
Integration time [ms]:   3.276
Averaging Nr. [scans]: 1000
Smoothing Nr. [pixels]: 0
Data measured with spectrometer [name]: 7414430SP
Wave   ;Sample   ;Dark     ;Reference
[nm]   ;[counts] ;[counts] ;[counts] 

288.544;  151.223;    7.793;  793.890
289.143;  153.590;    7.462;  681.602
289.742;  153.268;    8.602;  828.814
290.341;  138.877;    1.321;  789.841
290.940;  128.198;   -0.709;  730.702
291.538;  129.649;    0.881;  881.108
292.137;  130.014;    0.122;  792.581
292.736;  133.516;   -1.929;  975.101
293.335;  130.960;   -8.229;  735.086
293.934;  131.105;   -5.279;  781.677
294.532;  129.326;   -1.369; 1031.958
295.131;  115.964;   -7.641;  834.394
295.730;  116.611;   -8.420;  809.588
296.328;  115.264;   -5.611;  783.442
296.927;  115.505;   -5.781;  779.652
297.525;  116.028;   -6.361;  781.236
298.124;  106.958;  -11.382;  654.009
298.722;  110.270;   -7.641;  761.933
299.321;  108.996;   -6.811;  708.597
299.919;  106.566;   -6.991;  751.918
300.518;  103.658;  -10.362;  689.338
301.116;  105.352;   -9.581;  691.381
301.715;  104.193;   -4.891;  730.222
302.313;  104.001;   -8.801;  704.943
302.911;   99.661;   -8.522;  733.830
303.509;  104.960;   -6.171;  925.627
304.108;  102.391;   -7.311;  760.383
304.706;  101.029;   -8.321;  801.664
305.304;   96.089;  -10.222;  796.707
305.902;  101.297;   -6.021;  784.484
306.500;   97.584;   -4.971;  728.200
307.098;   95.504;   -7.061;  746.560
307.696;   93.051;   -8.801;  780.432
308.294;   94.523;   -6.411;  731.359
308.892;   96.121;   -2.901;  759.769
309.490;   92.806;   -5.041;  712.161
310.088;   90.334;   -5.002;  788.444
310.686;   94.999;   -2.041;  821.749
311.284;   90.570;   -2.351;  766.040
311.882;   88.992;   -4.422;  731.225
312.480;   85.149;   -4.192;  697.167
313.078;   87.144;   -1.172;  808.331
313.675;   87.434;   -2.601;  691.600
314.273;   82.378;   -1.312;  797.837
314.871;   82.787;   -3.942;  589.829
315.468;   80.292;   -2.802;  652.090
316.066;   84.162;   -0.701;  694.427
316.664;   76.742;   -4.362;  656.351
317.261;   80.482;   -2.872;  910.128
317.859;   75.328;   -2.022;  768.735
318.456;   75.508;   -0.531;  830.096
319.054;   71.903;   -3.912;  787.828
319.651;   70.979;   -4.752;  759.928
320.249;   69.548;   -2.602;  810.188
320.846;   67.084;   -0.821;  714.286
321.443;   64.457;   -4.642;  832.135
322.041;   62.449;   -5.002;  812.315
322.638;   59.349;   -3.982;  701.456
323.235;   60.504;   -3.411;  665.683
323.833;   57.499;   -7.361;  740.354
324.430;   53.791;   -8.611;  615.900
325.027;   54.689;   -4.061;  876.855
325.624;   53.775;   -4.031;  644.532
326.221;   51.484;   -7.481;  689.717
326.818;   50.730;   -5.281;  818.332
327.415;   54.198;   -7.460;  748.828
328.012;   53.985;   -5.510;  690.585
328.609;   51.967;   -7.880;  731.389
329.206;   50.973;   -8.331;  778.621
329.803;   51.119;   -5.121;  737.841
330.400;   53.149;   -4.510;  704.260
330.997;   54.291;   -6.441;  817.147
331.594;   54.670;   -8.831;  788.185
332.191;   58.702;   -7.621;  728.722
332.787;   62.177;   -4.591;  844.463
333.384;   60.138;   -7.412;  763.093
333.981;   58.645;   -8.293;  815.687
334.578;   61.952;   -7.052;  708.378
335.174;   64.102;   -3.102;  731.469
335.771;   64.086;   -5.943;  836.456
336.367;   61.203;   -7.393;  710.631
336.964;   64.742;   -4.063;  793.266
337.561;   62.226;   -3.813;  731.112
338.157;   57.471;   -4.654;  911.916
338.754;   55.075;   -7.934;  796.589
339.350;   53.023;   -4.414;  722.493
339.946;   55.777;   -4.664;  773.135
340.543;   46.758;   -6.375;  846.136
341.139;   42.963;   -9.815;  720.836
341.735;   39.828;   -4.526;  772.593
342.332;   39.150;   -4.895;  691.472
342.928;   38.936;   -4.295;  795.394
343.524;   33.491;   -5.476;  761.684
344.120;   29.746;   -5.856;  738.562
344.716;   33.014;   -2.155;  723.717
345.313;   30.655;   -6.275;  795.342
345.909;   25.801;   -8.815;  627.336
346.505;   27.589;   -5.305;  740.247
347.101;   28.156;   -2.674;  827.864
347.697;   27.831;   -4.344;  785.398
348.293;   23.196;   -9.975;  627.244
348.889;   23.761;   -5.774;  745.914
349.485;   23.723;   -5.004;  688.205
350.081;   23.863;   -4.704;  772.592
350.676;   19.324;   -6.635;  691.606
351.272;   23.799;   -4.504;  809.530
351.868;   22.923;   -3.914;  780.497
352.464;   19.903;   -9.044;  723.932
353.059;   17.223;   -8.314;  646.017
353.655;   19.199;   -7.024;  777.063
354.251;   21.293;   -5.343;  759.845
354.846;   16.133;   -8.604;  740.646
355.442;   13.540;   -6.945;  753.071
356.038;   15.341;   -7.564;  751.708
356.633;   15.596;   -5.814;  728.594
357.229;   13.613;   -7.364;  724.757
357.824;   12.262;   -8.024;  703.600
358.420;   11.204;   -9.384;  679.726
359.015;   11.585;   -5.104;  695.357
359.610;   12.399;   -6.854;  763.920
360.206;    7.164;  -10.185;  603.240
360.801;    9.955;   -7.054;  646.503
361.396;   11.757;   -5.034;  725.975
361.992;    7.660;   -8.284;  668.220
362.587;    5.235;   -8.625;  670.160
363.182;    6.796;   -7.674;  689.631
363.777;    7.271;   -5.164;  738.242
364.372;    6.984;   -8.604;  737.314
364.967;    3.965;   -9.055;  680.744
365.563;    7.717;   -6.114;  815.567
366.158;    4.547;   -5.814;  685.161
366.753;    5.118;   -7.854;  649.263
367.348;    3.983;   -7.804;  746.056
367.942;    3.957;   -7.954;  697.298
368.537;    2.694;   -4.984;  754.245
369.132;    2.561;   -8.564;  703.428
369.727;   -0.693;   -8.855;  638.079
370.322;    0.601;   -6.245;  580.186
370.917;    0.696;   -6.425;  710.646
371.511;    2.529;   -6.294;  861.834
372.106;   -0.201;   -7.685;  776.964
372.701;   -3.405;   -7.335;  585.988
373.296;    2.137;   -4.564;  863.135
373.890;   -2.972;  -10.235;  647.840
374.485;   -4.934;   -7.885;  691.199
375.079;   -0.851;   -7.324;  738.685
375.674;   -0.092;   -3.494;  812.970
376.268;   -3.560;   -8.525;  691.759
376.863;   -9.245;  -10.086;  580.327
377.457;   -3.776;   -7.025;  662.490
378.052;   -5.138;   -3.585;  764.884
378.646;   -5.797;   -7.595;  741.167
379.240;   -6.420;   -8.335;  721.176
379.835;   -6.099;   -5.785;  636.978
380.429;   -7.696;   -4.335;  562.557
381.023;   -7.237;   -6.805;  779.205
381.617;   -9.869;   -9.195;  680.106
382.212;   -6.513;   -6.905;  685.303
382.806;   -5.886;   -3.745;  760.690
383.400;  -10.363;   -7.745;  672.281
383.994;  -10.608;   -9.765;  664.870
384.588;   -6.883;   -6.564;  697.701
385.182;   -5.320;   -5.344;  726.624
385.776;   -7.268;   -8.514;  706.875
386.370;  -10.228;   -9.555;  681.968
386.964;   -9.060;   -8.715;  684.155
387.558;   -7.976;   -6.174;  598.360
388.152;  -10.539;   -8.725;  681.959
388.745;   -8.628;   -7.965;  814.707
389.339;   -6.971;   -5.924;  747.642
389.933;   -6.510;   -5.524;  695.370
390.527;   -8.042;   -7.114;  859.029
391.120;  -13.388;  -10.725;  595.318
391.714;  -10.020;   -8.035;  711.633
392.308;   -7.610;   -3.574;  780.253
392.901;  -11.620;   -7.245;  642.460
393.495;  -11.932;   -9.285;  595.414
394.089;  -11.167;   -5.895;  760.452
394.682;  -11.939;   -4.295;  697.188
395.275;  -11.640;   -9.875;  719.927
395.869;  -12.875;   -8.485;  667.314
396.462;  -10.536;   -7.455;  616.609
397.056;   -7.429;   -5.424;  776.621
397.649;  -12.467;   -6.605;  731.575
398.242;   -9.852;   -8.224;  712.645
398.836;   -9.310;   -7.474;  766.408
399.429;   -9.832;   -7.094;  631.041
400.022;  -13.898;   -9.475;  665.902
400.615;  -10.429;   -7.145;  805.609
401.208;   -8.638;   -7.174;  691.451
401.802;  -11.046;   -5.515;  699.329
402.395;  -12.864;   -9.875;  683.502
402.988;  -12.910;   -8.845;  696.627
403.581;   -9.986;   -8.874;  646.878
404.174;   -7.300;   -5.324;  686.568
404.767;  -10.817;   -9.575;  638.583
405.360;  -12.942;  -10.965;  621.445
405.953;   -7.706;   -8.764;  759.034
406.545;   -6.960;   -7.514;  725.342
407.138;  -11.354;  -10.025;  618.350
407.731;  -10.384;  -10.034;  613.303
408.324;   -6.074;   -9.374;  660.554
408.917;   -6.921;   -6.534;  681.864
409.509;   -8.433;   -8.004;  740.396
410.102;  -10.524;   -9.875;  643.948
410.695;   -5.404;   -8.604;  665.758
411.287;   -5.904;   -6.794;  599.821
411.880;   -7.366;   -9.334;  585.421
412.472;  -10.129;  -10.254;  613.092
413.065;   -6.840;   -6.714;  629.408
413.657;   -4.801;   -7.234;  576.678
414.250;   -5.511;  -10.544;  646.681
414.842;   -6.193;   -9.744;  676.353
415.434;   -3.852;   -6.994;  570.463
416.027;   -0.496;   -5.893;  652.196
416.619;   -2.860;   -7.264;  713.400
417.211;   -2.853;  -10.374;  599.352
417.804;    1.078;   -7.993;  628.499
418.396;   -3.140;   -7.234;  607.643
418.988;   -0.855;   -9.443;  659.238
419.580;   -4.165;  -10.724;  568.276
420.172;   -1.394;  -10.323;  536.196
420.764;    2.029;   -8.793;  672.482
421.356;    0.896;  -11.143;  636.898
421.948;    0.678;   -8.293;  677.661
422.540;    5.314;   -7.893;  680.027
423.132;    4.153;   -7.082;  600.641
423.724;    1.213;   -8.653;  561.267
424.316;    2.939;  -10.213;  621.345
424.908;    6.340;   -9.762;  591.517
425.500;    6.976;   -5.572;  647.978
426.092;    6.911;   -8.422;  648.268
426.683;    6.379;   -9.283;  684.836
427.275;    9.660;   -7.852;  641.471
427.867;   11.259;   -5.272;  668.948
428.458;   11.896;   -7.682;  732.344
429.050;   10.360;  -10.612;  680.749
429.642;   12.351;   -9.882;  743.124
430.233;   13.000;   -6.962;  569.356
430.825;   13.399;   -6.842;  724.809
431.416;   11.978;   -9.672;  698.241
432.008;   15.269;   -6.552;  651.723
432.599;   15.714;   -6.891;  656.073
433.190;   13.084;  -10.912;  637.670
433.782;   12.672;  -11.172;  590.395
434.373;   19.663;   -6.061;  884.765
434.964;   18.619;   -8.251;  602.920
435.556;   15.951;   -9.722;  634.537
436.147;   18.965;   -9.082;  758.490
436.738;   18.548;   -8.041;  701.099
437.329;   23.822;   -7.341;  721.723
437.920;   17.534;   -8.162;  666.688
438.511;   16.561;  -11.802;  564.526
439.103;   23.992;  -10.191;  623.998
439.694;   25.047;   -7.601;  681.583
440.285;   25.771;   -8.541;  764.432
440.876;   24.165;   -9.751;  845.738
441.466;   24.469;   -9.401;  575.162
442.057;   29.170;   -7.760;  665.814
442.648;   28.072;   -9.971;  746.255
443.239;   26.607;  -11.001;  620.477
443.830;   31.675;   -7.990;  704.958
444.421;   32.901;   -7.910;  655.474
445.011;   30.135;   -8.131;  693.619
445.602;   29.566;   -7.111;  743.126
446.193;   31.133;  -10.920;  488.117
446.783;   35.598;   -6.500;  640.397
447.374;   31.440;   -8.671;  692.759
447.964;   32.287;  -10.781;  713.770
448.555;   40.581;   -9.650;  822.742
449.145;   36.618;   -8.660;  662.853
449.736;   37.941;   -8.990;  803.179
450.326;   38.299;   -9.500;  713.626
450.917;   43.020;   -8.680;  675.324
451.507;   41.321;   -7.520;  600.661
452.097;   42.188;   -8.590;  746.267
452.688;   43.502;  -11.340;  742.160
453.278;   43.419;  -10.100;  566.840
453.868;   48.524;   -6.019;  793.550
454.458;   44.789;   -9.440;  651.141
455.048;   46.987;  -10.560;  711.783
455.639;   47.589;  -11.799;  567.096
456.229;   50.891;   -6.899;  710.694
456.819;   53.336;   -7.389;  751.158
457.409;   53.288;  -11.119;  773.993
457.999;   56.597;   -9.289;  737.505
458.589;   55.800;   -6.139;  686.606
459.179;   55.702;   -8.729;  717.658
459.769;   54.265;   -9.789;  627.099
460.358;   59.132;  -10.259;  797.262
460.948;   58.904;   -7.299;  689.503
461.538;   60.462;  -10.289;  660.677
462.128;   58.412;  -11.269;  664.934
462.717;   65.332;   -9.368;  710.326
463.307;   68.612;   -7.908;  705.846
463.897;   64.490;   -9.599;  656.942
464.486;   64.168;   -9.769;  837.128
465.076;   68.128;   -8.048;  733.776
465.666;   71.097;   -9.358;  652.900
466.255;   69.053;   -7.919;  785.651
466.845;   69.178;  -11.689;  666.749
467.434;   72.164;   -7.818;  725.873
468.023;   72.285;   -7.678;  658.357
468.613;   70.557;  -10.939;  713.946
469.202;   75.262;  -10.118;  646.507
469.791;   79.095;   -9.108;  737.811
470.381;   80.752;   -6.058;  742.813
470.970;   81.201;  -10.428;  711.099
471.559;   80.390;  -10.268;  733.291
472.148;   84.284;   -8.448;  675.737
472.738;   86.093;   -6.917;  765.466
473.327;   86.061;  -11.978;  637.529
473.916;   85.677;  -11.888;  737.446
474.505;   89.883;   -9.437;  751.703
475.094;   93.042;   -6.747;  806.570
475.683;   92.654;   -9.367;  797.699
476.272;   93.458;  -12.637;  730.632
476.861;   96.030;  -10.027;  706.754
477.449;  102.931;   -8.716;  728.487
478.038;   97.700;   -9.577;  692.513
478.627;   98.789;   -9.718;  714.852
479.216;  105.398;   -8.947;  769.441
479.805;  108.375;   -6.256;  783.375
480.393;  107.819;   -7.937; 1008.945
480.982;  107.417;   -7.717;  874.501
481.571;  113.543;   -9.266;  858.333
482.159;  114.406;   -7.636;  705.386
482.748;  113.894;   -9.667;  821.385
483.336;  118.948;  -10.376;  858.209
483.925;  120.673;   -7.147;  774.373
484.513;  127.469;   -7.996;  758.962
485.102;  123.514;  -10.027;  810.965
485.690;  132.463;  -10.446; 1011.050
486.278;  135.159;   -8.446;  979.329
486.867;  135.328;   -6.356;  809.662
487.455;  137.486;   -9.136;  898.229
488.043;  140.225;  -10.646;  748.361
488.631;  149.246;   -7.456; 1005.079
489.220;  154.080;   -6.636;  908.626
489.808;  154.481;  -11.036;  741.415
490.396;  162.467;  -10.246;  914.645
490.984;  169.605;   -8.556;  830.161
491.572;  179.929;   -5.886;  940.315
492.160;  188.679;   -9.486;  919.081
492.748;  203.481;  -10.976;  884.341
493.336;  230.820;   -8.776; 1019.693
493.924;  262.010;   -5.465;  958.077
494.512;  299.120;   -9.986; 1066.638
495.100;  349.968;  -10.636; 1103.280
495.687;  413.934;  -10.885; 1206.373
496.275;  485.356;   -8.126; 1150.796
496.863;  558.326;  -10.586; 1281.171
497.451;  672.931;  -11.926; 1386.805
498.038;  845.044;  -10.885; 1556.729
498.626;  994.613;   -6.315; 1741.407
499.214; 1155.332;   -7.326; 2016.609
499.801; 1395.306;  -11.906; 2220.633
500.389; 1699.594;  -10.466; 2312.494
500.976; 2114.790;   -5.236; 2744.849
501.564; 2586.658;   -8.936; 3148.565
502.151; 3026.782;  -13.176; 3515.999
502.738; 3612.930;  -10.646; 3971.274
503.326; 4058.467;   -9.525; 4403.796
503.913; 4581.426;  -10.856; 5161.749
504.500; 4946.225;  -11.586; 5986.420
505.088; 5396.684;  -10.336; 6381.201
505.675; 5995.564;   -6.355; 6925.547
506.262; 6637.979;   -9.046; 7619.060
506.849; 7471.462;  -10.416; 8733.969
507.436; 7996.431;  -10.305; 9790.121
508.023; 8321.384;   -5.496; 9985.472
508.610; 8717.384;   -7.856;10434.618
509.197; 9612.262;  -10.097;11198.435
509.784;11367.396;  -10.886;12391.194
510.371;12752.577;   -9.315;13603.713
510.958;13628.158;   -9.936;14426.586
511.545;14231.746;   -9.326;15243.775
512.132;14633.479;  -10.075;15945.876
512.719;15290.101;   -7.796;16340.369
513.305;16879.326;  -10.606;18011.766
513.892;17795.055;  -11.486;19754.971
514.479;19143.248;   -9.126;20967.805
515.066;20178.760;   -6.026;22299.793
515.652;21082.520;   -8.466;22908.660
516.239;22655.117;  -10.886;23798.875
516.825;23076.275;  -11.496;25567.275
517.412;23753.906;   -5.796;28154.959
517.998;25054.367;  -10.506;28344.111
518.585;25667.145;  -10.076;27134.219
519.171;25743.881;   -8.315;27268.576
519.758;27248.037;   -8.596;28964.129
520.344;28248.684;   -8.466;30664.494
520.930;28504.074;  -11.006;32550.605
521.516;30248.914;  -10.495;35422.895
522.103;33290.508;   -5.526;38280.004
522.689;34629.426;   -8.746;37835.117
523.275;33585.047;  -11.376;37288.613
523.861;33124.430;  -11.156;37281.395
524.447;35017.617;   -8.135;37846.949
525.033;34986.129;   -7.896;38321.949
525.619;35370.855;  -12.476;38579.285
526.205;36806.543;   -9.516;40622.875
526.791;39635.469;   -6.926;42258.836
527.377;40294.594;   -8.346;42966.902
527.963;42235.605;   -8.717;42018.949
528.549;41086.480;  -11.016;42476.828
529.135;38218.824;   -8.536;41854.852
529.721;37709.836;   -9.666;41237.711
530.306;37373.445;  -10.066;41259.445
530.892;37832.309;  -11.356;41506.047
531.478;38840.934;   -6.596;43559.613
532.063;40225.340;   -8.836;47695.563
532.649;40876.410;  -10.047;50808.324
533.235;43642.023;   -9.746;51787.500
533.820;45332.438;   -6.566;52145.035
534.406;45170.699;  -10.817;51133.488
534.991;44503.359;   -9.416;49996.805
535.576;43197.887;   -9.036;48882.852
536.162;43714.938;   -6.156;46942.285
536.747;44602.309;  -11.607;45711.746
537.333;47721.031;  -11.787;48510.180
537.918;49618.023;  -12.437;50439.891
538.503;47938.250;   -7.196;50863.711
539.088;45467.535;  -10.556;50906.922
539.673;47517.133;   -8.767;52621.965
540.259;47775.078;  -10.026;52368.094
540.844;43944.625;   -7.416;50879.109
541.429;43172.063;   -9.467;52077.777
542.014;47538.230;   -9.527;52716.695
542.599;48957.102;   -9.946;52363.281
543.184;45567.375;   -7.927;53187.137
543.769;46245.074;   -9.297;54697.605
544.354;46214.195;  -10.127;53913.914
544.938;46169.883;   -9.267;49680.164
545.523;48290.063;   -6.506;47386.277
546.108;49704.988;   -9.787;49151.949
546.693;51357.398;  -11.587;51384.637
547.278;51128.605;  -10.986;51853.254
547.862;46740.656;   -8.206;51173.750
548.447;42501.852;  -10.067;51691.395
549.031;41927.824;   -9.637;52456.703
549.616;46486.355;   -9.926;52714.516
550.201;46582.816;   -6.347;52414.598
550.785;45559.105;   -7.917;52355.059
551.370;45442.086;  -10.867;54589.453
551.954;47108.348;   -9.047;58267.348
552.538;49322.980;   -7.827;59062.176
553.123;48486.977;  -10.287;58115.285
553.707;46488.977;  -12.178;56556.285
554.291;46405.961;   -8.717;56201.668
554.876;44891.461;   -7.457;55335.762
555.460;45465.043;  -10.387;54155.703
556.044;48558.574;   -9.618;53721.484
556.628;46361.059;  -11.567;53731.016
557.212;46502.984;   -8.097;54312.531
557.796;45307.863;  -11.077;53797.773
558.380;45327.438;  -11.108;56145.984
558.964;45126.625;   -9.057;57277.930
559.548;44939.703;   -6.977;56459.641
560.132;43534.477;  -11.457;54434.543
560.716;42704.801;  -11.378;54800.617
561.300;42266.793;   -9.577;57606.945
561.884;43576.004;   -7.127;58972.445
562.467;43793.516;   -7.118;57327.570
563.051;43418.059;  -13.358;54962.434
563.635;43886.344;  -10.178;52594.473
564.219;45244.652;   -7.837;50610.410
564.802;45801.152;  -11.398;49551.180
565.386;45848.754;  -12.788;48370.953
565.969;45231.563;   -9.077;48178.871
566.553;45208.898;   -6.207;49957.305
567.136;44668.461;   -8.568;50369.594
567.720;40752.160;  -11.868;49492.004
568.303;39415.504;   -8.268;50616.352
568.887;39272.355;   -8.698;50727.148
569.470;39614.105;   -6.808;51698.379
570.053;37864.957;  -13.188;52122.078
570.637;36993.012;  -12.037;52536.438
571.220;36886.512;   -8.577;51186.098
571.803;37278.789;   -8.498;51032.762
572.386;39422.512;  -10.498;49609.887
572.969;42655.473;   -9.388;48285.926
573.552;41180.027;   -8.338;47624.285
574.135;40356.941;   -8.518;45498.641
574.718;37143.547;  -13.628;41970.434
575.301;35742.512;  -10.893;41447.137
575.884;34341.477;   -8.158;40923.836
576.467;34667.676;  -10.328;45267.723
577.050;37845.402;  -13.058;48175.543
577.633;39596.410;   -9.458;47729.328
578.216;38249.039;   -8.928;47579.793
578.799;37366.000;   -9.358;47820.996
579.381;36202.840;  -11.388;48115.551
579.964;34690.605;  -11.718;47333.766
580.547;35354.414;   -8.588;46668.969
581.129;35172.695;   -8.859;44466.141
581.712;34416.668;  -10.729;44164.922
582.294;35108.063;  -11.118;46477.855
582.877;36986.996;   -5.218;48244.254
583.459;36244.730;   -8.679;47437.895
584.042;34748.750;  -10.709;46943.219
584.624;34371.598;  -11.669;46792.227
585.206;32868.328;   -8.218;46557.250
585.789;33726.555;  -10.569;45793.773
586.371;37102.344;  -11.859;43836.391
586.953;37331.789;  -10.719;42972.492
587.536;37399.266;   -7.198;42487.211
588.118;36827.539;   -8.720;42086.414
588.700;34774.914;  -10.439;43389.930
589.282;34211.824;   -9.198;43646.039
589.864;34342.223;   -9.199;43438.109
590.446;35287.848;  -11.319;43151.926
591.028;34844.559;  -11.159;42781.867
591.610;33854.598;  -11.779;42839.098
592.192;31062.051;   -7.668;42820.402
592.774;29907.162;  -11.949;40724.277
593.356;29564.168;  -12.129;39874.789
593.937;30178.627;  -10.669;39980.648
594.519;32310.908;   -6.509;42069.633
595.101;33752.980;  -10.849;42976.031
595.683;33689.027;  -11.679;44084.441
596.264;35013.926;   -9.049;43478.797
596.846;33645.102;   -8.849;43803.672
597.427;32275.406;   -9.570;42986.934
598.009;34281.656;  -12.620;42832.219
598.591;34804.563;  -10.039;42580.086
599.172;34386.605;  -10.369;43061.805
599.753;34669.027;   -9.140;41691.469
600.335;35340.141;  -11.430;40692.520
600.916;33668.387;   -9.939;39982.422
601.498;32745.051;   -8.479;40318.617
602.079;32098.561;  -10.920;40670.609
602.660;31547.615;  -11.480;41450.898
603.241;31179.406;  -11.699;41137.738
603.823;29947.354;   -9.579;38868.797
604.404;31090.543;  -10.620;38182.785
604.985;32099.002;  -10.450;38078.047
605.566;31160.609;   -9.129;38056.633
606.147;31223.213;   -7.510;37020.418
606.728;34096.914;  -10.660;37883.359
607.309;33151.156;  -11.740;38748.273
607.890;31922.268;   -9.759;38850.230
608.471;31426.848;   -8.250;37457.918
609.051;31361.508;   -9.240;36066.457
609.632;30371.748;  -12.120;35991.074
610.213;30958.561;   -9.110;37402.641
610.794;31025.229;   -8.030;38383.363
611.374;29370.396;   -8.110;40562.387
611.955;28742.551;  -13.560;38533.727
612.536;30363.639;  -11.400;36951.789
613.116;31395.479;   -8.070;37197.891
613.697;32364.625;  -10.830;38411.125
614.277;30733.660;  -11.641;38673.938
614.858;31267.658;  -13.310;37075.863
615.438;31523.340;   -7.460;35092.906
616.019;28844.855;   -7.601;33666.301
616.599;29120.094;  -12.020;34189.023
617.179;31226.592;  -11.780;36952.047
617.760;31373.096;   -8.570;39582.574
618.340;32958.598;  -11.471;38943.977
618.920;34746.008;  -11.170;37594.156
619.500;34043.223;  -11.071;37866.938
620.080;33777.336;   -7.750;37869.043
620.660;34618.578;  -12.711;36868.617
621.241;34921.164;  -10.211;36352.309
621.821;33875.422;  -10.961;35459.520
622.401;33579.262;   -7.720;35207.414
622.980;32692.951;   -8.981;35980.422
623.560;31261.119;   -9.331;37351.328
624.140;31225.100;   -9.850;34388.582
624.720;27323.191;   -7.451;32368.764
625.300;23070.945;   -9.070;32638.629
625.880;25770.881;  -12.601;34599.035
626.459;29332.195;  -11.751;36831.738
627.039;32145.834;   -9.281;38299.098
627.619;32203.543;   -8.801;38289.574
628.198;30415.027;  -12.071;37220.695
628.778;30709.355;   -9.461;37632.563
629.357;31934.703;   -8.491;38003.012
629.937;31413.051;   -9.721;38402.039
630.516;30019.947;   -9.951;37868.801
631.096;29994.031;  -11.731;35760.410
631.675;33436.902;   -8.572;35225.219
632.254;38422.879;  -11.282;35130.289
632.834;37811.406;  -13.322;35794.570
633.413;36917.535;  -10.301;35788.922
633.992;34437.664;   -8.582;34532.863
634.571;35353.594;   -8.352;33590.113
635.151;36845.426;  -11.912;34943.863
635.730;34561.512;  -10.511;35352.523
636.309;31588.281;   -7.731;35366.605
636.888;29115.240;   -9.952;36165.637
637.467;29617.355;  -11.672;37515.902
638.046;31833.977;   -8.901;39288.695
638.625;34639.793;   -7.912;38279.699
639.204;34157.504;  -10.022;37741.598
639.782;32801.688;  -12.252;38364.551
640.361;29871.377;  -10.041;36740.621
640.940;26979.762;  -11.161;34950.082
641.519;26212.482;   -9.701;34137.398
642.097;28361.244;  -11.271;35654.258
642.676;31863.938;   -8.651;35637.957
643.255;33549.309;   -8.711;36567.074
643.833;32177.574;   -9.581;37809.434
644.412;32716.426;  -13.711;37337.293
644.990;32718.914;  -11.811;37018.531
645.569;32893.867;   -9.411;36518.469
646.147;30998.162;  -10.291;36186.430
646.726;29399.730;  -12.401;36267.688
647.304;30485.545;  -10.411;36647.625
647.882;31984.107;   -9.651;39286.742
648.461;34177.270;   -9.631;39157.703
649.039;33950.344;  -11.881;35412.883
649.617;33791.902;   -9.661;34744.918
650.195;33597.113;   -9.301;35403.098
650.773;32666.551;  -10.511;35053.797
651.352;30720.619;  -11.521;33756.816
651.930;27608.904;  -12.211;31868.773
652.508;24437.285;   -9.171;33121.551
653.086;27642.260;   -9.371;33564.793
653.663;31625.061;  -13.161;34054.668
654.241;30660.576;  -13.031;35693.309
654.819;31071.297;   -9.371;36422.906
655.397;30008.010;  -10.511;38213.484
655.975;30354.576;  -10.371;39507.625
656.553;31218.590;  -10.051;39498.223
657.130;30408.279;  -10.061;40395.480
657.708;29933.027;   -9.561;39242.020
658.286;29677.809;  -11.511;38920.020
658.863;30026.020;  -10.261;40202.898
659.441;31363.375;   -7.531;39677.938
660.018;30574.957;   -9.501;40413.355
660.596;30379.410;  -13.301;39931.414
661.173;32663.219;  -11.211;39604.531
661.750;32759.871;   -9.951;39700.070
662.328;31403.977;   -9.390;39292.809
662.905;30410.781;  -11.330;38235.648
663.482;26160.957;   -9.050;36212.305
664.060;24367.553;   -8.240;35944.945
664.637;27156.049;  -10.050;35170.785
665.214;28798.336;  -11.760;34197.523
665.791;30403.496;  -10.530;34549.520
666.368;29881.629;   -9.690;35118.578
666.945;30938.117;   -9.320;36019.418
667.522;31742.080;  -11.860;36048.438
668.099;31872.482;  -10.770;36243.914
668.676;31953.313;   -6.260;35958.875
669.253;30647.313;   -7.000;37384.730
669.830;30551.861;  -10.190;36779.629
670.407;29990.141;   -9.550;35231.289
670.984;31090.100;   -9.260;35544.270
671.560;30100.465;   -9.280;35466.867
672.137;28048.578;  -11.810;34280.863
672.714;28959.191;  -11.490;34632.863
673.290;29160.275;   -7.740;35135.422
673.867;29277.152;  -10.660;36114.480
674.443;29965.604;  -12.230;36152.859
675.020;28451.572;  -10.450;35327.238
675.596;29447.436;   -9.260;35795.176
676.173;30127.404;  -10.780;35430.355
676.749;29278.891;  -13.690;33549.516
677.326;29120.926;  -11.980;32210.012
677.902;29256.480;   -8.630;32068.871
678.478;28324.033;  -10.730;32583.891
679.054;29019.463;  -10.520;32088.928
679.631;31011.367;  -11.920;30978.848
680.207;31220.588;   -7.490;33160.887
680.783;32047.625;   -9.860;35570.363
681.359;31063.301;  -13.380;36125.184
681.935;29015.340;  -12.480;35240.922
682.511;27104.625;   -7.900;34429.961
683.087;27105.119;   -7.710;34463.680
683.663;28390.963;  -11.480;34648.898
684.239;29112.838;  -14.090;34546.457
684.815;29088.234;   -7.560;35586.375
685.390;29175.164;   -9.910;35821.895
685.966;29445.727;  -11.159;35085.871
686.542;31673.006;  -11.169;34198.230
687.118;33451.480;   -5.959;32847.707
687.693;33016.047;  -10.329;32794.027
688.269;31794.801;  -12.059;33072.367
688.844;28768.510;  -10.909;33141.664
689.420;27365.137;   -8.019;33965.742
689.995;26376.559;   -8.399;34655.523
690.571;25935.715;  -10.949;33576.742
691.146;26757.869;   -9.619;32657.219
691.722;25725.328;   -8.999;32526.979
692.297;25045.615;  -11.589;33014.617
692.872;26822.174;  -11.739;34012.254
693.448;27041.086;  -11.059;34237.434
694.023;25702.033;  -10.139;34142.672
694.598;27345.377;   -9.029;34132.031
695.173;27275.436;  -13.319;34205.250
695.748;26909.680;  -10.169;32882.488
696.323;26885.824;   -8.339;32864.906
696.898;26386.951;   -8.169;33170.004
697.473;26010.104;  -12.309;32432.984
698.048;26230.273;  -10.989;31649.303
698.623;27086.248;   -9.329;30778.141
699.198;28489.568;   -9.849;31140.119
699.773;29258.814;  -12.329;31764.299
700.348;28575.584;  -10.389;31780.816
700.922;29211.172;   -9.269;32046.375
701.497;29202.174;   -9.329;32603.574
702.072;28838.545;  -10.789;34799.871
702.646;28919.602;  -10.839;35793.172
703.221;28384.508;   -9.099;35201.590
703.795;30395.070;  -10.939;34764.527
704.370;29586.666;  -12.859;34307.367
704.944;29003.469;  -11.559;33509.887
705.519;30450.688;   -7.939;31388.584
706.093;31742.365;  -10.499;31340.104
706.668;31426.576;  -11.289;32630.281
707.242;29790.881;  -11.509;32728.779
707.816;28649.043;   -9.639;32947.238
708.390;26905.791;  -11.429;33277.855
708.965;27429.420;  -11.869;33834.336
709.539;28270.010;  -11.689;33709.273
710.113;28710.729;  -10.478;33044.313
710.687;27794.988;  -10.228;31953.992
711.261;25091.605;  -13.698;30505.949
711.835;24947.141;  -13.378;30262.369
712.409;26382.926;   -9.698;31254.447
712.983;27705.863;  -11.898;32754.986
713.557;28692.629;  -15.138;34018.824
714.131;28517.814;  -14.098;34579.625
714.704;27406.979;   -9.958;33890.262
715.278;25019.963;  -10.028;33531.102
715.852;25487.664;  -11.148;33601.660
716.425;27126.238;   -9.068;33515.117
716.999;27081.445;  -10.038;33185.555
717.573;27193.307;   -9.798;33905.996
718.146;28249.545;  -12.378;35199.293
718.720;28307.137;  -11.918;35060.551
719.293;28350.811;   -8.088;34973.230
719.867;30812.271;  -10.888;36394.449
720.440;31180.098;  -11.938;36663.008
721.013;30460.119;  -12.818;35102.426
721.587;29158.328;  -10.298;33985.266
722.160;26727.426;  -10.048;33524.965
722.733;25484.084;  -12.108;32987.043
723.306;26265.203;  -10.818;33066.301
723.880;27796.869;   -8.908;33399.500
724.453;29565.262;   -9.878;33468.297
725.026;28681.895;  -11.188;33816.637
725.599;25824.354;  -11.678;32797.996
726.172;26460.281;   -9.618;33187.434
726.745;28381.756;   -8.258;35136.613
727.318;30098.945;  -12.978;35751.730
727.891;30301.371;  -12.148;35890.430
728.463;30142.271;   -8.968;34822.090
729.036;29132.500;  -10.188;32895.086
729.609;29181.568;  -11.788;31823.225
730.182;25618.322;  -11.788;31445.283
730.754;23390.574;  -10.268;32373.223
731.327;23600.541;   -9.998;33676.820
731.900;23216.314;  -12.228;33417.000
732.472;24745.840;  -13.848;31978.498
733.045;27752.115;   -8.698;30368.777
733.617;28001.637;  -10.607;30574.215
734.190;26881.035;  -11.507;31280.975
734.762;23889.631;  -13.647;31674.412
735.334;22716.398;   -9.767;31247.291
735.907;23220.486;   -9.897;29876.211
736.479;23073.645;  -11.637;29808.488
737.051;22520.996;   -9.567;30233.547
737.623;23690.682;   -8.187;31469.086
738.195;24872.900;  -11.187;31784.225
738.768;26509.018;  -12.337;32120.523
739.340;26031.273;  -12.227;32094.342
739.912;24280.926;  -11.057;31312.680
740.484;23828.104;  -10.207;31946.238
741.056;23061.119;  -10.047;32984.059
741.628;24295.529;  -13.627;33897.715
742.199;26835.734;   -7.177;33213.016
742.771;26020.863;  -10.797;31369.113
743.343;23681.771;  -11.997;31865.473
743.915;22080.260;  -12.867;32388.631
744.487;21999.592;   -7.617;31079.568
745.058;22880.229;   -9.557;30570.107
745.630;24243.383;   -9.877;29970.127
746.201;25196.262;  -14.177;29186.766
746.773;24967.818;   -9.237;28805.723
747.344;24362.111;   -9.847;29591.223
747.916;22733.318;  -11.657;31412.201
748.487;22054.477;  -10.587;32194.898
749.059;23417.531;   -8.707;32533.719
749.630;24560.855;  -10.537;32158.518
750.201;24079.289;  -11.687;30855.395
750.773;22973.793;  -11.647;28622.555
751.344;23112.041;   -7.147;28405.732
751.915;24069.111;   -9.757;28461.551
752.486;22945.396;  -12.427;27842.850
753.057;20563.107;  -12.227;27845.008
753.628;19607.975;  -10.417;27728.107
754.199;20228.158;  -11.767;27381.086
754.770;21189.551;  -11.187;25882.203
755.341;21281.727;  -10.507;25886.184
755.912;21015.121;   -9.387;26050.861
756.483;20269.102;  -10.647;26798.779
757.054;18714.980;  -11.837;27048.238
757.625;17852.701;  -12.716;26294.838
758.195;17744.010;   -9.666;26142.076
758.766;17446.666;   -8.656;26392.234
759.337;18399.480;  -12.856;26334.594
759.907;20052.762;  -13.366;27579.652
760.478;21034.547;   -8.576;28352.770
761.048;21286.125;  -10.526;27325.088
761.619;20882.811;  -11.116;26460.428
762.189;20035.789;  -12.136;26029.826
762.760;20100.100;   -9.456;26430.145
763.330;20829.422;   -7.136;26670.902
763.900;19988.396;  -11.786;26603.021
764.471;17143.801;  -11.546;25542.740
765.041;16315.870;   -8.096;24358.459
765.611;17426.816;   -8.876;23991.297
766.181;17993.867;  -12.196;24470.236
766.751;18435.770;  -11.636;24845.975
767.321;18181.205;  -10.156;24533.633
767.891;16144.178;  -11.766;24916.492
768.461;15466.121;  -14.936;24776.771
769.031;15719.705;  -12.356;24757.988
769.601;17237.775;   -7.526;24181.088
770.171;17276.777;  -10.766;23670.387
770.741;16761.350;  -13.176;22960.045
771.311;16905.916;  -10.616;22917.523
771.880;16876.797;   -9.576;23562.941
772.450;16354.563;  -10.336;24216.500
773.020;16551.240;  -13.516;24140.398
773.589;16351.499;  -13.466;24414.857
774.159;16039.308;   -8.686;23858.717
774.729;15555.462;   -9.476;22942.135
775.298;14685.090;  -13.666;22324.033
775.867;14156.974;  -11.716;21140.313
776.437;14238.475;   -9.906;20838.092
777.006;14111.111;  -12.166;20599.510
777.576;14241.416;  -12.356;20508.809
778.145;14523.601;  -11.646;20732.947
778.714;14156.107;   -8.226;21062.465
779.283;12900.807;   -9.556;20949.664
779.853;12653.720;  -14.116;20508.623
780.422;13071.761;  -11.506;20649.082
780.991;12560.400;   -9.556;21527.520
781.560;11863.952;   -9.095;22632.658
782.129;11834.586;  -12.135;23048.277
782.698;11509.085;  -10.865;23438.555
783.267;11073.156;   -9.335;23267.734
783.836;11064.854;  -11.045;22415.133
784.404;11617.230;  -13.865;20443.152
784.973;11371.646;  -13.095;19699.150
785.542;11038.166;  -11.575;19763.828
786.111;11114.282;   -9.705;20341.408
786.679;11033.676;  -12.105;20207.967
787.248;11005.146;  -12.455;19516.465
787.817;10617.786;  -11.535;18900.363
788.385; 9970.775;   -9.765;17879.121
788.954; 9134.063;  -14.005;17658.301
789.522; 8896.014;  -11.955;17788.879
790.090; 9584.580;  -10.135;18118.277
790.659; 9939.262;  -10.975;18338.736
791.227; 9452.417;  -13.375;18508.615
791.795; 9787.860;  -12.375;17898.254
792.364;10054.341;  -10.725;17295.133
792.932;10134.171;   -9.715;16822.051
793.500;10146.643;  -12.675;17040.148
794.068;10321.932;  -13.495;17179.787
794.636;10474.482;  -10.885;16664.246
795.204;10116.469;  -11.045;16524.545
795.772; 9939.896;  -13.175;17274.564
796.340; 9506.831;  -12.445;17891.002
796.908; 9348.491;   -9.735;17648.561
797.476; 9265.188;   -9.815;17064.080
798.044; 8764.968;  -13.985;16672.777
798.612; 8093.507;  -13.115;17023.996
799.180; 7890.689;  -10.185;16561.615
799.747; 7936.261;   -9.055;15962.773
800.315; 7830.605;  -12.385;15296.992
800.883; 7538.662;  -15.035;14801.771
801.450; 7413.801;  -10.365;14534.430
802.018; 7412.924;   -9.855;14173.248
802.585; 7509.178;  -11.905;14029.547
803.153; 7655.172;  -11.585;13836.846
803.720; 7598.823;   -9.095;13567.324
804.287; 7227.329;   -9.135;13360.622
804.855; 6914.809;  -11.604;13681.981
805.422; 6791.349;  -11.794;13536.560
805.989; 6640.343;  -10.734;13355.958
806.556; 6790.271;  -10.444;13747.896
807.124; 7230.190;  -12.764;13987.376
807.691; 7375.333;  -12.964;14038.674
808.258; 7323.512;  -11.134;14120.152
808.825; 7115.166;   -9.854;13860.111
809.392; 7134.614;  -10.504;13268.790
809.959; 6731.287;  -13.054;12680.389
810.526; 6406.678;   -8.294;12427.308
811.093; 6417.319;   -8.394;12030.105
811.659; 6929.219;  -12.304;11653.664
812.226; 7327.291;  -13.944;11637.183
812.793; 7079.659;  -10.484;11611.521
813.360; 6560.533;  -10.144;11885.181
813.926; 6146.872;  -11.684;12770.539
814.493; 5962.729;  -13.644;12677.638
815.060; 5624.646;   -9.724;11974.336
815.626; 5626.459;   -9.854;11594.715
816.193; 6082.455;  -13.254;11579.474
816.759; 6270.601;  -13.204;11666.972
817.325; 6538.044;   -9.434;11325.530
817.892; 6879.893;  -10.134;11105.369
818.458; 7286.994;  -13.474;10843.928
819.024; 7015.553;  -11.854;10714.406
819.591; 6708.858;  -10.244;10469.165
820.157; 6525.814;  -10.704;10235.523
820.723; 6231.549;  -12.324;10847.563
821.289; 6073.706;   -9.444;11040.980
821.855; 6047.881;   -8.374;10357.100
822.421; 6157.643;  -10.234; 9978.918
822.987; 6036.276;  -13.294; 9754.177
823.553; 5681.790;  -10.884;10065.755
824.119; 5619.307;   -8.884;10036.294
824.685; 5791.266;   -6.784;10029.192
825.251; 5818.545;  -12.004;10199.230
825.816; 5711.067;  -11.474; 9820.189
826.382; 5572.344;   -9.174; 9297.248
826.948; 5839.874;   -9.214; 9381.347
827.513; 6251.044;  -10.774; 9450.726
828.079; 6096.819;  -11.924; 9472.444
828.645; 5584.326;  -10.543; 9292.643
829.210; 5561.027;  -10.533; 9065.341
829.776; 5529.142;  -10.753; 9132.620
830.341; 5392.963;  -10.173; 9092.878
830.906; 5527.494;  -10.743; 9078.557
831.472; 5883.707;  -11.113; 8534.535
832.037; 5728.250;  -10.603; 8677.874
832.602; 5203.007;  -13.323; 8628.692
833.167; 4755.622;  -10.823; 8879.031
833.733; 4603.744;  -10.113; 9189.790
834.298; 4662.241;  -13.583; 9052.608
834.863; 4583.674;  -12.703; 8895.087
835.428; 4606.592;  -10.523; 8824.266
835.993; 4762.176;   -6.963; 8845.385
836.558; 4723.701;  -10.763; 8888.563
837.123; 4741.922;   -9.903; 8966.582
837.688; 4780.778;   -9.913; 8617.860
838.253; 4851.233;  -10.283; 8590.699
838.817; 4967.571;  -12.963; 8443.797
839.382; 4931.227;  -14.243; 8799.356
839.947; 4681.171;  -10.733; 8810.595
840.511; 4383.293;   -9.383; 8796.394
841.076; 4006.208;  -12.563; 8347.231
841.641; 3990.548;  -12.953; 8224.330
842.205; 4021.848;   -7.043; 8223.349
842.770; 4175.968;   -8.163; 8622.107
843.334; 4515.728;  -12.503; 8410.386
843.898; 4522.631;  -11.693; 8337.465
844.463; 4454.796;  -10.203; 8506.283
845.027; 4153.552;   -9.533; 8280.962
845.591; 3955.234;  -13.443; 8231.141
846.156; 3957.754;  -13.143; 7969.179
846.720; 3832.760;   -9.433; 7768.278
847.284; 3729.802;  -11.033; 7630.957
847.848; 3519.784;  -10.403; 7472.395
848.412; 3334.642;  -11.553; 7437.394
848.976; 3355.048;   -8.393; 7674.592
849.540; 3319.481;   -8.713; 7836.011
850.104; 3377.567;  -12.463; 7913.669
850.668; 3616.025;  -12.973; 7694.508
851.232; 3664.681;  -10.793; 7756.887
851.796; 3499.977;  -10.662; 7926.545
852.359; 3213.371;  -13.082; 7827.844
852.923; 3093.568;  -12.192; 7641.163
853.487; 2965.727;  -11.912; 7342.501
854.050; 2901.530;  -10.892; 7042.820
854.614; 3018.568;  -13.992; 7151.338
855.177; 3137.051;  -11.732; 7105.077
855.741; 3170.487;   -8.962; 6989.675
856.304; 3047.262;   -9.442; 6596.634
856.868; 3020.975;  -14.192; 6356.272
857.431; 3160.889;  -12.702; 6468.571
857.995; 3251.793;   -9.942; 6373.210
858.558; 3284.592;   -9.112; 6324.448
859.121; 3044.854;  -12.932; 6408.327
859.684; 2922.728;  -13.442; 6347.886
860.247; 3002.900;  -10.632; 6321.264
860.810; 2939.435;  -11.272; 6301.903
861.374; 2644.405;   -9.832; 6607.881
861.937; 2382.643;  -11.762; 6408.200
862.500; 2337.920;   -9.722; 6572.639
863.062; 2440.358;  -10.512; 6387.297
863.625; 2532.790;  -11.232; 6190.836
864.188; 2651.886;  -14.112; 5807.254
864.751; 2766.038;  -11.302; 5682.413
865.314; 2708.855;  -10.112; 5547.492
865.876; 2589.866;  -12.182; 5500.150
866.439; 2623.377;  -10.722; 5415.909
867.002; 2538.911;   -9.252; 5501.567
867.564; 2312.941;   -9.572; 5413.946
868.127; 2116.474;  -13.142; 5160.325
868.689; 2095.009;  -12.902; 5133.183
869.252; 2088.799;   -9.732; 5252.382
869.814; 2016.211;   -9.432; 5297.141
870.377; 2010.837;  -11.552; 5390.919
870.939; 2095.071;   -9.052; 5599.898
871.501; 2145.573;  -10.982; 5248.336
872.063; 2157.495;  -12.292; 4854.235
872.626; 2142.002;  -14.912; 4817.074
873.188; 2120.054;  -13.112; 4987.732
873.750; 2046.838;  -13.442; 4868.651
874.312; 1953.106;   -9.402; 4779.330
874.874; 1900.626;  -11.062; 4866.348
875.436; 1866.182;  -13.931; 4718.887
875.998; 1865.462;   -9.561; 4660.005
876.560; 1853.516;  -11.321; 4462.964
877.122; 1801.144;  -12.221; 4145.042
877.683; 1717.943;  -12.191; 4056.481
878.245; 1657.826;  -12.101; 3950.740
878.807; 1676.551;   -8.971; 4058.958
879.369; 1659.531;  -12.071; 3954.677
879.930; 1564.094;  -14.621; 3941.495
880.492; 1534.212;  -10.311; 4067.014
881.053; 1508.881;  -10.901; 3859.633
881.615; 1406.325;  -14.411; 3776.071
882.176; 1345.552;  -13.761; 3734.750
882.738; 1348.672;   -9.181; 3678.489
883.299; 1359.530;  -11.791; 3405.407
883.860; 1377.084;  -13.121; 3351.106
884.422; 1371.192;  -11.211; 3394.044
884.983; 1313.313;  -10.091; 3166.443
885.544; 1205.468;   -8.461; 3189.802
886.105; 1127.110;  -12.361; 3160.360
886.666; 1088.773;  -14.141; 3093.059
887.227; 1043.907;  -11.361; 2941.957
887.788;  961.065;  -11.401; 2974.836
888.349;  887.369;  -13.791; 2721.214
888.910;  898.574;  -13.191; 2696.493
889.471;  913.866;   -9.881; 2560.172
890.032;  880.841;   -9.881; 2558.190
890.593;  841.466;  -10.371; 2567.669
891.153;  814.393;  -13.301; 2460.307
891.714;  772.273;  -11.431; 2372.046
892.275;  735.021;  -11.291; 2309.505
892.835;  693.388;  -11.471; 2382.543
893.396;  637.521;  -11.541; 2295.502
893.956;  586.182;  -11.181; 2162.420
894.517;  547.747;  -11.741; 2125.439
895.077;  541.223;  -11.671; 2086.978
895.638;  544.731;  -11.311; 2126.316
896.198;  515.973;   -9.831; 1838.275
896.758;  467.512;   -8.421; 1892.813
897.319;  434.377;  -12.351; 1792.232
897.879;  424.951;  -13.511; 1762.751
898.439;  399.655;  -12.001; 1661.149
898.999;  366.399;  -10.180; 1781.468
899.559;  354.386;  -12.030; 1703.347
900.119;  348.216;  -15.710; 1537.525
900.679;  346.197;   -8.900; 1638.384
901.239;  332.741;   -8.340; 1527.902
901.799;  323.067;  -13.910; 1456.441
902.359;  314.683;  -13.460; 1357.140
902.919;  303.660;  -11.490; 1331.118
903.479;  286.689;  -12.110; 1317.257
904.038;  263.033;  -11.720; 1262.595
904.598;  248.016;  -13.610; 1152.034
905.158;  242.120;  -11.040; 1240.893
905.717;  233.197;  -10.900; 1233.691
906.277;  221.064;  -15.080; 1217.330
906.836;  213.286;  -13.380; 1222.408
907.396;  205.790;  -10.780; 1193.047
907.955;  198.071;   -8.500; 1182.526
908.515;  192.028;  -12.760; 1099.364
909.074;  186.423;  -11.900; 1092.863
909.633;  179.310;   -8.950; 1069.121
910.192;  174.736;   -8.770; 1196.460
910.752;  170.700;  -12.390; 1029.960
911.311;  167.241;  -13.680; 1009.780
911.870;  163.735;  -12.370;  971.460
912.429;  163.769;  -10.900; 1094.080
912.988;  161.644;  -11.690; 1081.060
913.547;  156.548;  -13.240;  940.380
914.106;  152.254;  -11.990;  999.420
914.665;  148.459;   -9.990;  984.020
915.224;  146.731;  -12.880; 1035.760
915.782;  146.892;  -12.350;  922.560
916.341;  146.808;   -9.110; 1049.840
916.900;  142.749;   -9.270;  925.260
917.458;  141.030;  -13.240;  884.220
918.017;  141.586;  -13.550;  942.600
918.576;  140.254;  -12.320;  904.440
919.134;  138.114;  -11.490;  837.980
919.693;  135.774;  -13.670;  893.060
920.251;  133.378;  -15.470;  876.500
920.809;  132.269;  -11.290;  839.580
921.368;  132.479;  -10.210;  885.360
921.926;  131.309;  -12.140;  842.940
922.484;  130.552;  -13.080;  903.360
923.042;  130.056;  -11.720;  880.340
923.601;  132.422;   -7.480;  998.680
924.159;  130.696;  -11.570;  935.560
924.717;  128.650;  -13.840;  841.080
925.275;  127.418;  -10.640;  903.240
925.833;  127.330;  -11.540;  779.320
926.391;  127.794;  -12.960;  938.380
926.949;  125.336;  -14.130;  857.680
927.506;  126.492;  -11.750;  903.500
928.064;  127.295;  -10.250;  877.580
928.622;  125.914;  -13.030;  880.100
929.180;  126.377;  -13.400;  814.180
929.737;  126.513;  -10.700;  808.540
930.295;  131.899;  -10.070;  928.480
930.853;  132.912;  -11.960;  849.100
931.410;  134.387;  -13.120;  821.120
931.968;  133.157;  -10.770;  940.660
932.525;  132.063;  -10.680;  909.380
933.082;  131.672;  -13.130;  811.440
933.640;  132.174;  -13.210;  925.900
934.197;  130.960;  -11.060;  886.360
934.754;  132.506;   -9.580;  897.780
935.312;  134.420;  -14.000;  863.340
935.869;  139.192;  -10.710; 1012.980
936.426;  138.613;   -9.860;  872.800
936.983;  139.447;   -9.710;  889.020
937.540;  138.411;  -13.990;  838.280
938.097;  137.517;  -14.040;  940.120
938.654;  139.387;  -10.310;  898.860
939.211;  141.253;  -10.560;  952.480
939.768;  143.851;  -13.900;  915.420
940.324;  148.020;  -14.760;  904.200
940.881;  148.473;  -10.370;  878.500
941.438;  149.382;   -8.260; 1021.200
941.995;  145.319;  -12.540;  992.560
942.551;  143.650;  -14.670;  875.620
943.108;  142.768;  -10.450;  937.920
943.664;  143.383;  -10.750;  869.340
944.221;  147.789;  -11.550; 1088.140
944.777;  146.682;  -14.770;  869.680
945.334;  149.278;  -12.820;  884.840
945.890;  151.748;  -10.130;  946.480
946.446;  151.146;  -13.470;  947.020
947.003;  152.427;  -12.120;  964.940
947.559;  153.717;   -9.980; 1063.040
948.115;  151.615;   -9.080; 1026.540
948.671;  148.688;  -10.830;  967.300
949.227;  146.236;  -12.440;  859.560
949.783;  143.682;  -12.910;  858.900
950.339;  145.837;  -10.270;  991.000
950.895;  146.003;  -13.630; 1023.840
951.451;  145.933;  -15.100;  925.280
952.007;  147.349;  -11.330;  998.540
952.563;  149.202;  -10.580;  937.780
953.118;  147.687;  -13.440;  904.940
953.674;  147.658;  -12.710;  935.780
954.230;  148.592;  -10.350;  949.640
954.785;  146.062;   -9.190;  936.640
955.341;  144.771;  -11.200;  998.160
955.897;  142.467;  -16.560;  834.660
956.452;  142.024;  -12.570;  953.840
957.008;  140.035;   -7.970; 1083.640
957.563;  138.886;  -11.940; 1009.540
958.118;  134.734;  -13.450;  877.700
958.674;  135.937;  -12.030;  946.780
959.229;  136.424;   -9.410; 1013.980
959.784;  134.112;  -12.000;  832.400
960.339;  131.640;  -14.780; 1001.280
960.894;  127.274;   -9.860;  963.760
961.449;  123.468;   -9.970;  859.960
962.004;  123.948;  -10.900; 1212.840
962.559;  121.248;  -13.150;  860.140
963.114;  117.892;  -13.740;  742.480
963.669;  117.320;   -9.820;  915.500
964.224;  115.787;  -13.890;  874.340
964.779;  114.258;  -12.600;  828.420
965.334;  114.725;  -10.950; 1017.860
965.888;  114.410;  -11.170;  875.360
966.443;  115.781;  -12.540;  972.380
966.998;  114.570;  -15.780;  819.460
967.552;  113.414;   -9.760;  908.380
968.107;  110.536;   -9.060;  868.300
968.661;  111.713;  -11.950;  922.440
969.216;  111.239;  -12.800;  856.280
969.770;  111.588;  -11.210;  917.200
970.324;  110.987;  -11.610;  923.140
970.879;  107.283;  -11.370;  947.180
971.433;  104.713;  -12.540;  952.720
971.987;   99.733;  -11.320;  895.340
972.541;   96.504;  -10.720;  917.100
973.095;   96.483;   -9.680; 1009.460
973.649;   95.575;  -11.440;  809.480
974.203;   95.617;  -11.210;  829.040
974.757;   96.171;  -10.240;  855.220
975.311;   96.925;  -13.720;  872.600
975.865;   96.383;  -13.770;  881.820
976.419;   93.308;  -11.690;  857.400
976.973;   93.587;   -9.510;  849.620
977.526;   95.538;  -12.620;  949.920
978.080;   94.376;  -12.010;  796.780
978.634;   95.990;  -10.170;  921.320
979.187;   93.994;   -9.020;  905.400
979.741;   91.497;   -9.820; 1018.380
980.294;   86.960;  -14.870;  789.160
980.848;   85.196;  -12.380;  717.220
981.401;   86.580;  -10.350;  816.540
981.955;   88.117;  -13.720;  844.300
982.508;   87.817;  -11.490;  746.340
983.061;   88.921;  -10.000;  915.260
983.615;   85.520;  -11.480;  798.800
984.168;   82.295;  -13.220;  770.080
984.721;   81.590;  -13.960;  880.760
985.274;   81.709;  -10.870;  867.500
985.827;   79.661;   -9.790;  834.220
986.380;   77.680;  -13.120;  721.340
986.933;   76.989;  -12.450;  864.800
987.486;   75.217;  -10.210;  861.920
988.039;   74.329;   -8.430;  863.100
988.591;   72.464;  -10.520;  893.260
989.144;   70.397;  -14.860;  737.260
989.697;   69.442;  -13.080;  758.740
990.250;   70.461;  -10.150;  858.100
990.802;   69.126;  -13.430;  755.860
991.355;   70.309;  -12.750;  974.880
991.907;   67.799;  -12.040;  864.320
992.460;   65.289;  -11.330;  753.760
993.012;   64.255;  -13.610;  749.540
993.565;   63.558;  -13.460;  711.360
994.117;   64.702;   -9.360;  950.780
994.669;   61.548;  -11.300;  701.320
995.221;   59.888;  -13.540;  791.920
995.774;   58.764;  -13.430;  787.580
996.326;   56.531;  -12.520;  740.220
996.878;   57.098;  -10.950;  838.420
997.430;   53.902;  -14.300;  699.860
997.982;   53.375;  -13.760;  750.140
998.534;   52.409;  -11.530;  739.060
999.086;   51.595;  -10.310;  738.220
999.638;   49.931;  -12.530;  661.380
1000.190;   49.728;  -11.840;  699.320
1000.741;   50.090;  -10.260;  742.700
1001.293;   49.021;   -8.860;  686.020
1001.845;   47.882;  -13.700;  676.640
1002.396;   48.292;  -12.100;  743.400
1002.948;   47.960;  -12.760;  737.400
1003.500;   45.852;  -10.380;  723.780
1004.051;   46.668;  -11.900;  907.580
1004.603;   44.866;  -12.250;  791.820
1005.154;   41.117;  -13.210;  608.980
1005.705;   40.131;  -10.950;  723.960
1006.257;   39.568;  -13.880;  707.220
1006.808;   39.264;  -12.840;  685.460
1007.359;   38.029;  -10.570;  763.240
1007.910;   37.849;   -9.620;  646.640
1008.461;   37.186;  -13.630;  732.940
1009.013;   37.117;  -17.200;  588.340
1009.564;   37.657;  -10.200;  793.520
1010.115;   35.495;  -12.570;  597.040
1010.665;   34.588;  -15.150;  602.160
1011.216;   35.122;  -14.480;  667.920
1011.767;   34.703;  -11.340;  697.920
1012.318;   34.562;   -9.780;  736.980
1012.869;   33.768;  -12.380;  679.000
1013.419;   34.053;  -15.560;  603.120
1013.970;   33.559;  -11.010;  666.640
1014.521;   33.063;  -11.610;  620.620
1015.071;   33.580;  -13.450;  670.380
1015.622;   32.997;  -13.870;  635.460
1016.172;   32.733;  -11.610;  596.820
1016.723;   31.885;  -12.120;  614.380
1017.273;   31.542;  -13.620;  604.160
1017.823;   31.720;  -14.140;  650.340
1018.374;   31.521;  -12.800;  611.760
1018.924;   31.000;  -12.340;  716.880
1019.474;   31.637;  -11.410;  718.880
1020.024;   29.700;  -14.770;  657.580
1020.574;   31.443;   -9.780;  726.160
1021.124;   31.095;   -8.560;  673.580
1021.674;   29.805;  -15.190;  559.120
1022.224;   31.166;  -13.530;  708.940
1022.774;   30.236;  -13.280;  668.820
1023.324;   30.186;  -10.690;  753.520
1023.874;   31.143;  -10.240;  875.760
1024.423;   28.765;  -12.540;  613.700
1024.973;   28.871;  -10.010;  610.760
1025.523;   28.061;  -10.550;  620.960
1026.072;   27.508;  -13.560;  606.420
1026.622;   28.284;  -15.120;  675.740
1027.172;   29.240;  -11.260;  715.660
1027.721;   28.169;  -11.410;  601.220
1028.270;   27.083;  -13.530;  663.400
1028.820;   27.630;  -13.680;  638.080
1029.369;   26.980;  -13.520;  612.700
1029.918;   27.264;  -10.980;  649.840
1030.468;   27.523;  -13.530;  564.780
1031.017;   27.385;  -13.170;  634.800
1031.566;   26.676;  -12.200;  608.900
1032.115;   26.556;   -9.960;  694.500
1032.664;   25.744;  -13.210;  596.480
1033.213;   26.927;  -12.500;  735.420
1033.762;   25.976;  -11.910;  635.620
1034.311;   25.734;   -9.640;  677.220
1034.860;   25.918;  -13.310;  691.000
1035.408;   26.856;  -11.830;  722.720
1035.957;   25.952;  -12.000;  719.540
1036.506;   24.226;  -11.690;  530.800
1037.055;   26.090;  -10.990;  844.320
1037.603;   24.161;  -15.120;  664.000
1038.152;   23.522;  -12.450;  534.760
1038.700;   23.582;  -10.560;  585.740
1039.249;   23.760;  -11.080;  681.220
1039.797;   23.828;  -12.540;  633.360
1040.345;   24.208;  -11.920;  705.420
1040.894;   23.357;  -11.410;  625.300
1041.442;   23.082;  -14.320;  632.200
1041.990;   22.108;  -16.240;  559.160
1042.538;   22.616;  -11.680;  536.180
1043.087;   22.104;  -10.760;  570.860
1043.635;   23.471;  -11.850;  670.500
1044.183;   22.456;  -15.480;  586.400
1044.731;   21.856;  -11.770;  576.000
1045.279;   21.962;  -13.090;  674.920
1045.827;   24.119;  -12.440;  892.400
1046.374;   21.461;  -13.840;  515.420
1046.922;   20.328;  -13.220;  590.580
1047.470;   22.139;  -10.230;  691.300
1048.018;   21.935;  -14.590;  647.960
1048.565;   23.113;  -12.050;  708.600
1049.113;   21.219;  -11.650;  557.000
1049.660;   20.680;  -10.510;  629.660
1050.208;   21.755;  -13.310;  675.640
1050.755;   19.967;  -15.900;  606.580
1051.303;   20.942;  -11.430;  686.820
1051.850;   19.971;   -8.480;  635.120
1052.397;   18.223;  -15.010;  473.960
1052.945;   19.468;  -13.960;  617.760
1053.492;   20.835;  -13.150;  741.840
1054.039;   20.699;   -9.630;  720.180
1054.586;   19.196;  -13.680;  557.240
1055.133;   20.373;  -14.570;  693.140
1055.680;   20.154;  -13.820;  646.620
1056.227;   18.475;  -11.730;  542.780
1056.774;   19.935;  -12.480;  794.980
1057.321;   18.582;  -13.930;  523.260
1057.868;   18.936;  -11.690;  651.320
1058.415;   18.106;   -9.520;  651.980
1058.961;   19.361;  -13.160;  678.940
1059.508;   18.369;  -12.920;  643.820
1060.055;   18.403;  -11.920;  581.780
1060.601;   18.694;  -11.500;  624.300
1061.148;   17.825;  -14.330;  616.820
1061.694;   17.226;  -16.870;  592.580
1062.241;   17.737;  -10.330;  596.320
1062.787;   17.695;  -10.620;  663.140
1063.334;   18.797;  -10.110;  808.560
1063.880;   17.971;  -13.400;  668.360
1064.426;   17.923;  -10.680;  706.820
1064.972;   16.873;   -9.920;  601.340
1065.518;   15.961;  -10.980;  566.640
1066.065;   17.129;  -14.890;  624.460
1066.611;   16.175;  -12.870;  598.800
1067.157;   16.699;  -12.950;  641.860
1067.703;   16.696;  -13.540;  668.480
1068.249;   16.702;  -13.540;  605.220
1068.794;   16.681;  -12.600;  626.880
1069.340;   14.895;  -10.620;  578.960
1069.886;   15.724;  -12.830;  590.700
1070.432;   14.566;  -14.870;  541.720
1070.977;   15.140;  -11.980;  601.080
1071.523;   14.882;   -8.200;  573.060
1072.068;   15.400;  -12.330;  582.000
1072.614;   14.434;  -16.370;  527.760
1073.160;   15.641;  -11.100;  687.040
1073.705;   14.180;  -10.480;  572.520
1074.250;   13.960;  -14.520;  559.900
1074.796;   15.625;  -11.460;  655.160
1075.341;   15.344;  -11.950;  664.100
1075.886;   14.549;  -11.460;  594.240
1076.431;   14.157;  -13.770;  649.880
1076.976;   14.225;  -12.680;  639.220
1077.521;   13.981;  -13.170;  583.080
1078.067;   13.017;  -10.860;  579.400
1078.612;   13.935;  -13.920;  661.620
1079.156;   13.741;  -13.880;  601.540
1079.701;   14.180;  -13.120;  693.260
1080.246;   14.028;   -9.940;  696.300
1080.791;   13.571;  -14.740;  625.020
1081.336;   14.180;  -13.750;  659.320
1081.880;   12.991;  -13.400;  649.680
1082.425;   12.226;  -12.220;  573.480
1082.970;   13.744;  -11.610;  717.040
1083.514;   13.191;  -13.580;  597.000
1084.059;   11.927;  -12.810;  586.720
1084.603;   11.821;  -12.320;  565.840
1085.147;   12.564;  -13.190;  645.220
1085.692;   13.631;  -12.480;  716.800
1086.236;   10.915;  -13.020;  503.140
1086.780;   13.059;   -9.190;  751.440
1087.325;   12.743;  -12.480;  654.620
1087.869;   11.972;  -12.450;  610.700
1088.413;   12.139;  -12.240;  705.040
1088.957;    9.864;   -9.020;  543.400
1089.501;   11.923;  -10.320;  766.640
1090.045;   11.533;  -12.720;  726.480
1090.589;    9.721;  -13.690;  569.920
1091.133;   11.369;  -10.020;  673.340
1091.676;   11.224;  -12.330;  591.940
1092.220;   10.822;  -14.970;  600.920
1092.764;   11.975;  -12.430;  706.960
1093.307;   11.031;   -9.800;  673.780
1093.851;    9.784;  -14.970;  556.540
1094.395;   10.714;  -15.310;  683.140
1094.938;   10.029;  -10.370;  632.520
1095.482;   10.575;  -11.050;  559.800
1096.025;   11.234;  -11.840;  710.880
1096.568;   11.154;  -12.840;  779.280
1097.112;    9.080;  -14.700;  508.180
1097.655;    9.729;   -8.720;  603.000
1098.198;    8.735;  -13.610;  600.180
1098.741;   10.094;  -13.350;  612.860
1099.285;    9.823;  -11.230;  657.300
1099.828;    7.894;  -11.840;  439.400
1100.371;    9.655;  -10.840;  608.160
1100.914;    9.522;  -14.190;  682.660
1101.457;    9.026;  -11.240;  679.900
1101.999;    7.481;  -11.270;  584.680
1102.542;    9.334;  -11.480;  641.440
1103.085;    8.761;  -11.750;  658.500
1103.628;    9.474;  -11.400;  762.060
1104.170;    8.146;  -10.490;  588.280
1104.713;    8.421;  -10.600;  646.700
1105.256;    7.382;  -14.360;  557.440
1105.798;    7.585;  -13.210;  499.980
1106.341;    9.106;  -10.270;  728.900
1106.883;    7.663;  -12.200;  521.340
1107.425;    7.966;  -13.110;  668.180
1107.968;    7.949;  -12.840;  612.380
1108.510;    8.106;   -6.480;  684.960
1109.052;    6.424;  -13.940;  612.620
1109.594;    7.364;  -13.690;  554.440
1110.136;    7.988;  -11.880;  643.220
1110.679;    6.905;   -9.500;  633.080
1111.221;    7.993;  -14.160;  604.460
1111.763;    6.802;  -13.980;  559.220
1112.304;    6.182;  -13.880;  547.140
1112.846;    7.008;  -12.210;  666.240
1113.388;    9.811;  -11.390;  942.180
1113.930;    6.903;  -14.540;  694.200
1114.472;    6.609;  -12.640;  606.540
1115.013;    5.134;  -11.620;  551.280
1115.555;    5.884;  -13.640;  587.100
1116.097;    5.399;  -15.380;  579.480
1116.638;    7.079;  -12.640;  684.600
1117.180;    6.549;   -9.850;  667.740
1117.721;    5.762;  -13.690;  568.580
1118.262;    6.924;  -12.680;  677.960
1118.804;    5.796;  -12.530;  637.340
1119.345;    5.072;  -11.690;  578.400
1119.886;    6.306;  -13.380;  704.040
1120.427;    5.588;  -14.070;  589.020
1120.969;    4.487;  -13.500;  597.920
1121.510;    4.200;  -11.480;  563.060
1122.051;    5.887;  -12.830;  723.580
1122.592;    5.348;  -14.290;  655.420
1123.133;    4.380;  -12.400;  547.940
1123.673;    5.365;  -10.130;  706.480
1124.214;    5.248;  -12.930;  612.460
1124.755;    5.790;  -14.380;  639.460
1125.296;    4.458;  -14.000;  627.320
1125.836;    5.330;  -10.070;  691.500
1126.377;    4.292;  -12.640;  599.660
1126.918;    4.868;  -12.960;  614.980
1127.458;    3.896;  -13.350;  622.220
1127.999;    5.113;  -10.750;  656.980
1128.539;    4.494;  -12.350;  694.240
1129.079;    4.262;  -14.860;  632.720
1129.620;    3.618;  -13.840;  558.100
1130.160;    2.940;  -12.330;  539.480
1130.700;    3.818;  -14.530;  640.840
1131.240;    4.391;  -12.530;  643.700
1131.781;    3.649;  -14.450;  619.680
1132.321;    3.493;   -9.790;  599.120
1132.861;    2.590;  -14.860;  564.200
1133.401;    2.903;  -14.290;  593.940
1133.941;    3.418;  -11.750;  626.280
1134.481;    2.542;   -9.920;  597.580
1135.020;    2.755;  -12.290;  609.160
1135.560;    3.575;  -11.650;  674.940
1136.100;    2.827;  -16.270;  501.160
1136.640;    1.925;  -10.890;  510.480
1137.179;    2.722;  -14.180;  537.960
1137.719;    2.751;  -16.250;  605.400
1138.258;    3.293;  -14.230;  587.360
1138.798;    3.169;   -9.090;  663.780
1139.337;    0.925;  -15.130;  482.840
1139.877;    2.956;  -13.680;  642.360
1140.416;    4.217;  -11.320;  878.060
1140.955;    1.959;  -10.860;  535.380
1141.494;    2.112;  -12.920;  669.280
1142.034;    2.207;  -13.930;  583.520
1142.573;    2.849;  -11.440;  646.280
1143.112;    1.624;  -12.000;  553.480
1143.651;    1.440;  -13.670;  536.480
1144.190;    2.612;  -12.730;  691.640
1144.729;    2.272;  -14.560;  607.420
1145.267;    1.871;  -11.830;  584.900
1145.806;    2.050;  -12.230;  637.040
1146.345;    1.405;  -14.130;  635.020
1146.884;    1.309;  -11.590;  622.500
1147.422;    0.788;  -12.550;  533.060
1147.961;    2.264;  -11.180;  708.460
1148.500;    2.379;  -11.510;  669.720
1149.038;    1.498;  -11.640;  632.500
1149.577;    1.765;  -10.130;  698.640
1150.115;    0.027;  -13.970;  452.280
1150.653;    1.846;  -14.520;  607.340
1151.192;    0.825;  -12.810;  552.920
1151.730;    0.802;   -9.100;  652.560
1152.268;    0.201;  -12.220;  589.520
1152.806;   -0.059;  -14.140;  571.180
1153.344;   -0.917;  -12.350;  577.640
1153.882;    1.095;   -8.980;  600.060
1154.421;   -0.293;  -15.190;  470.620
1154.958;    0.329;  -15.210;  595.240
1155.496;    1.488;  -12.850;  645.280
1156.034;    0.872;   -9.940;  721.880
1156.572;    1.263;  -13.570;  667.060
1157.110;   -0.558;  -14.590;  473.940
1157.647;    0.179;  -13.030;  676.960
1158.185;   -0.662;  -12.140;  564.320
1158.723;   -1.779;  -14.390;  509.200
1159.260;    0.263;  -14.090;  701.700
1159.798;    0.220;  -11.920;  658.160
1160.335;   -0.349;  -11.110;  631.820

