source_2
Integration time [ms]: 3468.598
Averaging Nr. [scans]: 10
Smoothing Nr. [pixels]: 0
Data measured with spectrometer [name]: 7414430SP
Wave   ;Sample   ;Dark     ;Reference
[nm]   ;[counts] ;[counts] ;[counts] 

288.544; 5201.530; 4983.385;    6.613
289.143; 4304.950; 4054.288;   14.216
289.742; 5587.147; 5296.867;   11.816
290.341; 5327.875; 5071.188;   -4.936
290.940; 4869.281; 4633.392;    0.852
291.538; 6127.176; 5870.872;    1.792
292.137; 5388.314; 5171.827;    6.262
292.736; 7012.875; 6773.389;    8.164
293.335; 4989.836; 4733.773;   -6.418
293.934; 5375.789; 5105.711;   -2.904
294.532; 7540.431; 7282.726;   -5.162
295.131; 5983.589; 5726.518;  -10.283
295.730; 5792.429; 5546.961;  -16.141
296.328; 5563.014; 5353.235;  -14.740
296.927; 5568.606; 5314.389;   -8.768
297.525; 5534.376; 5271.474;  -15.255
298.124; 4543.802; 4280.530;  -22.063
298.722; 5416.507; 5165.127;  -14.796
299.321; 4992.962; 4751.758;  -10.466
299.919; 5347.888; 5105.331;  -10.979
300.518; 4886.049; 4674.793;  -12.077
301.116; 4899.135; 4680.521;  -13.509
301.715; 5179.695; 4971.916;  -11.939
302.313; 5040.918; 4778.250;  -15.424
302.911; 5328.450; 5092.749;  -19.833
303.509; 6968.691; 6712.962;   -3.567
304.108; 5476.939; 5252.457;   -9.553
304.706; 5879.460; 5641.515;   -8.582
305.304; 5954.438; 5735.520;  -12.348
305.902; 5691.981; 5445.572;  -14.411
306.500; 5277.571; 5061.710;   -7.194
307.098; 5499.873; 5250.898;   -9.322
307.696; 5824.330; 5572.651;  -19.192
308.294; 5382.429; 5156.146;   -9.736
308.892; 5615.056; 5383.022;  -15.482
309.490; 5168.497; 4946.583;  -14.107
310.088; 5909.387; 5709.054;  -15.862
310.686; 6083.336; 5862.354;  -10.781
311.284; 5744.775; 5498.425;  -14.878
311.882; 5313.630; 5091.407;   -9.948
312.480; 5108.622; 4933.328;  -15.503
313.078; 6141.890; 5942.025;  -17.262
313.675; 5087.971; 4875.110;   -3.694
314.273; 6054.389; 5857.348;  -18.246
314.871; 4221.884; 4039.000;  -15.190
315.468; 4813.350; 4617.749;  -12.633
316.066; 5161.853; 4944.624;   -5.765
316.664; 4877.374; 4640.783;  -14.317
317.261; 7035.059; 6802.427;   -8.677
317.859; 5952.343; 5734.268;  -11.804
318.456; 6428.201; 6212.525;   -3.107
319.054; 6043.083; 5840.912;   -3.062
319.651; 5766.779; 5547.735;   -6.706
320.249; 6316.580; 6109.685;   -5.206
320.846; 5461.890; 5266.352;   -4.679
321.443; 6528.439; 6334.103;   -7.920
322.041; 6388.363; 6195.737;  -14.105
322.638; 5448.604; 5261.052;   -6.263
323.235; 5061.719; 4863.250;   -7.424
323.833; 5756.655; 5567.545;  -14.765
324.430; 4639.874; 4435.237;  -10.550
325.027; 6876.598; 6712.098;   -9.951
325.624; 4824.503; 4616.812;   -3.712
326.221; 5199.001; 4968.497;   -9.368
326.818; 6332.747; 6091.093;   -5.637
327.415; 5573.970; 5355.476;   -6.699
328.012; 5107.540; 4863.679;   -5.713
328.609; 5420.794; 5162.610;   -9.983
329.206; 5883.052; 5645.363;   -7.154
329.803; 5468.253; 5211.901;   -1.682
330.400; 5150.626; 4900.641;   -2.741
330.997; 6064.090; 5817.924;   -4.339
331.594; 5914.371; 5646.983;  -10.278
332.191; 5267.696; 4995.754;   -6.967
332.787; 6223.421; 5969.677;   -0.480
333.384; 5525.157; 5257.662;  -10.333
333.981; 6035.444; 5771.552;  -19.900
334.578; 5035.837; 4783.916;  -19.816
335.174; 5241.748; 4998.339;  -15.844
335.771; 6187.794; 5919.491;  -12.670
336.367; 5182.563; 4916.472;  -21.124
336.964; 5939.807; 5640.552;  -18.226
337.561; 5363.426; 5090.344;  -13.311
338.157; 6938.024; 6657.257;  -19.006
338.754; 5962.447; 5671.309;  -19.418
339.350; 5308.118; 5050.082;  -29.433
339.946; 5681.520; 5393.192;  -16.622
340.543; 6397.393; 6090.361;  -16.744
341.139; 5372.334; 5095.704;  -21.841
341.735; 5876.707; 5610.534;  -25.012
342.332; 5170.803; 4912.607;  -19.156
342.928; 5996.766; 5749.129;  -20.443
343.524; 5843.240; 5588.802;  -14.397
344.120; 5602.955; 5379.784;  -20.654
344.716; 5346.636; 5094.014;   -5.730
345.313; 6127.231; 5839.472;  -10.929
345.909; 4606.873; 4381.842;  -19.843
346.505; 5601.322; 5364.214;  -19.645
347.101; 6297.432; 6056.932;   -9.618
347.697; 5966.012; 5751.302;  -10.305
348.293; 4605.912; 4347.975;  -23.189
348.889; 5650.942; 5446.116;  -18.418
349.485; 5109.693; 4872.965;  -10.476
350.081; 5879.474; 5670.291;  -17.320
350.676; 5218.599; 5000.419;  -21.088
351.272; 6171.705; 5950.016;  -12.821
351.868; 5853.104; 5612.910;  -13.165
352.464; 5432.570; 5204.664;  -12.464
353.059; 4836.970; 4613.287;  -22.547
353.655; 5953.844; 5722.059;   -9.379
354.251; 5757.026; 5519.300;   -8.266
354.846; 5643.214; 5425.623;  -17.705
355.442; 5675.815; 5447.184;   -9.317
356.038; 5676.199; 5455.090;  -11.049
356.633; 5506.636; 5254.163;  -10.006
357.229; 5464.069; 5228.999;  -13.120
357.824; 5316.458; 5095.231;  -15.647
358.420; 5091.395; 4871.454;  -19.204
359.015; 5166.546; 4953.653;  -12.263
359.610; 5865.695; 5623.981;  -16.421
360.206; 4462.440; 4244.451;  -20.074
360.801; 4812.306; 4567.671;  -13.277
361.396; 5496.120; 5273.642;   -5.822
361.992; 5044.058; 4822.082;  -11.247
362.587; 5053.342; 4866.389;  -21.502
363.182; 5206.612; 5012.657;   -7.461
363.777; 5695.864; 5452.306;   -8.719
364.372; 5619.940; 5417.878;  -14.590
364.967; 5192.514; 4998.401;  -15.145
365.563; 6262.777; 6062.795;   -7.192
366.158; 5170.042; 4955.311;   -5.662
366.753; 4886.825; 4656.940;   -8.378
367.348; 5733.128; 5508.222;  -14.990
367.942; 5283.012; 5090.001;   -6.005
368.537; 5778.675; 5566.585;  -11.504
369.132; 5389.381; 5163.560;  -10.576
369.727; 4799.021; 4572.582;  -12.573
370.322; 4404.798; 4212.081;  -11.560
370.917; 5500.199; 5272.619;  -10.388
371.511; 6794.220; 6595.170;   -9.161
372.106; 6098.214; 5869.301;  -10.245
372.701; 4450.247; 4245.487;  -10.158
373.296; 6665.861; 6521.885;   -4.719
373.890; 5019.242; 4797.689;  -11.802
374.485; 5382.303; 5206.901;  -13.500
375.079; 5791.174; 5582.247;   -6.276
375.674; 6381.167; 6178.866;   -0.447
376.268; 5346.599; 5119.886;   -6.916
376.863; 4480.291; 4325.718;  -14.483
377.457; 5139.771; 4959.743;   -6.903
378.052; 6018.495; 5812.932;   -9.844
378.646; 5873.125; 5688.691;  -12.601
379.240; 5688.172; 5483.954;  -14.715
379.835; 5009.575; 4791.252;  -12.331
380.429; 4337.433; 4139.587;   -9.074
381.023; 6159.619; 6023.366;   -1.729
381.617; 5374.542; 5193.600;  -13.714
382.212; 5383.891; 5199.617;   -7.060
382.806; 6014.971; 5856.393;   -2.303
383.400; 5358.867; 5194.861;   -0.815
383.994; 5319.214; 5127.624;   -4.429
384.588; 5579.403; 5394.073;   -6.261
385.182; 5829.470; 5638.881;    0.008
385.776; 5685.363; 5545.624;   -3.247
386.370; 5435.445; 5300.699;   -1.030
386.964; 5503.744; 5324.055;   -1.346
387.558; 4763.976; 4587.712;   -2.020
388.152; 5473.019; 5338.543;   -5.345
388.745; 6605.743; 6478.322;   -2.774
389.339; 5931.343; 5769.749;    3.510
389.933; 5449.485; 5325.146;    5.280
390.527; 7013.126; 6889.151;    2.610
391.120; 4784.560; 4663.248;   -7.914
391.714; 5679.259; 5553.737;   -1.903
392.308; 6355.496; 6199.287;    6.023
392.901; 5237.261; 5082.758;   -4.103
393.495; 4860.184; 4713.759;    3.284
394.089; 6292.317; 6189.122;    8.655
394.682; 5712.187; 5610.813;    2.312
395.275; 5906.044; 5792.710;   -7.402
395.869; 5490.806; 5370.055;   -1.072
396.462; 5039.629; 4932.678;    6.454
397.056; 6351.319; 6202.715;    8.494
397.649; 6072.127; 5922.913;    1.599
398.242; 5850.753; 5768.239;    3.153
398.836; 6275.802; 6167.017;   11.395
399.429; 5137.000; 5014.096;   14.695
400.022; 5500.708; 5395.776;    3.627
400.615; 6709.908; 6618.121;    8.383
401.208; 5614.709; 5498.181;   13.295
401.802; 5793.407; 5681.382;    6.211
402.395; 5649.509; 5596.026;    7.227
402.988; 5735.605; 5664.872;    2.700
403.581; 5221.771; 5136.675;   11.225
404.174; 5542.320; 5480.048;   18.922
404.767; 5168.970; 5071.610;   14.169
405.360; 5119.717; 5064.078;    8.999
405.953; 6258.139; 6154.089;   13.138
406.545; 6001.761; 5915.479;   13.937
407.138; 5068.872; 4989.331;   10.869
407.731; 5039.289; 4971.279;   12.768
408.324; 5395.854; 5308.193;   22.921
408.917; 5658.169; 5555.781;   15.308
409.509; 6137.607; 6066.265;   12.239
410.102; 5370.966; 5291.206;   13.741
410.695; 5485.448; 5394.863;   20.249
411.287; 4937.158; 4872.253;   21.793
411.880; 4809.259; 4750.541;   22.965
412.472; 5072.835; 4994.453;   15.082
413.065; 5263.000; 5211.779;   23.423
413.657; 4769.246; 4700.924;   21.077
414.250; 5307.955; 5250.026;   12.349
414.842; 5578.915; 5521.505;   20.423
415.434; 4734.021; 4676.125;   19.906
416.027; 5299.616; 5250.987;   26.574
416.619; 5915.433; 5860.780;   15.705
417.211; 4904.987; 4856.906;   17.791
417.804; 5114.745; 5078.208;   30.244
418.396; 5035.441; 4972.632;   24.177
418.988; 5459.364; 5394.105;   24.904
419.580; 4681.063; 4639.345;   20.692
420.172; 4448.377; 4422.949;   22.275
420.764; 5485.531; 5436.114;   26.773
421.356; 5288.582; 5234.536;   25.731
421.948; 5569.373; 5520.057;   24.876
422.540; 5543.386; 5486.917;   30.042
423.132; 4910.347; 4874.056;   32.728
423.724; 4569.229; 4547.598;   21.317
424.316; 5110.583; 5074.269;   29.359
424.908; 4872.892; 4818.475;   28.798
425.500; 5320.335; 5270.527;   30.512
426.092; 5290.625; 5262.205;   26.741
426.683; 5711.833; 5674.779;   27.029
427.275; 5256.072; 5220.344;   32.611
427.867; 5420.541; 5381.797;   33.796
428.458; 6022.311; 5979.088;   34.453
429.050; 5591.268; 5560.808;   34.255
429.642; 6129.291; 6064.581;   39.082
430.233; 4522.985; 4497.833;   41.138
430.825; 6011.905; 5978.757;   31.581
431.416; 5724.865; 5693.486;   35.755
432.008; 5261.386; 5234.766;   40.566
432.599; 5281.973; 5254.004;   46.322
433.190; 5204.309; 5165.022;   46.897
433.782; 4581.925; 4558.587;   41.069
434.373; 7198.168; 7136.306;   48.778
434.964; 4828.173; 4799.398;   50.078
435.556; 5127.407; 5104.428;   52.381
436.147; 6164.945; 6134.034;   38.251
436.738; 5667.512; 5644.065;   47.237
437.329; 5790.417; 5767.012;   61.304
437.920; 5324.964; 5283.781;   48.611
438.511; 4508.177; 4484.836;   44.910
439.103; 4986.002; 4948.235;   62.404
439.694; 5439.338; 5438.619;   63.075
440.285; 5996.487; 5937.420;   61.033
440.876; 6896.586; 6875.643;   57.249
441.466; 4527.178; 4531.124;   61.306
442.057; 5277.687; 5215.991;   65.773
442.648; 6011.116; 5976.379;   65.676
443.239; 4943.441; 4920.651;   55.963
443.830; 5645.940; 5610.384;   69.631
444.421; 5164.126; 5137.718;   69.943
445.011; 5512.847; 5510.426;   72.791
445.602; 5908.708; 5907.933;   68.848
446.193; 3727.395; 3709.493;   80.044
446.783; 4924.031; 4895.904;   82.599
447.374; 5427.646; 5405.238;   77.419
447.964; 5688.600; 5641.364;   72.605
448.555; 6485.368; 6454.327;   82.041
449.145; 5167.164; 5148.146;   76.230
449.736; 6360.783; 6313.438;   75.545
450.326; 5606.786; 5572.809;   67.945
450.917; 5235.353; 5214.044;   77.598
451.507; 4638.925; 4629.224;   68.027
452.097; 5898.723; 5859.108;   67.771
452.688; 5741.183; 5714.359;   62.884
453.278; 4170.682; 4175.920;   65.512
453.868; 6297.086; 6226.240;   71.796
454.458; 5023.204; 4998.066;   60.956
455.048; 5532.692; 5505.911;   62.356
455.639; 4292.546; 4270.608;   58.782
456.229; 5452.356; 5442.075;   65.209
456.819; 5793.529; 5737.538;   61.466
457.409; 6015.215; 5988.460;   59.967
457.999; 5621.450; 5608.689;   58.093
458.589; 5169.272; 5144.935;   59.536
459.179; 5503.228; 5490.749;   55.994
459.769; 4722.476; 4700.417;   43.624
460.358; 6121.418; 6079.692;   46.978
460.948; 5235.541; 5199.387;   49.821
461.538; 4962.124; 4915.584;   54.678
462.128; 5002.157; 4979.425;   49.309
462.717; 5321.403; 5271.431;   52.774
463.307; 5296.521; 5279.012;   48.101
463.897; 4893.917; 4840.453;   45.606
464.486; 6476.642; 6435.799;   45.010
465.076; 5530.896; 5508.673;   45.519
465.666; 4762.204; 4710.358;   50.058
466.255; 5984.404; 5932.642;   44.463
466.845; 4865.319; 4845.475;   41.206
467.434; 5421.488; 5385.521;   44.847
468.023; 4772.158; 4736.857;   46.760
468.613; 5320.972; 5274.485;   39.736
469.202; 4682.648; 4667.222;   46.461
469.791; 5392.658; 5351.184;   47.944
470.381; 5397.522; 5350.895;   47.529
470.970; 5173.540; 5136.348;   43.773
471.559; 5419.619; 5390.396;   41.646
472.148; 4815.693; 4762.518;   37.914
472.738; 5554.781; 5495.057;   48.071
473.327; 4484.069; 4456.801;   47.871
473.916; 5340.745; 5287.146;   37.716
474.505; 5433.650; 5393.509;   40.256
475.094; 5920.327; 5865.358;   43.269
475.683; 5742.677; 5701.447;   36.499
476.272; 5189.897; 5158.572;   44.542
476.861; 4966.820; 4900.277;   42.297
477.449; 5075.972; 5016.748;   46.878
478.038; 4763.740; 4744.075;   35.156
478.627; 4973.598; 4943.110;   42.514
479.216; 5392.896; 5325.338;   43.937
479.805; 5447.998; 5371.653;   51.393
480.393; 7379.853; 7300.708;   53.239
480.982; 6281.362; 6238.065;   38.955
481.571; 6065.433; 6005.705;   45.436
482.159; 4684.551; 4618.991;   51.007
482.748; 5699.950; 5641.481;   49.695
483.336; 5947.440; 5872.924;   48.280
483.925; 5057.173; 4993.409;   47.166
484.513; 5011.414; 4970.040;   55.404
485.102; 5420.672; 5368.277;   54.238
485.690; 7056.819; 7009.038;   55.748
486.278; 6814.376; 6745.635;   55.934
486.867; 5291.675; 5215.002;   57.106
487.455; 6014.260; 5939.843;   56.979
488.043; 4676.514; 4629.218;   57.564
488.631; 6780.505; 6732.188;   57.432
489.220; 5945.663; 5888.118;   63.646
489.808; 4464.195; 4399.126;   65.449
490.396; 5867.203; 5816.073;   61.977
490.984; 5029.773; 4951.264;   68.834
491.572; 5899.632; 5823.526;   70.775
492.160; 5588.314; 5484.568;   67.564
492.748; 5138.437; 5103.664;   66.808
493.336; 5961.146; 5918.320;   79.747
493.924; 5133.914; 5054.267;   88.688
494.512; 5871.523; 5817.397;   84.120
495.100; 5747.671; 5691.016;   86.250
495.687; 6117.464; 6014.601;  103.074
496.275; 4940.974; 4878.941;  108.717
496.863; 5132.944; 5065.160;  107.035
497.451; 5095.408; 5034.038;  117.993
498.038; 5352.110; 5313.558;  120.116
498.626; 5169.725; 5086.890;  143.059
499.214; 5536.976; 5471.485;  153.434
499.801; 5382.909; 5322.221;  175.121
500.389; 4422.186; 4364.446;  185.617
500.976; 5654.792; 5544.377;  215.789
501.564; 5401.606; 5330.850;  240.321
502.151; 3920.748; 3852.220;  267.007
502.738; 5087.789; 5027.823;  317.961
503.326; 5211.713; 5129.429;  361.216
503.913; 5441.396; 5378.604;  401.433
504.500; 5608.732; 5530.499;  446.492
505.088; 4771.653; 4710.506;  512.063
505.675; 5235.524; 5123.102;  586.387
506.262; 5205.691; 5085.023;  671.021
506.849; 5317.375; 5209.396;  759.062
507.436; 5976.009; 5891.975;  849.788
508.023; 5271.500; 5196.791;  944.288
508.610; 5837.163; 5784.424; 1020.690
509.197; 5663.737; 5582.570; 1089.052
509.784; 5317.113; 5220.757; 1133.776
510.371; 4456.381; 4366.182; 1165.501
510.958; 5421.149; 5338.453; 1251.735
511.545; 6257.614; 6150.146; 1350.248
512.132; 5321.792; 5223.521; 1525.945
512.719; 4750.995; 4663.104; 1834.933
513.305; 4893.705; 4822.911; 1965.349
513.892; 6162.104; 6074.784; 1963.265
514.479; 5424.963; 5352.118; 2046.446
515.066; 5946.823; 5865.174; 2252.803
515.652; 5393.548; 5316.741; 2567.247
516.239; 5773.535; 5688.453; 2636.919
516.825; 4536.911; 4440.519; 2482.304
517.412; 6662.225; 6569.657; 2427.031
517.998; 5197.143; 5124.672; 2540.463
518.585; 5137.048; 5041.720; 2609.007
519.171; 5442.214; 5357.517; 2842.088
519.758; 4620.536; 4527.980; 3090.703
520.344; 5886.613; 5801.957; 3176.076
520.930; 4728.011; 4660.865; 3295.037
521.516; 5656.928; 5568.661; 3500.959
522.103; 6209.114; 6109.140; 3736.704
522.689; 5150.284; 5046.509; 3971.022
523.275; 6024.274; 5921.020; 4213.778
523.861; 5221.677; 5141.817; 4190.361
524.447; 6006.255; 5895.449; 4070.602
525.033; 6060.222; 5969.365; 4088.892
525.619; 4927.966; 4824.573; 4416.851
526.205; 4590.352; 4522.824; 4836.835
526.791; 5177.731; 5080.638; 4885.903
527.377; 4977.744; 4886.777; 4544.907
527.963; 5441.264; 5357.608; 4321.995
528.549; 5555.952; 5471.029; 4473.979
529.135; 4883.450; 4799.785; 4788.663
529.721; 5367.986; 5289.275; 4888.577
530.306; 7242.652; 7149.079; 4775.779
530.892; 5123.970; 5035.210; 4793.906
531.478; 5010.026; 4910.001; 4956.948
532.063; 4795.035; 4698.426; 5136.936
532.649; 6597.563; 6475.575; 5336.867
533.235; 4826.212; 4710.380; 5748.092
533.820; 6122.251; 6033.095; 6456.875
534.406; 5223.266; 5133.546; 6590.167
534.991; 4864.687; 4744.730; 6179.622
535.576; 5263.029; 5152.528; 6098.691
536.162; 7310.569; 7175.622; 6441.234
536.747; 4585.829; 4500.724; 6816.224
537.333; 4875.720; 4772.972; 6889.752
537.918; 5279.828; 5181.318; 7154.280
538.503; 4967.919; 4867.438; 7150.848
539.088; 5565.024; 5444.059; 7253.308
539.673; 5102.326; 5018.697; 7625.180
540.259; 4930.010; 4832.009; 8226.793
540.844; 4357.822; 4250.265; 8745.092
541.429; 6446.105; 6360.395; 8762.553
542.014; 4530.008; 4420.172; 8871.497
542.599; 5526.937; 5417.014; 8886.008
543.184; 4656.469; 4561.306; 9079.139
543.769; 4931.094; 4844.123; 9076.182
544.354; 5115.704; 4998.507; 8354.081
544.938; 5524.912; 5396.553; 8236.809
545.523; 6434.962; 6326.764; 8222.179
546.108; 5328.589; 5217.730; 8114.082
546.693; 5264.732; 5178.206; 8535.912
547.278; 5275.770; 5181.683; 9238.322
547.862; 5275.177; 5151.523; 9034.405
548.447; 5940.964; 5833.480; 7795.011
549.031; 5108.372; 5019.655; 7485.099
549.616; 5490.122; 5383.887; 7626.308
550.201; 4968.702; 4859.369; 7627.909
550.785; 5748.914; 5618.947; 7859.125
551.370; 4645.779; 4519.063; 7990.654
551.954; 5912.539; 5785.114; 8196.468
552.538; 5801.259; 5663.715; 7959.495
553.123; 4973.297; 4862.699; 7964.826
553.707; 5155.918; 5038.385; 8515.957
554.291; 6194.124; 6054.031; 8724.024
554.876; 5874.559; 5747.388; 8524.211
555.460; 4993.850; 4892.509; 8704.456
556.044; 4957.035; 4828.855; 9141.473
556.628; 5329.101; 5202.608; 9250.197
557.212; 6065.506; 5944.873; 9444.237
557.796; 5182.458; 5082.906; 9379.783
558.380; 5583.199; 5466.216; 9353.658
558.964; 5457.388; 5321.742; 9210.310
559.548; 4589.212; 4477.608; 8475.153
560.132; 5126.529; 4982.252; 7954.084
560.716; 4720.717; 4593.302; 7489.529
561.300; 4662.927; 4507.485; 7211.952
561.884; 5739.435; 5581.377; 7141.313
562.467; 5691.893; 5549.185; 7155.386
563.051; 5326.708; 5185.900; 7323.158
563.635; 5238.798; 5099.010; 7709.114
564.219; 5288.964; 5166.236; 7678.855
564.802; 5727.383; 5563.201; 7376.187
565.386; 5435.356; 5259.096; 7054.372
565.969; 6213.533; 6057.083; 6589.196
566.553; 6790.981; 6654.257; 6279.371
567.136; 6116.710; 5988.439; 5967.930
567.720; 5448.395; 5255.929; 5660.703
568.303; 5646.079; 5455.691; 5648.615
568.887; 5497.882; 5286.245; 5618.443
569.470; 5634.189; 5440.454; 5411.875
570.053; 5857.401; 5667.810; 5149.274
570.637; 5003.689; 4787.553; 5122.798
571.220; 5937.410; 5681.210; 4957.369
571.803; 6901.711; 6635.300; 4933.018
572.386; 5317.723; 5055.450; 4840.973
572.969; 5316.504; 5062.691; 4592.886
573.552; 5475.785; 5157.522; 4348.387
574.135; 4989.313; 4658.188; 4002.290
574.718; 5201.725; 4835.171; 3654.773
575.301; 5210.803; 4821.937; 3502.288
575.884; 5219.880; 4808.703; 3349.803
576.467; 6385.794; 5951.329; 3191.403
577.050; 5941.818; 5439.763; 3062.418
577.633; 7046.048; 6480.844; 3214.200
578.216; 5715.441; 5073.692; 3284.889
578.799; 5752.155; 5071.508; 3189.777
579.381; 7486.297; 6697.000; 3064.502
579.964; 5668.218; 4809.335; 2888.357
580.547; 6305.348; 5371.672; 2905.760
581.129; 7159.651; 6197.255; 2966.849
581.712; 6654.562; 5529.845; 2887.292
582.294; 6540.979; 5301.864; 2771.631
582.877; 8090.404; 6756.813; 2711.602
583.459; 6750.337; 5236.528; 2577.049
584.042; 6816.210; 5150.640; 2454.707
584.624; 6535.857; 4768.103; 2305.893
585.206; 6108.812; 4114.883; 2189.546
585.789; 7151.635; 4948.339; 2112.577
586.371; 7824.546; 5531.035; 2153.065
586.953; 8097.227; 5740.188; 2197.806
587.536; 8721.042; 6109.292; 2105.489
588.118; 8029.506; 5140.732; 1963.911
588.700; 9477.802; 6115.244; 1843.179
589.282; 9392.027; 5567.221; 1813.834
589.864; 9637.963; 5353.828; 1777.620
590.446; 9037.075; 4281.861; 1733.780
591.028;10538.674; 5306.373; 1676.008
591.610; 9851.544; 4363.441; 1631.649
592.192;10921.014; 5368.327; 1632.362
592.774;10466.690; 4705.171; 1569.507
593.356;11106.609; 4906.636; 1524.539
593.937;11713.075; 4876.733; 1569.720
594.519;13153.349; 5891.684; 1569.049
595.101;12396.371; 4415.508; 1545.452
595.683;13777.698; 4950.863; 1607.568
596.264;15002.722; 5184.795; 1615.506
596.846;15473.031; 5034.453; 1667.622
597.427;16012.476; 4882.123; 1670.469
598.009;16927.000; 4818.189; 1640.312
598.591;18187.729; 5743.932; 1541.022
599.172;18047.443; 5070.064; 1598.665
599.753;18208.881; 4544.065; 1619.068
600.335;20314.582; 6136.621; 1548.612
600.916;20048.428; 5220.222; 1607.510
601.498;21264.465; 5512.527; 1745.181
602.079;22474.211; 5267.174; 1801.011
602.660;23772.680; 5161.532; 1834.640
603.241;23504.006; 4183.903; 1787.351
603.823;24559.629; 4952.837; 1684.266
604.404;24188.176; 4586.540; 1654.241
604.985;24544.463; 4963.834; 1758.741
605.566;26241.797; 5787.352; 1697.679
606.147;27292.197; 5119.091; 1526.728
606.728;28293.756; 4563.777; 1484.086
607.309;29990.545; 4904.498; 1421.070
607.890;30101.607; 4984.097; 1369.867
608.471;30499.438; 4801.079; 1277.826
609.051;31715.896; 5385.582; 1180.416
609.632;32472.408; 4723.337; 1075.816
610.213;34778.781; 5155.071; 1053.313
610.794;35824.254; 4975.971;  979.442
611.374;37286.656; 5465.109;  917.414
611.955;36973.539; 4470.179;  819.987
612.536;39850.027; 5384.845;  752.627
613.116;41056.730; 4959.033;  690.799
613.697;41020.066; 4885.601;  674.974
614.277;40952.766; 4738.818;  663.846
614.858;39956.234; 4877.575;  665.898
615.438;38921.383; 5227.542;  660.712
616.019;39554.617; 6137.323;  632.732
616.599;37902.941; 4113.567;  551.759
617.179;40495.824; 4594.608;  512.871
617.760;44380.723; 6911.514;  473.655
618.340;42366.113; 5155.940;  440.004
618.920;43975.840; 6328.034;  429.731
619.500;44185.180; 5015.039;  441.361
620.080;43620.156; 4725.700;  425.202
620.660;43920.723; 4711.282;  408.164
621.241;45124.289; 5022.023;  387.161
621.821;46912.086; 5282.726;  378.017
622.401;46846.109; 5863.925;  379.188
622.980;44378.332; 4482.932;  350.019
623.560;44724.754; 5026.484;  336.446
624.140;43093.270; 5298.343;  336.473
624.720;41007.758; 5462.688;  334.974
625.300;39805.594; 4728.110;  325.717
625.880;40659.832; 5147.411;  308.519
626.459;43457.176; 5201.913;  307.117
627.039;44993.258; 4350.832;  290.890
627.619;49435.438; 6638.576;  286.635
628.198;50192.156; 5951.995;  282.535
628.778;51302.059; 5586.238;  285.474
629.357;48428.738; 4542.902;  284.103
629.937;47807.473; 4978.398;  292.178
630.516;49779.594; 6239.056;  290.749
631.096;48669.996; 4804.599;  285.489
631.675;49628.867; 6131.162;  287.022
632.254;48309.484; 4798.861;  286.038
632.834;47075.246; 5153.383;  276.451
633.413;47184.434; 6110.794;  279.447
633.992;46368.520; 5855.117;  264.508
634.571;46051.980; 5609.308;  271.010
635.151;47416.887; 4691.204;  277.338
635.730;48422.199; 5087.243;  289.305
636.309;48130.867; 5521.918;  285.306
636.888;47429.547; 5605.305;  254.051
637.467;44122.926; 4264.982;  230.324
638.046;45376.797; 6252.648;  253.349
638.625;45002.992; 6001.558;  246.866
639.204;44812.910; 5370.055;  240.825
639.782;46239.891; 5208.692;  261.970
640.361;46443.359; 6048.680;  277.780
640.940;45336.223; 4878.755;  270.101
641.519;45029.988; 5450.881;  248.622
642.097;46059.855; 5568.007;  239.843
642.676;46447.121; 5261.282;  244.264
643.255;46333.488; 5050.108;  234.985
643.833;48505.855; 5615.533;  244.406
644.412;48846.422; 4987.809;  244.927
644.990;48725.285; 5280.984;  249.948
645.569;48626.754; 5544.160;  249.569
646.147;48707.820; 5836.085;  243.290
646.726;46711.086; 5366.811;  249.511
647.304;46263.551; 4997.137;  228.032
647.882;43736.316; 4258.813;  214.552
648.461;43730.285; 5371.288;  214.973
649.039;44593.449; 5608.514;  223.394
649.617;44367.316; 5628.339;  261.415
650.195;44253.582; 5371.365;  298.736
650.773;43687.648; 4960.740;  309.557
651.352;42363.113; 4143.216;  297.978
651.930;40704.879; 4130.991;  289.399
652.508;42514.645; 5723.267;  285.620
653.086;41729.512; 5507.692;  272.241
653.663;40461.180; 4796.918;  265.062
654.241;40098.246; 4490.293;  286.083
654.819;41473.512; 4615.369;  286.404
655.397;43496.477; 4690.295;  291.825
655.975;45139.844; 5048.920;  299.145
656.553;46658.711; 6218.846;  288.866
657.130;44842.574; 4657.571;  304.087
657.708;43802.441; 5433.847;  302.908
658.286;43247.906; 5296.923;  294.629
658.863;44100.172; 5324.798;  293.350
659.441;43895.738; 5389.874;  318.671
660.018;41903.105; 5097.750;  333.692
660.596;40616.773; 4200.725;  335.013
661.173;41200.840; 4901.000;  371.534
661.750;40869.504; 4702.626;  365.155
662.328;42390.969; 5587.202;  349.976
662.905;40821.836; 4940.777;  332.997
663.482;40070.703; 5083.353;  321.717
664.060;39825.070; 4771.229;  314.438
664.637;40752.934; 5588.704;  306.259
665.214;41576.199; 5335.729;  314.580
665.791;41415.168; 5032.305;  334.501
666.368;41181.434; 4959.781;  329.222
666.945;42846.301; 5684.906;  342.143
667.522;42603.266; 4717.682;  370.964
668.099;43110.332; 5091.607;  396.885
668.676;42321.598; 5118.883;  391.706
669.253;43017.363; 6240.458;  369.627
669.830;42300.031; 6020.684;  360.348
670.407;41947.895; 5106.160;  344.769
670.984;42553.461; 5086.335;  322.890
671.560;42483.629; 5574.311;  316.910
672.137;40855.293; 4961.736;  322.531
672.714;41819.961; 5467.362;  318.552
673.290;43105.527; 5373.288;  324.473
673.867;43433.793; 4833.513;  340.594
674.443;43667.258; 4531.489;  319.515
675.020;43442.824; 5309.114;  286.336
675.596;42063.992; 5018.040;  247.557
676.173;41997.359; 4451.815;  227.778
676.749;42104.023; 3922.141;  224.399
677.326;43265.789; 4368.667;  230.520
677.902;44810.957; 4774.042;  241.841
678.478;46561.523; 4461.667;  239.762
679.054;49897.289; 7564.293;  248.583
679.631;45804.453; 5430.918;  237.503
680.207;45774.219; 6464.444;  245.924
680.783;43722.785; 4093.020;  224.845
681.359;46549.551; 5083.095;  209.666
681.935;48211.719; 5235.421;  191.687
682.511;47360.285; 5215.347;  210.008
683.087;46078.852; 5486.172;  213.329
683.663;45156.816; 4989.798;  216.850
684.239;45243.281; 4471.173;  229.471
684.815;47613.848; 5717.749;  248.792
685.390;47934.914; 6583.324;  231.813
685.966;45279.680; 5212.300;  221.234
686.542;45905.047; 4601.525;  214.255
687.118;49182.016; 5305.601;  212.276
687.693;49988.379; 5532.626;  233.096
688.269;49380.246; 5006.652;  246.917
688.844;49696.914; 5451.178;  236.938
689.420;48147.180; 5201.003;  242.059
689.995;47695.344; 6343.929;  245.480
690.571;47361.309; 6073.555;  244.701
691.146;47479.375; 4956.180;  251.922
691.722;48848.941; 5407.605;  284.743
692.297;49373.109; 4926.881;  320.664
692.872;50289.477; 4713.607;  313.885
693.448;50637.641; 4582.982;  290.106
694.023;52940.406; 5245.058;  304.327
694.598;54210.773; 5270.083;  319.648
695.173;51762.340; 4924.559;  323.169
695.748;49212.305; 4215.834;  376.389
696.323;50308.871; 5105.660;  397.610
696.898;52205.137; 5950.936;  430.231
697.473;51184.703; 4299.711;  454.952
698.048;53978.570; 4971.887;  478.973
698.623;54371.637; 4452.513;  477.094
699.198;54444.402; 5220.988;  496.915
699.773;53974.070; 4741.614;  490.236
700.348;53905.234; 4612.189;  519.957
700.922;55608.500; 5259.115;  575.678
701.497;56322.766; 5148.090;  621.399
702.072;56616.633; 5743.716;  664.420
702.646;55495.898; 5594.742;  690.541
703.221;53594.566; 5313.967;  748.862
703.795;52000.531; 4632.393;  774.282
704.370;50247.297; 3778.718;  799.803
704.944;51674.863; 4895.394;  875.824
705.519;54277.930; 5308.319;  902.945
706.093;55245.098; 4681.495;  889.266
706.668;55632.461; 5455.021;  903.487
707.242;56376.828; 5654.146;  881.708
707.816;55754.195; 4947.872;  892.329
708.390;54889.359; 5124.697;  970.250
708.965;53852.125; 5301.323;  984.671
709.539;54066.391; 4990.148; 1026.092
710.113;54953.957; 5207.074; 1067.913
710.687;54742.023; 5640.149; 1166.434
711.261;53543.992; 4559.725; 1190.854
711.835;54536.355; 4612.951; 1197.275
712.409;56250.523; 4253.726; 1308.096
712.983;56297.188; 4290.602; 1461.617
713.557;56259.055; 4282.777; 1611.838
714.131;56182.422; 5013.153; 1554.359
714.704;55457.086; 4634.329; 1520.780
715.278;57420.254; 5144.154; 1575.101
715.852;58521.418; 5585.030; 1689.822
716.425;59285.887; 6407.255; 1829.143
716.999;56044.754; 4212.281; 2008.664
717.573;56555.219; 5429.156; 2000.485
718.146;57884.086; 6262.982; 1914.506
718.720;59403.051; 5259.257; 1818.026
719.293;61728.418; 5467.333; 1734.147
719.867;60838.484; 4764.059; 1716.968
720.440;62286.848; 6015.034; 1918.589
721.013;60867.414; 4811.760; 1975.410
721.587;59187.980; 4299.285; 2073.331
722.160;59262.848; 5726.411; 2357.852
722.733;57456.215; 5173.437; 2657.073
723.306;56112.680; 5141.112; 2703.894
723.880;55423.145; 5249.688; 2549.415
724.453;56825.711; 5992.313; 2414.336
725.026;55491.180; 4835.539; 2298.557
725.599;56640.645; 5329.164; 2168.778
726.172;55661.512; 5443.940; 2106.099
726.745;55479.477; 5378.465; 2253.320
727.318;56983.441; 5725.491; 2404.740
727.891;57857.309; 5322.967; 2680.161
728.463;58034.875; 5295.292; 2838.882
729.036;56211.840; 4689.868; 2755.103
729.609;55768.309; 4626.493; 2731.824
730.182;57098.973; 5631.519; 2855.645
730.754;56196.938; 3903.344; 2946.866
731.327;58535.406; 5446.720; 2840.187
731.900;57140.473; 4321.945; 2647.608
732.472;58534.238; 5046.071; 2473.929
733.045;60640.805; 4950.497; 2445.750
733.617;59630.570; 4246.672; 2511.771
734.190;60083.637; 5419.898; 2581.592
734.762;60005.902; 5102.974; 2710.813
735.334;59664.867; 5176.299; 3005.733
735.907;58499.934; 5168.075; 3154.954
736.479;59663.500; 5842.250; 3171.675
737.051;59232.867; 5445.776; 3217.496
737.623;60514.434; 5507.851; 3246.217
738.195;59435.598; 4769.227; 2985.238
738.768;57505.863; 4023.802; 2727.559
739.340;58604.332; 4860.628; 2666.880
739.912;58144.598; 5603.554; 2769.601
740.484;57410.164; 5436.879; 2731.422
741.056;57039.930; 4970.305; 2963.043
741.628;57007.094; 4624.780; 3361.364
742.199;57773.063; 5959.956; 3641.185
742.771;56654.727; 4440.481; 3932.005
743.343;57999.492; 4653.057; 4319.926
743.915;58750.262; 5345.033; 4706.647
744.487;60225.625; 5489.258; 4874.968
745.058;61729.793; 5553.984; 4616.589
745.630;61161.059; 5518.659; 4253.410
746.201;59350.926; 4827.835; 4056.131
746.773;59248.992; 5459.160; 3772.952
747.344;59642.656; 5104.136; 3642.473
747.916;59154.223; 5270.111; 3752.294
748.487;59536.188; 5635.887; 4106.215
749.059;58295.855; 4506.013; 4457.835
749.630;58490.020; 4721.138; 4366.457
750.201;59402.887; 5102.164; 4600.078
750.773;58532.453; 4777.889; 4658.499
751.344;58397.121; 5161.865; 4609.319
751.915;58579.387; 5092.241; 4526.440
752.486;59378.453; 4694.116; 4536.061
753.057;59756.520; 5222.992; 4383.282
753.628;59860.984; 4686.817; 4296.503
754.199;61945.852; 4885.593; 4383.224
754.770;62408.617; 5480.368; 4653.545
755.341;60291.684; 5749.894; 4831.666
755.912;57421.848; 4999.419; 4831.387
756.483;57199.414; 5448.545; 4735.808
757.054;55728.480; 4883.271; 4685.029
757.625;54714.648; 4503.046; 4994.250
758.195;56493.914; 4325.572; 5051.471
758.766;58329.980; 5270.748; 5317.792
759.337;56643.445; 4280.773; 5646.512
759.907;55822.012; 4342.999; 5404.133
760.478;56562.078; 4789.124; 5090.954
761.048;56784.344; 5493.399; 4871.175
761.619;55987.910; 5362.475; 4589.396
762.189;55487.477; 5069.951; 4171.317
762.760;54292.742; 5565.626; 3872.538
763.330;53663.609; 5503.752; 3832.259
763.900;53242.676; 5284.328; 4150.180
764.471;52768.840; 4638.003; 4529.801
765.041;53511.105; 5847.179; 4715.922
765.611;53146.672; 5437.304; 4681.442
766.181;53646.840; 5039.780; 4717.063
766.751;54485.605; 5119.005; 4710.285
767.321;53376.070; 4448.131; 4450.305
767.891;52608.438; 5204.557; 4274.126
768.461;51610.902; 5037.032; 4215.047
769.031;51969.469; 5077.508; 4173.068
769.601;53483.035; 5778.733; 4174.689
770.171;51638.801; 4328.109; 4229.310
770.741;51741.270; 4911.034; 4352.031
771.311;51858.832; 5448.910; 4336.652
771.880;50938.102; 4618.485; 4300.873
772.450;50568.566; 4677.311; 4387.194
773.020;50652.934; 4289.887; 4220.415
773.589;51357.297; 4754.562; 4075.835
774.159;51514.863; 4800.438; 4105.756
774.729;52074.129; 4720.813; 4114.978
775.298;52190.098; 4759.439; 3693.298
775.867;51455.961; 4757.714; 3343.119
776.437;51778.629; 5131.040; 3062.040
777.006;50679.895; 4302.866; 2927.161
777.576;51519.660; 5446.941; 3046.482
778.145;51316.328; 5370.917; 3230.203
778.714;49817.695; 5031.542; 3253.324
779.283;49513.961; 5439.118; 3129.745
779.853;50530.227; 5058.943; 2983.566
780.422;51289.191; 5060.219; 2929.887
780.991;52013.457; 5386.495; 2863.908
781.560;51709.125; 5965.070; 2948.029
782.129;50289.488; 5295.696; 3074.149
782.698;50340.355; 5900.921; 2893.970
783.267;48869.023; 4729.297; 2721.391
783.836;49667.789; 5276.172; 2659.712
784.404;48223.656; 4461.098; 2622.233
784.973;46887.020; 3851.023; 2600.754
785.542;47242.586; 5026.349; 2528.475
786.111;48792.852; 5830.775; 2404.396
786.679;48779.719; 5452.550; 2365.717
787.248;46145.184; 4330.676; 2498.438
787.817;45201.953; 4810.651; 2645.659
788.385;46379.016; 5724.877; 2709.280
788.954;45270.785; 4367.553; 2620.500
789.522;46205.852; 5565.378; 2625.422
790.090;44311.516; 4385.804; 2743.843
790.659;45607.883; 4865.079; 2635.163
791.227;46375.750; 4976.205; 2495.484
791.795;46880.414; 5255.430; 2413.705
792.364;45985.980; 4543.306; 2345.326
792.932;46803.145; 5377.682; 2350.447
793.500;45493.711; 4911.007; 2429.768
794.068;44359.879; 4323.183; 2513.589
794.636;44703.246; 4670.558; 2664.310
795.204;44820.211; 4202.534; 2721.431
795.772;44773.379; 4632.659; 2802.052
796.340;44654.941; 4759.435; 2847.173
796.908;43516.711; 4206.960; 2997.194
797.476;43582.574; 4502.336; 3151.615
798.044;43415.941; 4136.012; 3110.735
798.612;44400.309; 4980.737; 2931.656
799.180;44087.773; 5133.313; 2785.777
799.747;42523.238; 5083.138; 2899.098
800.315;40937.105; 4392.014; 2955.519
800.883;41702.672; 4061.490; 2948.940
801.450;42506.539; 5018.665; 2965.361
802.018;42799.805; 5292.940; 3070.582
802.585;42293.371; 5054.666; 3156.103
803.153;42259.535; 4664.492; 3199.524
803.720;42323.902; 4707.517; 3168.845
804.287;43283.668; 4887.243; 3248.366
804.855;45584.434; 5659.468; 3406.187
805.422;43755.703; 4918.644; 3430.907
805.989;42177.766; 4588.070; 3453.528
806.556;41312.133; 4591.795; 3612.649
807.124;42619.699; 5564.021; 3736.570
807.691;41703.066; 4479.996; 3770.491
808.258;42130.230; 5059.472; 3705.012
808.825;41771.199; 5589.797; 3828.733
809.392;41649.363; 5972.673; 3986.754
809.959;41466.832; 5256.549; 4410.075
810.526;42220.797; 6019.674; 4774.996
811.093;41554.762; 5721.400; 4754.217
811.659;40699.930; 5003.125; 4661.238
812.226;40721.793; 4971.901; 4672.559
812.793;41098.859; 5206.876; 4822.979
813.360;40644.328; 4989.102; 5189.800
813.926;41135.691; 5258.478; 5310.622
814.493;40663.859; 4367.403; 5414.542
815.060;39862.426; 4104.079; 5548.963
815.626;39706.293; 4424.154; 5452.284
816.193;40552.758; 5153.030; 5339.305
816.759;39387.324; 4596.655; 5544.426
817.325;38355.090; 4107.481; 5706.547
817.892;39243.156; 5512.756; 5623.468
818.458;39021.621; 5284.882; 5586.689
819.024;39853.789; 5746.008; 5647.910
819.591;39300.254; 5041.883; 5762.031
820.157;38730.520; 4388.759; 6284.452
820.723;39495.688; 5277.134; 6906.973
821.289;41440.652; 7644.560; 7086.894
821.855;39059.020; 5422.386; 7054.915
822.421;37804.484; 4781.211; 7112.035
822.987;37303.449; 4474.437; 7256.156
823.553;38030.617; 4880.512; 7538.077
824.119;37704.285; 5598.288; 7594.298
824.685;36866.551; 5809.763; 7613.619
825.251;36587.414; 5485.439; 7644.140
825.816;36908.281; 6152.064; 7720.261
826.382;35854.547; 5462.590; 8014.282
826.948;35989.414; 5587.666; 8281.503
827.513;34992.078; 4939.641; 8289.624
828.079;33785.547; 4576.167; 8587.045
828.645;34369.613; 5236.742; 8821.865
829.210;34308.578; 4476.118; 9054.486
829.776;34897.246; 5393.894; 9054.607
830.341;33894.410; 5571.819; 9415.628
830.906;34065.676; 5734.745; 9932.449
831.472;34050.645; 4652.970;10150.271
832.037;36069.207; 5600.096; 9420.391
832.602;35478.375; 4780.071; 8664.912
833.167;35091.941; 5128.247; 8491.933
833.733;34439.406; 5597.522; 8872.854
834.298;32468.273; 4517.298; 9370.575
834.863;32413.539; 5262.974; 9610.695
835.428;32120.307; 5239.899; 9655.616
835.993;31904.072; 5386.875; 9437.838
836.558;32354.639; 5484.250; 9441.459
837.123;34182.504; 6723.426; 9600.979
837.688;32919.969; 5300.852; 9798.301
838.253;32490.537; 5286.427; 9902.921
838.817;31776.102; 4945.703;10339.742
839.382;32249.668; 5909.928;10548.363
839.947;31208.436; 5175.404;10252.484
840.511;31373.201; 6070.330;10040.005
841.076;28402.768; 4079.655;10099.926
841.641;29014.834; 5452.181;10347.347
842.205;28673.398; 5323.656;10817.368
842.770;29227.266; 6296.932;11435.289
843.334;27947.531; 5019.107;12072.409
843.898;27710.998; 4823.783;12635.431
844.463;28706.764; 5928.008;12537.252
845.027;27877.629; 4890.584;12759.673
845.591;28085.596; 5662.259;12821.993
846.156;27365.861; 4826.035;12520.914
846.720;28028.928; 5556.960;12390.436
847.284;27417.994; 5252.386;12956.456
847.848;27361.660; 5441.262;13240.177
848.412;26468.326; 5169.087;13216.998
848.976;26157.193; 6061.613;13014.619
849.540;25619.059; 6527.588;12355.740
850.104;24749.324; 5991.064;12208.761
850.668;23427.092; 4184.590;12106.882
851.232;23637.156; 4307.315;11862.103
851.796;23835.223; 5074.941;11700.523
852.359;23996.990; 5627.167;12375.944
852.923;24437.955; 5804.642;13087.966
853.487;24225.322; 5520.167;13297.187
854.050;22098.988; 3571.143;13851.207
854.614;23062.354; 4908.619;14854.229
855.177;23565.020; 5336.494;15802.149
855.741;23467.586; 5383.170;16603.570
856.304;23265.053; 5697.095;16359.891
856.868;22016.719; 4635.771;14365.512
857.431;22364.084; 5137.597;13361.333
857.995;21647.352; 4962.522;14130.554
858.558;21355.018; 5337.897;14883.175
859.121;21560.184; 5622.773;15754.195
859.684;21251.049; 5279.549;15995.017
860.247;20968.016; 5129.674;15149.537
860.810;20705.582; 4926.800;14640.358
861.374;22044.146; 6596.625;15551.079
861.937;19564.914; 4535.751;16519.801
862.500;19645.080; 4851.626;16796.521
863.062;19090.945; 4611.952;16538.742
863.625;19779.912; 5352.228;16716.764
864.188;19427.078; 4892.903;17055.084
864.751;18879.645; 4850.029;17197.705
865.314;18991.311; 5205.104;17151.625
865.876;19383.176; 5766.130;17783.547
866.439;19128.242; 5567.105;19283.467
867.002;19832.209; 6460.231;20256.389
867.564;19026.275; 5861.807;20485.410
868.127;17754.141; 5149.032;20789.730
868.689;17874.807; 5392.908;21981.951
869.252;18188.373; 5834.233;23803.771
869.814;16765.738; 4718.109;24974.094
870.377;17191.906; 5351.635;24690.314
870.939;19037.672; 7392.760;23963.436
871.501;16726.238; 5303.736;25167.156
872.063;15029.804; 3896.411;26995.477
872.626;15377.670; 4223.787;27443.098
873.188;16329.036; 5324.163;26718.418
873.750;15999.902; 5080.338;26558.840
874.312;15606.668; 4895.864;26701.561
874.874;16671.635; 6199.339;27970.582
875.436;15927.101; 5680.564;29173.402
875.998;15967.866; 6024.940;30376.623
876.560;15395.833; 5691.266;32507.344
877.122;14197.299; 4768.292;34833.066
877.683;14806.365; 5575.017;36458.285
878.245;14013.031; 4897.792;37248.207
878.807;14297.497; 5480.068;36758.027
879.369;13192.363; 4507.444;35223.551
879.930;13325.529; 4623.719;33824.969
880.492;14526.296; 5949.395;34436.492
881.053;13159.361; 4672.570;37745.313
881.615;13124.228; 4868.146;41184.633
882.176;12735.894; 5057.021;42871.555
882.738;13064.560; 5618.397;41693.074
883.299;11395.126; 4152.623;40289.895
883.860;11396.893; 4284.748;39231.215
884.422;12636.858; 5557.724;38264.039
884.983;11533.725; 4626.299;37171.859
885.544;11813.291; 5340.225;35842.379
886.105;11266.156; 5211.150;34810.000
886.666;10746.223; 4913.826;34519.020
887.227;10064.789; 4302.852;33905.641
887.788;11056.555; 5344.127;34502.965
888.349; 9932.921; 4439.103;34241.785
888.910;10863.888; 5573.479;33722.203
889.471;10370.254; 5316.104;32539.625
890.032; 9998.720; 5162.779;31528.346
890.593;10194.186; 5543.855;32655.068
891.153; 9762.352; 5135.131;33882.289
891.714; 8791.318; 4414.606;33318.711
892.275; 8691.584; 4501.832;31848.930
892.835; 9728.050; 5723.458;30339.752
893.396; 9357.816; 5634.183;30074.973
893.956; 8553.883; 5032.409;30338.393
894.517; 8660.349; 5302.334;30864.113
895.077; 8577.915; 5403.359;29766.734
895.638; 9311.781; 6198.235;26379.557
896.198; 7547.047; 4584.511;24056.277
896.758; 8518.313; 5675.736;22961.898
897.319; 7809.379; 5074.512;21772.020
897.879; 7694.545; 5141.837;20877.539
898.439; 6818.611; 4307.613;19509.461
898.999; 7899.178; 5535.039;17297.582
899.559; 7733.144; 5431.164;14712.002
900.119; 6818.410; 4616.940;12790.224
900.679; 8278.076; 6113.965;11586.744
901.239; 7562.442; 5570.341;10776.465
901.799; 7138.008; 5233.517; 9691.687
902.359; 6524.674; 4687.342; 8725.907
902.919; 6413.340; 4621.167; 8305.728
903.479; 6450.106; 4659.443; 8172.649
904.038; 6155.772; 4449.169; 7913.870
904.598; 5517.139; 3875.344; 7262.291
905.158; 6429.605; 4863.920; 6609.012
905.717; 6629.971; 5072.996; 6236.133
906.277; 6641.937; 5162.421; 5829.054
906.836; 6832.903; 5462.646; 5396.674
907.396; 6737.270; 5392.572; 4964.195
907.955; 6774.235; 5429.648; 4528.917
908.515; 6218.001; 4933.723; 4223.837
909.074; 6277.068; 4988.649; 4023.958
909.633; 6253.234; 5010.174; 4065.379
910.192; 7467.100; 6207.950; 4066.300
910.752; 6190.900; 4959.600; 3971.600
911.311; 6053.200; 4865.850; 3839.600
911.870; 5837.600; 4688.450; 3684.500
912.429; 6959.000; 5783.650; 3635.600
912.988; 6805.700; 5661.550; 3689.800
913.547; 5727.900; 4605.900; 3737.700
914.106; 6311.400; 5258.100; 3740.300
914.665; 6306.600; 5208.000; 3604.600
915.224; 6778.300; 5768.550; 3358.700
915.782; 5903.900; 4839.550; 3188.400
916.341; 6978.700; 5962.050; 3091.400
916.900; 5966.200; 4909.900; 3044.800
917.458; 5669.100; 4651.400; 2888.600
918.017; 6202.200; 5178.650; 2818.900
918.576; 5960.200; 4931.300; 2838.600
919.134; 5348.700; 4303.950; 2880.100
919.693; 5914.900; 4873.500; 2996.300
920.251; 5800.500; 4780.050; 3183.100
920.809; 5544.900; 4494.900; 3247.000
921.368; 5820.000; 4778.200; 3156.600
921.926; 5630.000; 4589.350; 2964.900
922.484; 6127.100; 5097.850; 2846.300
923.042; 5951.000; 4926.600; 2890.400
923.601; 6965.700; 5921.450; 2987.700
924.159; 6455.600; 5421.100; 3049.800
924.717; 5596.400; 4566.750; 3087.000
925.275; 6193.600; 5131.200; 3093.400
925.833; 5160.400; 4094.750; 3182.400
926.391; 6456.700; 5383.850; 3397.900
926.949; 5861.200; 4799.250; 3575.400
927.506; 6248.100; 5168.150; 3713.400
928.064; 5954.000; 4871.550; 3871.300
928.622; 6066.400; 4950.850; 4092.800
929.180; 5517.400; 4394.550; 4499.300
929.737; 5413.700; 4262.150; 4813.200
930.295; 6499.600; 5342.700; 5084.100
930.853; 5782.900; 4611.400; 5185.000
931.410; 5507.300; 4362.650; 5313.100
931.968; 6650.200; 5435.750; 5339.600
932.525; 6274.800; 5058.050; 5399.900
933.082; 5514.100; 4274.850; 5457.500
933.640; 6471.200; 5255.400; 5692.900
934.197; 6072.400; 4870.600; 5821.200
934.754; 6144.900; 4870.050; 5617.900
935.312; 5846.900; 4606.400; 5512.400
935.869; 7161.400; 5887.300; 5582.400
936.426; 5913.400; 4637.950; 5650.100
936.983; 6094.300; 4807.450; 5657.400
937.540; 5636.600; 4325.550; 5564.300
938.097; 6550.500; 5211.850; 5574.000
938.654; 6059.200; 4733.500; 5665.900
939.211; 6541.500; 5207.750; 5931.600
939.768; 6272.000; 4927.300; 6153.600
940.324; 6150.000; 4788.500; 6397.600
940.881; 5943.900; 4588.100; 6454.200
941.438; 7132.400; 5707.300; 6206.900
941.995; 6860.800; 5495.300; 6003.900
942.551; 5744.100; 4355.850; 6228.300
943.108; 6265.000; 4900.450; 6603.500
943.664; 5789.500; 4401.000; 7188.100
944.221; 7606.900; 6214.550; 7579.900
944.777; 5711.600; 4352.050; 7658.100
945.334; 5808.300; 4460.300; 7670.400
945.890; 6307.100; 4974.650; 7525.100
946.446; 6373.700; 5010.250; 7261.500
947.003; 6497.500; 5163.700; 6949.200
947.559; 7292.000; 5954.200; 6773.100
948.115; 6961.700; 5645.200; 6668.400
948.671; 6498.800; 5137.900; 6488.400
949.227; 5516.100; 4193.750; 6236.600
949.783; 5447.300; 4117.050; 6008.900
950.339; 6566.600; 5242.800; 5934.100
950.895; 6866.400; 5574.850; 5933.500
951.451; 6082.200; 4741.800; 6074.700
952.007; 6653.000; 5352.750; 6066.400
952.563; 6086.100; 4791.800; 5884.100
953.118; 5913.700; 4613.750; 5733.800
953.674; 6199.900; 4922.500; 5734.300
954.230; 6212.700; 4959.300; 6039.700
954.785; 6167.100; 4916.850; 6383.500
955.341; 6658.500; 5416.850; 6568.200
955.897; 5365.000; 4133.300; 6488.600
956.452; 6415.900; 5157.200; 6239.200
957.008; 7601.900; 6357.800; 5954.600
957.563; 6920.300; 5679.400; 5816.700
958.118; 5798.700; 4559.100; 5828.200
958.674; 6345.000; 5078.700; 5717.400
959.229; 7018.300; 5788.900; 5506.800
959.784; 5517.000; 4272.350; 5292.200
960.339; 6970.900; 5738.950; 5101.900
960.894; 6645.600; 5417.000; 5093.200
961.449; 5736.400; 4517.750; 5227.900
962.004; 8719.900; 7532.950; 5349.300
962.559; 5787.900; 4597.600; 5514.900
963.114; 4787.800; 3622.400; 5717.300
963.669; 6208.600; 5023.250; 5841.400
964.224; 5924.100; 4740.150; 5805.900
964.779; 5554.600; 4358.550; 5723.400
965.334; 6987.400; 5790.050; 5779.500
965.888; 5849.800; 4670.950; 5948.500
966.443; 6707.900; 5528.700; 6344.200
966.998; 5344.100; 4132.900; 6666.300
967.552; 6116.700; 4962.650; 6710.100
968.107; 5780.000; 4647.700; 6593.500
968.661; 6306.700; 5145.450; 6344.100
969.216; 5713.700; 4608.150; 6062.400
969.770; 6244.800; 5152.800; 5785.500
970.324; 6284.700; 5182.700; 5426.800
970.879; 6521.600; 5463.500; 5016.800
971.433; 6601.900; 5521.200; 4904.500
971.987; 6122.400; 5071.450; 4991.000
972.541; 6327.200; 5259.650; 4978.500
973.095; 7067.800; 6011.200; 4832.000
973.649; 5364.700; 4331.800; 4767.900
974.203; 5511.300; 4502.500; 4881.200
974.757; 5741.400; 4730.300; 4969.500
975.311; 5937.100; 4921.050; 4953.000
975.865; 5997.600; 4997.600; 4884.300
976.419; 5804.100; 4821.850; 4739.800
976.973; 5706.700; 4742.950; 4698.100
977.526; 6603.100; 5635.700; 4631.100
978.080; 5297.000; 4325.400; 4621.600
978.634; 6298.800; 5383.250; 4650.200
979.187; 6222.400; 5267.150; 4669.200
979.741; 7176.800; 6253.100; 4658.000
980.294; 5266.000; 4361.800; 4579.100
980.848; 4665.900; 3796.150; 4452.800
981.401; 5563.700; 4698.600; 4271.900
981.955; 5877.700; 4978.100; 4087.800
982.508; 4990.500; 4129.250; 3973.900
983.061; 6446.800; 5614.150; 3928.600
983.615; 5372.000; 4550.500; 3851.200
984.168; 5176.600; 4374.550; 3734.800
984.721; 6107.100; 5297.850; 3628.300
985.274; 5990.600; 5179.000; 3564.300
985.827; 5734.200; 4956.350; 3558.100
986.380; 4791.800; 4019.650; 3559.900
986.933; 6012.500; 5235.600; 3688.700
987.486; 6033.100; 5250.250; 3778.500
988.039; 5923.600; 5211.400; 3559.900
988.591; 6303.400; 5577.650; 3219.300
989.144; 4983.900; 4254.600; 2902.900
989.697; 5244.600; 4526.200; 2722.600
990.250; 6083.200; 5416.950; 2618.000
990.802; 5224.400; 4538.700; 2523.900
991.355; 7177.000; 6484.450; 2436.500
991.907; 6242.650; 5581.450; 2412.200
992.460; 5308.300; 4678.450; 2387.900
993.012; 5315.600; 4678.000; 2365.800
993.565; 4977.200; 4384.000; 2311.100
994.117; 6996.200; 6381.400; 2308.700
994.669; 4989.500; 4400.700; 2249.300
995.221; 5824.000; 5229.250; 2158.100
995.774; 5705.200; 5121.500; 2085.600
996.326; 5352.800; 4758.800; 2068.100
996.878; 6231.200; 5677.700; 1975.300
997.430; 5049.500; 4524.900; 1929.500
997.982; 5540.700; 4971.100; 1861.900
998.534; 5445.800; 4937.900; 1830.200
999.086; 5427.000; 4910.300; 1823.200
999.638; 4795.200; 4255.000; 1815.000
1000.190; 5183.300; 4652.250; 1796.600
1000.741; 5536.200; 5014.250; 1738.800
1001.293; 5042.100; 4532.050; 1666.200
1001.845; 5062.100; 4533.200; 1566.500
1002.396; 5592.300; 5081.800; 1471.900
1002.948; 5512.000; 5048.700; 1398.000
1003.500; 5424.300; 4960.550; 1356.500
1004.051; 7074.200; 6624.850; 1294.200
1004.603; 6109.600; 5643.750; 1190.000
1005.154; 4564.500; 4166.050; 1063.900
1005.705; 5533.400; 5158.700;  968.300
1006.257; 5442.000; 5060.350;  889.800
1006.808; 5279.600; 4926.700;  801.500
1007.359; 5996.700; 5655.450;  716.400
1007.910; 4990.700; 4671.000;  639.100
1008.461; 5787.200; 5443.300;  561.600
1009.013; 4515.700; 4188.250;  500.400
1009.564; 6284.400; 5967.100;  476.100
1010.115; 4573.400; 4299.100;  431.600
1010.665; 4689.900; 4390.700;  409.300
1011.216; 5247.000; 4940.700;  399.700
1011.767; 5459.600; 5164.100;  388.100
1012.318; 5680.600; 5392.150;  381.400
1012.869; 5298.300; 4966.150;  375.400
1013.419; 4656.600; 4378.150;  357.600
1013.970; 5268.100; 4961.350;  358.300
1014.521; 4806.200; 4524.950;  344.100
1015.071; 5328.400; 5015.950;  322.800
1015.622; 4944.100; 4668.650;  320.600
1016.172; 4668.200; 4392.750;  301.700
1016.723; 4767.500; 4524.350;  289.800
1017.273; 4750.500; 4471.700;  287.600
1017.823; 5105.100; 4817.050;  278.700
1018.374; 4809.500; 4549.200;  274.400
1018.924; 5719.800; 5442.750;  283.200
1019.474; 5609.400; 5356.750;  278.500
1020.024; 5143.000; 4888.650;  274.700
1020.574; 5762.500; 5503.500;  272.700
1021.124; 5356.300; 5080.200;  278.400
1021.674; 4369.200; 4124.300;  269.200
1022.224; 5671.500; 5407.900;  267.800
1022.774; 5263.700; 5009.550;  258.100
1023.324; 6041.900; 5784.100;  260.000
1023.874; 7135.100; 6859.800;  260.700
1024.423; 4832.200; 4580.650;  252.700
1024.973; 4735.800; 4470.350;  234.700
1025.523; 4895.100; 4626.050;  226.500
1026.072; 4808.600; 4538.100;  225.500
1026.622; 5359.000; 5114.600;  210.100
1027.172; 5697.700; 5425.100;  213.000
1027.721; 4745.500; 4495.400;  207.700
1028.270; 5343.500; 5086.500;  205.400
1028.820; 5101.400; 4850.200;  201.000
1029.369; 4878.900; 4637.950;  201.000
1029.918; 5120.200; 4862.500;  198.400
1030.468; 4459.700; 4243.350;  199.200
1031.017; 5073.400; 4836.350;  192.600
1031.566; 4846.200; 4617.600;  197.400
1032.115; 5549.600; 5331.750;  188.300
1032.664; 4776.800; 4559.450;  193.700
1033.213; 5917.400; 5668.250;  191.900
1033.762; 5077.500; 4830.250;  184.500
1034.311; 5399.100; 5191.500;  194.300
1034.860; 5549.300; 5284.950;  192.300
1035.408; 5856.800; 5610.700;  182.600
1035.957; 5772.300; 5522.400;  173.900
1036.506; 4166.800; 3960.200;  185.200
1037.055; 6840.200; 6586.050;  182.500
1037.603; 5324.100; 5103.350;  167.600
1038.152; 4194.900; 3968.450;  168.200
1038.700; 4629.500; 4427.150;  169.600
1039.249; 5460.300; 5226.650;  164.300
1039.797; 5097.000; 4872.500;  169.600
1040.345; 5642.400; 5424.800;  167.100
1040.894; 5031.600; 4813.700;  164.400
1041.442; 5096.700; 4877.550;  158.300
1041.990; 4476.000; 4262.300;  160.000
1042.538; 4267.400; 4042.350;  156.800
1043.087; 4512.600; 4310.800;  146.600
1043.635; 5450.700; 5260.000;  162.400
1044.183; 4741.000; 4514.800;  156.300
1044.731; 4615.300; 4406.500;  158.100
1045.279; 5431.300; 5219.050;  154.500
1045.827; 7294.600; 7077.300;  146.200
1046.374; 4069.400; 3856.850;  154.000
1046.922; 4713.800; 4528.700;  149.000
1047.470; 5595.000; 5396.150;  154.900
1048.018; 5312.100; 5076.000;  148.400
1048.565; 5799.600; 5586.050;  146.300
1049.113; 4420.500; 4219.750;  156.100
1049.660; 5041.700; 4830.250;  154.300
1050.208; 5439.600; 5232.150;  149.400
1050.755; 4897.400; 4685.600;  157.500
1051.303; 5596.300; 5350.000;  157.700
1051.850; 5081.200; 4900.250;  152.800
1052.397; 3764.400; 3583.350;  146.300
1052.945; 4981.200; 4763.250;  149.500
1053.492; 6057.200; 5860.450;  149.300
1054.039; 5897.300; 5671.700;  163.100
1054.586; 4489.900; 4260.150;  150.400
1055.133; 5645.200; 5451.250;  153.500
1055.680; 5212.800; 5019.000;  155.600
1056.227; 4327.300; 4119.750;  148.700
1056.774; 6514.600; 6272.800;  151.500
1057.321; 4167.300; 3982.050;  143.700
1057.868; 5217.900; 5038.200;  145.300
1058.415; 5302.200; 5095.550;  153.500
1058.961; 5505.600; 5280.150;  149.900
1059.508; 5201.900; 4988.750;  147.300
1060.055; 4738.400; 4525.850;  151.000
1060.601; 5028.300; 4812.050;  148.700
1061.148; 5088.200; 4856.200;  153.800
1061.694; 4808.100; 4607.750;  150.500
1062.241; 4832.100; 4618.400;  149.100
1062.787; 5422.000; 5206.850;  153.000
1063.334; 6547.300; 6355.650;  153.200
1063.880; 5467.900; 5266.000;  148.400
1064.426; 5762.100; 5564.350;  149.200
1064.972; 4830.600; 4656.350;  156.400
1065.518; 4617.500; 4387.200;  144.700
1066.065; 5107.400; 4927.450;  139.400
1066.611; 4869.000; 4690.100;  139.300
1067.157; 5193.100; 5020.700;  138.400
1067.703; 5471.200; 5278.700;  142.700
1068.249; 4809.900; 4640.100;  136.700
1068.794; 5101.900; 4906.750;  139.400
1069.340; 4683.800; 4496.450;  142.700
1069.886; 4851.900; 4653.350;  135.600
1070.432; 4351.300; 4171.150;  133.400
1070.977; 4938.400; 4721.800;  138.200
1071.523; 4561.700; 4393.350;  132.400
1072.068; 4694.900; 4498.200;  132.700
1072.614; 4238.000; 4055.600;  127.000
1073.160; 5647.200; 5477.150;  131.300
1073.705; 4694.000; 4497.900;  135.700
1074.250; 4562.500; 4390.750;  133.000
1074.796; 5379.300; 5194.350;  138.000
1075.341; 5417.300; 5229.600;  137.300
1075.886; 4775.100; 4626.400;  134.300
1076.431; 5391.600; 5204.900;  138.200
1076.976; 5248.600; 5083.800;  132.200
1077.521; 4763.300; 4562.800;  138.900
1078.067; 4762.800; 4576.800;  128.600
1078.612; 5495.900; 5274.850;  138.900
1079.156; 4910.700; 4743.400;  128.900
1079.701; 5700.100; 5527.550;  129.700
1080.246; 5752.600; 5543.800;  128.600
1080.791; 5182.900; 4994.550;  122.600
1081.336; 5389.500; 5231.150;  122.000
1081.880; 5345.100; 5190.550;  123.900
1082.425; 4666.300; 4490.500;  120.600
1082.970; 5901.500; 5734.950;  124.500
1083.514; 4872.300; 4696.700;  112.000
1084.059; 4807.300; 4624.650;  120.700
1084.603; 4653.700; 4479.200;  116.000
1085.147; 5316.200; 5167.200;  116.300
1085.692; 5903.800; 5753.400;  108.200
1086.236; 4122.000; 3966.450;  114.600
1086.780; 6226.600; 6044.500;  118.900
1087.325; 5390.800; 5225.500;  120.400
1087.869; 5055.700; 4879.850;  110.500
1088.413; 5772.200; 5615.250;  114.000
1088.957; 4399.200; 4238.200;  114.300
1089.501; 6359.500; 6206.000;  114.600
1090.045; 6007.700; 5864.600;  114.200
1090.589; 4661.800; 4492.250;  105.500
1091.133; 5503.700; 5377.300;  111.800
1091.676; 4818.400; 4649.250;  110.900
1092.220; 4961.600; 4787.250;  110.100
1092.764; 5808.500; 5672.550;  108.100
1093.307; 5553.300; 5364.100;  109.900
1093.851; 4585.000; 4422.150;  107.500
1094.395; 5679.100; 5493.850;   96.200
1094.938; 5208.300; 5062.000;   99.300
1095.482; 4601.500; 4436.550;   97.700
1096.025; 5879.700; 5711.450;   84.900
1096.568; 6433.500; 6229.550;   88.500
1097.112; 4132.800; 3972.400;   95.700
1097.655; 4908.800; 4744.650;   97.300
1098.198; 4916.200; 4778.850;   92.600
1098.741; 5109.500; 4922.400;   91.800
1099.285; 5394.300; 5240.200;   88.000
1099.828; 3598.400; 3448.600;   91.700
1100.371; 5046.300; 4888.250;   89.900
1100.914; 5658.300; 5508.500;   91.500
1101.457; 5623.900; 5443.850;   88.100
1101.999; 4751.000; 4632.250;   86.400
1102.542; 5265.500; 5117.750;   90.800
1103.085; 5482.900; 5320.700;   95.400
1103.628; 6347.600; 6206.250;   97.700
1104.170; 4817.900; 4684.400;   84.000
1104.713; 5363.300; 5195.850;   93.900
1105.256; 4593.200; 4419.550;   93.000
1105.798; 4165.300; 3988.600;   85.600
1106.341; 6064.500; 5905.300;   87.100
1106.883; 4299.700; 4161.400;   85.200
1107.425; 5551.400; 5414.900;   85.000
1107.968; 5137.100; 4974.500;   84.300
1108.510; 5676.700; 5540.350;   88.200
1109.052; 5136.200; 4988.450;   86.600
1109.594; 4625.400; 4484.800;   79.400
1110.136; 5361.000; 5221.300;   81.700
1110.679; 5218.200; 5066.900;   75.500
1111.221; 5069.000; 4895.250;   88.500
1111.763; 4579.300; 4453.050;   87.700
1112.304; 4548.700; 4373.350;   89.700
1112.846; 5547.100; 5377.400;   81.900
1113.388; 7926.800; 7765.850;   86.400
1113.930; 5806.000; 5628.400;   84.700
1114.472; 5073.900; 4929.350;   78.900
1115.013; 4569.700; 4415.050;   78.100
1115.555; 4912.300; 4761.800;   84.900
1116.097; 4769.500; 4628.450;   79.200
1116.638; 5732.300; 5576.850;   83.700
1117.180; 5509.300; 5357.600;   85.500
1117.721; 4796.900; 4643.900;   78.800
1118.262; 5649.100; 5513.150;   77.400
1118.804; 5298.000; 5150.350;   81.400
1119.345; 4856.400; 4708.600;   77.800
1119.886; 5893.100; 5730.300;   81.200
1120.427; 4887.500; 4749.450;   77.200
1120.969; 5018.700; 4855.250;   75.200
1121.510; 4708.600; 4565.100;   80.900
1122.051; 6037.000; 5882.950;   77.300
1122.592; 5502.300; 5362.150;   73.300
1123.133; 4547.900; 4406.450;   90.100
1123.673; 5916.000; 5780.650;   75.000
1124.214; 5124.800; 4988.450;   80.600
1124.755; 5389.000; 5239.150;   78.000
1125.296; 5211.400; 5071.700;   77.500
1125.836; 5767.200; 5614.350;   80.400
1126.377; 5007.500; 4888.950;   75.600
1126.918; 5133.000; 4990.000;   78.900
1127.458; 5220.000; 5057.400;   78.000
1127.999; 5489.900; 5356.800;   76.100
1128.539; 5784.300; 5660.000;   81.400
1129.079; 5318.500; 5167.400;   77.400
1129.620; 4666.300; 4531.750;   68.000
1130.160; 4517.500; 4398.900;   77.500
1130.700; 5351.600; 5217.650;   76.300
1131.240; 5388.600; 5245.000;   66.800
1131.781; 5228.700; 5091.350;   70.600
1132.321; 5013.400; 4912.100;   77.200
1132.861; 4692.800; 4544.850;   70.400
1133.401; 5008.800; 4886.600;   68.700
1133.941; 5236.400; 5117.700;   68.500
1134.481; 5061.900; 4933.900;   75.900
1135.020; 5084.600; 4968.550;   66.600
1135.560; 5596.900; 5473.300;   68.100
1136.100; 4174.400; 4069.400;   64.900
1136.640; 4282.600; 4176.500;   72.500
1137.179; 4477.300; 4350.650;   69.700
1137.719; 5086.100; 4954.400;   68.400
1138.258; 4924.600; 4803.500;   67.000
1138.798; 5522.700; 5416.400;   69.600
1139.337; 4051.300; 3922.550;   64.000
1139.877; 5370.300; 5230.350;   64.500
1140.416; 7319.200; 7166.500;   74.900
1140.955; 4447.000; 4333.400;   67.200
1141.494; 5657.300; 5532.550;   69.900
1142.034; 4918.100; 4767.300;   59.100
1142.573; 5419.800; 5287.550;   65.900
1143.112; 4649.000; 4512.350;   70.600
1143.651; 4503.300; 4385.950;   67.100
1144.190; 5820.700; 5703.450;   56.700
1144.729; 5086.300; 4955.750;   61.800
1145.267; 4875.800; 4736.950;   62.500
1145.806; 5355.100; 5220.900;   68.500
1146.345; 5411.600; 5257.750;   58.300
1146.884; 5265.500; 5145.950;   63.100
1147.422; 4458.600; 4340.300;   54.800
1147.961; 5978.000; 5848.100;   67.600
1148.500; 5625.700; 5498.250;   64.700
1149.038; 5396.100; 5233.850;   61.000
1149.577; 5900.600; 5777.000;   65.100
1150.115; 3779.500; 3681.900;   58.100
1150.653; 5136.100; 5012.650;   60.500
1151.192; 4698.100; 4567.250;   56.600
1151.730; 5515.800; 5413.950;   62.300
1152.268; 4934.800; 4812.600;   55.500
1152.806; 4835.400; 4734.050;   58.200
1153.344; 4822.100; 4732.600;   55.000
1153.882; 5016.200; 4902.000;   64.200
1154.421; 3953.900; 3841.450;   60.300
1154.958; 5047.400; 4952.800;   58.100
1155.496; 5457.300; 5328.650;   55.800
1156.034; 6079.400; 5973.800;   61.000
1156.572; 5635.400; 5493.900;   56.200
1157.110; 3971.400; 3856.400;   53.200
1157.647; 5706.900; 5588.750;   57.400
1158.185; 4788.200; 4685.000;   55.500
1158.723; 4302.200; 4210.500;   58.000
1159.260; 5893.000; 5779.700;   53.700
1159.798; 5564.900; 5442.950;   51.700
1160.335; 5350.900; 5227.600;   59.600

