source
Integration time [ms]: 3468.598
Averaging Nr. [scans]: 10
Smoothing Nr. [pixels]: 0
Data measured with spectrometer [name]: 7414430SP
Wave   ;Sample   ;Dark     ;Reference
[nm]   ;[counts] ;[counts] ;[counts] 

288.544; 5212.221; 4983.385;    6.613
289.143; 4310.531; 4054.288;   14.216
289.742; 5567.528; 5296.867;   11.816
290.341; 5335.544; 5071.188;   -4.936
290.940; 4873.344; 4633.392;    0.852
291.538; 6118.447; 5870.872;    1.792
292.137; 5437.388; 5171.827;    6.262
292.736; 7030.444; 6773.389;    8.164
293.335; 5018.095; 4733.773;   -6.418
293.934; 5379.049; 5105.711;   -2.904
294.532; 7525.492; 7282.726;   -5.162
295.131; 5995.432; 5726.518;  -10.283
295.730; 5799.172; 5546.961;  -16.141
296.328; 5586.756; 5353.235;  -14.740
296.927; 5578.445; 5314.389;   -8.768
297.525; 5555.518; 5271.474;  -15.255
298.124; 4551.128; 4280.530;  -22.063
298.722; 5404.745; 5165.127;  -14.796
299.321; 4992.996; 4751.758;  -10.466
299.919; 5379.218; 5105.331;  -10.979
300.518; 4891.774; 4674.793;  -12.077
301.116; 4889.869; 4680.521;  -13.509
301.715; 5207.834; 4971.916;  -11.939
302.313; 5035.056; 4778.250;  -15.424
302.911; 5314.171; 5092.749;  -19.833
303.509; 6950.729; 6712.962;   -3.567
304.108; 5509.478; 5252.457;   -9.553
304.706; 5884.599; 5641.515;   -8.582
305.304; 5952.263; 5735.520;  -12.348
305.902; 5699.521; 5445.572;  -14.411
306.500; 5317.004; 5061.710;   -7.194
307.098; 5499.504; 5250.898;   -9.322
307.696; 5811.458; 5572.651;  -19.192
308.294; 5384.261; 5156.146;   -9.736
308.892; 5625.994; 5383.022;  -15.482
309.490; 5185.025; 4946.583;  -14.107
310.088; 5926.212; 5709.054;  -15.862
310.686; 6105.572; 5862.354;  -10.781
311.284; 5729.204; 5498.425;  -14.878
311.882; 5297.455; 5091.407;   -9.948
312.480; 5129.741; 4933.328;  -15.503
313.078; 6163.915; 5942.025;  -17.262
313.675; 5097.904; 4875.110;   -3.694
314.273; 6068.309; 5857.348;  -18.246
314.871; 4229.906; 4039.000;  -15.190
315.468; 4834.971; 4617.749;  -12.633
316.066; 5172.685; 4944.624;   -5.765
316.664; 4860.493; 4640.783;  -14.317
317.261; 7008.285; 6802.427;   -8.677
317.859; 5918.766; 5734.268;  -11.804
318.456; 6429.031; 6212.525;   -3.107
319.054; 6034.506; 5840.912;   -3.062
319.651; 5751.106; 5547.735;   -6.706
320.249; 6289.407; 6109.685;   -5.206
320.846; 5445.120; 5266.352;   -4.679
321.443; 6525.066; 6334.103;   -7.920
322.041; 6384.488; 6195.737;  -14.105
322.638; 5455.231; 5261.052;   -6.263
323.235; 5082.756; 4863.250;   -7.424
323.833; 5785.788; 5567.545;  -14.765
324.430; 4629.404; 4435.237;  -10.550
325.027; 6919.831; 6712.098;   -9.951
325.624; 4796.045; 4616.812;   -3.712
326.221; 5205.240; 4968.497;   -9.368
326.818; 6324.080; 6091.093;   -5.637
327.415; 5591.616; 5355.476;   -6.699
328.012; 5093.986; 4863.679;   -5.713
328.609; 5389.137; 5162.610;   -9.983
329.206; 5888.391; 5645.363;   -7.154
329.803; 5445.391; 5211.901;   -1.682
330.400; 5154.270; 4900.641;   -2.741
330.997; 6055.329; 5817.924;   -4.339
331.594; 5879.499; 5646.983;  -10.278
332.191; 5286.134; 4995.754;   -6.967
332.787; 6255.956; 5969.677;   -0.480
333.384; 5538.779; 5257.662;  -10.333
333.981; 6011.854; 5771.552;  -19.900
334.578; 5064.152; 4783.916;  -19.816
335.174; 5258.063; 4998.339;  -15.844
335.771; 6190.800; 5919.491;  -12.670
336.367; 5196.762; 4916.472;  -21.124
336.964; 5883.611; 5640.552;  -18.226
337.561; 5374.327; 5090.344;  -13.311
338.157; 6917.013; 6657.257;  -19.006
338.754; 5953.431; 5671.309;  -19.418
339.350; 5339.604; 5050.082;  -29.433
339.946; 5668.813; 5393.192;  -16.622
340.543; 6359.469; 6090.361;  -16.744
341.139; 5379.903; 5095.704;  -21.841
341.735; 5865.474; 5610.534;  -25.012
342.332; 5129.274; 4912.607;  -19.156
342.928; 6001.039; 5749.129;  -20.443
343.524; 5793.506; 5588.802;  -14.397
344.120; 5615.619; 5379.784;  -20.654
344.716; 5347.612; 5094.014;   -5.730
345.313; 6085.406; 5839.472;  -10.929
345.909; 4603.747; 4381.842;  -19.843
346.505; 5595.801; 5364.214;  -19.645
347.101; 6285.215; 6056.932;   -9.618
347.697; 5972.799; 5751.302;  -10.305
348.293; 4586.993; 4347.975;  -23.189
348.889; 5657.126; 5446.116;  -18.418
349.485; 5093.980; 4872.965;  -10.476
350.081; 5850.161; 5670.291;  -17.320
350.676; 5219.479; 5000.419;  -21.088
351.272; 6187.896; 5950.016;  -12.821
351.868; 5857.299; 5612.910;  -13.165
352.464; 5424.562; 5204.664;  -12.464
353.059; 4828.656; 4613.287;  -22.547
353.655; 5968.337; 5722.059;   -9.379
354.251; 5771.724; 5519.300;   -8.266
354.846; 5647.702; 5425.623;  -17.705
355.442; 5696.396; 5447.184;   -9.317
356.038; 5690.288; 5455.090;  -11.049
356.633; 5462.726; 5254.163;  -10.006
357.229; 5458.056; 5228.999;  -13.120
357.824; 5324.142; 5095.231;  -15.647
358.420; 5091.880; 4871.454;  -19.204
359.015; 5176.134; 4953.653;  -12.263
359.610; 5856.386; 5623.981;  -16.421
360.206; 4455.020; 4244.451;  -20.074
360.801; 4803.994; 4567.671;  -13.277
361.396; 5462.113; 5273.642;   -5.822
361.992; 5017.842; 4822.082;  -11.247
362.587; 5037.420; 4866.389;  -21.502
363.182; 5219.796; 5012.657;   -7.461
363.777; 5679.350; 5452.306;   -8.719
364.372; 5644.226; 5417.878;  -14.590
364.967; 5210.993; 4998.401;  -15.145
365.563; 6240.667; 6062.795;   -7.192
366.158; 5166.929; 4955.311;   -5.662
366.753; 4882.315; 4656.940;   -8.378
367.348; 5746.212; 5508.222;  -14.990
367.942; 5272.199; 5090.001;   -6.005
368.537; 5765.358; 5566.585;  -11.504
369.132; 5352.566; 5163.560;  -10.576
369.727; 4795.798; 4572.582;  -12.573
370.322; 4422.780; 4212.081;  -11.560
370.917; 5501.780; 5272.619;  -10.388
371.511; 6791.204; 6595.170;   -9.161
372.106; 6098.793; 5869.301;  -10.245
372.701; 4448.423; 4245.487;  -10.158
373.296; 6708.948; 6521.885;   -4.719
373.890; 4998.520; 4797.689;  -11.802
374.485; 5386.776; 5206.901;  -13.500
375.079; 5789.558; 5582.247;   -6.276
375.674; 6371.553; 6178.866;   -0.447
376.268; 5320.177; 5119.886;   -6.916
376.863; 4497.958; 4325.718;  -14.483
377.457; 5142.153; 4959.743;   -6.903
378.052; 6010.371; 5812.932;   -9.844
378.646; 5866.501; 5688.691;  -12.601
379.240; 5689.147; 5483.954;  -14.715
379.835; 4989.956; 4791.252;  -12.331
380.429; 4329.212; 4139.587;   -9.074
381.023; 6174.293; 6023.366;   -1.729
381.617; 5331.314; 5193.600;  -13.714
382.212; 5372.771; 5199.617;   -7.060
382.806; 6015.153; 5856.393;   -2.303
383.400; 5377.542; 5194.861;   -0.815
383.994; 5291.587; 5127.624;   -4.429
384.588; 5547.585; 5394.073;   -6.261
385.182; 5814.659; 5638.881;    0.008
385.776; 5691.147; 5545.624;   -3.247
386.370; 5418.923; 5300.699;   -1.030
386.964; 5471.426; 5324.055;   -1.346
387.558; 4730.664; 4587.712;   -2.020
388.152; 5483.499; 5338.543;   -5.345
388.745; 6632.023; 6478.322;   -2.774
389.339; 5942.829; 5769.749;    3.510
389.933; 5451.375; 5325.146;    5.280
390.527; 7033.310; 6889.151;    2.610
391.120; 4775.633; 4663.248;   -7.914
391.714; 5670.539; 5553.737;   -1.903
392.308; 6316.483; 6199.287;    6.023
392.901; 5190.542; 5082.758;   -4.103
393.495; 4843.761; 4713.759;    3.284
394.089; 6307.596; 6189.122;    8.655
394.682; 5719.366; 5610.813;    2.312
395.275; 5887.123; 5792.710;   -7.402
395.869; 5492.682; 5370.055;   -1.072
396.462; 5024.310; 4932.678;    6.454
397.056; 6317.207; 6202.715;    8.494
397.649; 6035.104; 5922.913;    1.599
398.242; 5869.037; 5768.239;    3.153
398.836; 6279.188; 6167.017;   11.395
399.429; 5089.085; 5014.096;   14.695
400.022; 5493.985; 5395.776;    3.627
400.615; 6692.788; 6618.121;    8.383
401.208; 5607.496; 5498.181;   13.295
401.802; 5774.788; 5681.382;    6.211
402.395; 5669.685; 5596.026;    7.227
402.988; 5724.379; 5664.872;    2.700
403.581; 5248.855; 5136.675;   11.225
404.174; 5553.110; 5480.048;   18.922
404.767; 5172.750; 5071.610;   14.169
405.360; 5128.893; 5064.078;    8.999
405.953; 6247.526; 6154.089;   13.138
406.545; 5991.451; 5915.479;   13.937
407.138; 5081.752; 4989.331;   10.869
407.731; 5036.771; 4971.279;   12.768
408.324; 5402.548; 5308.193;   22.921
408.917; 5627.159; 5555.781;   15.308
409.509; 6150.491; 6066.265;   12.239
410.102; 5358.544; 5291.206;   13.741
410.695; 5500.343; 5394.863;   20.249
411.287; 4937.750; 4872.253;   21.793
411.880; 4817.150; 4750.541;   22.965
412.472; 5034.518; 4994.453;   15.082
413.065; 5256.388; 5211.779;   23.423
413.657; 4748.743; 4700.924;   21.077
414.250; 5312.651; 5250.026;   12.349
414.842; 5574.404; 5521.505;   20.423
415.434; 4731.716; 4676.125;   19.906
416.027; 5320.222; 5250.987;   26.574
416.619; 5920.529; 5860.780;   15.705
417.211; 4930.183; 4856.906;   17.791
417.804; 5129.751; 5078.208;   30.244
418.396; 5013.337; 4972.632;   24.177
418.988; 5433.165; 5394.105;   24.904
419.580; 4670.356; 4639.345;   20.692
420.172; 4463.278; 4422.949;   22.275
420.764; 5464.638; 5436.114;   26.773
421.356; 5276.787; 5234.536;   25.731
421.948; 5545.473; 5520.057;   24.876
422.540; 5558.598; 5486.917;   30.042
423.132; 4917.860; 4874.056;   32.728
423.724; 4567.732; 4547.598;   21.317
424.316; 5111.889; 5074.269;   29.359
424.908; 4860.809; 4818.475;   28.798
425.500; 5345.952; 5270.527;   30.512
426.092; 5283.441; 5262.205;   26.741
426.683; 5715.443; 5674.779;   27.029
427.275; 5245.893; 5220.344;   32.611
427.867; 5416.863; 5381.797;   33.796
428.458; 6018.934; 5979.088;   34.453
429.050; 5588.384; 5560.808;   34.255
429.642; 6082.912; 6064.581;   39.082
430.233; 4535.509; 4497.833;   41.138
430.825; 6019.528; 5978.757;   31.581
431.416; 5708.682; 5693.486;   35.755
432.008; 5254.212; 5234.766;   40.566
432.599; 5284.301; 5254.004;   46.322
433.190; 5188.728; 5165.022;   46.897
433.782; 4579.844; 4558.587;   41.069
434.373; 7162.299; 7136.306;   48.778
434.964; 4815.404; 4799.398;   50.078
435.556; 5107.331; 5104.428;   52.381
436.147; 6139.872; 6134.034;   38.251
436.738; 5681.139; 5644.065;   47.237
437.329; 5820.756; 5767.012;   61.304
437.920; 5300.984; 5283.781;   48.611
438.511; 4507.298; 4484.836;   44.910
439.103; 4995.540; 4948.235;   62.404
439.694; 5459.678; 5438.619;   63.075
440.285; 5984.124; 5937.420;   61.033
440.876; 6880.718; 6875.643;   57.249
441.466; 4557.012; 4531.124;   61.306
442.057; 5275.432; 5215.991;   65.773
442.648; 6021.053; 5976.379;   65.676
443.239; 4937.774; 4920.651;   55.963
443.830; 5650.883; 5610.384;   69.631
444.421; 5158.375; 5137.718;   69.943
445.011; 5498.183; 5510.426;   72.791
445.602; 5925.442; 5907.933;   68.848
446.193; 3731.040; 3709.493;   80.044
446.783; 4926.583; 4895.904;   82.599
447.374; 5385.883; 5405.238;   77.419
447.964; 5692.037; 5641.364;   72.605
448.555; 6462.622; 6454.327;   82.041
449.145; 5171.610; 5148.146;   76.230
449.736; 6359.626; 6313.438;   75.545
450.326; 5590.429; 5572.809;   67.945
450.917; 5255.708; 5214.044;   77.598
451.507; 4651.278; 4629.224;   68.027
452.097; 5865.773; 5859.108;   67.771
452.688; 5755.335; 5714.359;   62.884
453.278; 4182.835; 4175.920;   65.512
453.868; 6289.946; 6226.240;   71.796
454.458; 5008.957; 4998.066;   60.956
455.048; 5525.243; 5505.911;   62.356
455.639; 4280.206; 4270.608;   58.782
456.229; 5468.919; 5442.075;   65.209
456.819; 5776.192; 5737.538;   61.466
457.409; 6007.176; 5988.460;   59.967
457.999; 5646.917; 5608.689;   58.093
458.589; 5159.738; 5144.935;   59.536
459.179; 5510.292; 5490.749;   55.994
459.769; 4736.735; 4700.417;   43.624
460.358; 6102.587; 6079.692;   46.978
460.948; 5200.009; 5199.387;   49.821
461.538; 4935.693; 4915.584;   54.678
462.128; 5013.620; 4979.425;   49.309
462.717; 5295.482; 5271.431;   52.774
463.307; 5329.204; 5279.012;   48.101
463.897; 4892.887; 4840.453;   45.606
464.486; 6446.003; 6435.799;   45.010
465.076; 5523.571; 5508.673;   45.519
465.666; 4758.088; 4710.358;   50.058
466.255; 5962.477; 5932.642;   44.463
466.845; 4876.190; 4845.475;   41.206
467.434; 5416.363; 5385.521;   44.847
468.023; 4757.236; 4736.857;   46.760
468.613; 5320.639; 5274.485;   39.736
469.202; 4701.926; 4667.222;   46.461
469.791; 5386.042; 5351.184;   47.944
470.381; 5395.907; 5350.895;   47.529
470.970; 5158.923; 5136.348;   43.773
471.559; 5407.299; 5390.396;   41.646
472.148; 4819.880; 4762.518;   37.914
472.738; 5547.069; 5495.057;   48.071
473.327; 4476.656; 4456.801;   47.871
473.916; 5326.626; 5287.146;   37.716
474.505; 5420.440; 5393.509;   40.256
475.094; 5948.921; 5865.358;   43.269
475.683; 5726.367; 5701.447;   36.499
476.272; 5172.886; 5158.572;   44.542
476.861; 4964.016; 4900.277;   42.297
477.449; 5091.378; 5016.748;   46.878
478.038; 4769.829; 4744.075;   35.156
478.627; 4973.386; 4943.110;   42.514
479.216; 5374.897; 5325.338;   43.937
479.805; 5424.303; 5371.653;   51.393
480.393; 7381.748; 7300.708;   53.239
480.982; 6286.253; 6238.065;   38.955
481.571; 6074.538; 6005.705;   45.436
482.159; 4677.257; 4618.991;   51.007
482.748; 5672.349; 5641.481;   49.695
483.336; 5939.043; 5872.924;   48.280
483.925; 5046.173; 4993.409;   47.166
484.513; 5004.828; 4970.040;   55.404
485.102; 5423.770; 5368.277;   54.238
485.690; 7094.630; 7009.038;   55.748
486.278; 6805.587; 6745.635;   55.934
486.867; 5282.484; 5215.002;   57.106
487.455; 6020.065; 5939.843;   56.979
488.043; 4684.819; 4629.218;   57.564
488.631; 6786.419; 6732.188;   57.432
489.220; 5945.979; 5888.118;   63.646
489.808; 4466.303; 4399.126;   65.449
490.396; 5890.014; 5816.073;   61.977
490.984; 5016.784; 4951.264;   68.834
491.572; 5885.347; 5823.526;   70.775
492.160; 5563.619; 5484.568;   67.564
492.748; 5147.141; 5103.664;   66.808
493.336; 5949.360; 5918.320;   79.747
493.924; 5143.533; 5054.267;   88.688
494.512; 5878.033; 5817.397;   84.120
495.100; 5761.576; 5691.016;   86.250
495.687; 6096.082; 6014.601;  103.074
496.275; 4931.390; 4878.941;  108.717
496.863; 5163.952; 5065.160;  107.035
497.451; 5095.514; 5034.038;  117.993
498.038; 5381.131; 5313.558;  120.116
498.626; 5154.044; 5086.890;  143.059
499.214; 5544.087; 5471.485;  153.434
499.801; 5396.716; 5322.221;  175.121
500.389; 4432.704; 4364.446;  185.617
500.976; 5636.409; 5544.377;  215.789
501.564; 5405.414; 5330.850;  240.321
502.151; 3933.154; 3852.220;  267.007
502.738; 5096.104; 5027.823;  317.961
503.326; 5180.934; 5129.429;  361.216
503.913; 5456.208; 5378.604;  401.433
504.500; 5617.041; 5530.499;  446.492
505.088; 4791.263; 4710.506;  512.063
505.675; 5211.744; 5123.102;  586.387
506.262; 5159.697; 5085.023;  671.021
506.849; 5311.387; 5209.396;  759.062
507.436; 6009.928; 5891.975;  849.788
508.023; 5275.317; 5196.791;  944.288
508.610; 5842.476; 5784.424; 1020.690
509.197; 5642.738; 5582.570; 1089.052
509.784; 5320.725; 5220.757; 1133.776
510.371; 4438.804; 4366.182; 1165.501
510.958; 5421.257; 5338.453; 1251.735
511.545; 6224.625; 6150.146; 1350.248
512.132; 5318.912; 5223.521; 1525.945
512.719; 4725.708; 4663.104; 1834.933
513.305; 4891.414; 4822.911; 1965.349
513.892; 6156.908; 6074.784; 1963.265
514.479; 5445.279; 5352.118; 2046.446
515.066; 5974.039; 5865.174; 2252.803
515.652; 5399.363; 5316.741; 2567.247
516.239; 5754.247; 5688.453; 2636.919
516.825; 4525.425; 4440.519; 2482.304
517.412; 6656.341; 6569.657; 2427.031
517.998; 5207.251; 5124.672; 2540.463
518.585; 5104.154; 5041.720; 2609.007
519.171; 5455.833; 5357.517; 2842.088
519.758; 4629.452; 4527.980; 3090.703
520.344; 5873.025; 5801.957; 3176.076
520.930; 4734.713; 4660.865; 3295.037
521.516; 5652.747; 5568.661; 3500.959
522.103; 6201.528; 6109.140; 3736.704
522.689; 5143.790; 5046.509; 3971.022
523.275; 6005.082; 5921.020; 4213.778
523.861; 5216.090; 5141.817; 4190.361
524.447; 6010.574; 5895.449; 4070.602
525.033; 6072.030; 5969.365; 4088.892
525.619; 4900.670; 4824.573; 4416.851
526.205; 4591.760; 4522.824; 4836.835
526.791; 5188.146; 5080.638; 4885.903
527.377; 4989.249; 4886.777; 4544.907
527.963; 5460.265; 5357.608; 4321.995
528.549; 5538.057; 5471.029; 4473.979
529.135; 4876.760; 4799.785; 4788.663
529.721; 5387.395; 5289.275; 4888.577
530.306; 7221.857; 7149.079; 4775.779
530.892; 5122.279; 5035.210; 4793.906
531.478; 5002.539; 4910.001; 4956.948
532.063; 4771.041; 4698.426; 5136.936
532.649; 6616.862; 6475.575; 5336.867
533.235; 4810.819; 4710.380; 5748.092
533.820; 6143.468; 6033.095; 6456.875
534.406; 5223.064; 5133.546; 6590.167
534.991; 4843.992; 4744.730; 6179.622
535.576; 5276.738; 5152.528; 6098.691
536.162; 7289.279; 7175.622; 6441.234
536.747; 4590.527; 4500.724; 6816.224
537.333; 4860.219; 4772.972; 6889.752
537.918; 5286.330; 5181.318; 7154.280
538.503; 4974.130; 4867.438; 7150.848
539.088; 5566.627; 5444.059; 7253.308
539.673; 5123.027; 5018.697; 7625.180
540.259; 4925.116; 4832.009; 8226.793
540.844; 4350.530; 4250.265; 8745.092
541.429; 6445.302; 6360.395; 8762.553
542.014; 4531.702; 4420.172; 8871.497
542.599; 5527.641; 5417.014; 8886.008
543.184; 4664.867; 4561.306; 9079.139
543.769; 4948.592; 4844.123; 9076.182
544.354; 5097.703; 4998.507; 8354.081
544.938; 5508.014; 5396.553; 8236.809
545.523; 6463.268; 6326.764; 8222.179
546.108; 5286.786; 5217.730; 8114.082
546.693; 5251.024; 5178.206; 8535.912
547.278; 5272.973; 5181.683; 9238.322
547.862; 5261.587; 5151.523; 9034.405
548.447; 5945.159; 5833.480; 7795.011
549.031; 5100.761; 5019.655; 7485.099
549.616; 5508.024; 5383.887; 7626.308
550.201; 4958.803; 4859.369; 7627.909
550.785; 5747.610; 5618.947; 7859.125
551.370; 4647.973; 4519.063; 7990.654
551.954; 5921.735; 5785.114; 8196.468
552.538; 5794.759; 5663.715; 7959.495
553.123; 4969.892; 4862.699; 7964.826
553.707; 5161.104; 5038.385; 8515.957
554.291; 6189.321; 6054.031; 8724.024
554.876; 5849.854; 5747.388; 8524.211
555.460; 4981.340; 4892.509; 8704.456
556.044; 4937.318; 4828.855; 9141.473
556.628; 5324.394; 5202.608; 9250.197
557.212; 6091.508; 5944.873; 9444.237
557.796; 5199.051; 5082.906; 9379.783
558.380; 5574.883; 5466.216; 9353.658
558.964; 5441.486; 5321.742; 9210.310
559.548; 4596.311; 4477.608; 8475.153
560.132; 5103.518; 4982.252; 7954.084
560.716; 4689.001; 4593.302; 7489.529
561.300; 4641.527; 4507.485; 7211.952
561.884; 5719.126; 5581.377; 7141.313
562.467; 5654.077; 5549.185; 7155.386
563.051; 5324.293; 5185.900; 7323.158
563.635; 5260.386; 5099.010; 7709.114
564.219; 5292.356; 5166.236; 7678.855
564.802; 5699.966; 5563.201; 7376.187
565.386; 5439.242; 5259.096; 7054.372
565.969; 6221.830; 6057.083; 6589.196
566.553; 6832.270; 6654.257; 6279.371
567.136; 6129.293; 5988.439; 5967.930
567.720; 5445.774; 5255.929; 5660.703
568.303; 5628.664; 5455.691; 5648.615
568.887; 5499.270; 5286.245; 5618.443
569.470; 5598.866; 5440.454; 5411.875
570.053; 5860.180; 5667.810; 5149.274
570.637; 5009.081; 4787.553; 5122.798
571.220; 5933.902; 5681.210; 4957.369
571.803; 6864.488; 6635.300; 4933.018
572.386; 5300.504; 5055.450; 4840.973
572.969; 5335.691; 5062.691; 4592.886
573.552; 5484.469; 5157.522; 4348.387
574.135; 4971.888; 4658.188; 4002.290
574.718; 5192.707; 4835.171; 3654.773
575.301; 5175.533; 4821.937; 3502.288
575.884; 5158.358; 4808.703; 3349.803
576.467; 6379.975; 5951.329; 3191.403
577.050; 5939.096; 5439.763; 3062.418
577.633; 6999.134; 6480.844; 3214.200
578.216; 5649.420; 5073.692; 3284.889
578.799; 5762.928; 5071.508; 3189.777
579.381; 7438.477; 6697.000; 3064.502
579.964; 5614.604; 4809.335; 2888.357
580.547; 6231.525; 5371.672; 2905.760
581.129; 7145.422; 6197.255; 2966.849
581.712; 6568.831; 5529.845; 2887.292
582.294; 6451.758; 5301.864; 2771.631
582.877; 8047.485; 6756.813; 2711.602
583.459; 6669.406; 5236.528; 2577.049
584.042; 6728.079; 5150.640; 2454.707
584.624; 6499.125; 4768.103; 2305.893
585.206; 6014.090; 4114.883; 2189.546
585.789; 7065.406; 4948.339; 2112.577
586.371; 7696.312; 5531.035; 2153.065
586.953; 8032.698; 5740.188; 2197.806
587.536; 8617.920; 6109.292; 2105.489
588.118; 7896.262; 5140.732; 1963.911
588.700; 9356.568; 6115.244; 1843.179
589.282; 9238.901; 5567.221; 1813.834
589.864; 9449.733; 5353.828; 1777.620
590.446; 8879.738; 4281.861; 1733.780
591.028;10324.938; 5306.373; 1676.008
591.610; 9603.715; 4363.441; 1631.649
592.192;10715.787; 5368.327; 1632.362
592.774;10286.558; 4705.171; 1569.507
593.356;10943.868; 4906.636; 1524.539
593.937;11500.347; 4876.733; 1569.720
594.519;12964.120; 5891.684; 1569.049
595.101;12180.433; 4415.508; 1545.452
595.683;13572.257; 4950.863; 1607.568
596.264;14835.393; 5184.795; 1615.506
596.846;15255.198; 5034.453; 1667.622
597.427;15711.732; 4882.123; 1670.469
598.009;16602.457; 4818.189; 1640.312
598.591;17841.295; 5743.932; 1541.022
599.172;17733.209; 5070.064; 1598.665
599.753;17921.938; 4544.065; 1619.068
600.335;19935.135; 6136.621; 1548.612
600.916;19673.688; 5220.222; 1607.510
601.498;20887.227; 5512.527; 1745.181
602.079;22075.668; 5267.174; 1801.011
602.660;23316.535; 5161.532; 1834.640
603.241;23203.371; 4183.903; 1787.351
603.823;24311.492; 4952.837; 1684.266
604.404;23932.629; 4586.540; 1654.241
604.985;24244.615; 4963.834; 1758.741
605.566;25748.863; 5787.352; 1697.679
606.147;26718.348; 5119.091; 1526.728
606.728;27744.705; 4563.777; 1484.086
607.309;29464.297; 4904.498; 1421.070
607.890;29622.867; 4984.097; 1369.867
608.471;29955.191; 4801.079; 1277.826
609.051;31126.840; 5385.582; 1180.416
609.632;31840.754; 4723.337; 1075.816
610.213;34406.734; 5155.071; 1053.313
610.794;35469.707; 4975.971;  979.442
611.374;36855.508; 5465.109;  917.414
611.955;36591.484; 4470.179;  819.987
612.536;39227.281; 5384.845;  752.627
613.116;40394.781; 4959.033;  690.799
613.697;40324.008; 4885.601;  674.974
614.277;40290.703; 4738.818;  663.846
614.858;39355.188; 4877.575;  665.898
615.438;38391.039; 5227.542;  660.712
616.019;39032.656; 6137.323;  632.732
616.599;37387.188; 4113.567;  551.759
617.179;39778.473; 4594.608;  512.871
617.760;43556.176; 6911.514;  473.655
618.340;41684.555; 5155.940;  440.004
618.920;43398.582; 6328.034;  429.731
619.500;43565.816; 5015.039;  441.361
620.080;43018.500; 4725.700;  425.202
620.660;43353.254; 4711.282;  408.164
621.241;44719.328; 5022.023;  387.161
621.821;46459.926; 5282.726;  378.017
622.401;46162.055; 5863.925;  379.188
622.980;43816.770; 4482.932;  350.019
623.560;44245.492; 5026.484;  336.446
624.140;42771.414; 5298.343;  336.473
624.720;40843.598; 5462.688;  334.974
625.300;39599.836; 4728.110;  325.717
625.880;40488.668; 5147.411;  308.519
626.459;43317.816; 5201.913;  307.117
627.039;44748.195; 4350.832;  290.890
627.619;48990.766; 6638.576;  286.635
628.198;49581.688; 5951.995;  282.535
628.778;50772.801; 5586.238;  285.474
629.357;48066.680; 4542.902;  284.103
629.937;47404.902; 4978.398;  292.178
630.516;49245.227; 6239.056;  290.749
631.096;48076.238; 4804.599;  285.489
631.675;48866.195; 6131.162;  287.022
632.254;47518.305; 4798.861;  286.038
632.834;46547.371; 5153.383;  276.451
633.413;46664.270; 6110.794;  279.447
633.992;45806.746; 5855.117;  264.508
634.571;45516.301; 5609.308;  271.010
635.151;46896.113; 4691.204;  277.338
635.730;47794.836; 5087.243;  289.305
636.309;47723.797; 5521.918;  285.306
636.888;47195.973; 5605.305;  254.051
637.467;43841.148; 4264.982;  230.324
638.046;45167.332; 6252.648;  253.349
638.625;44671.516; 6001.558;  246.866
639.204;44559.730; 5370.055;  240.825
639.782;46033.406; 5208.692;  261.970
640.361;46119.887; 6048.680;  277.780
640.940;44793.754; 4878.755;  270.101
641.519;44433.219; 5450.881;  248.622
642.097;45460.086; 5568.007;  239.843
642.676;46068.852; 5261.282;  244.264
643.255;46097.820; 5050.108;  234.985
643.833;48396.387; 5615.533;  244.406
644.412;48612.953; 4987.809;  244.927
644.990;48346.320; 5280.984;  249.948
645.569;48282.285; 5544.160;  249.569
646.147;48181.953; 5836.085;  243.290
646.726;46231.316; 5366.811;  249.511
647.304;45915.785; 4997.137;  228.032
647.882;43476.953; 4258.813;  214.552
648.461;43527.117; 5371.288;  214.973
649.039;44483.285; 5608.514;  223.394
649.617;44137.949; 5628.339;  261.415
650.195;44046.816; 5371.365;  298.736
650.773;43537.285; 4960.740;  309.557
651.352;42300.449; 4143.216;  297.978
651.930;40671.516; 4130.991;  289.399
652.508;42329.484; 5723.267;  285.620
653.086;41676.551; 5507.692;  272.241
653.663;40530.117; 4796.918;  265.062
654.241;39950.582; 4490.293;  286.083
654.819;41061.051; 4615.369;  286.404
655.397;43172.117; 4690.295;  291.825
655.975;44991.582; 5048.920;  299.145
656.553;46411.250; 6218.846;  288.866
657.130;44760.816; 4657.571;  304.087
657.708;43528.980; 5433.847;  302.908
658.286;43023.348; 5296.923;  294.629
658.863;43811.016; 5324.798;  293.350
659.441;43877.781; 5389.874;  318.671
660.018;42003.246; 5097.750;  333.692
660.596;40594.914; 4200.725;  335.013
661.173;41090.480; 4901.000;  371.534
661.750;40698.547; 4702.626;  365.155
662.328;42015.813; 5587.202;  349.976
662.905;40531.879; 4940.777;  332.997
663.482;39738.145; 5083.353;  321.717
664.060;39814.012; 4771.229;  314.438
664.637;40648.777; 5588.704;  306.259
665.214;41369.047; 5335.729;  314.580
665.791;41371.914; 5032.305;  334.501
666.368;41121.777; 4959.781;  329.222
666.945;42640.047; 5684.906;  342.143
667.522;42280.613; 4717.682;  370.964
668.099;42950.680; 5091.607;  396.885
668.676;42193.445; 5118.883;  391.706
669.253;42958.813; 6240.458;  369.627
669.830;42269.879; 6020.684;  360.348
670.407;42057.945; 5106.160;  344.769
670.984;42690.609; 5086.335;  322.890
671.560;42565.477; 5574.311;  316.910
672.137;41168.242; 4961.736;  322.531
672.714;42031.109; 5467.362;  318.552
673.290;43081.875; 5373.288;  324.473
673.867;43363.441; 4833.513;  340.594
674.443;43405.211; 4531.489;  319.515
675.020;43493.574; 5309.114;  286.336
675.596;42283.441; 5018.040;  247.557
676.173;42168.410; 4451.815;  227.778
676.749;42362.375; 3922.141;  224.399
677.326;43283.242; 4368.667;  230.520
677.902;44841.609; 4774.042;  241.841
678.478;46461.773; 4461.667;  239.762
679.054;49840.242; 7564.293;  248.583
679.631;45944.207; 5430.918;  237.503
680.207;45942.273; 6464.444;  245.924
680.783;43982.840; 4093.020;  224.845
681.359;46777.707; 5083.095;  209.666
681.935;48399.672; 5235.421;  191.687
682.511;47579.840; 5215.347;  210.008
683.087;46303.105; 5486.172;  213.329
683.663;45435.172; 4989.798;  216.850
684.239;45430.340; 4471.173;  229.471
684.815;47637.805; 5717.749;  248.792
685.390;47863.973; 6583.324;  231.813
685.966;45481.641; 5212.300;  221.234
686.542;46136.406; 4601.525;  214.255
687.118;49419.273; 5305.601;  212.276
687.693;50199.039; 5532.626;  233.096
688.269;49489.504; 5006.652;  246.917
688.844;49868.672; 5451.178;  236.938
689.420;48303.039; 5201.003;  242.059
689.995;48018.004; 6343.929;  245.480
690.571;47637.371; 6073.555;  244.701
691.146;47552.938; 4956.180;  251.922
691.722;48943.902; 5407.605;  284.743
692.297;49435.469; 4926.881;  320.664
692.872;50444.137; 4713.607;  313.885
693.448;50694.805; 4582.982;  290.106
694.023;52937.070; 5245.058;  304.327
694.598;54168.738; 5270.083;  319.648
695.173;51914.305; 4924.559;  323.169
695.748;49161.871; 4215.834;  376.389
696.323;50229.535; 5105.660;  397.610
696.898;52095.902; 5950.936;  430.231
697.473;51181.668; 4299.711;  454.952
698.048;54231.934; 4971.887;  478.973
698.623;54562.602; 4452.513;  477.094
699.198;54553.668; 5220.988;  496.915
699.773;53902.535; 4741.614;  490.236
700.348;53429.203; 4612.189;  519.957
700.922;55264.270; 5259.115;  575.678
701.497;55957.934; 5148.090;  621.399
702.072;56206.500; 5743.716;  664.420
702.646;55230.168; 5594.742;  690.541
703.221;53660.934; 5313.967;  748.862
703.795;51966.898; 4632.393;  774.282
704.370;50311.867; 3778.718;  799.803
704.944;51517.832; 4895.394;  875.824
705.519;54000.301; 5308.319;  902.945
706.093;55381.965; 4681.495;  889.266
706.668;56084.832; 5455.021;  903.487
707.242;56874.398; 5654.146;  881.708
707.816;56306.867; 4947.872;  892.329
708.390;55453.332; 5124.697;  970.250
708.965;54599.098; 5301.323;  984.671
709.539;54560.266; 4990.148; 1026.092
710.113;55025.031; 5207.074; 1067.913
710.687;54244.398; 5640.149; 1166.434
711.261;52636.863; 4559.725; 1190.854
711.835;54047.730; 4612.951; 1197.275
712.409;56119.898; 4253.726; 1308.096
712.983;56408.863; 4290.602; 1461.617
713.557;56319.629; 4282.777; 1611.838
714.131;56424.797; 5013.153; 1554.359
714.704;54887.664; 4634.329; 1520.780
715.278;56556.230; 5144.154; 1575.101
715.852;57536.098; 5585.030; 1689.822
716.425;58798.461; 6407.255; 1829.143
716.999;55567.527; 4212.281; 2008.664
717.573;55652.496; 5429.156; 2000.485
718.146;56961.563; 6262.982; 1914.506
718.720;58540.430; 5259.257; 1818.026
719.293;60691.496; 5467.333; 1734.147
719.867;60239.563; 4764.059; 1716.968
720.440;61702.727; 6015.034; 1918.589
721.013;60565.293; 4811.760; 1975.410
721.587;58870.262; 4299.285; 2073.331
722.160;59299.727; 5726.411; 2357.852
722.733;57730.195; 5173.437; 2657.073
723.306;56231.359; 5141.112; 2703.894
723.880;55426.227; 5249.688; 2549.415
724.453;56345.695; 5992.313; 2414.336
725.026;54736.059; 4835.539; 2298.557
725.599;55406.727; 5329.164; 2168.778
726.172;54994.594; 5443.940; 2106.099
726.745;54997.559; 5378.465; 2253.320
727.318;56259.027; 5725.491; 2404.740
727.891;57401.793; 5322.967; 2680.161
728.463;57689.258; 5295.292; 2838.882
729.036;55375.324; 4689.868; 2755.103
729.609;54932.793; 4626.493; 2731.824
730.182;56875.258; 5631.519; 2855.645
730.754;56577.125; 3903.344; 2946.866
731.327;58110.293; 5446.720; 2840.187
731.900;56607.758; 4321.945; 2647.608
732.472;58444.723; 5046.071; 2473.929
733.045;61017.992; 4950.497; 2445.750
733.617;59230.656; 4246.672; 2511.771
734.190;59551.723; 5419.898; 2581.592
734.762;59719.988; 5102.974; 2710.813
735.334;59934.855; 5176.299; 3005.733
735.907;59038.023; 5168.075; 3154.954
736.479;59682.391; 5842.250; 3171.675
737.051;58884.758; 5445.776; 3217.496
737.623;60201.121; 5507.851; 3246.217
738.195;59712.090; 4769.227; 2985.238
738.768;57920.656; 4023.802; 2727.559
739.340;59074.422; 4860.628; 2666.880
739.912;58878.387; 5603.554; 2769.601
740.484;57038.855; 5436.879; 2731.422
741.056;56459.922; 4970.305; 2963.043
741.628;56802.887; 4624.780; 3361.364
742.199;57705.953; 5959.956; 3641.185
742.771;57361.121; 4440.481; 3932.005
743.343;58708.688; 4653.057; 4319.926
743.915;59439.953; 5345.033; 4706.647
744.487;60370.520; 5489.258; 4874.968
745.058;60751.988; 5553.984; 4616.589
745.630;60107.453; 5518.659; 4253.410
746.201;59223.020; 4827.835; 4056.131
746.773;59353.086; 5459.160; 3772.952
747.344;59492.055; 5104.136; 3642.473
747.916;58819.219; 5270.111; 3752.294
748.487;58836.484; 5635.887; 4106.215
749.059;59024.152; 4506.013; 4457.835
749.630;59478.020; 4721.138; 4366.457
750.201;59878.184; 5102.164; 4600.078
750.773;58830.953; 4777.889; 4658.499
751.344;59165.316; 5161.865; 4609.319
751.915;58854.883; 5092.241; 4526.440
752.486;58523.652; 4694.116; 4536.061
753.057;59163.520; 5222.992; 4383.282
753.628;59403.184; 4686.817; 4296.503
754.199;60456.750; 4885.593; 4383.224
754.770;61154.117; 5480.368; 4653.545
755.341;59703.785; 5749.894; 4831.666
755.912;56585.148; 4999.419; 4831.387
756.483;56519.715; 5448.545; 4735.808
757.054;55255.684; 4883.271; 4685.029
757.625;54484.949; 4503.046; 4994.250
758.195;56078.715; 4325.572; 5051.471
758.766;57127.484; 5270.748; 5317.792
759.337;55504.250; 4280.773; 5646.512
759.907;55078.715; 4342.999; 5404.133
760.478;55731.480; 4789.124; 5090.954
761.048;55983.449; 5493.399; 4871.175
761.619;55473.914; 5362.475; 4589.396
762.189;56031.383; 5069.951; 4171.317
762.760;55316.047; 5565.626; 3872.538
763.330;54605.113; 5503.752; 3832.259
763.900;54008.379; 5284.328; 4150.180
764.471;53458.547; 4638.003; 4529.801
765.041;54475.914; 5847.179; 4715.922
765.611;53371.980; 5437.304; 4681.442
766.181;53587.445; 5039.780; 4717.063
766.751;54373.414; 5119.005; 4710.285
767.321;54446.281; 4448.131; 4450.305
767.891;53475.645; 5204.557; 4274.126
768.461;52005.613; 5037.032; 4215.047
769.031;52245.180; 5077.508; 4173.068
769.601;53358.047; 5778.733; 4174.689
770.171;52396.113; 4328.109; 4229.310
770.741;51964.879; 4911.034; 4352.031
771.311;52703.844; 5448.910; 4336.652
771.880;51636.113; 4618.485; 4300.873
772.450;51592.977; 4677.311; 4387.194
773.020;51678.945; 4289.887; 4220.415
773.589;51359.910; 4754.562; 4075.835
774.159;51691.879; 4800.438; 4105.756
774.729;51803.742; 4720.813; 4114.978
775.298;51827.809; 4759.439; 3693.298
775.867;51027.777; 4757.714; 3343.119
776.437;51817.945; 5131.040; 3062.040
777.006;50759.809; 4302.866; 2927.161
777.576;51673.477; 5446.941; 3046.482
778.145;51282.242; 5370.917; 3230.203
778.714;50116.309; 5031.542; 3253.324
779.283;50221.477; 5439.118; 3129.745
779.853;50388.242; 5058.943; 2983.566
780.422;51019.910; 5060.219; 2929.887
780.991;52054.074; 5386.495; 2863.908
781.560;52483.141; 5965.070; 2948.029
782.129;50409.008; 5295.696; 3074.149
782.698;50051.074; 5900.921; 2893.970
783.267;48584.840; 4729.297; 2721.391
783.836;48974.906; 5276.172; 2659.712
784.404;48304.676; 4461.098; 2622.233
784.973;47044.141; 3851.023; 2600.754
785.542;47687.508; 5026.349; 2528.475
786.111;48732.574; 5830.775; 2404.396
786.679;48792.840; 5452.550; 2365.717
787.248;45174.906; 4330.676; 2498.438
787.817;44110.574; 4810.651; 2645.659
788.385;45595.738; 5724.877; 2709.280
788.954;44613.805; 4367.553; 2620.500
789.522;45471.973; 5565.378; 2625.422
790.090;43642.641; 4385.804; 2743.843
790.659;45489.805; 4865.079; 2635.163
791.227;46656.172; 4976.205; 2495.484
791.795;47620.438; 5255.430; 2413.705
792.364;46280.605; 4543.306; 2345.326
792.932;46904.570; 5377.682; 2350.447
793.500;45538.539; 4911.007; 2429.768
794.068;44216.004; 4323.183; 2513.589
794.636;45195.973; 4670.558; 2664.310
795.204;45293.039; 4202.534; 2721.431
795.772;44681.703; 4632.659; 2802.052
796.340;43941.871; 4759.435; 2847.173
796.908;43333.535; 4206.960; 2997.194
797.476;43864.805; 4502.336; 3151.615
798.044;44119.270; 4136.012; 3110.735
798.612;45028.938; 4980.737; 2931.656
799.180;44489.504; 5133.313; 2785.777
799.747;43682.168; 5083.138; 2899.098
800.315;42491.938; 4392.014; 2955.519
800.883;42491.004; 4061.490; 2948.940
801.450;42984.570; 5018.665; 2965.361
802.018;43708.035; 5292.940; 3070.582
802.585;43301.703; 5054.666; 3156.103
803.153;42495.770; 4664.492; 3199.524
803.720;42994.133; 4707.517; 3168.845
804.287;44071.102; 4887.243; 3248.366
804.855;45303.469; 5659.468; 3406.187
805.422;44039.633; 4918.644; 3430.907
805.989;43242.301; 4588.070; 3453.528
806.556;43090.367; 4591.795; 3612.649
807.124;43385.734; 5564.021; 3736.570
807.691;41837.801; 4479.996; 3770.491
808.258;43036.168; 5059.472; 3705.012
808.825;42809.332; 5589.797; 3828.733
809.392;42427.500; 5972.673; 3986.754
809.959;42222.465; 5256.549; 4410.075
810.526;42203.531; 6019.674; 4774.996
811.093;41163.500; 5721.400; 4754.217
811.659;40341.566; 5003.125; 4661.238
812.226;40772.133; 4971.901; 4672.559
812.793;41117.199; 5206.876; 4822.979
813.360;41782.863; 4989.102; 5189.800
813.926;42335.332; 5258.478; 5310.622
814.493;41288.398; 4367.403; 5414.542
815.060;40479.965; 4104.079; 5548.963
815.626;40986.031; 4424.154; 5452.284
816.193;41271.098; 5153.030; 5339.305
816.759;39393.766; 4596.655; 5544.426
817.325;38210.832; 4107.481; 5706.547
817.892;39292.195; 5512.756; 5623.468
818.458;39044.664; 5284.882; 5586.689
819.024;38848.930; 5746.008; 5647.910
819.591;38584.098; 5041.883; 5762.031
820.157;38594.863; 4388.759; 6284.452
820.723;39119.730; 5277.134; 6906.973
821.289;41088.496; 7644.560; 7086.894
821.855;38439.164; 5422.386; 7054.915
822.421;37431.527; 4781.211; 7112.035
822.987;37374.996; 4474.437; 7256.156
823.553;37425.762; 4880.512; 7538.077
824.119;37764.430; 5598.288; 7594.298
824.685;37760.293; 5809.763; 7613.619
825.251;37073.762; 5485.439; 7644.140
825.816;37407.926; 6152.064; 7720.261
826.382;37073.195; 5462.590; 8014.282
826.948;37388.359; 5587.666; 8281.503
827.513;35821.227; 4939.641; 8289.624
828.079;35243.992; 4576.167; 8587.045
828.645;36021.559; 5236.742; 8821.865
829.210;35686.625; 4476.118; 9054.486
829.776;35581.793; 5393.894; 9054.607
830.341;34480.461; 5571.819; 9415.628
830.906;34196.625; 5734.745; 9932.449
831.472;33796.793; 4652.970;10150.271
832.037;35299.160; 5600.096; 9420.391
832.602;34171.824; 4780.071; 8664.912
833.167;33918.391; 5128.247; 8491.933
833.733;34036.359; 5597.522; 8872.854
834.298;32645.025; 4517.298; 9370.575
834.863;32507.492; 5262.974; 9610.695
835.428;31713.158; 5239.899; 9655.616
835.993;31982.424; 5386.875; 9437.838
836.558;32356.691; 5484.250; 9441.459
837.123;33752.457; 6723.426; 9600.979
837.688;33071.523; 5300.852; 9798.301
838.253;32359.590; 5286.427; 9902.921
838.817;31703.557; 4945.703;10339.742
839.382;32305.623; 5909.928;10548.363
839.947;31213.289; 5175.404;10252.484
840.511;31299.355; 6070.330;10040.005
841.076;28763.322; 4079.655;10099.926
841.641;29113.689; 5452.181;10347.347
842.205;28697.256; 5323.656;10817.368
842.770;29753.922; 6296.932;11435.289
843.334;28248.789; 5019.107;12072.409
843.898;28112.955; 4823.783;12635.431
844.463;29164.822; 5928.008;12537.252
845.027;27673.688; 4890.584;12759.673
845.591;27902.254; 5662.259;12821.993
846.156;27070.221; 4826.035;12520.914
846.720;27767.588; 5556.960;12390.436
847.284;27346.453; 5252.386;12956.456
847.848;27159.121; 5441.262;13240.177
848.412;26351.287; 5169.087;13216.998
848.976;26367.854; 6061.613;13014.619
849.540;26073.320; 6527.588;12355.740
850.104;25432.287; 5991.064;12208.761
850.668;23574.854; 4184.590;12106.882
851.232;23823.818; 4307.315;11862.103
851.796;23905.785; 5074.941;11700.523
852.359;24138.553; 5627.167;12375.944
852.923;24744.619; 5804.642;13087.966
853.487;24557.484; 5520.167;13297.187
854.050;22341.752; 3571.143;13851.207
854.614;23494.219; 4908.619;14854.229
855.177;23891.885; 5336.494;15802.149
855.741;23466.951; 5383.170;16603.570
856.304;23416.918; 5697.095;16359.891
856.868;22234.885; 4635.771;14365.512
857.431;22497.051; 5137.597;13361.333
857.995;21640.217; 4962.522;14130.554
858.558;21363.684; 5337.897;14883.175
859.121;21427.551; 5622.773;15754.195
859.684;20723.217; 5279.549;15995.017
860.247;20446.082; 5129.674;15149.537
860.810;20610.250; 4926.800;14640.358
861.374;22243.516; 6596.625;15551.079
861.937;19923.883; 4535.751;16519.801
862.500;19845.850; 4851.626;16796.521
863.062;19061.416; 4611.952;16538.742
863.625;19733.682; 5352.228;16716.764
864.188;19399.248; 4892.903;17055.084
864.751;18811.016; 4850.029;17197.705
865.314;18894.480; 5205.104;17151.625
865.876;19225.748; 5766.130;17783.547
866.439;19035.014; 5567.105;19283.467
867.002;19731.182; 6460.231;20256.389
867.564;18820.947; 5861.807;20485.410
868.127;17857.914; 5149.032;20789.730
868.689;17908.580; 5392.908;21981.951
869.252;18036.848; 5834.233;23803.771
869.814;16822.514; 4718.109;24974.094
870.377;17344.480; 5351.635;24690.314
870.939;19044.746; 7392.760;23963.436
871.501;16698.412; 5303.736;25167.156
872.063;15027.279; 3896.411;26995.477
872.626;15486.646; 4223.787;27443.098
873.188;16458.713; 5324.163;26718.418
873.750;15856.879; 5080.338;26558.840
874.312;15590.146; 4895.864;26701.561
874.874;16872.313; 6199.339;27970.582
875.436;16219.578; 5680.564;29173.402
875.998;16376.244; 6024.940;30376.623
876.560;15625.211; 5691.266;32507.344
877.122;14316.577; 4768.292;34833.066
877.683;14605.144; 5575.017;36458.285
878.245;13754.410; 4897.792;37248.207
878.807;14346.477; 5480.068;36758.027
879.369;13202.743; 4507.444;35223.551
879.930;13237.210; 4623.719;33824.969
880.492;14610.276; 5949.395;34436.492
881.053;13259.943; 4672.570;37745.313
881.615;13027.609; 4868.146;41184.633
882.176;12694.676; 5057.021;42871.555
882.738;13070.742; 5618.397;41693.074
883.299;11441.709; 4152.623;40289.895
883.860;11484.875; 4284.748;39231.215
884.422;12713.142; 5557.724;38264.039
884.983;11524.408; 4626.299;37171.859
885.544;11813.575; 5340.225;35842.379
886.105;11306.241; 5211.150;34810.000
886.666;10746.308; 4913.826;34519.020
887.227; 9991.574; 4302.852;33905.641
887.788;10922.641; 5344.127;34502.965
888.349; 9858.007; 4439.103;34241.785
888.910;10860.974; 5573.479;33722.203
889.471;10538.040; 5316.104;32539.625
890.032;10160.906; 5162.779;31528.346
890.593;10269.573; 5543.855;32655.068
891.153; 9774.439; 5135.131;33882.289
891.714; 8904.306; 4414.606;33318.711
892.275; 8739.473; 4501.832;31848.930
892.835; 9761.039; 5723.458;30339.752
893.396; 9444.806; 5634.183;30074.973
893.956; 8664.572; 5032.409;30338.393
894.517; 8695.938; 5302.334;30864.113
895.077; 8671.705; 5403.359;29766.734
895.638; 9338.172; 6198.235;26379.557
896.198; 7547.038; 4584.511;24056.277
896.758; 8535.204; 5675.736;22961.898
897.319; 7726.271; 5074.512;21772.020
897.879; 7653.438; 5141.837;20877.539
898.439; 6746.604; 4307.613;19509.461
898.999; 7938.970; 5535.039;17297.582
899.559; 7713.637; 5431.164;14712.002
900.119; 6767.403; 4616.940;12790.224
900.679; 8201.270; 6113.965;11586.744
901.239; 7541.736; 5570.341;10776.465
901.799; 7122.903; 5233.517; 9691.687
902.359; 6498.169; 4687.342; 8725.907
902.919; 6396.236; 4621.167; 8305.728
903.479; 6363.202; 4659.443; 8172.649
904.038; 6126.168; 4449.169; 7913.870
904.598; 5487.435; 3875.344; 7262.291
905.158; 6409.702; 4863.920; 6609.012
905.717; 6579.568; 5072.996; 6236.133
906.277; 6583.535; 5162.421; 5829.054
906.836; 6842.701; 5462.646; 5396.674
907.396; 6716.868; 5392.572; 4964.195
907.955; 6729.734; 5429.648; 4528.917
908.515; 6162.801; 4933.723; 4223.837
909.074; 6258.367; 4988.649; 4023.958
909.633; 6236.534; 5010.174; 4065.379
910.192; 7455.200; 6207.950; 4066.300
910.752; 6129.400; 4959.600; 3971.600
911.311; 6065.300; 4865.850; 3839.600
911.870; 5855.000; 4688.450; 3684.500
912.429; 6927.200; 5783.650; 3635.600
912.988; 6797.900; 5661.550; 3689.800
913.547; 5730.300; 4605.900; 3737.700
914.106; 6316.100; 5258.100; 3740.300
914.665; 6314.700; 5208.000; 3604.600
915.224; 6775.700; 5768.550; 3358.700
915.782; 5898.100; 4839.550; 3188.400
916.341; 6975.200; 5962.050; 3091.400
916.900; 5916.600; 4909.900; 3044.800
917.458; 5688.100; 4651.400; 2888.600
918.017; 6200.400; 5178.650; 2818.900
918.576; 5943.100; 4931.300; 2838.600
919.134; 5373.000; 4303.950; 2880.100
919.693; 5949.500; 4873.500; 2996.300
920.251; 5805.200; 4780.050; 3183.100
920.809; 5545.100; 4494.900; 3247.000
921.368; 5807.500; 4778.200; 3156.600
921.926; 5641.800; 4589.350; 2964.900
922.484; 6159.800; 5097.850; 2846.300
923.042; 5947.600; 4926.600; 2890.400
923.601; 6976.900; 5921.450; 2987.700
924.159; 6457.700; 5421.100; 3049.800
924.717; 5631.500; 4566.750; 3087.000
925.275; 6184.900; 5131.200; 3093.400
925.833; 5196.600; 4094.750; 3182.400
926.391; 6464.600; 5383.850; 3397.900
926.949; 5886.700; 4799.250; 3575.400
927.506; 6275.100; 5168.150; 3713.400
928.064; 5984.500; 4871.550; 3871.300
928.622; 6090.200; 4950.850; 4092.800
929.180; 5530.000; 4394.550; 4499.300
929.737; 5439.700; 4262.150; 4813.200
930.295; 6520.500; 5342.700; 5084.100
930.853; 5803.200; 4611.400; 5185.000
931.410; 5555.800; 4362.650; 5313.100
931.968; 6621.600; 5435.750; 5339.600
932.525; 6259.000; 5058.050; 5399.900
933.082; 5511.600; 4274.850; 5457.500
933.640; 6502.900; 5255.400; 5692.900
934.197; 6128.300; 4870.600; 5821.200
934.754; 6163.400; 4870.050; 5617.900
935.312; 5925.000; 4606.400; 5512.400
935.869; 7214.000; 5887.300; 5582.400
936.426; 5916.200; 4637.950; 5650.100
936.983; 6088.400; 4807.450; 5657.400
937.540; 5647.700; 4325.550; 5564.300
938.097; 6567.200; 5211.850; 5574.000
938.654; 6103.600; 4733.500; 5665.900
939.211; 6580.700; 5207.750; 5931.600
939.768; 6277.200; 4927.300; 6153.600
940.324; 6165.600; 4788.500; 6397.600
940.881; 5955.000; 4588.100; 6454.200
941.438; 7073.200; 5707.300; 6206.900
941.995; 6879.300; 5495.300; 6003.900
942.551; 5765.000; 4355.850; 6228.300
943.108; 6300.900; 4900.450; 6603.500
943.664; 5763.800; 4401.000; 7188.100
944.221; 7599.000; 6214.550; 7579.900
944.777; 5714.500; 4352.050; 7658.100
945.334; 5839.300; 4460.300; 7670.400
945.890; 6333.200; 4974.650; 7525.100
946.446; 6339.000; 5010.250; 7261.500
947.003; 6523.700; 5163.700; 6949.200
947.559; 7347.800; 5954.200; 6773.100
948.115; 6957.000; 5645.200; 6668.400
948.671; 6505.100; 5137.900; 6488.400
949.227; 5544.500; 4193.750; 6236.600
949.783; 5454.000; 4117.050; 6008.900
950.339; 6558.100; 5242.800; 5934.100
950.895; 6862.100; 5574.850; 5933.500
951.451; 6074.500; 4741.800; 6074.700
952.007; 6682.700; 5352.750; 6066.400
952.563; 6119.300; 4791.800; 5884.100
953.118; 5895.800; 4613.750; 5733.800
953.674; 6245.900; 4922.500; 5734.300
954.230; 6263.600; 4959.300; 6039.700
954.785; 6251.300; 4916.850; 6383.500
955.341; 6702.200; 5416.850; 6568.200
955.897; 5421.600; 4133.300; 6488.600
956.452; 6416.900; 5157.200; 6239.200
957.008; 7646.900; 6357.800; 5954.600
957.563; 6934.200; 5679.400; 5816.700
958.118; 5801.500; 4559.100; 5828.200
958.674; 6317.200; 5078.700; 5717.400
959.229; 7039.300; 5788.900; 5506.800
959.784; 5545.300; 4272.350; 5292.200
960.339; 6991.900; 5738.950; 5101.900
960.894; 6675.300; 5417.000; 5093.200
961.449; 5757.000; 4517.750; 5227.900
962.004; 8778.300; 7532.950; 5349.300
962.559; 5823.100; 4597.600; 5514.900
963.114; 4825.500; 3622.400; 5717.300
963.669; 6208.000; 5023.250; 5841.400
964.224; 5943.900; 4740.150; 5805.900
964.779; 5563.500; 4358.550; 5723.400
965.334; 6992.200; 5790.050; 5779.500
965.888; 5867.700; 4670.950; 5948.500
966.443; 6720.200; 5528.700; 6344.200
966.998; 5325.400; 4132.900; 6666.300
967.552; 6129.400; 4962.650; 6710.100
968.107; 5798.700; 4647.700; 6593.500
968.661; 6301.900; 5145.450; 6344.100
969.216; 5741.800; 4608.150; 6062.400
969.770; 6285.100; 5152.800; 5785.500
970.324; 6288.500; 5182.700; 5426.800
970.879; 6570.200; 5463.500; 5016.800
971.433; 6638.000; 5521.200; 4904.500
971.987; 6138.900; 5071.450; 4991.000
972.541; 6330.400; 5259.650; 4978.500
973.095; 7070.900; 6011.200; 4832.000
973.649; 5383.400; 4331.800; 4767.900
974.203; 5511.100; 4502.500; 4881.200
974.757; 5749.100; 4730.300; 4969.500
975.311; 5942.200; 4921.050; 4953.000
975.865; 5987.200; 4997.600; 4884.300
976.419; 5832.700; 4821.850; 4739.800
976.973; 5745.900; 4742.950; 4698.100
977.526; 6630.500; 5635.700; 4631.100
978.080; 5310.300; 4325.400; 4621.600
978.634; 6303.800; 5383.250; 4650.200
979.187; 6211.300; 5267.150; 4669.200
979.741; 7183.600; 6253.100; 4658.000
980.294; 5271.800; 4361.800; 4579.100
980.848; 4670.200; 3796.150; 4452.800
981.401; 5564.500; 4698.600; 4271.900
981.955; 5864.700; 4978.100; 4087.800
982.508; 4992.100; 4129.250; 3973.900
983.061; 6467.100; 5614.150; 3928.600
983.615; 5405.600; 4550.500; 3851.200
984.168; 5214.300; 4374.550; 3734.800
984.721; 6118.900; 5297.850; 3628.300
985.274; 5980.400; 5179.000; 3564.300
985.827; 5754.600; 4956.350; 3558.100
986.380; 4755.600; 4019.650; 3559.900
986.933; 5974.100; 5235.600; 3688.700
987.486; 5988.900; 5250.250; 3778.500
988.039; 5971.000; 5211.400; 3559.900
988.591; 6330.700; 5577.650; 3219.300
989.144; 4990.000; 4254.600; 2902.900
989.697; 5243.600; 4526.200; 2722.600
990.250; 6119.100; 5416.950; 2618.000
990.802; 5192.800; 4538.700; 2523.900
991.355; 7176.500; 6484.450; 2436.500
991.907; 6248.200; 5581.450; 2412.200
992.460; 5319.900; 4678.450; 2387.900
993.012; 5314.600; 4678.000; 2365.800
993.565; 5000.000; 4384.000; 2311.100
994.117; 7027.200; 6381.400; 2308.700
994.669; 4975.400; 4400.700; 2249.300
995.221; 5808.900; 5229.250; 2158.100
995.774; 5713.400; 5121.500; 2085.600
996.326; 5349.100; 4758.800; 2068.100
996.878; 6237.500; 5677.700; 1975.300
997.430; 5054.300; 4524.900; 1929.500
997.982; 5535.800; 4971.100; 1861.900
998.534; 5458.000; 4937.900; 1830.200
999.086; 5453.000; 4910.300; 1823.200
999.638; 4776.000; 4255.000; 1815.000
1000.190; 5181.300; 4652.250; 1796.600
1000.741; 5527.500; 5014.250; 1738.800
1001.293; 5054.400; 4532.050; 1666.200
1001.845; 5012.100; 4533.200; 1566.500
1002.396; 5585.500; 5081.800; 1471.900
1002.948; 5545.300; 5048.700; 1398.000
1003.500; 5437.200; 4960.550; 1356.500
1004.051; 7096.000; 6624.850; 1294.200
1004.603; 6115.600; 5643.750; 1190.000
1005.154; 4570.200; 4166.050; 1063.900
1005.705; 5533.100; 5158.700;  968.300
1006.257; 5443.200; 5060.350;  889.800
1006.808; 5271.700; 4926.700;  801.500
1007.359; 6033.200; 5655.450;  716.400
1007.910; 4996.900; 4671.000;  639.100
1008.461; 5772.000; 5443.300;  561.600
1009.013; 4536.300; 4188.250;  500.400
1009.564; 6275.400; 5967.100;  476.100
1010.115; 4585.000; 4299.100;  431.600
1010.665; 4678.000; 4390.700;  409.300
1011.216; 5244.600; 4940.700;  399.700
1011.767; 5468.700; 5164.100;  388.100
1012.318; 5688.400; 5392.150;  381.400
1012.869; 5253.200; 4966.150;  375.400
1013.419; 4680.900; 4378.150;  357.600
1013.970; 5258.900; 4961.350;  358.300
1014.521; 4824.700; 4524.950;  344.100
1015.071; 5304.800; 5015.950;  322.800
1015.622; 4977.600; 4668.650;  320.600
1016.172; 4649.800; 4392.750;  301.700
1016.723; 4788.400; 4524.350;  289.800
1017.273; 4747.500; 4471.700;  287.600
1017.823; 5093.400; 4817.050;  278.700
1018.374; 4796.500; 4549.200;  274.400
1018.924; 5696.600; 5442.750;  283.200
1019.474; 5636.400; 5356.750;  278.500
1020.024; 5166.800; 4888.650;  274.700
1020.574; 5761.800; 5503.500;  272.700
1021.124; 5355.200; 5080.200;  278.400
1021.674; 4371.800; 4124.300;  269.200
1022.224; 5663.700; 5407.900;  267.800
1022.774; 5236.200; 5009.550;  258.100
1023.324; 6035.900; 5784.100;  260.000
1023.874; 7119.200; 6859.800;  260.700
1024.423; 4818.300; 4580.650;  252.700
1024.973; 4744.900; 4470.350;  234.700
1025.523; 4876.100; 4626.050;  226.500
1026.072; 4811.600; 4538.100;  225.500
1026.622; 5363.000; 5114.600;  210.100
1027.172; 5709.800; 5425.100;  213.000
1027.721; 4750.000; 4495.400;  207.700
1028.270; 5340.600; 5086.500;  205.400
1028.820; 5122.900; 4850.200;  201.000
1029.369; 4884.400; 4637.950;  201.000
1029.918; 5132.100; 4862.500;  198.400
1030.468; 4464.400; 4243.350;  199.200
1031.017; 5069.800; 4836.350;  192.600
1031.566; 4851.500; 4617.600;  197.400
1032.115; 5534.800; 5331.750;  188.300
1032.664; 4818.100; 4559.450;  193.700
1033.213; 5886.700; 5668.250;  191.900
1033.762; 5087.500; 4830.250;  184.500
1034.311; 5438.400; 5191.500;  194.300
1034.860; 5515.900; 5284.950;  192.300
1035.408; 5848.800; 5610.700;  182.600
1035.957; 5741.600; 5522.400;  173.900
1036.506; 4157.800; 3960.200;  185.200
1037.055; 6838.700; 6586.050;  182.500
1037.603; 5336.200; 5103.350;  167.600
1038.152; 4213.000; 3968.450;  168.200
1038.700; 4655.200; 4427.150;  169.600
1039.249; 5457.800; 5226.650;  164.300
1039.797; 5090.300; 4872.500;  169.600
1040.345; 5671.500; 5424.800;  167.100
1040.894; 5024.400; 4813.700;  164.400
1041.442; 5084.100; 4877.550;  158.300
1041.990; 4478.400; 4262.300;  160.000
1042.538; 4242.800; 4042.350;  156.800
1043.087; 4502.700; 4310.800;  146.600
1043.635; 5467.100; 5260.000;  162.400
1044.183; 4744.500; 4514.800;  156.300
1044.731; 4602.200; 4406.500;  158.100
1045.279; 5456.300; 5219.050;  154.500
1045.827; 7327.800; 7077.300;  146.200
1046.374; 4079.200; 3856.850;  154.000
1046.922; 4707.500; 4528.700;  149.000
1047.470; 5610.200; 5396.150;  154.900
1048.018; 5278.500; 5076.000;  148.400
1048.565; 5778.600; 5586.050;  146.300
1049.113; 4432.000; 4219.750;  156.100
1049.660; 5028.500; 4830.250;  154.300
1050.208; 5430.700; 5232.150;  149.400
1050.755; 4895.800; 4685.600;  157.500
1051.303; 5577.100; 5350.000;  157.700
1051.850; 5097.200; 4900.250;  152.800
1052.397; 3786.800; 3583.350;  146.300
1052.945; 5003.100; 4763.250;  149.500
1053.492; 6058.900; 5860.450;  149.300
1054.039; 5870.600; 5671.700;  163.100
1054.586; 4493.700; 4260.150;  150.400
1055.133; 5615.900; 5451.250;  153.500
1055.680; 5230.400; 5019.000;  155.600
1056.227; 4330.000; 4119.750;  148.700
1056.774; 6464.600; 6272.800;  151.500
1057.321; 4187.500; 3982.050;  143.700
1057.868; 5264.200; 5038.200;  145.300
1058.415; 5301.100; 5095.550;  153.500
1058.961; 5499.100; 5280.150;  149.900
1059.508; 5175.900; 4988.750;  147.300
1060.055; 4734.200; 4525.850;  151.000
1060.601; 5005.800; 4812.050;  148.700
1061.148; 5084.900; 4856.200;  153.800
1061.694; 4836.500; 4607.750;  150.500
1062.241; 4827.200; 4618.400;  149.100
1062.787; 5424.900; 5206.850;  153.000
1063.334; 6557.900; 6355.650;  153.200
1063.880; 5500.200; 5266.000;  148.400
1064.426; 5754.900; 5564.350;  149.200
1064.972; 4853.500; 4656.350;  156.400
1065.518; 4596.800; 4387.200;  144.700
1066.065; 5102.500; 4927.450;  139.400
1066.611; 4884.700; 4690.100;  139.300
1067.157; 5220.500; 5020.700;  138.400
1067.703; 5483.100; 5278.700;  142.700
1068.249; 4839.000; 4640.100;  136.700
1068.794; 5096.400; 4906.750;  139.400
1069.340; 4675.800; 4496.450;  142.700
1069.886; 4836.300; 4653.350;  135.600
1070.432; 4363.400; 4171.150;  133.400
1070.977; 4924.900; 4721.800;  138.200
1071.523; 4570.400; 4393.350;  132.400
1072.068; 4672.600; 4498.200;  132.700
1072.614; 4239.200; 4055.600;  127.000
1073.160; 5671.500; 5477.150;  131.300
1073.705; 4688.800; 4497.900;  135.700
1074.250; 4550.300; 4390.750;  133.000
1074.796; 5386.100; 5194.350;  138.000
1075.341; 5407.500; 5229.600;  137.300
1075.886; 4816.100; 4626.400;  134.300
1076.431; 5382.700; 5204.900;  138.200
1076.976; 5263.700; 5083.800;  132.200
1077.521; 4749.700; 4562.800;  138.900
1078.067; 4744.300; 4576.800;  128.600
1078.612; 5467.100; 5274.850;  138.900
1079.156; 4921.000; 4743.400;  128.900
1079.701; 5694.700; 5527.550;  129.700
1080.246; 5731.200; 5543.800;  128.600
1080.791; 5162.200; 4994.550;  122.600
1081.336; 5405.200; 5231.150;  122.000
1081.880; 5331.200; 5190.550;  123.900
1082.425; 4679.500; 4490.500;  120.600
1082.970; 5914.000; 5734.950;  124.500
1083.514; 4884.600; 4696.700;  112.000
1084.059; 4802.100; 4624.650;  120.700
1084.603; 4648.400; 4479.200;  116.000
1085.147; 5325.600; 5167.200;  116.300
1085.692; 5959.500; 5753.400;  108.200
1086.236; 4134.200; 3966.450;  114.600
1086.780; 6229.700; 6044.500;  118.900
1087.325; 5395.200; 5225.500;  120.400
1087.869; 5044.900; 4879.850;  110.500
1088.413; 5801.700; 5615.250;  114.000
1088.957; 4415.300; 4238.200;  114.300
1089.501; 6362.300; 6206.000;  114.600
1090.045; 6021.900; 5864.600;  114.200
1090.589; 4650.700; 4492.250;  105.500
1091.133; 5529.400; 5377.300;  111.800
1091.676; 4803.700; 4649.250;  110.900
1092.220; 4961.000; 4787.250;  110.100
1092.764; 5827.500; 5672.550;  108.100
1093.307; 5543.800; 5364.100;  109.900
1093.851; 4594.700; 4422.150;  107.500
1094.395; 5654.000; 5493.850;   96.200
1094.938; 5228.100; 5062.000;   99.300
1095.482; 4593.700; 4436.550;   97.700
1096.025; 5869.500; 5711.450;   84.900
1096.568; 6376.500; 6229.550;   88.500
1097.112; 4126.100; 3972.400;   95.700
1097.655; 4890.700; 4744.650;   97.300
1098.198; 4927.500; 4778.850;   92.600
1098.741; 5099.000; 4922.400;   91.800
1099.285; 5392.000; 5240.200;   88.000
1099.828; 3592.000; 3448.600;   91.700
1100.371; 5028.100; 4888.250;   89.900
1100.914; 5659.800; 5508.500;   91.500
1101.457; 5593.300; 5443.850;   88.100
1101.999; 4777.700; 4632.250;   86.400
1102.542; 5294.500; 5117.750;   90.800
1103.085; 5447.600; 5320.700;   95.400
1103.628; 6363.300; 6206.250;   97.700
1104.170; 4816.000; 4684.400;   84.000
1104.713; 5344.600; 5195.850;   93.900
1105.256; 4585.200; 4419.550;   93.000
1105.798; 4141.200; 3988.600;   85.600
1106.341; 6034.400; 5905.300;   87.100
1106.883; 4306.400; 4161.400;   85.200
1107.425; 5581.300; 5414.900;   85.000
1107.968; 5125.800; 4974.500;   84.300
1108.510; 5674.700; 5540.350;   88.200
1109.052; 5148.100; 4988.450;   86.600
1109.594; 4636.900; 4484.800;   79.400
1110.136; 5325.500; 5221.300;   81.700
1110.679; 5204.000; 5066.900;   75.500
1111.221; 5057.000; 4895.250;   88.500
1111.763; 4583.000; 4453.050;   87.700
1112.304; 4527.000; 4373.350;   89.700
1112.846; 5551.500; 5377.400;   81.900
1113.388; 7903.400; 7765.850;   86.400
1113.930; 5770.100; 5628.400;   84.700
1114.472; 5059.200; 4929.350;   78.900
1115.013; 4558.000; 4415.050;   78.100
1115.555; 4902.100; 4761.800;   84.900
1116.097; 4774.600; 4628.450;   79.200
1116.638; 5726.900; 5576.850;   83.700
1117.180; 5500.200; 5357.600;   85.500
1117.721; 4799.700; 4643.900;   78.800
1118.262; 5673.300; 5513.150;   77.400
1118.804; 5293.100; 5150.350;   81.400
1119.345; 4867.400; 4708.600;   77.800
1119.886; 5844.900; 5730.300;   81.200
1120.427; 4890.000; 4749.450;   77.200
1120.969; 5011.700; 4855.250;   75.200
1121.510; 4713.000; 4565.100;   80.900
1122.051; 6045.500; 5882.950;   77.300
1122.592; 5493.800; 5362.150;   73.300
1123.133; 4535.400; 4406.450;   90.100
1123.673; 5914.200; 5780.650;   75.000
1124.214; 5106.300; 4988.450;   80.600
1124.755; 5372.000; 5239.150;   78.000
1125.296; 5210.900; 5071.700;   77.500
1125.836; 5773.600; 5614.350;   80.400
1126.377; 5028.400; 4888.950;   75.600
1126.918; 5131.700; 4990.000;   78.900
1127.458; 5229.900; 5057.400;   78.000
1127.999; 5487.900; 5356.800;   76.100
1128.539; 5810.000; 5660.000;   81.400
1129.079; 5343.600; 5167.400;   77.400
1129.620; 4663.800; 4531.750;   68.000
1130.160; 4524.300; 4398.900;   77.500
1130.700; 5356.200; 5217.650;   76.300
1131.240; 5391.600; 5245.000;   66.800
1131.781; 5206.500; 5091.350;   70.600
1132.321; 5064.200; 4912.100;   77.200
1132.861; 4682.200; 4544.850;   70.400
1133.401; 5000.000; 4886.600;   68.700
1133.941; 5254.400; 5117.700;   68.500
1134.481; 5062.400; 4933.900;   75.900
1135.020; 5090.500; 4968.550;   66.600
1135.560; 5607.600; 5473.300;   68.100
1136.100; 4171.200; 4069.400;   64.900
1136.640; 4303.100; 4176.500;   72.500
1137.179; 4463.000; 4350.650;   69.700
1137.719; 5096.000; 4954.400;   68.400
1138.258; 4920.300; 4803.500;   67.000
1138.798; 5545.900; 5416.400;   69.600
1139.337; 4038.400; 3922.550;   64.000
1139.877; 5375.800; 5230.350;   64.500
1140.416; 7283.200; 7166.500;   74.900
1140.955; 4422.600; 4333.400;   67.200
1141.494; 5649.000; 5532.550;   69.900
1142.034; 4906.600; 4767.300;   59.100
1142.573; 5437.100; 5287.550;   65.900
1143.112; 4657.900; 4512.350;   70.600
1143.651; 4504.900; 4385.950;   67.100
1144.190; 5816.900; 5703.450;   56.700
1144.729; 5096.900; 4955.750;   61.800
1145.267; 4887.000; 4736.950;   62.500
1145.806; 5350.900; 5220.900;   68.500
1146.345; 5398.100; 5257.750;   58.300
1146.884; 5280.200; 5145.950;   63.100
1147.422; 4464.700; 4340.300;   54.800
1147.961; 5977.300; 5848.100;   67.600
1148.500; 5617.700; 5498.250;   64.700
1149.038; 5403.500; 5233.850;   61.000
1149.577; 5909.300; 5777.000;   65.100
1150.115; 3785.300; 3681.900;   58.100
1150.653; 5139.600; 5012.650;   60.500
1151.192; 4701.300; 4567.250;   56.600
1151.730; 5533.000; 5413.950;   62.300
1152.268; 4925.600; 4812.600;   55.500
1152.806; 4835.700; 4734.050;   58.200
1153.344; 4841.700; 4732.600;   55.000
1153.882; 5024.700; 4902.000;   64.200
1154.421; 3961.800; 3841.450;   60.300
1154.958; 5045.400; 4952.800;   58.100
1155.496; 5442.000; 5328.650;   55.800
1156.034; 6084.700; 5973.800;   61.000
1156.572; 5617.500; 5493.900;   56.200
1157.110; 3963.200; 3856.400;   53.200
1157.647; 5720.500; 5588.750;   57.400
1158.185; 4788.500; 4685.000;   55.500
1158.723; 4276.300; 4210.500;   58.000
1159.260; 5881.900; 5779.700;   53.700
1159.798; 5571.300; 5442.950;   51.700
1160.335; 5336.400; 5227.600;   59.600

