
Integration time [ms]:   3.276
Averaging Nr. [scans]: 1000
Smoothing Nr. [pixels]: 0
Data measured with spectrometer [name]: 7414430SP
Wave   ;Sample   ;Dark     ;Reference
[nm]   ;[counts] ;[counts] ;[counts] 

288.544;  151.845;    7.793;  793.890
289.143;  154.612;    7.462;  681.602
289.742;  155.697;    8.602;  828.814
290.341;  141.218;    1.321;  789.841
290.940;  129.882;   -0.709;  730.702
291.538;  130.197;    0.881;  881.108
292.137;  131.052;    0.122;  792.581
292.736;  135.364;   -1.929;  975.101
293.335;  131.905;   -8.229;  735.086
293.934;  132.149;   -5.279;  781.677
294.532;  130.718;   -1.369; 1031.958
295.131;  116.485;   -7.641;  834.394
295.730;  115.714;   -8.420;  809.588
296.328;  114.760;   -5.611;  783.442
296.927;  115.680;   -5.781;  779.652
297.525;  116.791;   -6.361;  781.236
298.124;  107.747;  -11.382;  654.009
298.722;  111.024;   -7.641;  761.933
299.321;  109.161;   -6.811;  708.597
299.919;  107.051;   -6.991;  751.918
300.518;  104.171;  -10.362;  689.338
301.116;  105.867;   -9.581;  691.381
301.715;  105.273;   -4.891;  730.222
302.313;  104.670;   -8.801;  704.943
302.911;   99.370;   -8.522;  733.830
303.509;  105.130;   -6.171;  925.627
304.108;  103.160;   -7.311;  760.383
304.706;  102.340;   -8.321;  801.664
305.304;   97.146;  -10.222;  796.707
305.902;  101.680;   -6.021;  784.484
306.500;   97.958;   -4.971;  728.200
307.098;   96.403;   -7.061;  746.560
307.696;   95.229;   -8.801;  780.432
308.294;   94.039;   -6.411;  731.359
308.892;   97.245;   -2.901;  759.769
309.490;   93.659;   -5.041;  712.161
310.088;   90.978;   -5.002;  788.444
310.686;   95.787;   -2.041;  821.749
311.284;   90.968;   -2.351;  766.040
311.882;   89.903;   -4.422;  731.225
312.480;   86.348;   -4.192;  697.167
313.078;   86.433;   -1.172;  808.331
313.675;   87.966;   -2.601;  691.600
314.273;   82.843;   -1.312;  797.837
314.871;   81.567;   -3.942;  589.829
315.468;   80.171;   -2.802;  652.090
316.066;   83.865;   -0.701;  694.427
316.664;   76.329;   -4.362;  656.351
317.261;   80.338;   -2.872;  910.128
317.859;   76.172;   -2.022;  768.735
318.456;   75.829;   -0.531;  830.096
319.054;   72.608;   -3.912;  787.828
319.651;   70.981;   -4.752;  759.928
320.249;   68.844;   -2.602;  810.188
320.846;   67.386;   -0.821;  714.286
321.443;   65.049;   -4.642;  832.135
322.041;   62.193;   -5.002;  812.315
322.638;   59.958;   -3.982;  701.456
323.235;   61.929;   -3.411;  665.683
323.833;   59.201;   -7.361;  740.354
324.430;   53.804;   -8.611;  615.900
325.027;   54.085;   -4.061;  876.855
325.624;   54.212;   -4.031;  644.532
326.221;   51.263;   -7.481;  689.717
326.818;   51.133;   -5.281;  818.332
327.415;   53.780;   -7.460;  748.828
328.012;   53.803;   -5.510;  690.585
328.609;   52.159;   -7.880;  731.389
329.206;   50.937;   -8.331;  778.621
329.803;   51.195;   -5.121;  737.841
330.400;   53.352;   -4.510;  704.260
330.997;   54.435;   -6.441;  817.147
331.594;   53.139;   -8.831;  788.185
332.191;   57.644;   -7.621;  728.722
332.787;   61.804;   -4.591;  844.463
333.384;   59.914;   -7.412;  763.093
333.981;   58.505;   -8.293;  815.687
334.578;   60.829;   -7.052;  708.378
335.174;   64.293;   -3.102;  731.469
335.771;   64.191;   -5.943;  836.456
336.367;   60.224;   -7.393;  710.631
336.964;   65.033;   -4.063;  793.266
337.561;   62.318;   -3.813;  731.112
338.157;   58.276;   -4.654;  911.916
338.754;   55.993;   -7.934;  796.589
339.350;   53.425;   -4.414;  722.493
339.946;   55.959;   -4.664;  773.135
340.543;   47.448;   -6.375;  846.136
341.139;   41.991;   -9.815;  720.836
341.735;   40.793;   -4.526;  772.593
342.332;   38.781;   -4.895;  691.472
342.928;   39.224;   -4.295;  795.394
343.524;   32.871;   -5.476;  761.684
344.120;   28.928;   -5.856;  738.562
344.716;   32.296;   -2.155;  723.717
345.313;   29.947;   -6.275;  795.342
345.909;   25.305;   -8.815;  627.336
346.505;   27.104;   -5.305;  740.247
347.101;   28.172;   -2.674;  827.864
347.697;   27.686;   -4.344;  785.398
348.293;   22.171;   -9.975;  627.244
348.889;   23.590;   -5.774;  745.914
349.485;   22.286;   -5.004;  688.205
350.081;   22.942;   -4.704;  772.592
350.676;   18.397;   -6.635;  691.606
351.272;   23.025;   -4.504;  809.530
351.868;   22.729;   -3.914;  780.497
352.464;   19.310;   -9.044;  723.932
353.059;   15.795;   -8.314;  646.017
353.655;   18.668;   -7.024;  777.063
354.251;   20.092;   -5.343;  759.845
354.846;   14.298;   -8.604;  740.646
355.442;   12.761;   -6.945;  753.071
356.038;   13.689;   -7.564;  751.708
356.633;   14.398;   -5.814;  728.594
357.229;   12.389;   -7.364;  724.757
357.824;   10.280;   -8.024;  703.600
358.420;    9.619;   -9.384;  679.726
359.015;    9.960;   -5.104;  695.357
359.610;   11.380;   -6.854;  763.920
360.206;    5.167;  -10.185;  603.240
360.801;    7.865;   -7.054;  646.503
361.396;   10.424;   -5.034;  725.975
361.992;    5.951;   -8.284;  668.220
362.587;    2.787;   -8.625;  670.160
363.182;    5.081;   -7.674;  689.631
363.777;    6.033;   -5.164;  738.242
364.372;    5.359;   -8.604;  737.314
364.967;    1.542;   -9.055;  680.744
365.563;    5.653;   -6.114;  815.567
366.158;    2.782;   -5.814;  685.161
366.753;    3.589;   -7.854;  649.263
367.348;    2.178;   -7.804;  746.056
367.942;    2.011;   -7.954;  697.298
368.537;    0.821;   -4.984;  754.245
369.132;    1.373;   -8.564;  703.428
369.727;   -2.656;   -8.855;  638.079
370.322;   -1.505;   -6.245;  580.186
370.917;   -1.904;   -6.425;  710.646
371.511;    0.645;   -6.294;  861.834
372.106;   -2.910;   -7.685;  776.964
372.701;   -6.455;   -7.335;  585.988
373.296;   -0.092;   -4.564;  863.135
373.890;   -4.986;  -10.235;  647.840
374.485;   -7.285;   -7.885;  691.199
375.079;   -3.546;   -7.324;  738.685
375.674;   -1.663;   -3.494;  812.970
376.268;   -6.519;   -8.525;  691.759
376.863;  -12.001;  -10.086;  580.327
377.457;   -6.228;   -7.025;  662.490
378.052;   -7.663;   -3.585;  764.884
378.646;   -8.200;   -7.595;  741.167
379.240;   -8.642;   -8.335;  721.176
379.835;   -7.502;   -5.785;  636.978
380.429;   -9.599;   -4.335;  562.557
381.023;   -9.792;   -6.805;  779.205
381.617;  -12.626;   -9.195;  680.106
382.212;   -9.006;   -6.905;  685.303
382.806;   -7.926;   -3.745;  760.690
383.400;  -11.851;   -7.745;  672.281
383.994;  -13.553;   -9.765;  664.870
384.588;   -9.644;   -6.564;  697.701
385.182;   -8.236;   -5.344;  726.624
385.776;   -9.247;   -8.514;  706.875
386.370;  -12.720;   -9.555;  681.968
386.964;  -11.706;   -8.715;  684.155
387.558;   -9.598;   -6.174;  598.360
388.152;  -13.290;   -8.725;  681.959
388.745;  -12.430;   -7.965;  814.707
389.339;   -9.786;   -5.924;  747.642
389.933;   -8.942;   -5.524;  695.370
390.527;  -10.118;   -7.114;  859.029
391.120;  -16.527;  -10.725;  595.318
391.714;  -13.348;   -8.035;  711.633
392.308;  -10.392;   -3.574;  780.253
392.901;  -14.630;   -7.245;  642.460
393.495;  -15.752;   -9.285;  595.414
394.089;  -14.357;   -5.895;  760.452
394.682;  -14.395;   -4.295;  697.188
395.275;  -14.739;   -9.875;  719.927
395.869;  -16.561;   -8.485;  667.314
396.462;  -14.242;   -7.455;  616.609
397.056;  -10.061;   -5.424;  776.621
397.649;  -15.985;   -6.605;  731.575
398.242;  -13.020;   -8.224;  712.645
398.836;  -12.646;   -7.474;  766.408
399.429;  -13.449;   -7.094;  631.041
400.022;  -16.556;   -9.475;  665.902
400.615;  -13.621;   -7.145;  805.609
401.208;  -12.738;   -7.174;  691.451
401.802;  -14.683;   -5.515;  699.329
402.395;  -15.132;   -9.875;  683.502
402.988;  -16.863;   -8.845;  696.627
403.581;  -13.151;   -8.874;  646.878
404.174;  -11.768;   -5.324;  686.568
404.767;  -14.289;   -9.575;  638.583
405.360;  -16.217;  -10.965;  621.445
405.953;  -11.366;   -8.764;  759.034
406.545;  -10.933;   -7.514;  725.342
407.138;  -14.747;  -10.025;  618.350
407.731;  -13.216;  -10.034;  613.303
408.324;   -9.370;   -9.374;  660.554
408.917;  -10.694;   -6.534;  681.864
409.509;  -13.071;   -8.004;  740.396
410.102;  -14.587;   -9.875;  643.948
410.695;   -9.162;   -8.604;  665.758
411.287;   -9.131;   -6.794;  599.821
411.880;  -10.492;   -9.334;  585.421
412.472;  -13.329;  -10.254;  613.092
413.065;  -11.336;   -6.714;  629.408
413.657;   -8.163;   -7.234;  576.678
414.250;   -8.555;  -10.544;  646.681
414.842;  -11.077;   -9.744;  676.353
415.434;   -8.573;   -6.994;  570.463
416.027;   -3.605;   -5.893;  652.196
416.619;   -6.611;   -7.264;  713.400
417.211;   -6.875;  -10.374;  599.352
417.804;   -3.617;   -7.993;  628.499
418.396;   -7.688;   -7.234;  607.643
418.988;   -4.749;   -9.443;  659.238
419.580;   -8.164;  -10.724;  568.276
420.172;   -6.028;  -10.323;  536.196
420.764;   -1.391;   -8.793;  672.482
421.356;   -3.004;  -11.143;  636.898
421.948;   -3.870;   -8.293;  677.661
422.540;    0.994;   -7.893;  680.027
423.132;    0.803;   -7.082;  600.641
423.724;   -2.588;   -8.653;  561.267
424.316;   -0.548;  -10.213;  621.345
424.908;    2.536;   -9.762;  591.517
425.500;    3.291;   -5.572;  647.978
426.092;    4.045;   -8.422;  648.268
426.683;    2.460;   -9.283;  684.836
427.275;    4.611;   -7.852;  641.471
427.867;    7.736;   -5.272;  668.948
428.458;    8.248;   -7.682;  732.344
429.050;    6.167;  -10.612;  680.749
429.642;    8.327;   -9.882;  743.124
430.233;    8.360;   -6.962;  569.356
430.825;   10.295;   -6.842;  724.809
431.416;    6.893;   -9.672;  698.241
432.008;   10.568;   -6.552;  651.723
432.599;   12.368;   -6.891;  656.073
433.190;    9.563;  -10.912;  637.670
433.782;    8.231;  -11.172;  590.395
434.373;   15.812;   -6.061;  884.765
434.964;   14.519;   -8.251;  602.920
435.556;   12.123;   -9.722;  634.537
436.147;   15.166;   -9.082;  758.490
436.738;   15.021;   -8.041;  701.099
437.329;   19.557;   -7.341;  721.723
437.920;   12.484;   -8.162;  666.688
438.511;   13.411;  -11.802;  564.526
439.103;   19.248;  -10.191;  623.998
439.694;   20.767;   -7.601;  681.583
440.285;   21.485;   -8.541;  764.432
440.876;   19.395;   -9.751;  845.738
441.466;   19.432;   -9.401;  575.162
442.057;   25.285;   -7.760;  665.814
442.648;   23.702;   -9.971;  746.255
443.239;   21.835;  -11.001;  620.477
443.830;   26.477;   -7.990;  704.958
444.421;   28.647;   -7.910;  655.474
445.011;   24.843;   -8.131;  693.619
445.602;   25.074;   -7.111;  743.126
446.193;   26.568;  -10.920;  488.117
446.783;   30.853;   -6.500;  640.397
447.374;   26.824;   -8.671;  692.759
447.964;   26.942;  -10.781;  713.770
448.555;   35.764;   -9.650;  822.742
449.145;   32.161;   -8.660;  662.853
449.736;   33.569;   -8.990;  803.179
450.326;   33.120;   -9.500;  713.626
450.917;   37.769;   -8.680;  675.324
451.507;   37.223;   -7.520;  600.661
452.097;   37.464;   -8.590;  746.267
452.688;   38.438;  -11.340;  742.160
453.278;   38.220;  -10.100;  566.840
453.868;   42.830;   -6.019;  793.550
454.458;   40.498;   -9.440;  651.141
455.048;   41.386;  -10.560;  711.783
455.639;   43.041;  -11.799;  567.096
456.229;   46.347;   -6.899;  710.694
456.819;   48.237;   -7.389;  751.158
457.409;   48.034;  -11.119;  773.993
457.999;   51.425;   -9.289;  737.505
458.589;   51.062;   -6.139;  686.606
459.179;   51.886;   -8.729;  717.658
459.769;   49.433;   -9.789;  627.099
460.358;   54.045;  -10.259;  797.262
460.948;   54.269;   -7.299;  689.503
461.538;   55.167;  -10.289;  660.677
462.128;   53.241;  -11.269;  664.934
462.717;   59.637;   -9.368;  710.326
463.307;   63.236;   -7.908;  705.846
463.897;   59.033;   -9.599;  656.942
464.486;   58.324;   -9.769;  837.128
465.076;   63.135;   -8.048;  733.776
465.666;   65.734;   -9.358;  652.900
466.255;   64.215;   -7.919;  785.651
466.845;   62.990;  -11.689;  666.749
467.434;   66.049;   -7.818;  725.873
468.023;   67.526;   -7.678;  658.357
468.613;   64.545;  -10.939;  713.946
469.202;   69.726;  -10.118;  646.507
469.791;   73.871;   -9.108;  737.811
470.381;   74.945;   -6.058;  742.813
470.970;   74.500;  -10.428;  711.099
471.559;   74.034;  -10.268;  733.291
472.148;   77.213;   -8.448;  675.737
472.738;   79.386;   -6.917;  765.466
473.327;   79.707;  -11.978;  637.529
473.916;   78.967;  -11.888;  737.446
474.505;   83.705;   -9.437;  751.703
475.094;   87.273;   -6.747;  806.570
475.683;   85.804;   -9.367;  797.699
476.272;   87.408;  -12.637;  730.632
476.861;   89.950;  -10.027;  706.754
477.449;   97.109;   -8.716;  728.487
478.038;   90.720;   -9.577;  692.513
478.627;   91.621;   -9.718;  714.852
479.216;   97.536;   -8.947;  769.441
479.805;  101.467;   -6.256;  783.375
480.393;  101.096;   -7.937; 1008.945
480.982;  100.540;   -7.717;  874.501
481.571;  106.872;   -9.266;  858.333
482.159;  107.455;   -7.636;  705.386
482.748;  106.735;   -9.667;  821.385
483.336;  111.310;  -10.376;  858.209
483.925;  111.625;   -7.147;  774.373
484.513;  118.929;   -7.996;  758.962
485.102;  116.069;  -10.027;  810.965
485.690;  123.853;  -10.446; 1011.050
486.278;  125.747;   -8.446;  979.329
486.867;  126.584;   -6.356;  809.662
487.455;  129.102;   -9.136;  898.229
488.043;  129.018;  -10.646;  748.361
488.631;  137.931;   -7.456; 1005.079
489.220;  142.119;   -6.636;  908.626
489.808;  142.450;  -11.036;  741.415
490.396;  150.795;  -10.246;  914.645
490.984;  155.517;   -8.556;  830.161
491.572;  165.734;   -5.886;  940.315
492.160;  171.709;   -9.486;  919.081
492.748;  182.852;  -10.976;  884.341
493.336;  205.408;   -8.776; 1019.693
493.924;  231.548;   -5.465;  958.077
494.512;  258.770;   -9.986; 1066.638
495.100;  295.966;  -10.636; 1103.280
495.687;  349.445;  -10.885; 1206.373
496.275;  411.821;   -8.126; 1150.796
496.863;  479.980;  -10.586; 1281.171
497.451;  581.011;  -11.926; 1386.805
498.038;  710.390;  -10.885; 1556.729
498.626;  816.929;   -6.315; 1741.407
499.214;  963.450;   -7.326; 2016.609
499.801; 1157.914;  -11.906; 2220.633
500.389; 1399.827;  -10.466; 2312.494
500.976; 1707.460;   -5.236; 2744.849
501.564; 2144.471;   -8.936; 3148.565
502.151; 2515.648;  -13.176; 3515.999
502.738; 2959.430;  -10.646; 3971.274
503.326; 3347.474;   -9.525; 4403.796
503.913; 3735.261;  -10.856; 5161.749
504.500; 4097.896;  -11.586; 5986.420
505.088; 4527.818;  -10.336; 6381.201
505.675; 5066.638;   -6.355; 6925.547
506.262; 5792.141;   -9.046; 7619.060
506.849; 6493.522;  -10.416; 8733.969
507.436; 6958.218;  -10.305; 9790.121
508.023; 7522.715;   -5.496; 9985.472
508.610; 7793.180;   -7.856;10434.618
509.197; 8439.261;  -10.097;11198.435
509.784; 9784.514;  -10.886;12391.194
510.371;10822.718;   -9.315;13603.713
510.958;11548.482;   -9.936;14426.586
511.545;12305.547;   -9.326;15243.775
512.132;13166.848;  -10.075;15945.876
512.719;13752.265;   -7.796;16340.369
513.305;14742.096;  -10.606;18011.766
513.892;15509.736;  -11.486;19754.971
514.479;16843.918;   -9.126;20967.805
515.066;18280.754;   -6.026;22299.793
515.652;19497.861;   -8.466;22908.660
516.239;20773.057;  -10.886;23798.875
516.825;21840.732;  -11.496;25567.275
517.412;22906.641;   -5.796;28154.959
517.998;23486.793;  -10.506;28344.111
518.585;23509.441;  -10.076;27134.219
519.171;24066.121;   -8.315;27268.576
519.758;25479.756;   -8.596;28964.129
520.344;27297.607;   -8.466;30664.494
520.930;27268.037;  -11.006;32550.605
521.516;28515.559;  -10.495;35422.895
522.103;30749.715;   -5.526;38280.004
522.689;31351.246;   -8.746;37835.117
523.275;30779.311;  -11.376;37288.613
523.861;31925.227;  -11.156;37281.395
524.447;33257.035;   -8.135;37846.949
525.033;32960.980;   -7.896;38321.949
525.619;32985.527;  -12.476;38579.285
526.205;34416.984;   -9.516;40622.875
526.791;36558.207;   -6.926;42258.836
527.377;36371.352;   -8.346;42966.902
527.963;37109.176;   -8.717;42018.949
528.549;34024.793;  -11.016;42476.828
529.135;30539.150;   -8.536;41854.852
529.721;29602.285;   -9.666;41237.711
530.306;31478.760;  -10.066;41259.445
530.892;33943.531;  -11.356;41506.047
531.478;36591.883;   -6.596;43559.613
532.063;39834.203;   -8.836;47695.563
532.649;40307.363;  -10.047;50808.324
533.235;40965.465;   -9.746;51787.500
533.820;41322.676;   -6.566;52145.035
534.406;42336.363;  -10.817;51133.488
534.991;41779.535;   -9.416;49996.805
535.576;39787.383;   -9.036;48882.852
536.162;39165.609;   -6.156;46942.285
536.747;37772.863;  -11.607;45711.746
537.333;37773.438;  -11.787;48510.180
537.918;38035.332;  -12.437;50439.891
538.503;38438.203;   -7.196;50863.711
539.088;39707.688;  -10.556;50906.922
539.673;43530.520;   -8.767;52621.965
540.259;45683.277;  -10.026;52368.094
540.844;43762.090;   -7.416;50879.109
541.429;45120.238;   -9.467;52077.777
542.014;47962.391;   -9.527;52716.695
542.599;47295.523;   -9.946;52363.281
543.184;44899.988;   -7.927;53187.137
543.769;46357.723;   -9.297;54697.605
544.354;45787.742;  -10.127;53913.914
544.938;44531.098;   -9.267;49680.164
545.523;46487.453;   -6.506;47386.277
546.108;49119.074;   -9.787;49151.949
546.693;51129.965;  -11.587;51384.637
547.278;50945.555;  -10.986;51853.254
547.862;47961.695;   -8.206;51173.750
548.447;43297.887;  -10.067;51691.395
549.031;42584.465;   -9.637;52456.703
549.616;47565.723;   -9.926;52714.516
550.201;46895.203;   -6.347;52414.598
550.785;48089.031;   -7.917;52355.059
551.370;47223.344;  -10.867;54589.453
551.954;46844.113;   -9.047;58267.348
552.538;47591.973;   -7.827;59062.176
553.123;45851.770;  -10.287;58115.285
553.707;43681.414;  -12.178;56556.285
554.291;45060.016;   -8.717;56201.668
554.876;47453.266;   -7.457;55335.762
555.460;47658.344;  -10.387;54155.703
556.044;48794.824;   -9.618;53721.484
556.628;47357.781;  -11.567;53731.016
557.212;46129.574;   -8.097;54312.531
557.796;44627.492;  -11.077;53797.773
558.380;44508.199;  -11.108;56145.984
558.964;44949.137;   -9.057;57277.930
559.548;46161.418;   -6.977;56459.641
560.132;44386.695;  -11.457;54434.543
560.716;43033.219;  -11.378;54800.617
561.300;44219.746;   -9.577;57606.945
561.884;45471.391;   -7.127;58972.445
562.467;43929.336;   -7.118;57327.570
563.051;43211.707;  -13.358;54962.434
563.635;44240.043;  -10.178;52594.473
564.219;44521.570;   -7.837;50610.410
564.802;45323.480;  -11.398;49551.180
565.386;45209.398;  -12.788;48370.953
565.969;44634.344;   -9.077;48178.871
566.553;43893.215;   -6.207;49957.305
567.136;44415.875;   -8.568;50369.594
567.720;40676.633;  -11.868;49492.004
568.303;38586.926;   -8.268;50616.352
568.887;38613.496;   -8.698;50727.148
569.470;38861.090;   -6.808;51698.379
570.053;37500.410;  -13.188;52122.078
570.637;35907.148;  -12.037;52536.438
571.220;35867.234;   -8.577;51186.098
571.803;36510.539;   -8.498;51032.762
572.386;38746.938;  -10.498;49609.887
572.969;41238.063;   -9.388;48285.926
573.552;39273.652;   -8.338;47624.285
574.135;37803.789;   -8.518;45498.641
574.718;35498.109;  -13.628;41970.434
575.301;34487.336;  -10.893;41447.137
575.884;33476.563;   -8.158;40923.836
576.467;34639.375;  -10.328;45267.723
577.050;36554.395;  -13.058;48175.543
577.633;37959.305;   -9.458;47729.328
578.216;36978.199;   -8.928;47579.793
578.799;36039.910;   -9.358;47820.996
579.381;34939.531;  -11.388;48115.551
579.964;33168.207;  -11.718;47333.766
580.547;34867.680;   -8.588;46668.969
581.129;35963.566;   -8.859;44466.141
581.712;36654.531;  -10.729;44164.922
582.294;37141.910;  -11.118;46477.855
582.877;37048.348;   -5.218;48244.254
583.459;34680.215;   -8.679;47437.895
584.042;32797.477;  -10.709;46943.219
584.624;33411.938;  -11.669;46792.227
585.206;32970.961;   -8.218;46557.250
585.789;33017.309;  -10.569;45793.773
586.371;35885.539;  -11.859;43836.391
586.953;36508.344;  -10.719;42972.492
587.536;37724.203;   -7.198;42487.211
588.118;37631.070;   -8.720;42086.414
588.700;34077.254;  -10.439;43389.930
589.282;33319.082;   -9.198;43646.039
589.864;34157.727;   -9.199;43438.109
590.446;35023.656;  -11.319;43151.926
591.028;34955.719;  -11.159;42781.867
591.610;34052.348;  -11.779;42839.098
592.192;31517.715;   -7.668;42820.402
592.774;29984.309;  -11.949;40724.277
593.356;28734.994;  -12.129;39874.789
593.937;27637.885;  -10.669;39980.648
594.519;29765.471;   -6.509;42069.633
595.101;31999.246;  -10.849;42976.031
595.683;32198.088;  -11.679;44084.441
596.264;33237.879;   -9.049;43478.797
596.846;32591.180;   -8.849;43803.672
597.427;32294.576;   -9.570;42986.934
598.009;33915.699;  -12.620;42832.219
598.591;34360.160;  -10.039;42580.086
599.172;33490.160;  -10.369;43061.805
599.753;33572.230;   -9.140;41691.469
600.335;35077.035;  -11.430;40692.520
600.916;33406.719;   -9.939;39982.422
601.498;30902.727;   -8.479;40318.617
602.079;29374.350;  -10.920;40670.609
602.660;29299.471;  -11.480;41450.898
603.241;30951.004;  -11.699;41137.738
603.823;29803.422;   -9.579;38868.797
604.404;29397.354;  -10.620;38182.785
604.985;30957.160;  -10.450;38078.047
605.566;30664.770;   -9.129;38056.633
606.147;30868.166;   -7.510;37020.418
606.728;32646.146;  -10.660;37883.359
607.309;31338.045;  -11.740;38748.273
607.890;30747.662;   -9.759;38850.230
608.471;30170.703;   -8.250;37457.918
609.051;29260.740;   -9.240;36066.457
609.632;28206.824;  -12.120;35991.074
610.213;29033.258;   -9.110;37402.641
610.794;29811.525;   -8.030;38383.363
611.374;29370.867;   -8.110;40562.387
611.955;29784.729;  -13.560;38533.727
612.536;31095.520;  -11.400;36951.789
613.116;31021.674;   -8.070;37197.891
613.697;31374.832;  -10.830;38411.125
614.277;29809.338;  -11.641;38673.938
614.858;30607.885;  -13.310;37075.863
615.438;29672.182;   -7.460;35092.906
616.019;26983.971;   -7.601;33666.301
616.599;27634.754;  -12.020;34189.023
617.179;29543.307;  -11.780;36952.047
617.760;30559.893;   -8.570;39582.574
618.340;31635.635;  -11.471;38943.977
618.920;32910.973;  -11.170;37594.156
619.500;32669.043;  -11.071;37866.938
620.080;31739.850;   -7.750;37869.043
620.660;32841.172;  -12.711;36868.617
621.241;34235.387;  -10.211;36352.309
621.821;34435.148;  -10.961;35459.520
622.401;33428.813;   -7.720;35207.414
622.980;32760.379;   -8.981;35980.422
623.560;31292.084;   -9.331;37351.328
624.140;30030.791;   -9.850;34388.582
624.720;24895.352;   -7.451;32368.764
625.300;21406.291;   -9.070;32638.629
625.880;24867.918;  -12.601;34599.035
626.459;28893.566;  -11.751;36831.738
627.039;32001.170;   -9.281;38299.098
627.619;31952.107;   -8.801;38289.574
628.198;30360.738;  -12.071;37220.695
628.778;29455.486;   -9.461;37632.563
629.357;30126.455;   -8.491;38003.012
629.937;30065.621;   -9.721;38402.039
630.516;29472.506;   -9.951;37868.801
631.096;29213.590;  -11.731;35760.410
631.675;31940.766;   -8.572;35225.219
632.254;37015.387;  -11.282;35130.289
632.834;36422.750;  -13.322;35794.570
633.413;34567.188;  -10.301;35788.922
633.992;31692.670;   -8.582;34532.863
634.571;32477.150;   -8.352;33590.113
635.151;35440.988;  -11.912;34943.863
635.730;33836.945;  -10.511;35352.523
636.309;30381.686;   -7.731;35366.605
636.888;28011.418;   -9.952;36165.637
637.467;28835.602;  -11.672;37515.902
638.046;30490.291;   -8.901;39288.695
638.625;33688.164;   -7.912;38279.699
639.204;33450.195;  -10.022;37741.598
639.782;31805.230;  -12.252;38364.551
640.361;27980.281;  -10.041;36740.621
640.940;25069.377;  -11.161;34950.082
641.519;25730.750;   -9.701;34137.398
642.097;28831.316;  -11.271;35654.258
642.676;31809.154;   -8.651;35637.957
643.255;32494.105;   -8.711;36567.074
643.833;31618.256;   -9.581;37809.434
644.412;31637.088;  -13.711;37337.293
644.990;30673.699;  -11.811;37018.531
645.569;30777.918;   -9.411;36518.469
646.147;29837.109;  -10.291;36186.430
646.726;29414.412;  -12.401;36267.688
647.304;30579.236;  -10.411;36647.625
647.882;32481.297;   -9.651;39286.742
648.461;34327.582;   -9.631;39157.703
649.039;32623.338;  -11.881;35412.883
649.617;31850.670;   -9.661;34744.918
650.195;31460.945;   -9.301;35403.098
650.773;30013.787;  -10.511;35053.797
651.352;27572.949;  -11.521;33756.816
651.930;25220.418;  -12.211;31868.773
652.508;23712.797;   -9.171;33121.551
653.086;27726.352;   -9.371;33564.793
653.663;30577.344;  -13.161;34054.668
654.241;29432.992;  -13.031;35693.309
654.819;31154.500;   -9.371;36422.906
655.397;31273.063;  -10.511;38213.484
655.975;30934.779;  -10.371;39507.625
656.553;30619.844;  -10.051;39498.223
657.130;28963.109;  -10.061;40395.480
657.708;28166.188;   -9.561;39242.020
658.286;28185.965;  -11.511;38920.020
658.863;29462.543;  -10.261;40202.898
659.441;32648.873;   -7.531;39677.938
660.018;32260.572;   -9.501;40413.355
660.596;31169.738;  -13.301;39931.414
661.173;33176.410;  -11.211;39604.531
661.750;33160.313;   -9.951;39700.070
662.328;31749.865;   -9.390;39292.809
662.905;30787.969;  -11.330;38235.648
663.482;26535.809;   -9.050;36212.305
664.060;24718.066;   -8.240;35944.945
664.637;27645.428;  -10.050;35170.785
665.214;29536.422;  -11.760;34197.523
665.791;31047.279;  -10.530;34549.520
666.368;29853.473;   -9.690;35118.578
666.945;30548.914;   -9.320;36019.418
667.522;32195.398;  -11.860;36048.438
668.099;31907.205;  -10.770;36243.914
668.676;30662.926;   -6.260;35958.875
669.253;29312.740;   -7.000;37384.730
669.830;29983.117;  -10.190;36779.629
670.407;29790.441;   -9.550;35231.289
670.984;29707.936;   -9.260;35544.270
671.560;30175.674;   -9.280;35466.867
672.137;29249.867;  -11.810;34280.863
672.714;30039.748;  -11.490;34632.863
673.290;30716.479;   -7.740;35135.422
673.867;30989.953;  -10.660;36114.480
674.443;30892.438;  -12.230;36152.859
675.020;29061.162;  -10.450;35327.238
675.596;30020.467;   -9.260;35795.176
676.173;30511.268;  -10.780;35430.355
676.749;30370.299;  -13.690;33549.516
677.326;30386.258;  -11.980;32210.012
677.902;30379.906;   -8.630;32068.871
678.478;29694.807;  -10.730;32583.891
679.054;29075.957;  -10.520;32088.928
679.631;29374.725;  -11.920;30978.848
680.207;30890.563;   -7.490;33160.887
680.783;32583.400;   -9.860;35570.363
681.359;31708.670;  -13.380;36125.184
681.935;31023.027;  -12.480;35240.922
682.511;30185.295;   -7.900;34429.961
683.087;30301.307;   -7.710;34463.680
683.663;29910.762;  -11.480;34648.898
684.239;28706.236;  -14.090;34546.457
684.815;28341.135;   -7.560;35586.375
685.390;28642.090;   -9.910;35821.895
685.966;29080.516;  -11.159;35085.871
686.542;31450.637;  -11.169;34198.230
687.118;33586.336;   -5.959;32847.707
687.693;33855.164;  -10.329;32794.027
688.269;33575.684;  -12.059;33072.367
688.844;31757.979;  -10.909;33141.664
689.420;29539.471;   -8.019;33965.742
689.995;27270.633;   -8.399;34655.523
690.571;25965.133;  -10.949;33576.742
691.146;26450.074;   -9.619;32657.219
691.722;25926.668;   -8.999;32526.979
692.297;25788.445;  -11.589;33014.617
692.872;27613.229;  -11.739;34012.254
693.448;27181.463;  -11.059;34237.434
694.023;26402.906;  -10.139;34142.672
694.598;28416.906;   -9.029;34132.031
695.173;28799.816;  -13.319;34205.250
695.748;28098.461;  -10.169;32882.488
696.323;28162.783;   -8.339;32864.906
696.898;28346.086;   -8.169;33170.004
697.473;28142.719;  -12.309;32432.984
698.048;27555.580;  -10.989;31649.303
698.623;27500.354;   -9.329;30778.141
699.198;29462.826;   -9.849;31140.119
699.773;30485.803;  -12.329;31764.299
700.348;28832.861;  -10.389;31780.816
700.922;28808.463;   -9.269;32046.375
701.497;29594.074;   -9.329;32603.574
702.072;29725.055;  -10.789;34799.871
702.646;28474.191;  -10.839;35793.172
703.221;26410.043;   -9.099;35201.590
703.795;28470.311;  -10.939;34764.527
704.370;28902.365;  -12.859;34307.367
704.944;29337.848;  -11.559;33509.887
705.519;30199.025;   -7.939;31388.584
706.093;31631.420;  -10.499;31340.104
706.668;31961.113;  -11.289;32630.281
707.242;30831.258;  -11.509;32728.779
707.816;29206.119;   -9.639;32947.238
708.390;27566.541;  -11.429;33277.855
708.965;28081.650;  -11.869;33834.336
709.539;28172.432;  -11.689;33709.273
710.113;28648.389;  -10.478;33044.313
710.687;28133.275;  -10.228;31953.992
711.261;26444.480;  -13.698;30505.949
711.835;26389.559;  -13.378;30262.369
712.409;27250.895;   -9.698;31254.447
712.983;29171.033;  -11.898;32754.986
713.557;30113.314;  -15.138;34018.824
714.131;29693.252;  -14.098;34579.625
714.704;28737.906;   -9.958;33890.262
715.278;26538.338;  -10.028;33531.102
715.852;25528.709;  -11.148;33601.660
716.425;26318.219;   -9.068;33515.117
716.999;27041.852;  -10.038;33185.555
717.573;27989.613;   -9.798;33905.996
718.146;29057.951;  -12.378;35199.293
718.720;29001.967;  -11.918;35060.551
719.293;28429.721;   -8.088;34973.230
719.867;31433.156;  -10.888;36394.449
720.440;31235.127;  -11.938;36663.008
721.013;29481.031;  -12.818;35102.426
721.587;27929.781;  -10.298;33985.266
722.160;26917.330;  -10.048;33524.965
722.733;25917.727;  -12.108;32987.043
723.306;26263.316;  -10.818;33066.301
723.880;28589.928;   -8.908;33399.500
724.453;30515.334;   -9.878;33468.297
725.026;29614.066;  -11.188;33816.637
725.599;27016.510;  -11.678;32797.996
726.172;27392.764;   -9.618;33187.434
726.745;28372.930;   -8.258;35136.613
727.318;29563.516;  -12.978;35751.730
727.891;29854.801;  -12.148;35890.430
728.463;29522.469;   -8.968;34822.090
729.036;28646.668;  -10.188;32895.086
729.609;29213.330;  -11.788;31823.225
730.182;26221.885;  -11.788;31445.283
730.754;23732.996;  -10.268;32373.223
731.327;23819.488;   -9.998;33676.820
731.900;24204.191;  -12.228;33417.000
732.472;25531.705;  -13.848;31978.498
733.045;27479.736;   -8.698;30368.777
733.617;27534.842;  -10.607;30574.215
734.190;27160.145;  -11.507;31280.975
734.762;24199.930;  -13.647;31674.412
735.334;22397.205;   -9.767;31247.291
735.907;23061.957;   -9.897;29876.211
736.479;23254.105;  -11.637;29808.488
737.051;22952.818;   -9.567;30233.547
737.623;23880.551;   -8.187;31469.086
738.195;24652.701;  -11.187;31784.225
738.768;26667.305;  -12.337;32120.523
739.340;26898.275;  -12.227;32094.342
739.912;25614.879;  -11.057;31312.680
740.484;24163.625;  -10.207;31946.238
741.056;23048.783;  -10.047;32984.059
741.628;24857.125;  -13.627;33897.715
742.199;27193.592;   -7.177;33213.016
742.771;25490.084;  -10.797;31369.113
743.343;23098.623;  -11.997;31865.473
743.915;22123.855;  -12.867;32388.631
744.487;22247.232;   -7.617;31079.568
745.058;22429.711;   -9.557;30570.107
745.630;22824.777;   -9.877;29970.127
746.201;23569.848;  -14.177;29186.766
746.773;23967.574;   -9.237;28805.723
747.344;23764.568;   -9.847;29591.223
747.916;22352.719;  -11.657;31412.201
748.487;22576.586;  -10.587;32194.898
749.059;23787.656;   -8.707;32533.719
749.630;24493.076;  -10.537;32158.518
750.201;23593.797;  -11.687;30855.395
750.773;21824.590;  -11.647;28622.555
751.344;21860.842;   -7.147;28405.732
751.915;23191.957;   -9.757;28461.551
752.486;23110.297;  -12.427;27842.850
753.057;20793.256;  -12.227;27845.008
753.628;19497.639;  -10.417;27728.107
754.199;20611.641;  -11.767;27381.086
754.770;21684.236;  -11.187;25882.203
755.341;21707.805;  -10.507;25886.184
755.912;21733.232;   -9.387;26050.861
756.483;21239.193;  -10.647;26798.779
757.054;19482.883;  -11.837;27048.238
757.625;18175.777;  -12.716;26294.838
758.195;17943.857;   -9.666;26142.076
758.766;17678.059;   -8.656;26392.234
759.337;18435.857;  -12.856;26334.594
759.907;20153.807;  -13.366;27579.652
760.478;21094.223;   -8.576;28352.770
761.048;20476.189;  -10.526;27325.088
761.619;19552.115;  -11.116;26460.428
762.189;19578.885;  -12.136;26029.826
762.760;20725.787;   -9.456;26430.145
763.330;21842.342;   -7.136;26670.902
763.900;21272.150;  -11.786;26603.021
764.471;18652.252;  -11.546;25542.740
765.041;17340.984;   -8.096;24358.459
765.611;17416.506;   -8.876;23991.297
766.181;17832.156;  -12.196;24470.236
766.751;18789.420;  -11.636;24845.975
767.321;18509.553;  -10.156;24533.633
767.891;16525.299;  -11.766;24916.492
768.461;16014.359;  -14.936;24776.771
769.031;16583.447;  -12.356;24757.988
769.601;18177.326;   -7.526;24181.088
770.171;18016.133;  -10.766;23670.387
770.741;17225.076;  -13.176;22960.045
771.311;17403.684;  -10.616;22917.523
771.880;17777.000;   -9.576;23562.941
772.450;17426.994;  -10.336;24216.500
773.020;17455.350;  -13.516;24140.398
773.589;16804.139;  -13.466;24414.857
774.159;16132.908;   -8.686;23858.717
774.729;15717.867;   -9.476;22942.135
775.298;15216.533;  -13.666;22324.033
775.867;14819.848;  -11.716;21140.313
776.437;14915.332;   -9.906;20838.092
777.006;14729.310;  -12.166;20599.510
777.576;14646.208;  -12.356;20508.809
778.145;14800.683;  -11.646;20732.947
778.714;14702.442;   -8.226;21062.465
779.283;13958.146;   -9.556;20949.664
779.853;13444.104;  -14.116;20508.623
780.422;13922.903;  -11.506;20649.082
780.991;13508.192;   -9.556;21527.520
781.560;12304.318;   -9.095;22632.658
782.129;12086.227;  -12.135;23048.277
782.698;12098.259;  -10.865;23438.555
783.267;11702.842;   -9.335;23267.734
783.836;11674.577;  -11.045;22415.133
784.404;12746.529;  -13.865;20443.152
784.973;13350.689;  -13.095;19699.150
785.542;13274.963;  -11.575;19763.828
786.111;13077.529;   -9.705;20341.408
786.679;12562.300;  -12.105;20207.967
787.248;12331.382;  -12.455;19516.465
787.817;12170.036;  -11.535;18900.363
788.385;11745.500;   -9.765;17879.121
788.954;11129.285;  -14.005;17658.301
789.522;10596.193;  -11.955;17788.879
790.090;11150.918;  -10.135;18118.277
790.659;11570.533;  -10.975;18338.736
791.227;11056.153;  -13.375;18508.615
791.795;11479.354;  -12.375;17898.254
792.364;11850.125;  -10.725;17295.133
792.932;12189.593;   -9.715;16822.051
793.500;12394.287;  -12.675;17040.148
794.068;12616.159;  -13.495;17179.787
794.636;12745.593;  -10.885;16664.246
795.204;12147.749;  -11.045;16524.545
795.772;12225.514;  -13.175;17274.564
796.340;11733.582;  -12.445;17891.002
796.908;11528.951;   -9.735;17648.561
797.476;11444.003;   -9.815;17064.080
798.044;11008.701;  -13.985;16672.777
798.612;10209.092;  -13.115;17023.996
799.180; 9796.983;  -10.185;16561.615
799.747; 9704.406;   -9.055;15962.773
800.315; 9454.216;  -12.385;15296.992
800.883; 9131.004;  -15.035;14801.771
801.450; 9147.940;  -10.365;14534.430
802.018; 9214.680;   -9.855;14173.248
802.585; 9356.135;  -11.905;14029.547
803.153; 9412.137;  -11.585;13836.846
803.720; 9217.883;   -9.095;13567.324
804.287; 8741.944;   -9.135;13360.622
804.855; 8313.757;  -11.604;13681.981
805.422; 8185.938;  -11.794;13536.560
805.989; 8196.146;  -10.734;13355.958
806.556; 8370.800;  -10.444;13747.896
807.124; 8620.544;  -12.764;13987.376
807.691; 8585.272;  -12.964;14038.674
808.258; 8373.125;  -11.134;14120.152
808.825; 8027.748;   -9.854;13860.111
809.392; 8101.553;  -10.504;13268.790
809.959; 7631.608;  -13.054;12680.389
810.526; 7182.438;   -8.294;12427.308
811.093; 7218.223;   -8.394;12030.105
811.659; 7836.604;  -12.304;11653.664
812.226; 8354.973;  -13.944;11637.183
812.793; 8060.175;  -10.484;11611.521
813.360; 7422.126;  -10.144;11885.181
813.926; 7092.074;  -11.684;12770.539
814.493; 6875.169;  -13.644;12677.638
815.060; 6479.236;   -9.724;11974.336
815.626; 6485.773;   -9.854;11594.715
816.193; 6909.006;  -13.254;11579.474
816.759; 6924.037;  -13.204;11666.972
817.325; 6962.647;   -9.434;11325.530
817.892; 7320.787;  -10.134;11105.369
818.458; 7756.862;  -13.474;10843.928
819.024; 7370.453;  -11.854;10714.406
819.591; 7052.232;  -10.244;10469.165
820.157; 6847.328;  -10.704;10235.523
820.723; 6335.635;  -12.324;10847.563
821.289; 6026.150;   -9.444;11040.980
821.855; 5937.633;   -8.374;10357.100
822.421; 5908.901;  -10.234; 9978.918
822.987; 5904.621;  -13.294; 9754.177
823.553; 5595.688;  -10.884;10065.755
824.119; 5417.212;   -8.884;10036.294
824.685; 5501.504;   -6.784;10029.192
825.251; 5590.941;  -12.004;10199.230
825.816; 5559.261;  -11.474; 9820.189
826.382; 5335.780;   -9.174; 9297.248
826.948; 5537.144;   -9.214; 9381.347
827.513; 5934.629;  -10.774; 9450.726
828.079; 5757.990;  -11.924; 9472.444
828.645; 5169.714;  -10.543; 9292.643
829.210; 5079.218;  -10.533; 9065.341
829.776; 5075.109;  -10.753; 9132.620
830.341; 4963.806;  -10.173; 9092.878
830.906; 5155.208;  -10.743; 9078.557
831.472; 5508.601;  -11.113; 8534.535
832.037; 5243.589;  -10.603; 8677.874
832.602; 4674.909;  -13.323; 8628.692
833.167; 4407.796;  -10.823; 8879.031
833.733; 4338.173;  -10.113; 9189.790
834.298; 4477.173;  -13.583; 9052.608
834.863; 4550.039;  -12.703; 8895.087
835.428; 4525.042;  -10.523; 8824.266
835.993; 4383.399;   -6.963; 8845.385
836.558; 4223.186;  -10.763; 8888.563
837.123; 4351.335;   -9.903; 8966.582
837.688; 4591.261;   -9.913; 8617.860
838.253; 4836.827;  -10.283; 8590.699
838.817; 5049.986;  -12.963; 8443.797
839.382; 4968.571;  -14.243; 8799.356
839.947; 4648.749;  -10.733; 8810.595
840.511; 4339.743;   -9.383; 8796.394
841.076; 3947.867;  -12.563; 8347.231
841.641; 3996.189;  -12.953; 8224.330
842.205; 4089.485;   -7.043; 8223.349
842.770; 4196.926;   -8.163; 8622.107
843.334; 4375.848;  -12.503; 8410.386
843.898; 4324.635;  -11.693; 8337.465
844.463; 4346.136;  -10.203; 8506.283
845.027; 4121.708;   -9.533; 8280.962
845.591; 3936.536;  -13.443; 8231.141
846.156; 3916.643;  -13.143; 7969.179
846.720; 3804.159;   -9.433; 7768.278
847.284; 3685.702;  -11.033; 7630.957
847.848; 3551.176;  -10.403; 7472.395
848.412; 3455.870;  -11.553; 7437.394
848.976; 3497.332;   -8.393; 7674.592
849.540; 3439.079;   -8.713; 7836.011
850.104; 3552.063;  -12.463; 7913.669
850.668; 3908.503;  -12.973; 7694.508
851.232; 4009.788;  -10.793; 7756.887
851.796; 3847.801;  -10.662; 7926.545
852.359; 3546.236;  -13.082; 7827.844
852.923; 3376.505;  -12.192; 7641.163
853.487; 3193.788;  -11.912; 7342.501
854.050; 3143.856;  -10.892; 7042.820
854.614; 3279.838;  -13.992; 7151.338
855.177; 3410.887;  -11.732; 7105.077
855.741; 3449.863;   -8.962; 6989.675
856.304; 3346.763;   -9.442; 6596.634
856.868; 3297.963;  -14.192; 6356.272
857.431; 3390.745;  -12.702; 6468.571
857.995; 3509.833;   -9.942; 6373.210
858.558; 3516.317;   -9.112; 6324.448
859.121; 3242.462;  -12.932; 6408.327
859.684; 3116.975;  -13.442; 6347.886
860.247; 3225.246;  -10.632; 6321.264
860.810; 3218.006;  -11.272; 6301.903
861.374; 2961.695;   -9.832; 6607.881
861.937; 2696.578;  -11.762; 6408.200
862.500; 2686.980;   -9.722; 6572.639
863.062; 2867.110;  -10.512; 6387.297
863.625; 3040.682;  -11.232; 6190.836
864.188; 3207.011;  -14.112; 5807.254
864.751; 3283.305;  -11.302; 5682.413
865.314; 3181.203;  -10.112; 5547.492
865.876; 2970.389;  -12.182; 5500.150
866.439; 2950.309;  -10.722; 5415.909
867.002; 2902.236;   -9.252; 5501.567
867.564; 2693.209;   -9.572; 5413.946
868.127; 2466.855;  -13.142; 5160.325
868.689; 2356.235;  -12.902; 5133.183
869.252; 2259.412;   -9.732; 5252.382
869.814; 2168.590;   -9.432; 5297.141
870.377; 2183.760;  -11.552; 5390.919
870.939; 2258.628;   -9.052; 5599.898
871.501; 2323.024;  -10.982; 5248.336
872.063; 2326.147;  -12.292; 4854.235
872.626; 2284.476;  -14.912; 4817.074
873.188; 2314.952;  -13.112; 4987.732
873.750; 2283.310;  -13.442; 4868.651
874.312; 2179.459;   -9.402; 4779.330
874.874; 2089.448;  -11.062; 4866.348
875.436; 1998.428;  -13.931; 4718.887
875.998; 1996.075;   -9.561; 4660.005
876.560; 2031.652;  -11.321; 4462.964
877.122; 1979.500;  -12.221; 4145.042
877.683; 1889.360;  -12.191; 4056.481
878.245; 1824.481;  -12.101; 3950.740
878.807; 1864.715;   -8.971; 4058.958
879.369; 1890.366;  -12.071; 3954.677
879.930; 1786.722;  -14.621; 3941.495
880.492; 1717.102;  -10.311; 4067.014
881.053; 1687.499;  -10.901; 3859.633
881.615; 1604.134;  -14.411; 3776.071
882.176; 1563.704;  -13.761; 3734.750
882.738; 1598.714;   -9.181; 3678.489
883.299; 1606.650;  -11.791; 3405.407
883.860; 1529.790;  -13.121; 3351.106
884.422; 1306.057;  -11.211; 3394.044
884.983;  988.912;  -10.091; 3166.443
885.544;  751.558;   -8.461; 3189.802
886.105;  664.161;  -12.361; 3160.360
886.666;  661.012;  -14.141; 3093.059
887.227;  676.204;  -11.361; 2941.957
887.788;  682.097;  -11.401; 2974.836
888.349;  680.754;  -13.791; 2721.214
888.910;  712.691;  -13.191; 2696.493
889.471;  741.172;   -9.881; 2560.172
890.032;  741.603;   -9.881; 2558.190
890.593;  732.349;  -10.371; 2567.669
891.153;  717.402;  -13.301; 2460.307
891.714;  681.889;  -11.431; 2372.046
892.275;  654.656;  -11.291; 2309.505
892.835;  623.094;  -11.471; 2382.543
893.396;  578.142;  -11.541; 2295.502
893.956;  528.523;  -11.181; 2162.420
894.517;  498.077;  -11.741; 2125.439
895.077;  493.578;  -11.671; 2086.978
895.638;  496.284;  -11.311; 2126.316
896.198;  471.184;   -9.831; 1838.275
896.758;  431.471;   -8.421; 1892.813
897.319;  403.377;  -12.351; 1792.232
897.879;  389.319;  -13.511; 1762.751
898.439;  365.250;  -12.001; 1661.149
898.999;  343.492;  -10.180; 1781.468
899.559;  334.982;  -12.030; 1703.347
900.119;  330.888;  -15.710; 1537.525
900.679;  328.508;   -8.900; 1638.384
901.239;  314.451;   -8.340; 1527.902
901.799;  303.407;  -13.910; 1456.441
902.359;  298.369;  -13.460; 1357.140
902.919;  292.032;  -11.490; 1331.118
903.479;  280.621;  -12.110; 1317.257
904.038;  259.945;  -11.720; 1262.595
904.598;  245.022;  -13.610; 1152.034
905.158;  241.194;  -11.040; 1240.893
905.717;  235.379;  -10.900; 1233.691
906.277;  224.936;  -15.080; 1217.330
906.836;  215.076;  -13.380; 1222.408
907.396;  206.975;  -10.780; 1193.047
907.955;  200.052;   -8.500; 1182.526
908.515;  191.892;  -12.760; 1099.364
909.074;  183.692;  -11.900; 1092.863
909.633;  176.628;   -8.950; 1069.121
910.192;  171.584;   -8.770; 1196.460
910.752;  167.455;  -12.390; 1029.960
911.311;  164.417;  -13.680; 1009.780
911.870;  163.225;  -12.370;  971.460
912.429;  164.359;  -10.900; 1094.080
912.988;  162.809;  -11.690; 1081.060
913.547;  159.054;  -13.240;  940.380
914.106;  154.038;  -11.990;  999.420
914.665;  151.450;   -9.990;  984.020
915.224;  151.000;  -12.880; 1035.760
915.782;  151.495;  -12.350;  922.560
916.341;  151.063;   -9.110; 1049.840
916.900;  147.461;   -9.270;  925.260
917.458;  145.386;  -13.240;  884.220
918.017;  144.845;  -13.550;  942.600
918.576;  144.824;  -12.320;  904.440
919.134;  142.614;  -11.490;  837.980
919.693;  140.682;  -13.670;  893.060
920.251;  139.025;  -15.470;  876.500
920.809;  138.465;  -11.290;  839.580
921.368;  137.960;  -10.210;  885.360
921.926;  136.805;  -12.140;  842.940
922.484;  135.467;  -13.080;  903.360
923.042;  135.570;  -11.720;  880.340
923.601;  138.440;   -7.480;  998.680
924.159;  136.418;  -11.570;  935.560
924.717;  133.449;  -13.840;  841.080
925.275;  133.039;  -10.640;  903.240
925.833;  133.770;  -11.540;  779.320
926.391;  134.098;  -12.960;  938.380
926.949;  132.084;  -14.130;  857.680
927.506;  132.407;  -11.750;  903.500
928.064;  132.794;  -10.250;  877.580
928.622;  132.742;  -13.030;  880.100
929.180;  132.036;  -13.400;  814.180
929.737;  133.450;  -10.700;  808.540
930.295;  136.987;  -10.070;  928.480
930.853;  138.288;  -11.960;  849.100
931.410;  138.779;  -13.120;  821.120
931.968;  137.730;  -10.770;  940.660
932.525;  138.194;  -10.680;  909.380
933.082;  138.784;  -13.130;  811.440
933.640;  138.247;  -13.210;  925.900
934.197;  138.021;  -11.060;  886.360
934.754;  138.693;   -9.580;  897.780
935.312;  141.363;  -14.000;  863.340
935.869;  145.010;  -10.710; 1012.980
936.426;  145.062;   -9.860;  872.800
936.983;  146.936;   -9.710;  889.020
937.540;  146.280;  -13.990;  838.280
938.097;  145.229;  -14.040;  940.120
938.654;  145.384;  -10.310;  898.860
939.211;  147.616;  -10.560;  952.480
939.768;  151.008;  -13.900;  915.420
940.324;  154.625;  -14.760;  904.200
940.881;  155.699;  -10.370;  878.500
941.438;  155.676;   -8.260; 1021.200
941.995;  152.735;  -12.540;  992.560
942.551;  150.186;  -14.670;  875.620
943.108;  150.139;  -10.450;  937.920
943.664;  152.568;  -10.750;  869.340
944.221;  155.862;  -11.550; 1088.140
944.777;  153.529;  -14.770;  869.680
945.334;  153.642;  -12.820;  884.840
945.890;  155.548;  -10.130;  946.480
946.446;  155.820;  -13.470;  947.020
947.003;  158.080;  -12.120;  964.940
947.559;  160.873;   -9.980; 1063.040
948.115;  159.470;   -9.080; 1026.540
948.671;  157.320;  -10.830;  967.300
949.227;  154.400;  -12.440;  859.560
949.783;  152.369;  -12.910;  858.900
950.339;  154.082;  -10.270;  991.000
950.895;  154.929;  -13.630; 1023.840
951.451;  153.929;  -15.100;  925.280
952.007;  153.974;  -11.330;  998.540
952.563;  154.572;  -10.580;  937.780
953.118;  153.172;  -13.440;  904.940
953.674;  153.197;  -12.710;  935.780
954.230;  152.595;  -10.350;  949.640
954.785;  150.696;   -9.190;  936.640
955.341;  147.302;  -11.200;  998.160
955.897;  145.388;  -16.560;  834.660
956.452;  146.815;  -12.570;  953.840
957.008;  145.833;   -7.970; 1083.640
957.563;  143.601;  -11.940; 1009.540
958.118;  139.013;  -13.450;  877.700
958.674;  139.354;  -12.030;  946.780
959.229;  140.619;   -9.410; 1013.980
959.784;  137.884;  -12.000;  832.400
960.339;  138.057;  -14.780; 1001.280
960.894;  133.715;   -9.860;  963.760
961.449;  130.194;   -9.970;  859.960
962.004;  131.314;  -10.900; 1212.840
962.559;  124.953;  -13.150;  860.140
963.114;  122.596;  -13.740;  742.480
963.669;  123.173;   -9.820;  915.500
964.224;  121.275;  -13.890;  874.340
964.779;  118.866;  -12.600;  828.420
965.334;  120.496;  -10.950; 1017.860
965.888;  120.110;  -11.170;  875.360
966.443;  122.936;  -12.540;  972.380
966.998;  121.857;  -15.780;  819.460
967.552;  121.428;   -9.760;  908.380
968.107;  117.162;   -9.060;  868.300
968.661;  118.278;  -11.950;  922.440
969.216;  118.280;  -12.800;  856.280
969.770;  118.686;  -11.210;  917.200
970.324;  118.775;  -11.610;  923.140
970.879;  115.246;  -11.370;  947.180
971.433;  111.221;  -12.540;  952.720
971.987;  106.642;  -11.320;  895.340
972.541;  103.880;  -10.720;  917.100
973.095;  103.407;   -9.680; 1009.460
973.649;  102.123;  -11.440;  809.480
974.203;  100.556;  -11.210;  829.040
974.757;  100.783;  -10.240;  855.220
975.311;  100.741;  -13.720;  872.600
975.865;   99.912;  -13.770;  881.820
976.419;   98.213;  -11.690;  857.400
976.973;   98.591;   -9.510;  849.620
977.526;  100.552;  -12.620;  949.920
978.080;   99.830;  -12.010;  796.780
978.634;  100.557;  -10.170;  921.320
979.187;   99.270;   -9.020;  905.400
979.741;   96.157;   -9.820; 1018.380
980.294;   90.637;  -14.870;  789.160
980.848;   88.736;  -12.380;  717.220
981.401;   91.175;  -10.350;  816.540
981.955;   93.365;  -13.720;  844.300
982.508;   91.824;  -11.490;  746.340
983.061;   92.547;  -10.000;  915.260
983.615;   88.840;  -11.480;  798.800
984.168;   85.160;  -13.220;  770.080
984.721;   85.039;  -13.960;  880.760
985.274;   82.457;  -10.870;  867.500
985.827;   83.298;   -9.790;  834.220
986.380;   80.607;  -13.120;  721.340
986.933;   79.371;  -12.450;  864.800
987.486;   77.383;  -10.210;  861.920
988.039;   77.275;   -8.430;  863.100
988.591;   75.241;  -10.520;  893.260
989.144;   72.585;  -14.860;  737.260
989.697;   71.289;  -13.080;  758.740
990.250;   72.360;  -10.150;  858.100
990.802;   71.399;  -13.430;  755.860
991.355;   72.179;  -12.750;  974.880
991.907;   69.866;  -12.040;  864.320
992.460;   67.553;  -11.330;  753.760
993.012;   66.605;  -13.610;  749.540
993.565;   65.961;  -13.460;  711.360
994.117;   67.005;   -9.360;  950.780
994.669;   63.447;  -11.300;  701.320
995.221;   61.711;  -13.540;  791.920
995.774;   59.968;  -13.430;  787.580
996.326;   58.465;  -12.520;  740.220
996.878;   58.935;  -10.950;  838.420
997.430;   56.752;  -14.300;  699.860
997.982;   55.717;  -13.760;  750.140
998.534;   54.317;  -11.530;  739.060
999.086;   53.853;  -10.310;  738.220
999.638;   52.338;  -12.530;  661.380
1000.190;   51.943;  -11.840;  699.320
1000.741;   51.499;  -10.260;  742.700
1001.293;   51.527;   -8.860;  686.020
1001.845;   49.931;  -13.700;  676.640
1002.396;   49.228;  -12.100;  743.400
1002.948;   49.255;  -12.760;  737.400
1003.500;   47.955;  -10.380;  723.780
1004.051;   47.975;  -11.900;  907.580
1004.603;   46.269;  -12.250;  791.820
1005.154;   43.143;  -13.210;  608.980
1005.705;   42.200;  -10.950;  723.960
1006.257;   42.037;  -13.880;  707.220
1006.808;   40.953;  -12.840;  685.460
1007.359;   40.171;  -10.570;  763.240
1007.910;   39.962;   -9.620;  646.640
1008.461;   39.345;  -13.630;  732.940
1009.013;   38.307;  -17.200;  588.340
1009.564;   39.397;  -10.200;  793.520
1010.115;   37.179;  -12.570;  597.040
1010.665;   37.189;  -15.150;  602.160
1011.216;   37.198;  -14.480;  667.920
1011.767;   36.198;  -11.340;  697.920
1012.318;   36.867;   -9.780;  736.980
1012.869;   35.367;  -12.380;  679.000
1013.419;   35.008;  -15.560;  603.120
1013.970;   35.729;  -11.010;  666.640
1014.521;   34.808;  -11.610;  620.620
1015.071;   34.907;  -13.450;  670.380
1015.622;   34.821;  -13.870;  635.460
1016.172;   33.978;  -11.610;  596.820
1016.723;   34.257;  -12.120;  614.380
1017.273;   32.937;  -13.620;  604.160
1017.823;   33.472;  -14.140;  650.340
1018.374;   32.449;  -12.800;  611.760
1018.924;   32.273;  -12.340;  716.880
1019.474;   33.074;  -11.410;  718.880
1020.024;   31.556;  -14.770;  657.580
1020.574;   32.703;   -9.780;  726.160
1021.124;   33.367;   -8.560;  673.580
1021.674;   31.492;  -15.190;  559.120
1022.224;   32.371;  -13.530;  708.940
1022.774;   31.695;  -13.280;  668.820
1023.324;   32.044;  -10.690;  753.520
1023.874;   32.734;  -10.240;  875.760
1024.423;   30.709;  -12.540;  613.700
1024.973;   30.468;  -10.010;  610.760
1025.523;   29.741;  -10.550;  620.960
1026.072;   29.657;  -13.560;  606.420
1026.622;   29.390;  -15.120;  675.740
1027.172;   30.442;  -11.260;  715.660
1027.721;   29.199;  -11.410;  601.220
1028.270;   30.155;  -13.530;  663.400
1028.820;   29.141;  -13.680;  638.080
1029.369;   28.883;  -13.520;  612.700
1029.918;   29.073;  -10.980;  649.840
1030.468;   28.867;  -13.530;  564.780
1031.017;   28.197;  -13.170;  634.800
1031.566;   28.223;  -12.200;  608.900
1032.115;   27.742;   -9.960;  694.500
1032.664;   26.707;  -13.210;  596.480
1033.213;   27.982;  -12.500;  735.420
1033.762;   27.247;  -11.910;  635.620
1034.311;   27.457;   -9.640;  677.220
1034.860;   27.041;  -13.310;  691.000
1035.408;   27.537;  -11.830;  722.720
1035.957;   27.518;  -12.000;  719.540
1036.506;   25.825;  -11.690;  530.800
1037.055;   27.461;  -10.990;  844.320
1037.603;   25.836;  -15.120;  664.000
1038.152;   24.727;  -12.450;  534.760
1038.700;   24.879;  -10.560;  585.740
1039.249;   25.862;  -11.080;  681.220
1039.797;   25.115;  -12.540;  633.360
1040.345;   25.242;  -11.920;  705.420
1040.894;   25.274;  -11.410;  625.300
1041.442;   24.547;  -14.320;  632.200
1041.990;   23.301;  -16.240;  559.160
1042.538;   23.301;  -11.680;  536.180
1043.087;   23.993;  -10.760;  570.860
1043.635;   25.257;  -11.850;  670.500
1044.183;   24.212;  -15.480;  586.400
1044.731;   23.393;  -11.770;  576.000
1045.279;   24.210;  -13.090;  674.920
1045.827;   25.356;  -12.440;  892.400
1046.374;   22.127;  -13.840;  515.420
1046.922;   22.448;  -13.220;  590.580
1047.470;   23.735;  -10.230;  691.300
1048.018;   22.992;  -14.590;  647.960
1048.565;   22.985;  -12.050;  708.600
1049.113;   22.173;  -11.650;  557.000
1049.660;   21.717;  -10.510;  629.660
1050.208;   21.935;  -13.310;  675.640
1050.755;   21.187;  -15.900;  606.580
1051.303;   21.155;  -11.430;  686.820
1051.850;   21.451;   -8.480;  635.120
1052.397;   19.302;  -15.010;  473.960
1052.945;   20.731;  -13.960;  617.760
1053.492;   21.341;  -13.150;  741.840
1054.039;   21.868;   -9.630;  720.180
1054.586;   20.436;  -13.680;  557.240
1055.133;   21.099;  -14.570;  693.140
1055.680;   20.225;  -13.820;  646.620
1056.227;   20.462;  -11.730;  542.780
1056.774;   21.191;  -12.480;  794.980
1057.321;   18.930;  -13.930;  523.260
1057.868;   19.955;  -11.690;  651.320
1058.415;   19.573;   -9.520;  651.980
1058.961;   19.673;  -13.160;  678.940
1059.508;   19.376;  -12.920;  643.820
1060.055;   19.050;  -11.920;  581.780
1060.601;   19.630;  -11.500;  624.300
1061.148;   19.349;  -14.330;  616.820
1061.694;   18.438;  -16.870;  592.580
1062.241;   18.569;  -10.330;  596.320
1062.787;   18.819;  -10.620;  663.140
1063.334;   21.127;  -10.110;  808.560
1063.880;   18.315;  -13.400;  668.360
1064.426;   18.604;  -10.680;  706.820
1064.972;   17.833;   -9.920;  601.340
1065.518;   17.377;  -10.980;  566.640
1066.065;   18.087;  -14.890;  624.460
1066.611;   17.192;  -12.870;  598.800
1067.157;   18.825;  -12.950;  641.860
1067.703;   17.654;  -13.540;  668.480
1068.249;   17.323;  -13.540;  605.220
1068.794;   16.411;  -12.600;  626.880
1069.340;   16.114;  -10.620;  578.960
1069.886;   16.580;  -12.830;  590.700
1070.432;   15.573;  -14.870;  541.720
1070.977;   16.238;  -11.980;  601.080
1071.523;   15.902;   -8.200;  573.060
1072.068;   16.290;  -12.330;  582.000
1072.614;   16.168;  -16.370;  527.760
1073.160;   16.928;  -11.100;  687.040
1073.705;   15.445;  -10.480;  572.520
1074.250;   15.310;  -14.520;  559.900
1074.796;   16.341;  -11.460;  655.160
1075.341;   16.558;  -11.950;  664.100
1075.886;   16.357;  -11.460;  594.240
1076.431;   15.418;  -13.770;  649.880
1076.976;   14.603;  -12.680;  639.220
1077.521;   14.191;  -13.170;  583.080
1078.067;   14.764;  -10.860;  579.400
1078.612;   15.276;  -13.920;  661.620
1079.156;   14.945;  -13.880;  601.540
1079.701;   15.398;  -13.120;  693.260
1080.246;   14.946;   -9.940;  696.300
1080.791;   14.657;  -14.740;  625.020
1081.336;   14.571;  -13.750;  659.320
1081.880;   14.638;  -13.400;  649.680
1082.425;   13.727;  -12.220;  573.480
1082.970;   15.569;  -11.610;  717.040
1083.514;   13.529;  -13.580;  597.000
1084.059;   12.806;  -12.810;  586.720
1084.603;   12.969;  -12.320;  565.840
1085.147;   13.627;  -13.190;  645.220
1085.692;   13.998;  -12.480;  716.800
1086.236;   12.595;  -13.020;  503.140
1086.780;   14.784;   -9.190;  751.440
1087.325;   13.424;  -12.480;  654.620
1087.869;   13.046;  -12.450;  610.700
1088.413;   13.208;  -12.240;  705.040
1088.957;   12.088;   -9.020;  543.400
1089.501;   13.849;  -10.320;  766.640
1090.045;   13.169;  -12.720;  726.480
1090.589;   10.630;  -13.690;  569.920
1091.133;   12.801;  -10.020;  673.340
1091.676;   12.305;  -12.330;  591.940
1092.220;   11.699;  -14.970;  600.920
1092.764;   12.797;  -12.430;  706.960
1093.307;   12.552;   -9.800;  673.780
1093.851;   10.721;  -14.970;  556.540
1094.395;   11.863;  -15.310;  683.140
1094.938;   11.251;  -10.370;  632.520
1095.482;   11.190;  -11.050;  559.800
1096.025;   11.872;  -11.840;  710.880
1096.568;   12.275;  -12.840;  779.280
1097.112;    9.321;  -14.700;  508.180
1097.655;   11.107;   -8.720;  603.000
1098.198;   10.257;  -13.610;  600.180
1098.741;    9.956;  -13.350;  612.860
1099.285;   10.999;  -11.230;  657.300
1099.828;    8.984;  -11.840;  439.400
1100.371;   10.277;  -10.840;  608.160
1100.914;   10.331;  -14.190;  682.660
1101.457;   10.342;  -11.240;  679.900
1101.999;    8.984;  -11.270;  584.680
1102.542;   10.505;  -11.480;  641.440
1103.085;    9.815;  -11.750;  658.500
1103.628;   10.229;  -11.400;  762.060
1104.170;    9.490;  -10.490;  588.280
1104.713;    9.955;  -10.600;  646.700
1105.256;    8.982;  -14.360;  557.440
1105.798;    8.031;  -13.210;  499.980
1106.341;    9.513;  -10.270;  728.900
1106.883;    8.512;  -12.200;  521.340
1107.425;    7.974;  -13.110;  668.180
1107.968;    7.726;  -12.840;  612.380
1108.510;    8.429;   -6.480;  684.960
1109.052;    7.188;  -13.940;  612.620
1109.594;    7.694;  -13.690;  554.440
1110.136;    8.733;  -11.880;  643.220
1110.679;    7.850;   -9.500;  633.080
1111.221;    8.137;  -14.160;  604.460
1111.763;    7.262;  -13.980;  559.220
1112.304;    7.552;  -13.880;  547.140
1112.846;    8.235;  -12.210;  666.240
1113.388;   10.269;  -11.390;  942.180
1113.930;    7.662;  -14.540;  694.200
1114.472;    6.479;  -12.640;  606.540
1115.013;    5.372;  -11.620;  551.280
1115.555;    6.556;  -13.640;  587.100
1116.097;    6.216;  -15.380;  579.480
1116.638;    7.297;  -12.640;  684.600
1117.180;    7.238;   -9.850;  667.740
1117.721;    7.146;  -13.690;  568.580
1118.262;    7.933;  -12.680;  677.960
1118.804;    7.563;  -12.530;  637.340
1119.345;    6.064;  -11.690;  578.400
1119.886;    7.278;  -13.380;  704.040
1120.427;    6.260;  -14.070;  589.020
1120.969;    4.955;  -13.500;  597.920
1121.510;    5.209;  -11.480;  563.060
1122.051;    6.287;  -12.830;  723.580
1122.592;    5.283;  -14.290;  655.420
1123.133;    4.466;  -12.400;  547.940
1123.673;    6.756;  -10.130;  706.480
1124.214;    6.085;  -12.930;  612.460
1124.755;    6.673;  -14.380;  639.460
1125.296;    5.358;  -14.000;  627.320
1125.836;    6.043;  -10.070;  691.500
1126.377;    5.569;  -12.640;  599.660
1126.918;    5.600;  -12.960;  614.980
1127.458;    4.417;  -13.350;  622.220
1127.999;    5.770;  -10.750;  656.980
1128.539;    5.106;  -12.350;  694.240
1129.079;    4.475;  -14.860;  632.720
1129.620;    4.169;  -13.840;  558.100
1130.160;    3.877;  -12.330;  539.480
1130.700;    5.372;  -14.530;  640.840
1131.240;    5.547;  -12.530;  643.700
1131.781;    4.518;  -14.450;  619.680
1132.321;    4.604;   -9.790;  599.120
1132.861;    2.912;  -14.860;  564.200
1133.401;    3.468;  -14.290;  593.940
1133.941;    3.992;  -11.750;  626.280
1134.481;    3.233;   -9.920;  597.580
1135.020;    4.054;  -12.290;  609.160
1135.560;    3.102;  -11.650;  674.940
1136.100;    2.793;  -16.270;  501.160
1136.640;    3.486;  -10.890;  510.480
1137.179;    3.377;  -14.180;  537.960
1137.719;    3.523;  -16.250;  605.400
1138.258;    3.061;  -14.230;  587.360
1138.798;    3.533;   -9.090;  663.780
1139.337;    2.511;  -15.130;  482.840
1139.877;    2.724;  -13.680;  642.360
1140.416;    4.775;  -11.320;  878.060
1140.955;    2.529;  -10.860;  535.380
1141.494;    3.606;  -12.920;  669.280
1142.034;    1.900;  -13.930;  583.520
1142.573;    3.376;  -11.440;  646.280
1143.112;    2.109;  -12.000;  553.480
1143.651;    2.760;  -13.670;  536.480
1144.190;    3.191;  -12.730;  691.640
1144.729;    2.210;  -14.560;  607.420
1145.267;    1.699;  -11.830;  584.900
1145.806;    2.929;  -12.230;  637.040
1146.345;    1.642;  -14.130;  635.020
1146.884;    2.211;  -11.590;  622.500
1147.422;    1.221;  -12.550;  533.060
1147.961;    3.081;  -11.180;  708.460
1148.500;    3.167;  -11.510;  669.720
1149.038;    2.574;  -11.640;  632.500
1149.577;    2.361;  -10.130;  698.640
1150.115;    0.416;  -13.970;  452.280
1150.653;    1.401;  -14.520;  607.340
1151.192;    1.497;  -12.810;  552.920
1151.730;    2.198;   -9.100;  652.560
1152.268;    0.835;  -12.220;  589.520
1152.806;    0.797;  -14.140;  571.180
1153.344;   -0.069;  -12.350;  577.640
1153.882;    1.412;   -8.980;  600.060
1154.421;   -0.356;  -15.190;  470.620
1154.958;    0.096;  -15.210;  595.240
1155.496;    1.315;  -12.850;  645.280
1156.034;    0.674;   -9.940;  721.880
1156.572;    1.754;  -13.570;  667.060
1157.110;   -0.596;  -14.590;  473.940
1157.647;    0.791;  -13.030;  676.960
1158.185;    0.473;  -12.140;  564.320
1158.723;   -1.077;  -14.390;  509.200
1159.260;    0.099;  -14.090;  701.700
1159.798;    0.676;  -11.920;  658.160
1160.335;    0.413;  -11.110;  631.820

