
Integration time [ms]:   3.276
Averaging Nr. [scans]: 1000
Smoothing Nr. [pixels]: 0
Data measured with spectrometer [name]: 7414430SP
Wave   ;Sample   ;Dark     ;Reference
[nm]   ;[counts] ;[counts] ;[counts] 

288.544;  152.007;    7.793;  793.890
289.143;  154.946;    7.462;  681.602
289.742;  154.204;    8.602;  828.814
290.341;  140.654;    1.321;  789.841
290.940;  130.238;   -0.709;  730.702
291.538;  131.373;    0.881;  881.108
292.137;  130.236;    0.122;  792.581
292.736;  135.083;   -1.929;  975.101
293.335;  132.728;   -8.229;  735.086
293.934;  131.465;   -5.279;  781.677
294.532;  129.658;   -1.369; 1031.958
295.131;  116.666;   -7.641;  834.394
295.730;  117.238;   -8.420;  809.588
296.328;  116.262;   -5.611;  783.442
296.927;  115.502;   -5.781;  779.652
297.525;  117.013;   -6.361;  781.236
298.124;  107.929;  -11.382;  654.009
298.722;  111.501;   -7.641;  761.933
299.321;  109.301;   -6.811;  708.597
299.919;  107.318;   -6.991;  751.918
300.518;  104.921;  -10.362;  689.338
301.116;  106.232;   -9.581;  691.381
301.715;  105.932;   -4.891;  730.222
302.313;  104.385;   -8.801;  704.943
302.911;  100.940;   -8.522;  733.830
303.509;  104.876;   -6.171;  925.627
304.108;  103.191;   -7.311;  760.383
304.706;  102.837;   -8.321;  801.664
305.304;   97.129;  -10.222;  796.707
305.902;  101.662;   -6.021;  784.484
306.500;   97.425;   -4.971;  728.200
307.098;   96.724;   -7.061;  746.560
307.696;   94.998;   -8.801;  780.432
308.294;   95.057;   -6.411;  731.359
308.892;   96.139;   -2.901;  759.769
309.490;   93.697;   -5.041;  712.161
310.088;   92.466;   -5.002;  788.444
310.686;   95.892;   -2.041;  821.749
311.284;   91.156;   -2.351;  766.040
311.882;   89.539;   -4.422;  731.225
312.480;   87.278;   -4.192;  697.167
313.078;   87.238;   -1.172;  808.331
313.675;   87.896;   -2.601;  691.600
314.273;   83.601;   -1.312;  797.837
314.871;   83.412;   -3.942;  589.829
315.468;   80.290;   -2.802;  652.090
316.066;   83.823;   -0.701;  694.427
316.664;   76.590;   -4.362;  656.351
317.261;   81.022;   -2.872;  910.128
317.859;   75.955;   -2.022;  768.735
318.456;   75.785;   -0.531;  830.096
319.054;   73.037;   -3.912;  787.828
319.651;   71.767;   -4.752;  759.928
320.249;   69.941;   -2.602;  810.188
320.846;   67.320;   -0.821;  714.286
321.443;   66.521;   -4.642;  832.135
322.041;   63.416;   -5.002;  812.315
322.638;   60.837;   -3.982;  701.456
323.235;   61.095;   -3.411;  665.683
323.833;   59.510;   -7.361;  740.354
324.430;   54.891;   -8.611;  615.900
325.027;   55.634;   -4.061;  876.855
325.624;   54.939;   -4.031;  644.532
326.221;   52.562;   -7.481;  689.717
326.818;   52.207;   -5.281;  818.332
327.415;   54.961;   -7.460;  748.828
328.012;   53.920;   -5.510;  690.585
328.609;   53.032;   -7.880;  731.389
329.206;   51.630;   -8.331;  778.621
329.803;   51.824;   -5.121;  737.841
330.400;   52.956;   -4.510;  704.260
330.997;   55.663;   -6.441;  817.147
331.594;   54.888;   -8.831;  788.185
332.191;   59.197;   -7.621;  728.722
332.787;   61.394;   -4.591;  844.463
333.384;   60.995;   -7.412;  763.093
333.981;   59.793;   -8.293;  815.687
334.578;   62.434;   -7.052;  708.378
335.174;   64.389;   -3.102;  731.469
335.771;   65.494;   -5.943;  836.456
336.367;   61.878;   -7.393;  710.631
336.964;   65.862;   -4.063;  793.266
337.561;   62.089;   -3.813;  731.112
338.157;   58.829;   -4.654;  911.916
338.754;   56.425;   -7.934;  796.589
339.350;   54.643;   -4.414;  722.493
339.946;   56.136;   -4.664;  773.135
340.543;   47.748;   -6.375;  846.136
341.139;   43.922;   -9.815;  720.836
341.735;   41.240;   -4.526;  772.593
342.332;   39.818;   -4.895;  691.472
342.928;   39.647;   -4.295;  795.394
343.524;   34.899;   -5.476;  761.684
344.120;   31.174;   -5.856;  738.562
344.716;   32.969;   -2.155;  723.717
345.313;   31.614;   -6.275;  795.342
345.909;   27.608;   -8.815;  627.336
346.505;   28.131;   -5.305;  740.247
347.101;   28.725;   -2.674;  827.864
347.697;   28.478;   -4.344;  785.398
348.293;   23.947;   -9.975;  627.244
348.889;   24.298;   -5.774;  745.914
349.485;   23.740;   -5.004;  688.205
350.081;   25.378;   -4.704;  772.592
350.676;   19.828;   -6.635;  691.606
351.272;   24.515;   -4.504;  809.530
351.868;   23.617;   -3.914;  780.497
352.464;   21.206;   -9.044;  723.932
353.059;   17.517;   -8.314;  646.017
353.655;   20.720;   -7.024;  777.063
354.251;   21.086;   -5.343;  759.845
354.846;   16.332;   -8.604;  740.646
355.442;   15.040;   -6.945;  753.071
356.038;   16.644;   -7.564;  751.708
356.633;   16.298;   -5.814;  728.594
357.229;   13.686;   -7.364;  724.757
357.824;   13.209;   -8.024;  703.600
358.420;   11.381;   -9.384;  679.726
359.015;   11.621;   -5.104;  695.357
359.610;   12.805;   -6.854;  763.920
360.206;    7.171;  -10.185;  603.240
360.801;   10.330;   -7.054;  646.503
361.396;   12.051;   -5.034;  725.975
361.992;    7.894;   -8.284;  668.220
362.587;    5.995;   -8.625;  670.160
363.182;    7.003;   -7.674;  689.631
363.777;    7.091;   -5.164;  738.242
364.372;    7.664;   -8.604;  737.314
364.967;    4.250;   -9.055;  680.744
365.563;    8.122;   -6.114;  815.567
366.158;    4.743;   -5.814;  685.161
366.753;    5.120;   -7.854;  649.263
367.348;    4.602;   -7.804;  746.056
367.942;    2.845;   -7.954;  697.298
368.537;    1.759;   -4.984;  754.245
369.132;    3.339;   -8.564;  703.428
369.727;   -0.433;   -8.855;  638.079
370.322;    0.270;   -6.245;  580.186
370.917;   -0.864;   -6.425;  710.646
371.511;    2.775;   -6.294;  861.834
372.106;    0.414;   -7.685;  776.964
372.701;   -3.754;   -7.335;  585.988
373.296;    1.501;   -4.564;  863.135
373.890;   -3.355;  -10.235;  647.840
374.485;   -4.516;   -7.885;  691.199
375.079;   -0.739;   -7.324;  738.685
375.674;   -0.083;   -3.494;  812.970
376.268;   -4.034;   -8.525;  691.759
376.863;   -9.192;  -10.086;  580.327
377.457;   -3.769;   -7.025;  662.490
378.052;   -5.753;   -3.585;  764.884
378.646;   -6.944;   -7.595;  741.167
379.240;   -5.371;   -8.335;  721.176
379.835;   -5.391;   -5.785;  636.978
380.429;   -7.847;   -4.335;  562.557
381.023;   -7.738;   -6.805;  779.205
381.617;   -8.908;   -9.195;  680.106
382.212;   -6.334;   -6.905;  685.303
382.806;   -6.090;   -3.745;  760.690
383.400;   -8.988;   -7.745;  672.281
383.994;  -10.646;   -9.765;  664.870
384.588;   -7.158;   -6.564;  697.701
385.182;   -5.726;   -5.344;  726.624
385.776;   -7.189;   -8.514;  706.875
386.370;   -9.089;   -9.555;  681.968
386.964;   -8.672;   -8.715;  684.155
387.558;   -7.450;   -6.174;  598.360
388.152;  -11.018;   -8.725;  681.959
388.745;   -8.748;   -7.965;  814.707
389.339;   -6.978;   -5.924;  747.642
389.933;   -6.701;   -5.524;  695.370
390.527;   -7.194;   -7.114;  859.029
391.120;  -12.728;  -10.725;  595.318
391.714;  -11.354;   -8.035;  711.633
392.308;   -8.528;   -3.574;  780.253
392.901;  -11.128;   -7.245;  642.460
393.495;  -12.821;   -9.285;  595.414
394.089;  -10.992;   -5.895;  760.452
394.682;  -11.739;   -4.295;  697.188
395.275;  -12.188;   -9.875;  719.927
395.869;  -12.812;   -8.485;  667.314
396.462;  -11.614;   -7.455;  616.609
397.056;   -7.981;   -5.424;  776.621
397.649;  -12.767;   -6.605;  731.575
398.242;  -10.343;   -8.224;  712.645
398.836;   -8.118;   -7.474;  766.408
399.429;  -10.740;   -7.094;  631.041
400.022;  -13.636;   -9.475;  665.902
400.615;  -10.818;   -7.145;  805.609
401.208;   -8.869;   -7.174;  691.451
401.802;  -11.601;   -5.515;  699.329
402.395;  -12.600;   -9.875;  683.502
402.988;  -13.261;   -8.845;  696.627
403.581;  -10.015;   -8.874;  646.878
404.174;   -7.984;   -5.324;  686.568
404.767;  -10.953;   -9.575;  638.583
405.360;  -12.626;  -10.965;  621.445
405.953;   -7.661;   -8.764;  759.034
406.545;   -8.157;   -7.514;  725.342
407.138;  -11.549;  -10.025;  618.350
407.731;   -9.633;  -10.034;  613.303
408.324;   -5.165;   -9.374;  660.554
408.917;   -7.694;   -6.534;  681.864
409.509;   -8.657;   -8.004;  740.396
410.102;  -10.342;   -9.875;  643.948
410.695;   -4.966;   -8.604;  665.758
411.287;   -6.550;   -6.794;  599.821
411.880;   -7.207;   -9.334;  585.421
412.472;   -9.556;  -10.254;  613.092
413.065;   -7.270;   -6.714;  629.408
413.657;   -5.390;   -7.234;  576.678
414.250;   -4.849;  -10.544;  646.681
414.842;   -6.041;   -9.744;  676.353
415.434;   -3.933;   -6.994;  570.463
416.027;   -0.336;   -5.893;  652.196
416.619;   -3.030;   -7.264;  713.400
417.211;   -3.023;  -10.374;  599.352
417.804;    0.649;   -7.993;  628.499
418.396;   -4.208;   -7.234;  607.643
418.988;   -1.300;   -9.443;  659.238
419.580;   -3.552;  -10.724;  568.276
420.172;   -2.482;  -10.323;  536.196
420.764;    1.612;   -8.793;  672.482
421.356;    0.848;  -11.143;  636.898
421.948;    0.972;   -8.293;  677.661
422.540;    4.460;   -7.893;  680.027
423.132;    3.848;   -7.082;  600.641
423.724;    1.411;   -8.653;  561.267
424.316;    4.037;  -10.213;  621.345
424.908;    6.507;   -9.762;  591.517
425.500;    6.871;   -5.572;  647.978
426.092;    7.685;   -8.422;  648.268
426.683;    7.333;   -9.283;  684.836
427.275;    9.829;   -7.852;  641.471
427.867;   10.911;   -5.272;  668.948
428.458;   12.438;   -7.682;  732.344
429.050;   10.779;  -10.612;  680.749
429.642;   12.792;   -9.882;  743.124
430.233;   12.825;   -6.962;  569.356
430.825;   14.689;   -6.842;  724.809
431.416;   11.462;   -9.672;  698.241
432.008;   15.054;   -6.552;  651.723
432.599;   15.969;   -6.891;  656.073
433.190;   13.431;  -10.912;  637.670
433.782;   12.822;  -11.172;  590.395
434.373;   20.329;   -6.061;  884.765
434.964;   17.751;   -8.251;  602.920
435.556;   16.155;   -9.722;  634.537
436.147;   20.029;   -9.082;  758.490
436.738;   18.985;   -8.041;  701.099
437.329;   23.938;   -7.341;  721.723
437.920;   17.207;   -8.162;  666.688
438.511;   17.901;  -11.802;  564.526
439.103;   24.064;  -10.191;  623.998
439.694;   24.859;   -7.601;  681.583
440.285;   26.461;   -8.541;  764.432
440.876;   25.326;   -9.751;  845.738
441.466;   24.330;   -9.401;  575.162
442.057;   29.811;   -7.760;  665.814
442.648;   28.471;   -9.971;  746.255
443.239;   26.347;  -11.001;  620.477
443.830;   31.860;   -7.990;  704.958
444.421;   33.533;   -7.910;  655.474
445.011;   30.197;   -8.131;  693.619
445.602;   30.675;   -7.111;  743.126
446.193;   31.183;  -10.920;  488.117
446.783;   36.001;   -6.500;  640.397
447.374;   31.242;   -8.671;  692.759
447.964;   32.425;  -10.781;  713.770
448.555;   40.113;   -9.650;  822.742
449.145;   35.964;   -8.660;  662.853
449.736;   37.434;   -8.990;  803.179
450.326;   38.799;   -9.500;  713.626
450.917;   43.431;   -8.680;  675.324
451.507;   41.270;   -7.520;  600.661
452.097;   42.733;   -8.590;  746.267
452.688;   44.349;  -11.340;  742.160
453.278;   44.720;  -10.100;  566.840
453.868;   47.704;   -6.019;  793.550
454.458;   46.108;   -9.440;  651.141
455.048;   47.250;  -10.560;  711.783
455.639;   48.753;  -11.799;  567.096
456.229;   51.318;   -6.899;  710.694
456.819;   53.461;   -7.389;  751.158
457.409;   54.864;  -11.119;  773.993
457.999;   57.353;   -9.289;  737.505
458.589;   56.284;   -6.139;  686.606
459.179;   56.701;   -8.729;  717.658
459.769;   56.017;   -9.789;  627.099
460.358;   59.636;  -10.259;  797.262
460.948;   59.360;   -7.299;  689.503
461.538;   61.144;  -10.289;  660.677
462.128;   60.290;  -11.269;  664.934
462.717;   65.811;   -9.368;  710.326
463.307;   68.446;   -7.908;  705.846
463.897;   64.647;   -9.599;  656.942
464.486;   64.961;   -9.769;  837.128
465.076;   68.603;   -8.048;  733.776
465.666;   71.795;   -9.358;  652.900
466.255;   70.125;   -7.919;  785.651
466.845;   69.277;  -11.689;  666.749
467.434;   72.946;   -7.818;  725.873
468.023;   73.195;   -7.678;  658.357
468.613;   70.925;  -10.939;  713.946
469.202;   75.654;  -10.118;  646.507
469.791;   79.544;   -9.108;  737.811
470.381;   80.923;   -6.058;  742.813
470.970;   81.238;  -10.428;  711.099
471.559;   81.032;  -10.268;  733.291
472.148;   83.749;   -8.448;  675.737
472.738;   86.776;   -6.917;  765.466
473.327;   86.039;  -11.978;  637.529
473.916;   87.174;  -11.888;  737.446
474.505;   91.315;   -9.437;  751.703
475.094;   93.226;   -6.747;  806.570
475.683;   92.883;   -9.367;  797.699
476.272;   94.883;  -12.637;  730.632
476.861;   97.024;  -10.027;  706.754
477.449;  103.236;   -8.716;  728.487
478.038;   98.338;   -9.577;  692.513
478.627;   99.620;   -9.718;  714.852
479.216;  106.247;   -8.947;  769.441
479.805;  108.598;   -6.256;  783.375
480.393;  109.234;   -7.937; 1008.945
480.982;  108.456;   -7.717;  874.501
481.571;  115.036;   -9.266;  858.333
482.159;  114.148;   -7.636;  705.386
482.748;  114.253;   -9.667;  821.385
483.336;  120.223;  -10.376;  858.209
483.925;  120.627;   -7.147;  774.373
484.513;  126.832;   -7.996;  758.962
485.102;  124.211;  -10.027;  810.965
485.690;  133.078;  -10.446; 1011.050
486.278;  135.143;   -8.446;  979.329
486.867;  135.650;   -6.356;  809.662
487.455;  137.572;   -9.136;  898.229
488.043;  140.361;  -10.646;  748.361
488.631;  147.925;   -7.456; 1005.079
489.220;  151.367;   -6.636;  908.626
489.808;  151.687;  -11.036;  741.415
490.396;  161.656;  -10.246;  914.645
490.984;  168.051;   -8.556;  830.161
491.572;  176.575;   -5.886;  940.315
492.160;  184.675;   -9.486;  919.081
492.748;  197.507;  -10.976;  884.341
493.336;  221.327;   -8.776; 1019.693
493.924;  248.490;   -5.465;  958.077
494.512;  277.541;   -9.986; 1066.638
495.100;  319.187;  -10.636; 1103.280
495.687;  376.048;  -10.885; 1206.373
496.275;  443.270;   -8.126; 1150.796
496.863;  518.463;  -10.586; 1281.171
497.451;  628.956;  -11.926; 1386.805
498.038;  766.850;  -10.885; 1556.729
498.626;  881.456;   -6.315; 1741.407
499.214; 1041.421;   -7.326; 2016.609
499.801; 1250.914;  -11.906; 2220.633
500.389; 1515.818;  -10.466; 2312.494
500.976; 1845.986;   -5.236; 2744.849
501.564; 2315.923;   -8.936; 3148.565
502.151; 2715.532;  -13.176; 3515.999
502.738; 3202.079;  -10.646; 3971.274
503.326; 3618.517;   -9.525; 4403.796
503.913; 4033.169;  -10.856; 5161.749
504.500; 4426.394;  -11.586; 5986.420
505.088; 4891.006;  -10.336; 6381.201
505.675; 5467.264;   -6.355; 6925.547
506.262; 6244.494;   -9.046; 7619.060
506.849; 7006.630;  -10.416; 8733.969
507.436; 7508.721;  -10.305; 9790.121
508.023; 8132.146;   -5.496; 9985.472
508.610; 8413.385;   -7.856;10434.618
509.197; 9095.865;  -10.097;11198.435
509.784;10553.630;  -10.886;12391.194
510.371;11664.541;   -9.315;13603.713
510.958;12454.037;   -9.936;14426.586
511.545;13281.697;   -9.326;15243.775
512.132;14214.951;  -10.075;15945.876
512.719;14840.646;   -7.796;16340.369
513.305;15873.835;  -10.606;18011.766
513.892;16711.090;  -11.486;19754.971
514.479;18167.986;   -9.126;20967.805
515.066;19728.695;   -6.026;22299.793
515.652;21054.775;   -8.466;22908.660
516.239;22419.385;  -10.886;23798.875
516.825;23557.480;  -11.496;25567.275
517.412;24701.760;   -5.796;28154.959
517.998;25350.592;  -10.506;28344.111
518.585;25405.471;  -10.076;27134.219
519.171;26036.686;   -8.315;27268.576
519.758;27601.094;   -8.596;28964.129
520.344;29565.352;   -8.466;30664.494
520.930;29550.191;  -11.006;32550.605
521.516;30945.951;  -10.495;35422.895
522.103;33414.027;   -5.526;38280.004
522.689;34103.742;   -8.746;37835.117
523.275;33537.746;  -11.376;37288.613
523.861;34830.500;  -11.156;37281.395
524.447;36362.098;   -8.135;37846.949
525.033;36164.723;   -7.896;38321.949
525.619;36369.715;  -12.476;38579.285
526.205;38118.234;   -9.516;40622.875
526.791;40658.832;   -6.926;42258.836
527.377;40834.309;   -8.346;42966.902
527.963;42502.383;   -8.717;42018.949
528.549;40823.250;  -11.016;42476.828
529.135;39359.133;   -8.536;41854.852
529.721;38705.852;   -9.666;41237.711
530.306;37922.520;  -10.066;41259.445
530.892;37636.645;  -11.356;41506.047
531.478;39175.090;   -6.596;43559.613
532.063;42404.461;   -8.836;47695.563
532.649;42981.094;  -10.047;50808.324
533.235;43889.918;   -9.746;51787.500
533.820;44571.000;   -6.566;52145.035
534.406;46066.906;  -10.817;51133.488
534.991;45916.664;   -9.416;49996.805
535.576;44453.125;   -9.036;48882.852
536.162;44973.156;   -6.156;46942.285
536.747;45819.680;  -11.607;45711.746
537.333;49562.867;  -11.787;48510.180
537.918;52644.309;  -12.437;50439.891
538.503;51175.434;   -7.196;50863.711
539.088;47645.039;  -10.556;50906.922
539.673;47556.086;   -8.767;52621.965
540.259;47694.805;  -10.026;52368.094
540.844;44977.316;   -7.416;50879.109
541.429;46179.219;   -9.467;52077.777
542.014;49149.344;   -9.527;52716.695
542.599;48536.336;   -9.946;52363.281
543.184;46126.445;   -7.927;53187.137
543.769;47657.535;   -9.297;54697.605
544.354;47129.172;  -10.127;53913.914
544.938;45858.367;   -9.267;49680.164
545.523;47835.055;   -6.506;47386.277
546.108;50546.141;   -9.787;49151.949
546.693;52623.520;  -11.587;51384.637
547.278;52523.414;  -10.986;51853.254
547.862;49544.738;   -8.206;51173.750
548.447;44755.684;  -10.067;51691.395
549.031;44140.355;   -9.637;52456.703
549.616;49239.281;   -9.926;52714.516
550.201;48420.242;   -6.347;52414.598
550.785;49631.270;   -7.917;52355.059
551.370;48814.563;  -10.867;54589.453
551.954;48481.004;   -9.047;58267.348
552.538;49243.281;   -7.827;59062.176
553.123;47542.605;  -10.287;58115.285
553.707;45324.488;  -12.178;56556.285
554.291;46763.828;   -8.717;56201.668
554.876;49183.918;   -7.457;55335.762
555.460;49366.461;  -10.387;54155.703
556.044;50520.125;   -9.618;53721.484
556.628;49019.578;  -11.567;53731.016
557.212;47692.590;   -8.097;54312.531
557.796;46082.867;  -11.077;53797.773
558.380;45961.773;  -11.108;56145.984
558.964;46345.773;   -9.057;57277.930
559.548;47607.348;   -6.977;56459.641
560.132;45880.145;  -11.457;54434.543
560.716;44481.559;  -11.378;54800.617
561.300;45709.727;   -9.577;57606.945
561.884;46971.789;   -7.127;58972.445
562.467;45309.402;   -7.118;57327.570
563.051;44518.418;  -13.358;54962.434
563.635;45558.406;  -10.178;52594.473
564.219;45918.195;   -7.837;50610.410
564.802;46839.164;  -11.398;49551.180
565.386;46698.758;  -12.788;48370.953
565.969;45995.152;   -9.077;48178.871
566.553;45237.223;   -6.207;49957.305
567.136;45829.766;   -8.568;50369.594
567.720;41971.750;  -11.868;49492.004
568.303;39856.008;   -8.268;50616.352
568.887;39876.410;   -8.698;50727.148
569.470;40067.328;   -6.808;51698.379
570.053;38581.613;  -13.188;52122.078
570.637;36937.871;  -12.037;52536.438
571.220;36885.902;   -8.577;51186.098
571.803;37513.258;   -8.498;51032.762
572.386;39770.832;  -10.498;49609.887
572.969;42275.758;   -9.388;48285.926
573.552;40302.309;   -8.338;47624.285
574.135;38870.805;   -8.518;45498.641
574.718;36508.805;  -13.628;41970.434
575.301;35435.816;  -10.893;41447.137
575.884;34362.828;   -8.158;40923.836
576.467;35548.129;  -10.328;45267.723
577.050;37539.313;  -13.058;48175.543
577.633;38982.473;   -9.458;47729.328
578.216;38000.570;   -8.928;47579.793
578.799;37057.477;   -9.358;47820.996
579.381;35877.531;  -11.388;48115.551
579.964;33978.258;  -11.718;47333.766
580.547;35694.492;   -8.588;46668.969
581.129;36915.172;   -8.859;44466.141
581.712;37723.949;  -10.729;44164.922
582.294;38240.438;  -11.118;46477.855
582.877;38058.824;   -5.218;48244.254
583.459;35616.176;   -8.679;47437.895
584.042;33657.898;  -10.709;46943.219
584.624;34276.641;  -11.669;46792.227
585.206;33820.262;   -8.218;46557.250
585.789;33904.277;  -10.569;45793.773
586.371;36869.488;  -11.859;43836.391
586.953;37531.547;  -10.719;42972.492
587.536;38767.242;   -7.198;42487.211
588.118;38618.094;   -8.720;42086.414
588.700;34890.938;  -10.439;43389.930
589.282;34073.070;   -9.198;43646.039
589.864;34978.691;   -9.199;43438.109
590.446;35906.863;  -11.319;43151.926
591.028;35833.098;  -11.159;42781.867
591.610;34847.523;  -11.779;42839.098
592.192;32235.617;   -7.668;42820.402
592.774;30650.082;  -11.949;40724.277
593.356;29383.799;  -12.129;39874.789
593.937;28303.379;  -10.669;39980.648
594.519;30470.717;   -6.509;42069.633
595.101;32700.143;  -10.849;42976.031
595.683;32879.125;  -11.679;44084.441
596.264;33944.941;   -9.049;43478.797
596.846;33251.492;   -8.849;43803.672
597.427;32994.219;   -9.570;42986.934
598.009;34670.309;  -12.620;42832.219
598.591;35059.719;  -10.039;42580.086
599.172;34151.168;  -10.369;43061.805
599.753;34266.609;   -9.140;41691.469
600.335;35864.461;  -11.430;40692.520
600.916;34171.109;   -9.939;39982.422
601.498;31610.768;   -8.479;40318.617
602.079;30063.314;  -10.920;40670.609
602.660;29996.693;  -11.480;41450.898
603.241;31599.814;  -11.699;41137.738
603.823;30383.508;   -9.579;38868.797
604.404;29957.326;  -10.620;38182.785
604.985;31521.982;  -10.450;38078.047
605.566;31205.484;   -9.129;38056.633
606.147;31388.207;   -7.510;37020.418
606.728;33146.645;  -10.660;37883.359
607.309;31806.131;  -11.740;38748.273
607.890;31191.477;   -9.759;38850.230
608.471;30623.744;   -8.250;37457.918
609.051;29761.426;   -9.240;36066.457
609.632;28673.102;  -12.120;35991.074
610.213;29492.170;   -9.110;37402.641
610.794;30223.650;   -8.030;38383.363
611.374;29726.643;   -8.110;40562.387
611.955;30161.855;  -13.560;38533.727
612.536;31500.531;  -11.400;36951.789
613.116;31406.082;   -8.070;37197.891
613.697;31738.789;  -10.830;38411.125
614.277;30198.617;  -11.641;38673.938
614.858;31052.482;  -13.310;37075.863
615.438;30154.398;   -7.460;35092.906
616.019;27425.775;   -7.601;33666.301
616.599;28047.641;  -12.020;34189.023
617.179;29935.063;  -11.780;36952.047
617.760;30908.645;   -8.570;39582.574
618.340;31994.193;  -11.471;38943.977
618.920;33333.895;  -11.170;37594.156
619.500;33099.246;  -11.071;37866.938
620.080;32131.367;   -7.750;37869.043
620.660;33291.059;  -12.711;36868.617
621.241;34705.773;  -10.211;36352.309
621.821;34908.930;  -10.961;35459.520
622.401;33835.680;   -7.720;35207.414
622.980;33127.008;   -8.981;35980.422
623.560;31648.145;   -9.331;37351.328
624.140;30405.820;   -9.850;34388.582
624.720;25218.607;   -7.451;32368.764
625.300;21717.084;   -9.070;32638.629
625.880;25184.410;  -12.601;34599.035
626.459;29194.795;  -11.751;36831.738
627.039;32315.666;   -9.281;38299.098
627.619;32209.695;   -8.801;38289.574
628.198;30595.256;  -12.071;37220.695
628.778;29733.787;   -9.461;37632.563
629.357;30417.535;   -8.491;38003.012
629.937;30380.428;   -9.721;38402.039
630.516;29880.584;   -9.951;37868.801
631.096;29653.121;  -11.731;35760.410
631.675;32337.350;   -8.572;35225.219
632.254;37449.730;  -11.282;35130.289
632.834;36775.434;  -13.322;35794.570
633.413;34822.602;  -10.301;35788.922
633.992;31957.035;   -8.582;34532.863
634.571;32807.094;   -8.352;33590.113
635.151;35777.434;  -11.912;34943.863
635.730;34153.988;  -10.511;35352.523
636.309;30673.195;   -7.731;35366.605
636.888;28265.506;   -9.952;36165.637
637.467;29088.871;  -11.672;37515.902
638.046;30758.930;   -8.901;39288.695
638.625;33944.223;   -7.912;38279.699
639.204;33639.324;  -10.022;37741.598
639.782;31985.402;  -12.252;38364.551
640.361;28266.896;  -10.041;36740.621
640.940;25397.486;  -11.161;34950.082
641.519;26045.369;   -9.701;34137.398
642.097;29046.369;  -11.271;35654.258
642.676;31921.697;   -8.651;35637.957
643.255;32572.514;   -8.711;36567.074
643.833;31720.635;   -9.581;37809.434
644.412;31785.197;  -13.711;37337.293
644.990;30833.738;  -11.811;37018.531
645.569;30893.803;   -9.411;36518.469
646.147;29904.598;  -10.291;36186.430
646.726;29519.707;  -12.401;36267.688
647.304;30679.469;  -10.411;36647.625
647.882;32571.672;   -9.651;39286.742
648.461;34360.098;   -9.631;39157.703
649.039;32660.516;  -11.881;35412.883
649.617;31890.303;   -9.661;34744.918
650.195;31496.354;   -9.301;35403.098
650.773;30012.322;  -10.511;35053.797
651.352;27581.426;  -11.521;33756.816
651.930;25262.881;  -12.211;31868.773
652.508;23750.992;   -9.171;33121.551
653.086;27791.736;   -9.371;33564.793
653.663;30608.926;  -13.161;34054.668
654.241;29434.650;  -13.031;35693.309
654.819;31133.668;   -9.371;36422.906
655.397;31217.869;  -10.511;38213.484
655.975;30873.947;  -10.371;39507.625
656.553;30648.760;  -10.051;39498.223
657.130;28980.779;  -10.061;40395.480
657.708;28155.336;   -9.561;39242.020
658.286;28192.779;  -11.511;38920.020
658.863;29528.164;  -10.261;40202.898
659.441;32712.111;   -7.531;39677.938
660.018;32275.629;   -9.501;40413.355
660.596;31164.348;  -13.301;39931.414
661.173;33104.730;  -11.211;39604.531
661.750;33067.820;   -9.951;39700.070
662.328;31753.566;   -9.390;39292.809
662.905;30842.461;  -11.330;38235.648
663.482;26540.973;   -9.050;36212.305
664.060;24708.973;   -8.240;35944.945
664.637;27625.791;  -10.050;35170.785
665.214;29531.277;  -11.760;34197.523
665.791;31088.232;  -10.530;34549.520
666.368;29849.561;   -9.690;35118.578
666.945;30496.396;   -9.320;36019.418
667.522;32106.287;  -11.860;36048.438
668.099;31838.859;  -10.770;36243.914
668.676;30625.869;   -6.260;35958.875
669.253;29258.111;   -7.000;37384.730
669.830;29908.012;  -10.190;36779.629
670.407;29741.875;   -9.550;35231.289
670.984;29676.227;   -9.260;35544.270
671.560;30086.094;   -9.280;35466.867
672.137;29164.857;  -11.810;34280.863
672.714;29961.186;  -11.490;34632.863
673.290;30591.357;   -7.740;35135.422
673.867;30918.637;  -10.660;36114.480
674.443;30824.902;  -12.230;36152.859
675.020;28945.605;  -10.450;35327.238
675.596;29906.496;   -9.260;35795.176
676.173;30349.941;  -10.780;35430.355
676.749;30194.484;  -13.690;33549.516
677.326;30209.828;  -11.980;32210.012
677.902;30200.104;   -8.630;32068.871
678.478;29543.840;  -10.730;32583.891
679.054;28963.080;  -10.520;32088.928
679.631;29228.463;  -11.920;30978.848
680.207;30755.906;   -7.490;33160.887
680.783;32423.830;   -9.860;35570.363
681.359;31540.703;  -13.380;36125.184
681.935;30902.512;  -12.480;35240.922
682.511;30062.689;   -7.900;34429.961
683.087;30213.025;   -7.710;34463.680
683.663;29834.820;  -11.480;34648.898
684.239;28573.646;  -14.090;34546.457
684.815;28153.188;   -7.560;35586.375
685.390;28455.566;   -9.910;35821.895
685.966;28891.924;  -11.159;35085.871
686.542;31264.217;  -11.169;34198.230
687.118;33383.277;   -5.959;32847.707
687.693;33647.613;  -10.329;32794.027
688.269;33337.934;  -12.059;33072.367
688.844;31442.766;  -10.909;33141.664
689.420;29170.162;   -8.019;33965.742
689.995;26924.395;   -8.399;34655.523
690.571;25672.896;  -10.949;33576.742
691.146;26169.869;   -9.619;32657.219
691.722;25646.100;   -8.999;32526.979
692.297;25519.314;  -11.589;33014.617
692.872;27307.652;  -11.739;34012.254
693.448;26872.395;  -11.059;34237.434
694.023;26128.332;  -10.139;34142.672
694.598;28143.572;   -9.029;34132.031
695.173;28488.221;  -13.319;34205.250
695.748;27696.910;  -10.169;32882.488
696.323;27700.475;   -8.339;32864.906
696.898;27888.014;   -8.169;33170.004
697.473;27782.221;  -12.309;32432.984
698.048;27258.430;  -10.989;31649.303
698.623;27221.494;   -9.329;30778.141
699.198;29173.928;   -9.849;31140.119
699.773;30156.063;  -12.329;31764.299
700.348;28471.871;  -10.389;31780.816
700.922;28435.422;   -9.269;32046.375
701.497;29207.395;   -9.329;32603.574
702.072;29367.381;  -10.789;34799.871
702.646;28119.729;  -10.839;35793.172
703.221;26098.586;   -9.099;35201.590
703.795;28155.289;  -10.939;34764.527
704.370;28562.443;  -12.859;34307.367
704.944;28993.822;  -11.559;33509.887
705.519;29860.863;   -7.939;31388.584
706.093;31245.838;  -10.499;31340.104
706.668;31561.600;  -11.289;32630.281
707.242;30464.910;  -11.509;32728.779
707.816;28874.096;   -9.639;32947.238
708.390;27271.813;  -11.429;33277.855
708.965;27776.643;  -11.869;33834.336
709.539;27884.092;  -11.689;33709.273
710.113;28325.246;  -10.478;33044.313
710.687;27771.609;  -10.228;31953.992
711.261;26073.645;  -13.698;30505.949
711.835;25975.184;  -13.378;30262.369
712.409;26835.402;   -9.698;31254.447
712.983;28736.615;  -11.898;32754.986
713.557;29657.049;  -15.138;34018.824
714.131;29286.943;  -14.098;34579.625
714.704;28380.102;   -9.958;33890.262
715.278;26162.506;  -10.028;33531.102
715.852;25145.559;  -11.148;33601.660
716.425;25937.842;   -9.068;33515.117
716.999;26670.451;  -10.038;33185.555
717.573;27650.592;   -9.798;33905.996
718.146;28685.338;  -12.378;35199.293
718.720;28624.576;  -11.918;35060.551
719.293;28077.646;   -8.088;34973.230
719.867;30974.254;  -10.888;36394.449
720.440;30694.545;  -11.938;36663.008
721.013;28965.836;  -12.818;35102.426
721.587;27492.533;  -10.298;33985.266
722.160;26530.861;  -10.048;33524.965
722.733;25568.324;  -12.108;32987.043
723.306;25892.039;  -10.818;33066.301
723.880;28178.283;   -8.908;33399.500
724.453;30063.871;   -9.878;33468.297
725.026;29145.383;  -11.188;33816.637
725.599;26545.822;  -11.678;32797.996
726.172;26943.148;   -9.618;33187.434
726.745;28075.154;   -8.258;35136.613
727.318;29468.105;  -12.978;35751.730
727.891;29881.740;  -12.148;35890.430
728.463;29472.830;   -8.968;34822.090
729.036;28478.393;  -10.188;32895.086
729.609;28913.553;  -11.788;31823.225
730.182;25864.111;  -11.788;31445.283
730.754;23412.902;  -10.268;32373.223
731.327;23480.898;   -9.998;33676.820
731.900;23798.900;  -12.228;33417.000
732.472;25092.088;  -13.848;31978.498
733.045;27013.930;   -8.698;30368.777
733.617;27068.162;  -10.607;30574.215
734.190;26671.711;  -11.507;31280.975
734.762;23748.125;  -13.647;31674.412
735.334;21978.582;   -9.767;31247.291
735.907;22676.877;   -9.897;29876.211
736.479;22872.324;  -11.637;29808.488
737.051;22540.410;   -9.567;30233.547
737.623;23435.840;   -8.187;31469.086
738.195;24193.469;  -11.187;31784.225
738.768;26114.707;  -12.337;32120.523
739.340;26351.633;  -12.227;32094.342
739.912;25130.133;  -11.057;31312.680
740.484;23702.537;  -10.207;31946.238
741.056;22611.289;  -10.047;32984.059
741.628;24364.471;  -13.627;33897.715
742.199;26639.793;   -7.177;33213.016
742.771;24949.494;  -10.797;31369.113
743.343;22573.352;  -11.997;31865.473
743.915;21627.762;  -12.867;32388.631
744.487;21738.930;   -7.617;31079.568
745.058;21938.635;   -9.557;30570.107
745.630;22334.123;   -9.877;29970.127
746.201;23097.074;  -14.177;29186.766
746.773;23546.680;   -9.237;28805.723
747.344;23416.070;   -9.847;29591.223
747.916;22126.479;  -11.657;31412.201
748.487;22380.617;  -10.587;32194.898
749.059;23512.148;   -8.707;32533.719
749.630;24107.818;  -10.537;32158.518
750.201;23159.777;  -11.687;30855.395
750.773;21404.410;  -11.647;28622.555
751.344;21384.959;   -7.147;28405.732
751.915;22633.533;   -9.757;28461.551
752.486;22570.422;  -12.427;27842.850
753.057;20311.910;  -12.227;27845.008
753.628;19053.719;  -10.417;27728.107
754.199;20129.770;  -11.767;27381.086
754.770;21161.855;  -11.187;25882.203
755.341;21163.713;  -10.507;25886.184
755.912;21190.105;   -9.387;26050.861
756.483;20731.750;  -10.647;26798.779
757.054;19012.660;  -11.837;27048.238
757.625;17748.053;  -12.716;26294.838
758.195;17512.779;   -9.666;26142.076
758.766;17243.908;   -8.656;26392.234
759.337;18016.852;  -12.856;26334.594
759.907;19688.713;  -13.366;27579.652
760.478;20598.453;   -8.576;28352.770
761.048;19996.953;  -10.526;27325.088
761.619;19125.404;  -11.116;26460.428
762.189;19155.547;  -12.136;26029.826
762.760;20244.484;   -9.456;26430.145
763.330;21300.479;   -7.136;26670.902
763.900;20739.324;  -11.786;26603.021
764.471;18211.342;  -11.546;25542.740
765.041;16936.146;   -8.096;24358.459
765.611;16998.180;   -8.876;23991.297
766.181;17403.316;  -12.196;24470.236
766.751;18349.084;  -11.636;24845.975
767.321;18093.242;  -10.156;24533.633
767.891;16153.339;  -11.766;24916.492
768.461;15627.795;  -14.936;24776.771
769.031;16150.604;  -12.356;24757.988
769.601;17690.309;   -7.526;24181.088
770.171;17568.439;  -10.766;23670.387
770.741;16833.438;  -13.176;22960.045
771.311;17006.432;  -10.616;22917.523
771.880;17373.439;   -9.576;23562.941
772.450;17050.287;  -10.336;24216.500
773.020;17056.207;  -13.516;24140.398
773.589;16384.078;  -13.466;24414.857
774.159;15728.710;   -8.686;23858.717
774.729;15338.402;   -9.476;22942.135
775.298;14875.127;  -13.666;22324.033
775.867;14488.235;  -11.716;21140.313
776.437;14550.073;   -9.906;20838.092
777.006;14348.984;  -12.166;20599.510
777.576;14261.509;  -12.356;20508.809
778.145;14405.864;  -11.646;20732.947
778.714;14300.054;   -8.226;21062.465
779.283;13574.321;   -9.556;20949.664
779.853;13079.872;  -14.116;20508.623
780.422;13565.356;  -11.506;20649.082
780.991;13152.226;   -9.556;21527.520
781.560;11967.346;   -9.095;22632.658
782.129;11763.057;  -12.135;23048.277
782.698;11797.963;  -10.865;23438.555
783.267;11425.574;   -9.335;23267.734
783.836;11386.584;  -11.045;22415.133
784.404;12416.840;  -13.865;20443.152
784.973;13007.051;  -13.095;19699.150
785.542;12926.593;  -11.575;19763.828
786.111;12745.021;   -9.705;20341.408
786.679;12247.519;  -12.105;20207.967
787.248;12004.984;  -12.455;19516.465
787.817;11832.766;  -11.535;18900.363
788.385;11417.892;   -9.765;17879.121
788.954;10833.647;  -14.005;17658.301
789.522;10332.540;  -11.955;17788.879
790.090;10891.153;  -10.135;18118.277
790.659;11294.044;  -10.975;18338.736
791.227;10788.317;  -13.375;18508.615
791.795;11199.486;  -12.375;17898.254
792.364;11562.927;  -10.725;17295.133
792.932;11857.037;   -9.715;16822.051
793.500;12035.875;  -12.675;17040.148
794.068;12257.187;  -13.495;17179.787
794.636;12376.719;  -10.885;16664.246
795.204;11798.979;  -11.045;16524.545
795.772;11864.154;  -13.175;17274.564
796.340;11397.879;  -12.445;17891.002
796.908;11200.525;   -9.735;17648.561
797.476;11119.484;   -9.815;17064.080
798.044;10710.426;  -13.985;16672.777
798.612; 9925.462;  -13.115;17023.996
799.180; 9522.005;  -10.185;16561.615
799.747; 9438.893;   -9.055;15962.773
800.315; 9186.734;  -12.385;15296.992
800.883; 8865.946;  -15.035;14801.771
801.450; 8864.831;  -10.365;14534.430
802.018; 8921.742;   -9.855;14173.248
802.585; 9049.645;  -11.905;14029.547
803.153; 9114.141;  -11.585;13836.846
803.720; 8928.456;   -9.095;13567.324
804.287; 8476.703;   -9.135;13360.622
804.855; 8062.016;  -11.604;13681.981
805.422; 7935.386;  -11.794;13536.560
805.989; 7943.153;  -10.734;13355.958
806.556; 8113.271;  -10.444;13747.896
807.124; 8353.494;  -12.764;13987.376
807.691; 8311.787;  -12.964;14038.674
808.258; 8107.733;  -11.134;14120.152
808.825; 7787.153;   -9.854;13860.111
809.392; 7858.986;  -10.504;13268.790
809.959; 7398.554;  -13.054;12680.389
810.526; 6965.042;   -8.294;12427.308
811.093; 7004.607;   -8.394;12030.105
811.659; 7614.305;  -12.304;11653.664
812.226; 8108.156;  -13.944;11637.183
812.793; 7798.653;  -10.484;11611.521
813.360; 7178.337;  -10.144;11885.181
813.926; 6869.122;  -11.684;12770.539
814.493; 6664.776;  -13.644;12677.638
815.060; 6282.557;   -9.724;11974.336
815.626; 6281.174;   -9.854;11594.715
816.193; 6683.487;  -13.254;11579.474
816.759; 6701.808;  -13.204;11666.972
817.325; 6741.708;   -9.434;11325.530
817.892; 7094.986;  -10.134;11105.369
818.458; 7525.078;  -13.474;10843.928
819.024; 7160.617;  -11.854;10714.406
819.591; 6848.049;  -10.244;10469.165
820.157; 6640.629;  -10.704;10235.523
820.723; 6142.614;  -12.324;10847.563
821.289; 5839.523;   -9.444;11040.980
821.855; 5744.500;   -8.374;10357.100
822.421; 5711.618;  -10.234; 9978.918
822.987; 5705.444;  -13.294; 9754.177
823.553; 5412.617;  -10.884;10065.755
824.119; 5238.354;   -8.884;10036.294
824.685; 5323.917;   -6.784;10029.192
825.251; 5406.163;  -12.004;10199.230
825.816; 5380.335;  -11.474; 9820.189
826.382; 5163.767;   -9.174; 9297.248
826.948; 5366.443;   -9.214; 9381.347
827.513; 5740.580;  -10.774; 9450.726
828.079; 5561.930;  -11.924; 9472.444
828.645; 4993.364;  -10.543; 9292.643
829.210; 4906.614;  -10.533; 9065.341
829.776; 4900.464;  -10.753; 9132.620
830.341; 4786.621;  -10.173; 9092.878
830.906; 4968.640;  -10.743; 9078.557
831.472; 5305.277;  -11.113; 8534.535
832.037; 5052.292;  -10.603; 8677.874
832.602; 4503.432;  -13.323; 8628.692
833.167; 4240.074;  -10.823; 8879.031
833.733; 4181.008;  -10.113; 9189.790
834.298; 4316.722;  -13.583; 9052.608
834.863; 4387.229;  -12.703; 8895.087
835.428; 4360.974;  -10.523; 8824.266
835.993; 4224.267;   -6.963; 8845.385
836.558; 4072.581;  -10.763; 8888.563
837.123; 4198.354;   -9.903; 8966.582
837.688; 4423.063;   -9.913; 8617.860
838.253; 4658.003;  -10.283; 8590.699
838.817; 4859.512;  -12.963; 8443.797
839.382; 4780.550;  -14.243; 8799.356
839.947; 4471.993;  -10.733; 8810.595
840.511; 4175.274;   -9.383; 8796.394
841.076; 3800.608;  -12.563; 8347.231
841.641; 3845.623;  -12.953; 8224.330
842.205; 3937.004;   -7.043; 8223.349
842.770; 4035.936;   -8.163; 8622.107
843.334; 4202.256;  -12.503; 8410.386
843.898; 4150.190;  -11.693; 8337.465
844.463; 4166.816;  -10.203; 8506.283
845.027; 3948.465;   -9.533; 8280.962
845.591; 3773.740;  -13.443; 8231.141
846.156; 3758.724;  -13.143; 7969.179
846.720; 3649.192;   -9.433; 7768.278
847.284; 3530.696;  -11.033; 7630.957
847.848; 3406.755;  -10.403; 7472.395
848.412; 3319.704;  -11.553; 7437.394
848.976; 3361.592;   -8.393; 7674.592
849.540; 3296.820;   -8.713; 7836.011
850.104; 3403.175;  -12.463; 7913.669
850.668; 3746.295;  -12.973; 7694.508
851.232; 3838.335;  -10.793; 7756.887
851.796; 3680.277;  -10.662; 7926.545
852.359; 3393.380;  -13.082; 7827.844
852.923; 3231.165;  -12.192; 7641.163
853.487; 3058.535;  -11.912; 7342.501
854.050; 3013.959;  -10.892; 7042.820
854.614; 3143.812;  -13.992; 7151.338
855.177; 3264.893;  -11.732; 7105.077
855.741; 3298.539;   -8.962; 6989.675
856.304; 3197.380;   -9.442; 6596.634
856.868; 3151.640;  -14.192; 6356.272
857.431; 3240.534;  -12.702; 6468.571
857.995; 3348.481;   -9.942; 6373.210
858.558; 3355.970;   -9.112; 6324.448
859.121; 3098.260;  -12.932; 6408.327
859.684; 2978.896;  -13.442; 6347.886
860.247; 3084.850;  -10.632; 6321.264
860.810; 3079.229;  -11.272; 6301.903
861.374; 2829.552;   -9.832; 6607.881
861.937; 2578.457;  -11.762; 6408.200
862.500; 2566.019;   -9.722; 6572.639
863.062; 2737.820;  -10.512; 6387.297
863.625; 2902.096;  -11.232; 6190.836
864.188; 3062.561;  -14.112; 5807.254
864.751; 3128.101;  -11.302; 5682.413
865.314; 3027.780;  -10.112; 5547.492
865.876; 2825.833;  -12.182; 5500.150
866.439; 2806.686;  -10.722; 5415.909
867.002; 2749.388;   -9.252; 5501.567
867.564; 2551.294;   -9.572; 5413.946
868.127; 2333.330;  -13.142; 5160.325
868.689; 2232.380;  -12.902; 5133.183
869.252; 2139.642;   -9.732; 5252.382
869.814; 2049.882;   -9.432; 5297.141
870.377; 2061.034;  -11.552; 5390.919
870.939; 2126.184;   -9.052; 5599.898
871.501; 2185.459;  -10.982; 5248.336
872.063; 2187.967;  -12.292; 4854.235
872.626; 2145.683;  -14.912; 4817.074
873.188; 2175.615;  -13.112; 4987.732
873.750; 2144.140;  -13.442; 4868.651
874.312; 2043.661;   -9.402; 4779.330
874.874; 1958.356;  -11.062; 4866.348
875.436; 1868.255;  -13.931; 4718.887
875.998; 1862.628;   -9.561; 4660.005
876.560; 1887.365;  -11.321; 4462.964
877.122; 1835.437;  -12.221; 4145.042
877.683; 1748.554;  -12.191; 4056.481
878.245; 1678.198;  -12.101; 3950.740
878.807; 1714.906;   -8.971; 4058.958
879.369; 1736.081;  -12.071; 3954.677
879.930; 1641.364;  -14.621; 3941.495
880.492; 1578.942;  -10.311; 4067.014
881.053; 1543.040;  -10.901; 3859.633
881.615; 1440.863;  -14.411; 3776.071
882.176; 1343.901;  -13.761; 3734.750
882.738; 1296.055;   -9.181; 3678.489
883.299; 1268.562;  -11.791; 3405.407
883.860; 1272.627;  -13.121; 3351.106
884.422; 1273.915;  -11.211; 3394.044
884.983; 1227.416;  -10.091; 3166.443
885.544; 1151.803;   -8.461; 3189.802
886.105; 1075.132;  -12.361; 3160.360
886.666; 1012.636;  -14.141; 3093.059
887.227;  956.071;  -11.361; 2941.957
887.788;  896.800;  -11.401; 2974.836
888.349;  838.282;  -13.791; 2721.214
888.910;  837.054;  -13.191; 2696.493
889.471;  843.570;   -9.881; 2560.172
890.032;  825.358;   -9.881; 2558.190
890.593;  803.149;  -10.371; 2567.669
891.153;  777.056;  -13.301; 2460.307
891.714;  726.226;  -11.431; 2372.046
892.275;  689.671;  -11.291; 2309.505
892.835;  653.208;  -11.471; 2382.543
893.396;  601.193;  -11.541; 2295.502
893.956;  545.621;  -11.181; 2162.420
894.517;  509.276;  -11.741; 2125.439
895.077;  504.748;  -11.671; 2086.978
895.638;  504.961;  -11.311; 2126.316
896.198;  476.268;   -9.831; 1838.275
896.758;  433.822;   -8.421; 1892.813
897.319;  406.365;  -12.351; 1792.232
897.879;  391.789;  -13.511; 1762.751
898.439;  365.514;  -12.001; 1661.149
898.999;  341.570;  -10.180; 1781.468
899.559;  333.642;  -12.030; 1703.347
900.119;  328.863;  -15.710; 1537.525
900.679;  324.895;   -8.900; 1638.384
901.239;  310.274;   -8.340; 1527.902
901.799;  300.168;  -13.910; 1456.441
902.359;  294.582;  -13.460; 1357.140
902.919;  287.887;  -11.490; 1331.118
903.479;  275.699;  -12.110; 1317.257
904.038;  255.569;  -11.720; 1262.595
904.598;  241.569;  -13.610; 1152.034
905.158;  236.154;  -11.040; 1240.893
905.717;  229.979;  -10.900; 1233.691
906.277;  218.504;  -15.080; 1217.330
906.836;  210.519;  -13.380; 1222.408
907.396;  201.404;  -10.780; 1193.047
907.955;  195.032;   -8.500; 1182.526
908.515;  189.248;  -12.760; 1099.364
909.074;  183.344;  -11.900; 1092.863
909.633;  178.175;   -8.950; 1069.121
910.192;  173.362;   -8.770; 1196.460
910.752;  168.900;  -12.390; 1029.960
911.311;  165.595;  -13.680; 1009.780
911.870;  162.019;  -12.370;  971.460
912.429;  162.674;  -10.900; 1094.080
912.988;  162.362;  -11.690; 1081.060
913.547;  158.340;  -13.240;  940.380
914.106;  152.759;  -11.990;  999.420
914.665;  148.955;   -9.990;  984.020
915.224;  149.068;  -12.880; 1035.760
915.782;  149.634;  -12.350;  922.560
916.341;  148.697;   -9.110; 1049.840
916.900;  144.162;   -9.270;  925.260
917.458;  142.647;  -13.240;  884.220
918.017;  143.057;  -13.550;  942.600
918.576;  142.607;  -12.320;  904.440
919.134;  139.843;  -11.490;  837.980
919.693;  138.507;  -13.670;  893.060
920.251;  137.149;  -15.470;  876.500
920.809;  135.548;  -11.290;  839.580
921.368;  134.034;  -10.210;  885.360
921.926;  134.105;  -12.140;  842.940
922.484;  133.564;  -13.080;  903.360
923.042;  131.750;  -11.720;  880.340
923.601;  135.039;   -7.480;  998.680
924.159;  133.541;  -11.570;  935.560
924.717;  130.632;  -13.840;  841.080
925.275;  129.997;  -10.640;  903.240
925.833;  129.815;  -11.540;  779.320
926.391;  131.825;  -12.960;  938.380
926.949;  129.445;  -14.130;  857.680
927.506;  129.632;  -11.750;  903.500
928.064;  128.971;  -10.250;  877.580
928.622;  128.752;  -13.030;  880.100
929.180;  129.224;  -13.400;  814.180
929.737;  129.901;  -10.700;  808.540
930.295;  133.118;  -10.070;  928.480
930.853;  135.539;  -11.960;  849.100
931.410;  135.632;  -13.120;  821.120
931.968;  134.284;  -10.770;  940.660
932.525;  134.008;  -10.680;  909.380
933.082;  134.861;  -13.130;  811.440
933.640;  136.029;  -13.210;  925.900
934.197;  134.222;  -11.060;  886.360
934.754;  133.778;   -9.580;  897.780
935.312;  138.332;  -14.000;  863.340
935.869;  142.284;  -10.710; 1012.980
936.426;  142.185;   -9.860;  872.800
936.983;  143.014;   -9.710;  889.020
937.540;  142.212;  -13.990;  838.280
938.097;  142.214;  -14.040;  940.120
938.654;  141.693;  -10.310;  898.860
939.211;  143.832;  -10.560;  952.480
939.768;  147.869;  -13.900;  915.420
940.324;  151.660;  -14.760;  904.200
940.881;  151.347;  -10.370;  878.500
941.438;  151.068;   -8.260; 1021.200
941.995;  148.570;  -12.540;  992.560
942.551;  146.364;  -14.670;  875.620
943.108;  146.691;  -10.450;  937.920
943.664;  148.851;  -10.750;  869.340
944.221;  152.546;  -11.550; 1088.140
944.777;  150.465;  -14.770;  869.680
945.334;  150.299;  -12.820;  884.840
945.890;  151.309;  -10.130;  946.480
946.446;  151.262;  -13.470;  947.020
947.003;  154.139;  -12.120;  964.940
947.559;  155.551;   -9.980; 1063.040
948.115;  154.720;   -9.080; 1026.540
948.671;  154.239;  -10.830;  967.300
949.227;  152.194;  -12.440;  859.560
949.783;  148.334;  -12.910;  858.900
950.339;  149.585;  -10.270;  991.000
950.895;  150.921;  -13.630; 1023.840
951.451;  150.450;  -15.100;  925.280
952.007;  149.239;  -11.330;  998.540
952.563;  150.087;  -10.580;  937.780
953.118;  149.583;  -13.440;  904.940
953.674;  148.753;  -12.710;  935.780
954.230;  148.788;  -10.350;  949.640
954.785;  145.255;   -9.190;  936.640
955.341;  144.301;  -11.200;  998.160
955.897;  142.059;  -16.560;  834.660
956.452;  143.076;  -12.570;  953.840
957.008;  141.646;   -7.970; 1083.640
957.563;  140.602;  -11.940; 1009.540
958.118;  136.139;  -13.450;  877.700
958.674;  135.513;  -12.030;  946.780
959.229;  136.724;   -9.410; 1013.980
959.784;  135.078;  -12.000;  832.400
960.339;  134.050;  -14.780; 1001.280
960.894;  130.242;   -9.860;  963.760
961.449;  126.391;   -9.970;  859.960
962.004;  127.110;  -10.900; 1212.840
962.559;  122.570;  -13.150;  860.140
963.114;  119.945;  -13.740;  742.480
963.669;  119.420;   -9.820;  915.500
964.224;  117.664;  -13.890;  874.340
964.779;  117.092;  -12.600;  828.420
965.334;  117.807;  -10.950; 1017.860
965.888;  116.692;  -11.170;  875.360
966.443;  119.451;  -12.540;  972.380
966.998;  118.830;  -15.780;  819.460
967.552;  117.082;   -9.760;  908.380
968.107;  114.419;   -9.060;  868.300
968.661;  115.249;  -11.950;  922.440
969.216;  116.771;  -12.800;  856.280
969.770;  115.961;  -11.210;  917.200
970.324;  115.209;  -11.610;  923.140
970.879;  112.921;  -11.370;  947.180
971.433;  109.362;  -12.540;  952.720
971.987;  103.717;  -11.320;  895.340
972.541;  100.559;  -10.720;  917.100
973.095;  101.464;   -9.680; 1009.460
973.649;  100.029;  -11.440;  809.480
974.203;   98.170;  -11.210;  829.040
974.757;   97.366;  -10.240;  855.220
975.311;   98.398;  -13.720;  872.600
975.865;   97.624;  -13.770;  881.820
976.419;   96.094;  -11.690;  857.400
976.973;   95.313;   -9.510;  849.620
977.526;   97.477;  -12.620;  949.920
978.080;   97.522;  -12.010;  796.780
978.634;   98.415;  -10.170;  921.320
979.187;   95.255;   -9.020;  905.400
979.741;   93.538;   -9.820; 1018.380
980.294;   88.940;  -14.870;  789.160
980.848;   86.301;  -12.380;  717.220
981.401;   87.745;  -10.350;  816.540
981.955;   90.866;  -13.720;  844.300
982.508;   90.154;  -11.490;  746.340
983.061;   89.702;  -10.000;  915.260
983.615;   85.647;  -11.480;  798.800
984.168;   82.880;  -13.220;  770.080
984.721;   82.848;  -13.960;  880.760
985.274;   81.218;  -10.870;  867.500
985.827;   80.060;   -9.790;  834.220
986.380;   78.465;  -13.120;  721.340
986.933;   77.952;  -12.450;  864.800
987.486;   75.539;  -10.210;  861.920
988.039;   75.182;   -8.430;  863.100
988.591;   73.178;  -10.520;  893.260
989.144;   71.407;  -14.860;  737.260
989.697;   69.683;  -13.080;  758.740
990.250;   70.308;  -10.150;  858.100
990.802;   69.514;  -13.430;  755.860
991.355;   71.610;  -12.750;  974.880
991.907;   68.492;  -12.040;  864.320
992.460;   65.373;  -11.330;  753.760
993.012;   65.250;  -13.610;  749.540
993.565;   64.877;  -13.460;  711.360
994.117;   65.740;   -9.360;  950.780
994.669;   61.577;  -11.300;  701.320
995.221;   60.789;  -13.540;  791.920
995.774;   59.081;  -13.430;  787.580
996.326;   56.786;  -12.520;  740.220
996.878;   56.152;  -10.950;  838.420
997.430;   55.071;  -14.300;  699.860
997.982;   54.854;  -13.760;  750.140
998.534;   53.387;  -11.530;  739.060
999.086;   51.894;  -10.310;  738.220
999.638;   51.413;  -12.530;  661.380
1000.190;   50.643;  -11.840;  699.320
1000.741;   50.146;  -10.260;  742.700
1001.293;   49.264;   -8.860;  686.020
1001.845;   48.083;  -13.700;  676.640
1002.396;   48.548;  -12.100;  743.400
1002.948;   48.395;  -12.760;  737.400
1003.500;   45.831;  -10.380;  723.780
1004.051;   47.214;  -11.900;  907.580
1004.603;   45.859;  -12.250;  791.820
1005.154;   42.104;  -13.210;  608.980
1005.705;   40.755;  -10.950;  723.960
1006.257;   40.553;  -13.880;  707.220
1006.808;   40.657;  -12.840;  685.460
1007.359;   39.400;  -10.570;  763.240
1007.910;   38.277;   -9.620;  646.640
1008.461;   38.883;  -13.630;  732.940
1009.013;   38.235;  -17.200;  588.340
1009.564;   38.314;  -10.200;  793.520
1010.115;   35.628;  -12.570;  597.040
1010.665;   35.817;  -15.150;  602.160
1011.216;   36.603;  -14.480;  667.920
1011.767;   35.415;  -11.340;  697.920
1012.318;   35.272;   -9.780;  736.980
1012.869;   35.062;  -12.380;  679.000
1013.419;   34.745;  -15.560;  603.120
1013.970;   34.416;  -11.010;  666.640
1014.521;   33.028;  -11.610;  620.620
1015.071;   34.567;  -13.450;  670.380
1015.622;   34.414;  -13.870;  635.460
1016.172;   33.446;  -11.610;  596.820
1016.723;   32.274;  -12.120;  614.380
1017.273;   32.047;  -13.620;  604.160
1017.823;   33.063;  -14.140;  650.340
1018.374;   31.712;  -12.800;  611.760
1018.924;   31.671;  -12.340;  716.880
1019.474;   31.947;  -11.410;  718.880
1020.024;   31.074;  -14.770;  657.580
1020.574;   30.930;   -9.780;  726.160
1021.124;   31.589;   -8.560;  673.580
1021.674;   30.831;  -15.190;  559.120
1022.224;   32.279;  -13.530;  708.940
1022.774;   30.806;  -13.280;  668.820
1023.324;   30.895;  -10.690;  753.520
1023.874;   31.879;  -10.240;  875.760
1024.423;   30.139;  -12.540;  613.700
1024.973;   29.073;  -10.010;  610.760
1025.523;   29.128;  -10.550;  620.960
1026.072;   28.406;  -13.560;  606.420
1026.622;   28.952;  -15.120;  675.740
1027.172;   29.518;  -11.260;  715.660
1027.721;   28.458;  -11.410;  601.220
1028.270;   28.534;  -13.530;  663.400
1028.820;   28.423;  -13.680;  638.080
1029.369;   28.201;  -13.520;  612.700
1029.918;   27.607;  -10.980;  649.840
1030.468;   28.064;  -13.530;  564.780
1031.017;   28.570;  -13.170;  634.800
1031.566;   26.708;  -12.200;  608.900
1032.115;   27.358;   -9.960;  694.500
1032.664;   26.231;  -13.210;  596.480
1033.213;   27.572;  -12.500;  735.420
1033.762;   26.489;  -11.910;  635.620
1034.311;   25.661;   -9.640;  677.220
1034.860;   26.567;  -13.310;  691.000
1035.408;   26.930;  -11.830;  722.720
1035.957;   26.804;  -12.000;  719.540
1036.506;   24.241;  -11.690;  530.800
1037.055;   26.994;  -10.990;  844.320
1037.603;   26.057;  -15.120;  664.000
1038.152;   23.635;  -12.450;  534.760
1038.700;   23.883;  -10.560;  585.740
1039.249;   23.606;  -11.080;  681.220
1039.797;   25.422;  -12.540;  633.360
1040.345;   25.052;  -11.920;  705.420
1040.894;   24.101;  -11.410;  625.300
1041.442;   24.361;  -14.320;  632.200
1041.990;   23.247;  -16.240;  559.160
1042.538;   22.087;  -11.680;  536.180
1043.087;   22.541;  -10.760;  570.860
1043.635;   23.817;  -11.850;  670.500
1044.183;   23.150;  -15.480;  586.400
1044.731;   22.299;  -11.770;  576.000
1045.279;   21.988;  -13.090;  674.920
1045.827;   24.715;  -12.440;  892.400
1046.374;   22.690;  -13.840;  515.420
1046.922;   21.213;  -13.220;  590.580
1047.470;   22.827;  -10.230;  691.300
1048.018;   21.503;  -14.590;  647.960
1048.565;   23.366;  -12.050;  708.600
1049.113;   20.770;  -11.650;  557.000
1049.660;   20.963;  -10.510;  629.660
1050.208;   21.120;  -13.310;  675.640
1050.755;   21.023;  -15.900;  606.580
1051.303;   21.573;  -11.430;  686.820
1051.850;   19.549;   -8.480;  635.120
1052.397;   19.305;  -15.010;  473.960
1052.945;   20.889;  -13.960;  617.760
1053.492;   21.361;  -13.150;  741.840
1054.039;   20.783;   -9.630;  720.180
1054.586;   19.686;  -13.680;  557.240
1055.133;   21.684;  -14.570;  693.140
1055.680;   20.780;  -13.820;  646.620
1056.227;   18.961;  -11.730;  542.780
1056.774;   21.102;  -12.480;  794.980
1057.321;   19.215;  -13.930;  523.260
1057.868;   19.191;  -11.690;  651.320
1058.415;   18.555;   -9.520;  651.980
1058.961;   20.065;  -13.160;  678.940
1059.508;   19.712;  -12.920;  643.820
1060.055;   18.605;  -11.920;  581.780
1060.601;   18.785;  -11.500;  624.300
1061.148;   18.577;  -14.330;  616.820
1061.694;   18.516;  -16.870;  592.580
1062.241;   18.594;  -10.330;  596.320
1062.787;   17.885;  -10.620;  663.140
1063.334;   19.666;  -10.110;  808.560
1063.880;   19.031;  -13.400;  668.360
1064.426;   17.890;  -10.680;  706.820
1064.972;   16.698;   -9.920;  601.340
1065.518;   16.138;  -10.980;  566.640
1066.065;   17.984;  -14.890;  624.460
1066.611;   16.707;  -12.870;  598.800
1067.157;   16.961;  -12.950;  641.860
1067.703;   17.165;  -13.540;  668.480
1068.249;   17.601;  -13.540;  605.220
1068.794;   16.602;  -12.600;  626.880
1069.340;   15.361;  -10.620;  578.960
1069.886;   15.744;  -12.830;  590.700
1070.432;   16.233;  -14.870;  541.720
1070.977;   15.378;  -11.980;  601.080
1071.523;   15.389;   -8.200;  573.060
1072.068;   15.238;  -12.330;  582.000
1072.614;   15.908;  -16.370;  527.760
1073.160;   16.537;  -11.100;  687.040
1073.705;   14.389;  -10.480;  572.520
1074.250;   14.733;  -14.520;  559.900
1074.796;   16.500;  -11.460;  655.160
1075.341;   16.680;  -11.950;  664.100
1075.886;   14.631;  -11.460;  594.240
1076.431;   14.401;  -13.770;  649.880
1076.976;   14.928;  -12.680;  639.220
1077.521;   13.565;  -13.170;  583.080
1078.067;   13.294;  -10.860;  579.400
1078.612;   14.869;  -13.920;  661.620
1079.156;   14.829;  -13.880;  601.540
1079.701;   14.975;  -13.120;  693.260
1080.246;   14.402;   -9.940;  696.300
1080.791;   14.139;  -14.740;  625.020
1081.336;   15.248;  -13.750;  659.320
1081.880;   13.573;  -13.400;  649.680
1082.425;   13.125;  -12.220;  573.480
1082.970;   14.105;  -11.610;  717.040
1083.514;   13.973;  -13.580;  597.000
1084.059;   12.775;  -12.810;  586.720
1084.603;   12.776;  -12.320;  565.840
1085.147;   13.174;  -13.190;  645.220
1085.692;   14.349;  -12.480;  716.800
1086.236;   12.281;  -13.020;  503.140
1086.780;   13.437;   -9.190;  751.440
1087.325;   12.359;  -12.480;  654.620
1087.869;   13.372;  -12.450;  610.700
1088.413;   13.289;  -12.240;  705.040
1088.957;   10.504;   -9.020;  543.400
1089.501;   13.032;  -10.320;  766.640
1090.045;   13.153;  -12.720;  726.480
1090.589;   10.315;  -13.690;  569.920
1091.133;   11.440;  -10.020;  673.340
1091.676;   11.851;  -12.330;  591.940
1092.220;   11.829;  -14.970;  600.920
1092.764;   12.346;  -12.430;  706.960
1093.307;   11.437;   -9.800;  673.780
1093.851;   10.163;  -14.970;  556.540
1094.395;   11.890;  -15.310;  683.140
1094.938;   10.443;  -10.370;  632.520
1095.482;   10.072;  -11.050;  559.800
1096.025;   11.264;  -11.840;  710.880
1096.568;   11.747;  -12.840;  779.280
1097.112;    8.971;  -14.700;  508.180
1097.655;   10.864;   -8.720;  603.000
1098.198;    9.837;  -13.610;  600.180
1098.741;   10.679;  -13.350;  612.860
1099.285;   10.272;  -11.230;  657.300
1099.828;    7.313;  -11.840;  439.400
1100.371;    9.846;  -10.840;  608.160
1100.914;   10.281;  -14.190;  682.660
1101.457;    9.988;  -11.240;  679.900
1101.999;    8.264;  -11.270;  584.680
1102.542;   10.023;  -11.480;  641.440
1103.085;    9.766;  -11.750;  658.500
1103.628;   10.146;  -11.400;  762.060
1104.170;    7.994;  -10.490;  588.280
1104.713;    8.966;  -10.600;  646.700
1105.256;    8.994;  -14.360;  557.440
1105.798;    7.986;  -13.210;  499.980
1106.341;    9.668;  -10.270;  728.900
1106.883;    8.076;  -12.200;  521.340
1107.425;    9.285;  -13.110;  668.180
1107.968;    7.998;  -12.840;  612.380
1108.510;    7.970;   -6.480;  684.960
1109.052;    7.231;  -13.940;  612.620
1109.594;    7.668;  -13.690;  554.440
1110.136;    8.686;  -11.880;  643.220
1110.679;    6.892;   -9.500;  633.080
1111.221;    8.148;  -14.160;  604.460
1111.763;    7.894;  -13.980;  559.220
1112.304;    6.879;  -13.880;  547.140
1112.846;    7.429;  -12.210;  666.240
1113.388;    9.861;  -11.390;  942.180
1113.930;    7.832;  -14.540;  694.200
1114.472;    6.676;  -12.640;  606.540
1115.013;    5.242;  -11.620;  551.280
1115.555;    5.632;  -13.640;  587.100
1116.097;    6.223;  -15.380;  579.480
1116.638;    7.010;  -12.640;  684.600
1117.180;    6.568;   -9.850;  667.740
1117.721;    6.190;  -13.690;  568.580
1118.262;    7.258;  -12.680;  677.960
1118.804;    7.080;  -12.530;  637.340
1119.345;    4.855;  -11.690;  578.400
1119.886;    6.444;  -13.380;  704.040
1120.427;    5.302;  -14.070;  589.020
1120.969;    5.370;  -13.500;  597.920
1121.510;    4.842;  -11.480;  563.060
1122.051;    5.658;  -12.830;  723.580
1122.592;    5.743;  -14.290;  655.420
1123.133;    4.828;  -12.400;  547.940
1123.673;    5.574;  -10.130;  706.480
1124.214;    4.969;  -12.930;  612.460
1124.755;    6.859;  -14.380;  639.460
1125.296;    5.635;  -14.000;  627.320
1125.836;    5.435;  -10.070;  691.500
1126.377;    4.223;  -12.640;  599.660
1126.918;    5.437;  -12.960;  614.980
1127.458;    4.506;  -13.350;  622.220
1127.999;    4.157;  -10.750;  656.980
1128.539;    5.358;  -12.350;  694.240
1129.079;    4.750;  -14.860;  632.720
1129.620;    4.043;  -13.840;  558.100
1130.160;    3.436;  -12.330;  539.480
1130.700;    4.596;  -14.530;  640.840
1131.240;    5.663;  -12.530;  643.700
1131.781;    3.954;  -14.450;  619.680
1132.321;    3.226;   -9.790;  599.120
1132.861;    2.953;  -14.860;  564.200
1133.401;    2.738;  -14.290;  593.940
1133.941;    3.340;  -11.750;  626.280
1134.481;    3.089;   -9.920;  597.580
1135.020;    2.932;  -12.290;  609.160
1135.560;    4.584;  -11.650;  674.940
1136.100;    3.484;  -16.270;  501.160
1136.640;    1.961;  -10.890;  510.480
1137.179;    2.385;  -14.180;  537.960
1137.719;    3.892;  -16.250;  605.400
1138.258;    3.348;  -14.230;  587.360
1138.798;    2.326;   -9.090;  663.780
1139.337;    1.423;  -15.130;  482.840
1139.877;    3.246;  -13.680;  642.360
1140.416;    5.037;  -11.320;  878.060
1140.955;    1.200;  -10.860;  535.380
1141.494;    1.992;  -12.920;  669.280
1142.034;    2.672;  -13.930;  583.520
1142.573;    3.516;  -11.440;  646.280
1143.112;    1.738;  -12.000;  553.480
1143.651;    1.338;  -13.670;  536.480
1144.190;    3.252;  -12.730;  691.640
1144.729;    2.312;  -14.560;  607.420
1145.267;    1.632;  -11.830;  584.900
1145.806;    2.318;  -12.230;  637.040
1146.345;    1.492;  -14.130;  635.020
1146.884;    1.958;  -11.590;  622.500
1147.422;    1.042;  -12.550;  533.060
1147.961;    2.297;  -11.180;  708.460
1148.500;    2.797;  -11.510;  669.720
1149.038;    2.877;  -11.640;  632.500
1149.577;    1.592;  -10.130;  698.640
1150.115;    0.005;  -13.970;  452.280
1150.653;    2.063;  -14.520;  607.340
1151.192;    1.381;  -12.810;  552.920
1151.730;    0.942;   -9.100;  652.560
1152.268;   -0.193;  -12.220;  589.520
1152.806;    1.275;  -14.140;  571.180
1153.344;   -0.478;  -12.350;  577.640
1153.882;    0.669;   -8.980;  600.060
1154.421;   -0.696;  -15.190;  470.620
1154.958;    1.016;  -15.210;  595.240
1155.496;    1.636;  -12.850;  645.280
1156.034;    0.212;   -9.940;  721.880
1156.572;    1.202;  -13.570;  667.060
1157.110;    0.432;  -14.590;  473.940
1157.647;    0.798;  -13.030;  676.960
1158.185;   -1.222;  -12.140;  564.320
1158.723;   -1.144;  -14.390;  509.200
1159.260;    0.626;  -14.090;  701.700
1159.798;    0.323;  -11.920;  658.160
1160.335;   -0.617;  -11.110;  631.820

