gmr_right
Integration time [ms]: 4415.405
Averaging Nr. [scans]: 10
Smoothing Nr. [pixels]: 0
Data measured with spectrometer [name]: 7414430SP
Wave   ;Sample   ;Dark     ;Reference
[nm]   ;[counts] ;[counts] ;[counts] 

288.544; 5675.648; 5481.567;    6.613
289.143; 4659.006; 4445.805;   14.216
289.742; 6054.538; 5944.782;   11.816
290.341; 5788.456; 5549.822;   -4.936
290.940; 5299.105; 5126.334;    0.852
291.538; 6729.312; 6565.967;    1.792
292.137; 5930.043; 5724.192;    6.262
292.736; 7767.856; 7451.822;    8.164
293.335; 5415.770; 5236.041;   -6.418
293.934; 5877.166; 5668.136;   -2.904
294.532; 8366.577; 8170.262;   -5.162
295.131; 6581.880; 6327.777;  -10.283
295.730; 6365.124; 6165.880;  -16.141
296.328; 6141.116; 5919.741;  -14.740
296.927; 6069.457; 5823.527;   -8.768
297.525; 6062.728; 5870.784;  -15.255
298.124; 4911.535; 4719.534;  -22.063
298.722; 5915.069; 5667.405;  -14.796
299.321; 5451.833; 5160.111;  -10.466
299.919; 5825.826; 5655.808;  -10.979
300.518; 5327.839; 5062.438;  -12.077
301.116; 5312.129; 5088.125;  -13.509
301.715; 5648.873; 5476.557;  -11.939
302.313; 5460.653; 5256.375;  -15.424
302.911; 5809.195; 5621.171;  -19.833
303.509; 7615.449; 7470.388;   -3.567
304.108; 5981.109; 5754.438;   -9.553
304.706; 6446.464; 6182.500;   -8.582
305.304; 6527.955; 6357.468;  -12.348
305.902; 6202.820; 5985.563;  -14.411
306.500; 5785.949; 5621.059;   -7.194
307.098; 5993.662; 5766.937;   -9.322
307.696; 6386.094; 6148.666;  -19.192
308.294; 5884.338; 5652.933;   -9.736
308.892; 6138.929; 5935.455;  -15.482
309.490; 5629.142; 5442.755;  -14.107
310.088; 6500.727; 6295.396;  -15.862
310.686; 6687.985; 6399.270;  -10.781
311.284; 6291.486; 6134.692;  -14.878
311.882; 5794.051; 5647.399;   -9.948
312.480; 5597.936; 5377.040;  -15.503
313.078; 6759.795; 6571.419;  -17.262
313.675; 5525.549; 5344.059;   -3.694
314.273; 6623.896; 6491.006;  -18.246
314.871; 4550.703; 4387.228;  -15.190
315.468; 5250.695; 5086.171;  -12.633
316.066; 5615.662; 5378.019;   -5.765
316.664; 5280.976; 5124.990;  -14.317
317.261; 7713.110; 7501.531;   -8.677
317.859; 6507.847; 6383.247;  -11.804
318.456; 7056.078; 6947.801;   -3.107
319.054; 6615.191; 6478.350;   -3.062
319.651; 6275.066; 6074.594;   -6.706
320.249; 6918.667; 6764.594;   -5.206
320.846; 5940.294; 5767.831;   -4.679
321.443; 7164.210; 7003.613;   -7.920
322.041; 7027.491; 6863.432;  -14.105
322.638; 5948.703; 5873.557;   -6.263
323.235; 5512.353; 5353.375;   -7.424
323.833; 6276.229; 6144.042;  -14.765
324.430; 5011.174; 4823.814;  -10.550
325.027; 7610.753; 7492.045;   -9.951
325.624; 5208.232; 5037.771;   -3.712
326.221; 5620.721; 5515.481;   -9.368
326.818; 6922.914; 6752.095;   -5.637
327.415; 6061.636; 5883.005;   -6.699
328.012; 5504.551; 5293.117;   -5.713
328.609; 5833.516; 5667.824;   -9.983
329.206; 6408.148; 6302.553;   -7.154
329.803; 5897.461; 5770.431;   -1.682
330.400; 5542.556; 5373.857;   -2.741
330.997; 6572.236; 6398.510;   -4.339
331.594; 6392.950; 6309.646;  -10.278
332.191; 5677.885; 5513.435;   -6.967
332.787; 6782.177; 6623.131;   -0.480
333.384; 5963.299; 5864.241;  -10.333
333.981; 6535.161; 6493.301;  -19.900
334.578; 5472.056; 5197.644;  -19.816
335.174; 5644.240; 5451.614;  -15.844
335.771; 6720.290; 6559.961;  -12.670
336.367; 5583.163; 5394.394;  -21.124
336.964; 6396.886; 6137.810;  -18.226
337.561; 5816.530; 5655.582;  -13.311
338.157; 7598.276; 7429.612;  -19.006
338.754; 6456.401; 6305.286;  -19.418
339.350; 5721.984; 5531.421;  -29.433
339.946; 6101.339; 5908.979;  -16.622
340.543; 6937.050; 6726.633;  -16.744
341.139; 5776.719; 5622.079;  -21.841
341.735; 6377.060; 6137.947;  -25.012
342.332; 5578.135; 5311.191;  -19.156
342.928; 6531.603; 6365.379;  -20.443
343.524; 6291.912; 6140.857;  -14.397
344.120; 6113.976; 6034.729;  -20.654
344.716; 5763.174; 5567.636;   -5.730
345.313; 6641.438; 6491.590;  -10.929
345.909; 4939.707; 4700.448;  -19.843
346.505; 6089.466; 5954.910;  -19.645
347.101; 6871.093; 6646.147;   -9.618
347.697; 6556.937; 6396.497;  -10.305
348.293; 4918.737; 4852.084;  -23.189
348.889; 6132.765; 5965.240;  -18.418
349.485; 5508.148; 5374.457;  -10.476
350.081; 6357.448; 6229.540;  -17.320
350.676; 5632.998; 5471.969;  -21.088
351.272; 6754.532; 6672.840;  -12.821
351.868; 6362.075; 6170.107;  -13.165
352.464; 5841.624; 5717.784;  -12.464
353.059; 5180.725; 5013.372;  -22.547
353.655; 6467.875; 6246.942;   -9.379
354.251; 6260.687; 6029.314;   -8.266
354.846; 6129.304; 6051.520;  -17.705
355.442; 6181.018; 6058.985;   -9.317
356.038; 6152.040; 6001.648;  -11.049
356.633; 5939.416; 5753.728;  -10.006
357.229; 5912.612; 5792.494;  -13.120
357.824; 5767.385; 5618.256;  -15.647
358.420; 5488.661; 5342.335;  -19.204
359.015; 5593.944; 5433.553;  -12.263
359.610; 6362.360; 6199.748;  -16.421
360.206; 4766.854; 4613.949;  -20.074
360.801; 5159.588; 4989.573;  -13.277
361.396; 5913.740; 5775.979;   -5.822
361.992; 5413.885; 5307.256;  -11.247
362.587; 5449.666; 5357.827;  -21.502
363.182; 5658.093; 5457.229;   -7.461
363.777; 6167.677; 6069.447;   -8.719
364.372; 6133.053; 6050.361;  -14.590
364.967; 5607.162; 5475.840;  -15.145
365.563; 6840.472; 6697.708;   -7.192
366.158; 5590.708; 5421.507;   -5.662
366.753; 5270.332; 5143.757;   -8.378
367.348; 6219.013; 6005.246;  -14.990
367.942; 5708.136; 5506.497;   -6.005
368.537; 6286.017; 6153.150;  -11.504
369.132; 5819.909; 5757.342;  -10.576
369.727; 5145.910; 5037.765;  -12.573
370.322; 4760.185; 4595.091;  -11.560
370.917; 5945.397; 5842.969;  -10.388
371.511; 7441.697; 7311.299;   -9.161
372.106; 6658.562; 6524.840;  -10.245
372.701; 4777.158; 4616.606;  -10.158
373.296; 7366.309; 7212.424;   -4.719
373.890; 5363.066; 5243.827;  -11.802
374.485; 5834.378; 5755.458;  -13.500
375.079; 6315.605; 6165.272;   -6.276
375.674; 6966.457; 6819.348;   -0.447
376.268; 5762.942; 5693.824;   -6.916
376.863; 4857.640; 4784.930;  -14.483
377.457; 5587.081; 5440.104;   -6.903
378.052; 6581.618; 6456.656;   -9.844
378.646; 6411.090; 6323.666;  -12.601
379.240; 6184.294; 6030.570;  -14.715
379.835; 5388.761; 5223.005;  -12.331
380.429; 4646.450; 4499.880;   -9.074
381.023; 6759.898; 6686.475;   -1.729
381.617; 5791.579; 5705.293;  -13.714
382.212; 5847.381; 5704.022;   -7.060
382.806; 6568.481; 6396.104;   -2.303
383.400; 5821.559; 5801.524;   -0.815
383.994; 5783.263; 5653.428;   -4.429
384.588; 6096.721; 5945.137;   -6.261
385.182; 6378.068; 6274.639;    0.008
385.776; 6224.821; 6114.302;   -3.247
386.370; 5939.346; 5866.729;   -1.030
386.964; 5980.677; 5861.118;   -1.346
387.558; 5141.616; 5033.563;   -2.020
388.152; 5986.397; 5824.887;   -5.345
388.745; 7290.622; 7222.972;   -2.774
389.339; 6459.121; 6398.385;    3.510
389.933; 5968.988; 5911.655;    5.280
390.527; 7733.245; 7723.223;    2.610
391.120; 5200.154; 5074.455;   -7.914
391.714; 6230.642; 6149.989;   -1.903
392.308; 6985.216; 6811.480;    6.023
392.901; 5687.909; 5654.012;   -4.103
393.495; 5246.334; 5211.686;    3.284
394.089; 6946.530; 6843.864;    8.655
394.682; 6296.958; 6168.854;    2.312
395.275; 6501.634; 6403.851;   -7.402
395.869; 6038.302; 5942.626;   -1.072
396.462; 5507.370; 5435.979;    6.454
397.056; 6957.940; 6978.566;    8.494
397.649; 6675.158; 6572.689;    1.599
398.242; 6453.749; 6452.210;    3.153
398.836; 6963.365; 6924.404;   11.395
399.429; 5564.396; 5454.381;   14.695
400.022; 5997.270; 5910.649;    3.627
400.615; 7399.514; 7402.917;    8.383
401.208; 6185.769; 6070.474;   13.295
401.802; 6371.701; 6342.039;    6.211
402.395; 6237.670; 6126.649;    7.227
402.988; 6339.046; 6313.481;    2.700
403.581; 5705.437; 5668.250;   11.225
404.174; 6096.796; 6065.711;   18.922
404.767; 5664.226; 5544.959;   14.169
405.360; 5655.786; 5603.596;    8.999
405.953; 6901.041; 6861.483;   13.138
406.545; 6622.352; 6542.691;   13.937
407.138; 5540.894; 5510.982;   10.869
407.731; 5503.869; 5483.144;   12.768
408.324; 5898.248; 5857.034;   22.921
408.917; 6218.968; 6175.639;   15.308
409.509; 6778.457; 6749.184;   12.239
410.102; 5867.202; 5889.791;   13.741
410.695; 6037.499; 5923.110;   20.249
411.287; 5403.527; 5452.936;   21.793
411.880; 5268.340; 5246.813;   22.965
412.472; 5537.061; 5503.170;   15.082
413.065; 5814.052; 5735.526;   23.423
413.657; 5192.287; 5136.232;   21.077
414.250; 5860.503; 5801.180;   12.349
414.842; 6171.460; 6125.665;   20.423
415.434; 5172.895; 5145.124;   19.906
416.027; 5820.558; 5797.902;   26.574
416.619; 6493.635; 6455.239;   15.705
417.211; 5385.043; 5399.212;   17.791
417.804; 5662.117; 5649.034;   30.244
418.396; 5527.951; 5505.186;   24.177
418.988; 5991.718; 5929.539;   24.904
419.580; 5125.164; 5079.981;   20.692
420.172; 4888.670; 4804.532;   22.275
420.764; 6030.166; 6028.040;   26.773
421.356; 5809.250; 5735.846;   25.731
421.948; 6119.935; 6057.486;   24.876
422.540; 6114.573; 5988.426;   30.042
423.132; 5399.584; 5316.469;   32.728
423.724; 5011.454; 4990.750;   21.317
424.316; 5622.505; 5562.991;   29.359
424.908; 5318.220; 5306.763;   28.798
425.500; 5865.144; 5839.766;   30.512
426.092; 5788.660; 5813.795;   26.741
426.683; 6291.077; 6207.331;   27.029
427.275; 5764.163; 5706.112;   32.611
427.867; 5980.079; 5901.224;   33.796
428.458; 6634.807; 6570.214;   34.453
429.050; 6181.984; 6174.799;   34.255
429.642; 6732.551; 6702.152;   39.082
430.233; 4936.459; 4973.373;   41.138
430.825; 6665.959; 6574.290;   31.581
431.416; 6314.516; 6312.776;   35.755
432.008; 5777.115; 5785.518;   40.566
432.599; 5828.618; 5835.669;   46.322
433.190; 5709.496; 5673.924;   46.897
433.782; 5005.815; 5016.940;   41.069
434.373; 7977.126; 7932.891;   48.778
434.964; 5296.062; 5238.937;   50.078
435.556; 5653.927; 5643.313;   52.381
436.147; 6823.758; 6783.538;   38.251
436.738; 6260.006; 6216.626;   47.237
437.329; 6411.241; 6411.497;   61.304
437.920; 5830.060; 5909.043;   48.611
438.511; 4911.899; 4911.158;   44.910
439.103; 5462.433; 5442.359;   62.404
439.694; 6027.796; 6077.560;   63.075
440.285; 6571.913; 6606.342;   61.033
440.876; 7677.514; 7624.930;   57.249
441.466; 4952.354; 4938.128;   61.306
442.057; 5789.855; 5784.021;   65.773
442.648; 6660.685; 6629.352;   65.676
443.239; 5440.177; 5509.049;   55.963
443.830; 6232.908; 6119.850;   69.631
444.421; 5696.655; 5690.269;   69.943
445.011; 6073.669; 6044.240;   72.791
445.602; 6554.425; 6527.138;   68.848
446.193; 4071.672; 4025.969;   80.044
446.783; 5413.535; 5385.583;   82.599
447.374; 5969.657; 5929.362;   77.419
447.964; 6272.365; 6208.335;   72.605
448.555; 7153.610; 7223.662;   82.041
449.145; 5695.188; 5738.081;   76.230
449.736; 7053.932; 7014.854;   75.545
450.326; 6174.600; 6179.876;   67.945
450.917; 5783.046; 5723.790;   77.598
451.507; 5079.286; 5082.658;   68.027
452.097; 6530.075; 6490.368;   67.771
452.688; 6342.575; 6304.533;   62.884
453.278; 4563.762; 4527.655;   65.512
453.868; 6952.097; 6909.113;   71.796
454.458; 5512.030; 5508.596;   60.956
455.048; 6074.291; 6086.480;   62.356
455.639; 4700.142; 4670.133;   58.782
456.229; 6028.169; 6017.371;   65.209
456.819; 6379.365; 6310.384;   61.466
457.409; 6677.757; 6598.245;   59.967
457.999; 6205.364; 6187.713;   58.093
458.589; 5678.732; 5658.654;   59.536
459.179; 6095.353; 6018.506;   55.994
459.769; 5172.414; 5190.143;   43.624
460.358; 6776.280; 6708.826;   46.978
460.948; 5733.948; 5771.766;   49.821
461.538; 5443.316; 5352.872;   54.678
462.128; 5503.869; 5494.371;   49.309
462.717; 5831.158; 5833.634;   52.774
463.307; 5795.290; 5816.940;   48.101
463.897; 5331.268; 5357.948;   45.606
464.486; 7188.261; 7205.232;   45.010
465.076; 6071.611; 6073.297;   45.519
465.666; 5214.958; 5225.046;   50.058
466.255; 6591.771; 6590.100;   44.463
466.845; 5329.736; 5408.971;   41.206
467.434; 5972.495; 5963.350;   44.847
468.023; 5218.566; 5214.607;   46.760
468.613; 5818.932; 5777.654;   39.736
469.202; 5144.195; 5139.515;   46.461
469.791; 5908.466; 5905.020;   47.944
470.381; 5930.445; 5864.085;   47.529
470.970; 5693.778; 5605.980;   43.773
471.559; 5956.479; 5959.650;   41.646
472.148; 5251.729; 5252.221;   37.914
472.738; 6125.533; 6089.373;   48.071
473.327; 4910.993; 4874.257;   47.871
473.916; 5900.970; 5828.759;   37.716
474.505; 5963.549; 5974.484;   40.256
475.094; 6520.024; 6482.811;   43.269
475.683; 6331.753; 6371.471;   36.499
476.272; 5694.453; 5731.389;   44.542
476.861; 5416.676; 5407.887;   42.297
477.449; 5579.502; 5546.784;   46.878
478.038; 5225.677; 5151.392;   35.156
478.627; 5444.465; 5446.267;   42.514
479.216; 5907.739; 5893.335;   43.937
479.805; 5986.951; 5937.625;   51.393
480.393; 8189.316; 8145.920;   53.239
480.982; 6927.488; 6924.600;   38.955
481.571; 6689.559; 6654.682;   45.436
482.159; 5108.246; 5077.721;   51.007
482.748; 6248.392; 6295.164;   49.695
483.336; 6550.719; 6456.484;   48.280
483.925; 5526.315; 5467.250;   47.166
484.513; 5480.213; 5475.321;   55.404
485.102; 5981.560; 5977.104;   54.238
485.690; 7870.206; 7717.101;   55.748
486.278; 7567.381; 7496.097;   55.934
486.867; 5784.026; 5782.952;   57.106
487.455; 6610.962; 6500.668;   56.979
488.043; 5102.371; 5053.642;   57.564
488.631; 7545.697; 7444.375;   57.432
489.220; 6538.329; 6447.516;   63.646
489.808; 4880.726; 4790.870;   65.449
490.396; 6474.585; 6508.084;   61.977
490.984; 5473.713; 5490.074;   68.834
491.572; 6476.901; 6475.361;   70.775
492.160; 6078.271; 6070.642;   67.564
492.748; 5649.838; 5624.583;   66.808
493.336; 6577.653; 6545.354;   79.747
493.924; 5610.212; 5510.734;   88.688
494.512; 6478.986; 6351.001;   84.120
495.100; 6318.847; 6290.639;   86.250
495.687; 6701.785; 6684.661;  103.074
496.275; 5406.113; 5360.486;  108.717
496.863; 5625.398; 5635.797;  107.035
497.451; 5550.322; 5572.718;  117.993
498.038; 5891.832; 5881.833;  120.116
498.626; 5666.396; 5611.704;  143.059
499.214; 6106.881; 5977.097;  153.434
499.801; 5915.878; 5898.863;  175.121
500.389; 4807.453; 4766.602;  185.617
500.976; 6205.901; 6136.526;  215.789
501.564; 5942.810; 5944.840;  240.321
502.151; 4228.778; 4163.698;  267.007
502.738; 5576.477; 5479.358;  317.961
503.326; 5677.000; 5638.856;  361.216
503.913; 5999.025; 6019.282;  401.433
504.500; 6150.202; 6033.949;  446.492
505.088; 5212.958; 5161.012;  512.063
505.675; 5693.484; 5645.826;  586.387
506.262; 5642.002; 5691.702;  671.021
506.849; 5796.369; 5799.219;  759.062
507.436; 6602.076; 6604.688;  849.788
508.023; 5742.305; 5724.595;  944.288
508.610; 6429.285; 6444.249; 1020.690
509.197; 6198.995; 6140.315; 1089.052
509.784; 5822.058; 5717.176; 1133.776
510.371; 4826.216; 4775.968; 1165.501
510.958; 5911.634; 5882.843; 1251.735
511.545; 6867.169; 6857.054; 1350.248
512.132; 5817.944; 5698.793; 1525.945
512.719; 5169.525; 5104.282; 1834.933
513.305; 5321.698; 5310.962; 1965.349
513.892; 6766.398; 6702.550; 1963.265
514.479; 5949.629; 5832.516; 2046.446
515.066; 6529.085; 6464.414; 2252.803
515.652; 5913.321; 5881.377; 2567.247
516.239; 6338.826; 6313.117; 2636.919
516.825; 4916.945; 4921.298; 2482.304
517.412; 7375.741; 7283.559; 2427.031
517.998; 5687.286; 5628.919; 2540.463
518.585; 5601.678; 5531.698; 2609.007
519.171; 5970.712; 5920.734; 2842.088
519.758; 5028.125; 4972.529; 3090.703
520.344; 6497.458; 6431.176; 3176.076
520.930; 5158.147; 5097.474; 3295.037
521.516; 6201.165; 6125.727; 3500.959
522.103; 6836.213; 6779.321; 3736.704
522.689; 5620.499; 5566.632; 3971.022
523.275; 6620.870; 6608.807; 4213.778
523.861; 5732.537; 5668.242; 4190.361
524.447; 6582.168; 6462.714; 4070.602
525.033; 6673.330; 6618.856; 4088.892
525.619; 5345.511; 5328.593; 4416.851
526.205; 4976.402; 5023.866; 4836.835
526.791; 5664.989; 5627.483; 4885.903
527.377; 5404.842; 5337.652; 4544.907
527.963; 5964.399; 5968.302; 4321.995
528.549; 6095.958; 6039.599; 4473.979
529.135; 5306.590; 5226.988; 4788.663
529.721; 5899.910; 5866.922; 4888.577
530.306; 8006.159; 7995.599; 4775.779
530.892; 5579.790; 5557.906; 4793.906
531.478; 5470.509; 5415.170; 4956.948
532.063; 5213.926; 5180.705; 5136.936
532.649; 7294.644; 7262.157; 5336.867
533.235; 5241.358; 5212.764; 5748.092
533.820; 6717.945; 6608.546; 6456.875
534.406; 5732.411; 5666.180; 6590.167
534.991; 5295.566; 5289.655; 6179.622
535.576; 5744.234; 5694.926; 6098.691
536.162; 8087.378; 7974.028; 6441.234
536.747; 4975.136; 4940.101; 6816.224
537.333; 5327.219; 5302.154; 6889.752
537.918; 5787.079; 5755.368; 7154.280
538.503; 5392.605; 5371.101; 7150.848
539.088; 6081.099; 6099.467; 7253.308
539.673; 5539.511; 5513.345; 7625.180
540.259; 5350.990; 5372.741; 8226.793
540.844; 4714.030; 4634.856; 8745.092
541.429; 7113.412; 7120.016; 8762.553
542.014; 4919.936; 4949.771; 8871.497
542.599; 6074.338; 6063.583; 8886.008
543.184; 5070.892; 5041.082; 9079.139
543.769; 5401.228; 5326.045; 9076.182
544.354; 5581.699; 5529.138; 8354.081
544.938; 6029.059; 5998.352; 8236.809
545.523; 7097.430; 7062.691; 8222.179
546.108; 5805.692; 5738.999; 8114.082
546.693; 5729.216; 5653.590; 8535.912
547.278; 5780.891; 5769.494; 9238.322
547.862; 5774.794; 5704.975; 9034.405
548.447; 6507.100; 6339.890; 7795.011
549.031; 5606.717; 5521.425; 7485.099
549.616; 6004.131; 5912.444; 7626.308
550.201; 5410.387; 5297.260; 7627.909
550.785; 6275.728; 6214.963; 7859.125
551.370; 5040.964; 4994.762; 7990.654
551.954; 6487.564; 6431.926; 8196.468
552.538; 6338.563; 6355.256; 7959.495
553.123; 5420.852; 5310.801; 7964.826
553.707; 5613.465; 5611.185; 8515.957
554.291; 6801.200; 6768.055; 8724.024
554.876; 6420.564; 6346.844; 8524.211
555.460; 5433.449; 5443.484; 8704.456
556.044; 5385.742; 5278.934; 9141.473
556.628; 5827.032; 5740.702; 9250.197
557.212; 6657.211; 6627.428; 9444.237
557.796; 5655.308; 5621.699; 9379.783
558.380; 6132.122; 6056.000; 9353.658
558.964; 5952.580; 5879.121; 9210.310
559.548; 4998.416; 4817.085; 8475.153
560.132; 5594.393; 5477.422; 7954.084
560.716; 5139.709; 5065.040; 7489.529
561.300; 5058.023; 4919.223; 7211.952
561.884; 6294.884; 6281.613; 7141.313
562.467; 6206.574; 6136.076; 7155.386
563.051; 5824.494; 5819.092; 7323.158
563.635; 5725.865; 5635.267; 7709.114
564.219; 5800.356; 5793.623; 7678.855
564.802; 6270.302; 6082.983; 7376.187
565.386; 5937.553; 5788.142; 7054.372
565.969; 6833.116; 6725.002; 6589.196
566.553; 7536.833; 7384.373; 6279.371
567.136; 6754.506; 6652.970; 5967.930
567.720; 5957.142; 5855.687; 5660.703
568.303; 6197.021; 6024.082; 5648.615
568.887; 6004.545; 5900.250; 5618.443
569.470; 6193.451; 6009.495; 5411.875
570.053; 6464.090; 6312.610; 5149.274
570.637; 5521.893; 5194.587; 5122.798
571.220; 6562.948; 6360.649; 4957.369
571.803; 7675.919; 7391.436; 4933.018
572.386; 5906.402; 5532.818; 4840.973
572.969; 5908.213; 5597.191; 4592.886
573.552; 6064.470; 5723.006; 4348.387
574.135; 5507.631; 5165.314; 4002.290
574.718; 5739.570; 5343.841; 3654.773
575.301; 5782.702; 5304.195; 3502.288
575.884; 5825.834; 5264.548; 3349.803
576.467; 7180.842; 6533.687; 3191.403
577.050; 6691.823; 5972.505; 3062.418
577.633; 8005.438; 7248.194; 3214.200
578.216; 6434.646; 5558.591; 3284.889
578.799; 6504.199; 5724.172; 3189.777
579.381; 8457.011; 7434.709; 3064.502
579.964; 6355.765; 5321.185; 2888.357
580.547; 7172.895; 5915.515; 2905.760
581.129; 8246.676; 6835.004; 2966.849
581.712; 7551.704; 6015.829; 2887.292
582.294; 7451.123; 5849.670; 2771.631
582.877; 9277.914; 7448.779; 2711.602
583.459; 7672.868; 5788.865; 2577.049
584.042; 7750.164; 5660.878; 2454.707
584.624; 7541.068; 5359.783; 2305.893
585.206; 6799.674; 4502.581; 2189.546
585.789; 7789.656; 5443.987; 2112.577
586.371; 8538.041; 6153.545; 2153.065
586.953; 8873.540; 6358.040; 2197.806
587.536; 9519.547; 6688.591; 2105.489
588.118; 8682.642; 5611.886; 1963.911
588.700;10228.004; 6837.664; 1843.179
589.282; 9855.695; 6205.185; 1813.834
589.864; 9794.960; 5914.974; 1777.620
590.446; 8845.557; 4743.410; 1733.780
591.028;10323.045; 5847.532; 1676.008
591.610; 9593.872; 4786.935; 1631.649
592.192;11145.844; 5910.192; 1632.362
592.774;10243.721; 5196.694; 1569.507
593.356;10547.466; 5367.054; 1524.539
593.937;10989.600; 5418.089; 1569.720
594.519;12746.407; 6522.980; 1569.049
595.101;11442.733; 4808.242; 1545.452
595.683;12423.281; 5511.083; 1607.568
596.264;13116.204; 5733.994; 1615.506
596.846;13091.376; 5498.674; 1667.622
597.427;13133.570; 5333.876; 1670.469
598.009;13324.506; 5250.839; 1640.312
598.591;14361.309; 6341.651; 1541.022
599.172;13532.373; 5532.522; 1598.665
599.753;13592.906; 4953.922; 1619.068
600.335;15803.063; 6869.655; 1548.612
600.916;15050.153; 5819.093; 1607.510
601.498;15435.385; 6126.318; 1745.181
602.079;15275.678; 5848.932; 1801.011
602.660;15187.850; 5679.777; 1834.640
603.241;14231.385; 4596.565; 1787.351
603.823;15541.365; 5401.384; 1684.266
604.404;15683.914; 5057.730; 1654.241
604.985;16984.074; 5519.615; 1758.741
605.566;18584.068; 6349.618; 1697.679
606.147;18300.139; 5562.404; 1526.728
606.728;17838.527; 4921.279; 1484.086
607.309;18035.186; 5387.576; 1421.070
607.890;18314.854; 5481.176; 1369.867
608.471;18713.627; 5259.773; 1277.826
609.051;20088.584; 5983.847; 1180.416
609.632;20107.424; 5226.962; 1075.816
610.213;20931.563; 5714.655; 1053.313
610.794;21284.271; 5559.546;  979.442
611.374;22677.582; 6096.424;  917.414
611.955;22144.352; 4899.117;  819.987
612.536;23395.154; 5966.681;  752.627
613.116;23480.066; 5384.559;  690.799
613.697;23077.943; 5447.814;  674.974
614.277;22518.389; 5180.669;  663.846
614.858;21890.402; 5392.605;  665.898
615.438;22184.131; 5736.678;  660.712
616.019;23304.828; 6710.619;  632.732
616.599;21405.363; 4412.995;  551.759
617.179;23511.074; 5059.368;  512.871
617.760;26746.105; 7737.757;  473.655
618.340;25056.572; 5604.474;  440.004
618.920;26828.707; 7001.850;  429.731
619.500;25520.865; 5482.418;  441.361
620.080;24481.729; 5209.867;  425.202
620.660;24283.234; 5209.864;  408.164
621.241;25016.336; 5514.510;  387.161
621.821;25603.344; 5837.731;  378.017
622.401;26487.836; 6505.840;  379.188
622.980;25272.316; 4903.247;  350.019
623.560;26076.117; 5521.576;  336.446
624.140;25775.580; 5821.860;  336.473
624.720;25150.041; 6055.745;  334.974
625.300;24298.816; 5219.824;  325.717
625.880;25766.250; 5700.224;  308.519
626.459;28375.541; 5793.662;  307.117
627.039;29141.709; 4713.355;  290.890
627.619;32133.285; 7367.857;  286.635
628.198;30611.129; 6704.042;  282.535
628.778;30044.340; 6234.745;  285.474
629.357;29345.453; 4963.705;  284.103
629.937;30345.662; 5496.937;  292.178
630.516;31106.717; 7021.999;  290.749
631.096;30706.629; 5324.702;  285.489
631.675;32531.982; 6730.623;  287.022
632.254;30122.092; 5277.350;  286.038
632.834;30355.859; 5700.538;  276.451
633.413;32053.705; 6763.369;  279.447
633.992;31733.223; 6435.574;  264.508
634.571;31013.566; 6147.181;  271.010
635.151;30424.227; 5098.396;  277.338
635.730;32145.297; 5649.313;  289.305
636.309;34252.313; 6052.012;  285.306
636.888;34302.727; 6123.561;  254.051
637.467;32474.260; 4719.208;  230.324
638.046;34371.152; 6942.045;  253.349
638.625;34504.852; 6572.564;  246.866
639.204;35638.051; 5929.069;  240.825
639.782;35653.965; 5700.617;  261.970
640.361;34734.422; 6735.752;  277.780
640.940;31896.225; 5352.780;  270.101
641.519;31952.527; 5966.808;  248.622
642.097;32795.332; 6194.836;  239.843
642.676;33832.035; 5832.864;  244.264
643.255;34840.336; 5595.892;  234.985
643.833;36528.340; 6154.920;  244.406
644.412;36348.145; 5457.948;  244.927
644.990;36075.648; 5847.976;  249.948
645.569;37152.449; 6105.004;  249.569
646.147;39068.855; 6392.032;  243.290
646.726;36848.656; 5870.060;  249.511
647.304;35497.859; 5517.087;  228.032
647.882;35116.766; 4664.116;  214.552
648.461;36933.266; 6009.144;  214.973
649.039;36537.469; 6236.171;  223.394
649.617;36327.676; 6235.199;  261.415
650.195;36676.777; 5901.228;  298.736
650.773;35692.781; 5462.255;  309.557
651.352;34655.484; 4637.283;  297.978
651.930;33364.188; 4530.311;  289.399
652.508;34560.992; 6380.339;  285.620
653.086;34992.594; 6049.367;  272.241
653.663;35908.598; 5267.395;  265.062
654.241;36564.699; 4997.423;  286.083
654.819;36913.703; 5031.451;  286.404
655.397;36555.605; 5128.479;  291.825
655.975;34801.813; 5523.507;  299.145
656.553;35637.414; 6916.535;  288.866
657.130;34740.516; 5139.563;  304.087
657.708;36429.320; 5972.591;  302.908
658.286;35992.324; 5910.619;  294.629
658.863;36038.328; 5878.646;  293.350
659.441;37374.230; 5966.674;  318.671
660.018;36624.832; 5632.703;  333.692
660.596;35740.137; 4648.730;  335.013
661.173;36586.039; 5367.758;  371.534
661.750;36210.445; 5153.786;  365.155
662.328;36983.148; 6199.814;  349.976
662.905;34312.949; 5476.842;  332.997
663.482;33240.754; 5638.870;  321.717
664.060;32826.258; 5282.898;  314.438
664.637;34910.660; 6099.926;  306.259
665.214;36373.863; 5914.954;  314.580
665.791;36744.969; 5540.982;  334.501
666.368;36646.469; 5450.010;  329.222
666.945;36492.574; 6258.038;  342.143
667.522;34594.977; 5207.066;  370.964
668.099;34855.281; 5656.094;  396.885
668.676;35164.984; 5755.122;  391.706
669.253;37968.988; 6928.150;  369.627
669.830;37547.789; 6704.178;  360.348
670.407;36887.594; 5608.206;  344.769
670.984;35697.797; 5627.233;  322.890
671.560;35060.699; 6122.262;  316.910
672.137;33882.805; 5431.290;  322.531
672.714;34705.008; 6147.317;  318.552
673.290;35535.512; 5911.345;  324.473
673.867;35170.914; 5382.373;  340.594
674.443;35524.719; 4994.401;  319.515
675.020;37752.520; 5856.429;  286.336
675.596;36159.426; 5504.457;  247.557
676.173;34793.426; 4908.485;  227.778
676.749;34137.430; 4358.513;  224.399
677.326;34298.832; 4788.541;  230.520
677.902;34292.039; 5177.569;  241.841
678.478;34164.840; 4895.597;  239.762
679.054;38208.742; 8495.625;  248.583
679.631;35933.047; 5984.653;  237.503
680.207;36922.750; 7131.681;  245.924
680.783;34090.152; 4427.708;  224.845
681.359;35032.355; 5552.737;  209.666
681.935;35892.359; 5738.765;  191.687
682.511;35227.863; 5741.792;  210.008
683.087;35830.766; 6086.820;  213.329
683.663;35380.371; 5578.849;  216.850
684.239;34328.875; 4983.876;  229.471
684.815;36403.977; 6294.904;  248.792
685.390;37254.379; 7397.932;  231.813
685.966;35328.582; 5788.960;  221.234
686.542;34397.086; 5068.988;  214.255
687.118;35003.090; 5877.016;  212.276
687.693;35064.395; 6123.044;  233.096
688.269;34642.297; 5556.072;  246.917
688.844;34715.102; 5960.100;  236.938
689.420;34253.504; 5760.128;  242.059
689.995;36905.605; 7042.156;  245.480
690.571;35860.410; 6693.184;  244.701
691.146;33469.414; 5413.212;  251.922
691.722;34136.117; 5927.240;  284.743
692.297;33901.621; 5385.268;  320.664
692.872;34814.125; 5270.295;  313.885
693.448;35426.227; 5038.324;  290.106
694.023;35089.531; 5790.352;  304.327
694.598;34981.434; 5913.379;  319.648
695.173;34223.738; 5416.407;  323.169
695.748;33036.242; 4608.436;  376.389
696.323;33351.645; 5602.463;  397.610
696.898;34402.648; 6660.491;  430.231
697.473;33684.051; 4730.519;  454.952
698.048;34677.855; 5527.547;  478.973
698.623;34132.156; 4907.575;  477.094
699.198;34214.359; 5760.603;  496.915
699.773;33315.563; 5265.631;  490.236
700.348;32602.066; 5032.659;  519.957
700.922;34694.871; 5803.687;  575.678
701.497;34036.273; 5715.715;  621.399
702.072;33664.379; 6345.743;  664.420
702.646;34492.379; 6220.771;  690.541
703.221;34489.184; 5851.799;  748.862
703.795;32613.387; 5075.827;  774.282
704.370;30513.990; 4195.854;  799.803
704.944;31176.494; 5350.882;  875.824
705.519;31210.197; 5917.911;  902.945
706.093;30771.400; 5115.938;  889.266
706.668;31978.604; 5977.966;  903.487
707.242;32106.807; 6229.994;  881.708
707.816;31159.211; 5421.022;  892.329
708.390;31991.014; 5573.050;  970.250
708.965;32782.719; 5894.078;  984.671
709.539;31508.820; 5479.106; 1026.092
710.113;31639.324; 5717.134; 1067.913
710.687;32425.527; 6340.162; 1166.434
711.261;31520.430; 5046.190; 1190.854
711.835;31395.033; 5113.218; 1197.275
712.409;31212.037; 4673.246; 1308.096
712.983;31190.641; 4698.274; 1461.617
713.557;31055.043; 4738.302; 1611.838
714.131;31003.848; 5513.330; 1554.359
714.704;30200.250; 5052.357; 1520.780
715.278;31020.254; 5778.386; 1575.101
715.852;31601.258; 6195.414; 1689.822
716.425;32182.961; 7173.441; 1829.143
716.999;29088.363; 4602.469; 2008.664
717.573;30588.467; 6068.498; 2000.485
718.146;32386.770; 6993.525; 1914.506
718.720;32612.773; 5863.553; 1818.026
719.293;32593.277; 6102.581; 1734.147
719.867;30645.381; 5211.609; 1716.968
720.440;31628.584; 6702.637; 1918.589
721.013;30821.188; 5248.665; 1975.410
721.587;31878.090; 4707.693; 2073.331
722.160;33698.395; 6337.721; 2357.852
722.733;32499.098; 5699.749; 2657.073
723.306;33061.000; 5693.777; 2703.894
723.880;32491.805; 5874.805; 2549.415
724.453;33535.707; 6623.833; 2414.336
725.026;33398.109; 5414.861; 2298.557
725.599;33662.016; 5851.889; 2168.778
726.172;32922.219; 6048.917; 2106.099
726.745;31510.621; 5995.944; 2253.320
727.318;30975.824; 6349.973; 2404.740
727.891;29838.627; 5952.000; 2680.161
728.463;30035.230; 5874.028; 2838.882
729.036;29372.533; 5191.056; 2755.103
729.609;30223.736; 5164.084; 2731.824
730.182;31623.840; 6269.112; 2855.645
730.754;29567.844; 4264.140; 2946.866
731.327;30909.447; 6087.168; 2840.187
731.900;29615.051; 4722.196; 2647.608
732.472;30748.654; 5610.224; 2473.929
733.045;32031.656; 5415.252; 2445.750
733.617;31717.961; 4658.280; 2511.771
734.190;32982.563; 6048.308; 2581.592
734.762;32015.467; 5625.336; 2710.813
735.334;31671.170; 5705.364; 3005.733
735.907;32308.373; 5650.392; 3154.954
736.479;33666.277; 6477.420; 3171.675
737.051;33588.480; 6076.448; 3217.496
737.623;34485.184; 6125.476; 3246.217
738.195;33552.285; 5227.503; 2985.238
738.768;33388.789; 4413.532; 2727.559
739.340;35020.594; 5395.560; 2666.880
739.912;34453.496; 6154.587; 2769.601
740.484;32879.301; 6041.615; 2731.422
741.056;32478.904; 5406.643; 2963.043
741.628;31767.406; 5061.671; 3361.364
742.199;34526.012; 6600.699; 3641.185
742.771;32656.713; 4871.727; 3932.005
743.343;33047.016; 5107.755; 4319.926
743.915;33808.621; 5911.783; 4706.647
744.487;33469.523; 6027.811; 4874.968
745.058;32142.928; 6190.839; 4616.589
745.630;31713.531; 6120.867; 4253.410
746.201;32239.834; 5360.895; 4056.131
746.773;34810.637; 5970.923; 3772.952
747.344;34509.340; 5546.951; 3642.473
747.916;34103.742; 5867.979; 3752.294
748.487;33736.348; 6215.007; 4106.215
749.059;32195.350; 4925.035; 4457.835
749.630;31927.254; 5210.063; 4366.457
750.201;32727.357; 5596.090; 4600.078
750.773;33116.961; 5191.119; 4658.499
751.344;33931.664; 5646.146; 4609.319
751.915;34199.168; 5615.174; 4526.440
752.486;33787.371; 5290.202; 4536.061
753.057;33682.875; 5833.230; 4383.282
753.628;32790.676; 5134.258; 4296.503
754.199;33182.480; 5388.286; 4383.224
754.770;33203.684; 6050.314; 4653.545
755.341;33143.188; 6390.342; 4831.666
755.912;32008.391; 5515.370; 4831.387
756.483;33409.992; 6044.398; 4735.808
757.054;32006.197; 5429.426; 4685.029
757.625;32059.900; 4914.454; 4994.250
758.195;32550.703; 4772.482; 5051.471
758.766;33247.707; 5796.510; 5317.792
759.337;32053.109; 4685.538; 5646.512
759.907;31882.213; 4799.565; 5404.133
760.478;32880.117; 5292.594; 5090.954
761.048;34421.719; 6093.622; 4871.175
761.619;33513.422; 5987.649; 4589.396
762.189;32964.129; 5679.677; 4171.317
762.760;33852.629; 6186.706; 3872.538
763.330;34384.832; 6171.733; 3832.259
763.900;34034.035; 5877.761; 4150.180
764.471;32738.041; 5146.789; 4529.801
765.041;33718.242; 6472.817; 4715.922
765.611;33006.445; 6018.845; 4681.442
766.181;32851.949; 5600.873; 4717.063
766.751;32659.553; 5715.901; 4710.285
767.321;33309.457; 4850.929; 4450.305
767.891;34382.559; 5769.957; 4274.126
768.461;34861.762; 5538.985; 4215.047
769.031;34173.566; 5584.013; 4173.068
769.601;34648.469; 6515.041; 4174.689
770.171;33556.172; 4741.069; 4229.310
770.741;34422.176; 5430.097; 4352.031
771.311;34733.781; 5953.125; 4336.652
771.880;33438.883; 5107.152; 4300.873
772.450;33429.785; 5123.181; 4387.194
773.020;34024.891; 4730.208; 4220.415
773.589;34374.695; 5262.236; 4075.835
774.159;33603.898; 5286.264; 4105.756
774.729;33662.699; 5167.292; 4114.978
775.298;33888.203; 5219.320; 3693.298
775.867;32912.707; 5182.348; 3343.119
776.437;32338.811; 5672.376; 3062.040
777.006;31321.514; 4710.404; 2927.161
777.576;32915.516; 6039.432; 3046.482
778.145;33359.719; 5923.460; 3230.203
778.714;32137.223; 5528.488; 3253.324
779.283;31959.826; 5999.516; 3129.745
779.853;30923.531; 5550.544; 2983.566
780.422;30977.133; 5521.572; 2929.887
780.991;31427.338; 5881.600; 2863.908
781.560;32620.240; 6633.627; 2948.029
782.129;32059.645; 5883.656; 3074.149
782.698;32877.746; 6520.684; 2893.970
783.267;30998.551; 5196.711; 2721.391
783.836;31876.254; 5872.739; 2659.712
784.404;31576.857; 4896.768; 2622.233
784.973;31529.961; 4159.795; 2600.754
785.542;31717.463; 5541.823; 2528.475
786.111;32598.566; 6351.851; 2404.396
786.679;32080.471; 6007.879; 2365.717
787.248;30878.574; 4763.907; 2498.438
787.817;31010.877; 5303.935; 2645.659
788.385;31806.381; 6374.963; 2709.280
788.954;29273.484; 4857.991; 2620.500
789.522;30896.486; 6116.019; 2625.422
790.090;30542.391; 4816.047; 2743.843
790.659;31704.293; 5358.075; 2635.163
791.227;31048.496; 5509.103; 2495.484
791.795;31133.701; 5819.131; 2413.705
792.364;30505.004; 5044.159; 2345.326
792.932;31128.307; 5996.187; 2350.447
793.500;30159.109; 5421.214; 2429.768
794.068;29846.314; 4762.243; 2513.589
794.636;30594.518; 5129.271; 2664.310
795.204;29339.420; 4580.298; 2721.431
795.772;28277.723; 5100.326; 2802.052
796.340;28308.627; 5282.354; 2847.173
796.908;28505.529; 4563.382; 2997.194
797.476;28806.834; 4974.410; 3151.615
798.044;28807.438; 4456.438; 3110.735
798.612;29798.340; 5530.466; 2931.656
799.180;29858.145; 5639.494; 2785.777
799.747;29765.947; 5565.522; 2899.098
800.315;29224.750; 4923.550; 2955.519
800.883;28277.354; 4500.578; 2948.940
801.450;29040.156; 5537.606; 2965.361
802.018;29472.660; 5867.634; 3070.582
802.585;29593.064; 5644.662; 3156.103
803.153;27930.066; 5139.690; 3199.524
803.720;26629.471; 5170.718; 3168.845
804.287;26830.574; 5380.746; 3248.366
804.855;28294.576; 6321.773; 3406.187
805.422;27425.680; 5458.802; 3430.907
805.989;26703.283; 5009.830; 3453.528
806.556;27580.586; 5021.857; 3612.649
807.124;29098.090; 6214.885; 3736.570
807.691;27960.793; 4934.913; 3770.491
808.258;29388.896; 5577.941; 3705.012
808.825;30417.201; 6156.969; 3828.733
809.392;29625.803; 6660.997; 3986.754
809.959;28038.406; 5870.025; 4410.075
810.526;29449.910; 6678.053; 4774.996
811.093;28211.314; 6331.081; 4754.217
811.659;26916.617; 5531.109; 4661.238
812.226;26639.221; 5491.137; 4672.559
812.793;27308.723; 5759.165; 4822.979
813.360;26897.928; 5529.193; 5189.800
813.926;27484.131; 5868.221; 5310.622
814.493;26726.633; 4764.249; 5414.542
815.060;26918.637; 4516.277; 5548.963
815.626;27543.240; 4878.305; 5452.284
816.193;27847.943; 5715.333; 5339.305
816.759;26918.848; 5068.360; 5544.426
817.325;25539.850; 4486.389; 5706.547
817.892;26749.154; 6140.417; 5623.468
818.458;26779.457; 5899.444; 5586.689
819.024;26844.160; 6416.472; 5647.910
819.591;25703.764; 5628.500; 5762.031
820.157;24838.467; 4825.528; 6284.452
820.723;25624.471; 5904.556; 6906.973
821.289;29274.674; 8526.584; 7086.894
821.855;26237.178; 6078.612; 7054.915
822.421;25341.881; 5236.640; 7112.035
822.987;24742.484; 4891.668; 7256.156
823.553;25033.486; 5402.696; 7538.077
824.119;25856.391; 6121.724; 7594.298
824.685;25906.293; 6437.752; 7613.619
825.251;24662.598; 6140.780; 7644.140
825.816;25053.900; 6810.808; 7720.261
826.382;24439.703; 6051.835; 8014.282
826.948;24248.307; 6131.864; 8281.503
827.513;23311.510; 5517.892; 8289.624
828.079;23258.713; 4962.919; 8587.045
828.645;24162.117; 5791.947; 8821.865
829.210;22636.020; 4944.976; 9054.486
829.776;23132.424; 5965.003; 9054.607
830.341;23014.027; 6112.031; 9415.628
830.906;22704.230; 6304.059; 9932.449
831.472;21071.734; 5191.087;10150.271
832.037;22223.836; 6249.115; 9420.391
832.602;21077.840; 5259.143; 8664.912
833.167;21296.143; 5773.171; 8491.933
833.733;21513.947; 6187.199; 8872.854
834.298;20448.750; 4952.227; 9370.575
834.863;21303.453; 5789.255; 9610.695
835.428;20621.857; 5814.283; 9655.616
835.993;20446.160; 5997.311; 9437.838
836.558;20513.764; 6102.339; 9441.459
837.123;21907.467; 7443.367; 9600.979
837.688;20028.371; 5851.395; 9798.301
838.253;20309.373; 5924.422; 9902.921
838.817;20252.277; 5479.451;10339.742
839.382;20973.779; 6624.479;10548.363
839.947;19416.883; 5688.506;10252.484
840.511;19665.688; 6782.534;10040.005
841.076;17335.891; 4509.563;10099.926
841.641;18885.193; 6094.590;10347.347
842.205;18788.598; 5963.618;10817.368
842.770;19798.400; 6893.646;11435.289
843.334;18402.703; 5488.674;12072.409
843.898;17859.807; 5343.702;12635.431
844.463;19027.510; 6616.730;12537.252
845.027;17478.514; 5346.758;12759.673
845.591;18084.717; 6343.786;12821.993
846.156;16788.820; 5323.814;12520.914
846.720;17483.223; 6234.842;12390.436
847.284;16662.627; 5813.870;12956.456
847.848;16562.631; 6032.897;13240.177
848.412;15893.733; 5724.926;13216.998
848.976;16905.836; 6794.954;13014.619
849.540;17338.141; 7300.981;12355.740
850.104;16557.143; 6636.009;12208.761
850.668;14273.747; 4616.038;12106.882
851.232;14794.150; 4750.065;11862.103
851.796;15956.554; 5667.093;11700.523
852.359;16457.656; 6274.121;12375.944
852.923;16371.360; 6409.149;13087.966
853.487;15642.863; 6105.177;13297.187
854.050;13116.267; 3908.205;13851.207
854.614;14587.870; 5469.233;14854.229
855.177;15422.073; 5886.261;15802.149
855.741;15531.477; 6060.289;16603.570
856.304;15325.180; 6370.317;16359.891
856.868;13333.283; 5105.345;14365.512
857.431;13768.787; 5712.373;13361.333
857.995;13787.290; 5462.401;14130.554
858.558;14406.094; 5915.429;14883.175
859.121;14839.297; 6254.457;15754.195
859.684;14317.101; 5904.484;15995.017
860.247;14055.804; 5695.513;15149.537
860.810;13772.307; 5400.541;14640.358
861.374;15640.410; 7459.568;15551.079
861.937;13520.313; 4998.596;16519.801
862.500;13618.217; 5339.625;16796.521
863.062;13046.521; 5105.652;16538.742
863.625;13969.823; 5921.680;16716.764
864.188;13444.827; 5397.708;17055.084
864.751;12823.330; 5356.736;17197.705
865.314;12874.233; 5761.764;17151.625
865.876;13513.537; 6364.792;17783.547
866.439;12918.640; 6196.820;19283.467
867.002;13948.943; 7174.848;20256.389
867.564;13171.047; 6441.876;20485.410
868.127;12342.850; 5718.904;20789.730
868.689;12822.754; 5961.932;21981.951
869.252;13065.856; 6425.960;23803.771
869.814;11670.960; 5230.988;24974.094
870.377;12479.563; 5923.016;24690.314
870.939;14819.667; 8317.044;23963.436
871.501;12679.370; 5897.071;25167.156
872.063;11073.273; 4221.100;26995.477
872.626;11322.776; 4647.127;27443.098
873.188;12135.080; 5921.155;26718.418
873.750;11522.983; 5674.183;26558.840
874.312;11388.986; 5388.211;26701.561
874.874;12782.190; 6898.239;27970.582
875.436;11957.793; 6221.267;29173.402
875.998;12340.396; 6734.295;30376.623
876.560;11903.500; 6397.323;32507.344
877.122;10651.703; 5260.351;34833.066
877.683;11295.707; 6151.379;36458.285
878.245;10397.811; 5376.407;37248.207
878.807;11067.813; 6031.435;36758.027
879.369; 9968.816; 4942.463;35223.551
879.930;10214.620; 5136.491;33824.969
880.492;11563.123; 6573.519;34436.492
881.053; 9889.127; 5102.547;37745.313
881.615;10077.730; 5391.575;41184.633
882.176;10349.033; 5567.603;42871.555
882.738;10722.337; 6274.630;41693.074
883.299; 9056.340; 4460.659;40289.895
883.860; 9091.344; 4709.687;39231.215
884.422;10266.446; 6181.714;38264.039
884.983; 9155.250; 5033.742;37171.859
885.544; 9789.253; 5855.770;35842.379
886.105; 9497.656; 5720.798;34810.000
886.666; 8919.760; 5336.826;34519.020
887.227; 8277.063; 4744.854;33905.641
887.788; 9574.167; 5936.882;34502.965
888.349; 8297.570; 4873.910;34241.785
888.910; 9456.073; 6124.938;33722.203
889.471; 8950.677; 5846.966;32539.625
890.032; 8615.880; 5702.994;31528.346
890.593; 9056.884; 6083.022;32655.068
891.153; 8487.287; 5645.050;33882.289
891.714; 7549.890; 4819.078;33318.711
892.275; 7682.394; 5036.105;31848.930
892.835; 8838.297; 6330.134;30339.752
893.396; 8691.100; 6260.162;30074.973
893.956; 7855.903; 5605.189;30338.393
894.517; 8076.307; 5858.217;30864.113
895.077; 8043.810; 5932.246;29766.734
895.638; 8952.014; 6897.273;26379.557
896.198; 6981.917; 5026.301;24056.277
896.758; 8216.920; 6261.329;22961.898
897.319; 7469.923; 5611.357;21772.020
897.879; 7415.727; 5714.385;20877.539
898.439; 6380.230; 4747.413;19509.461
898.999; 7688.133; 6119.441;17297.582
899.559; 7627.837; 6037.469;14712.002
900.119; 6599.340; 5084.497;12790.224
900.679; 8188.843; 6747.525;11586.744
901.239; 7524.447; 6168.553;10776.465
901.799; 7074.750; 5786.581; 9691.687
902.359; 6404.354; 5185.609; 8725.907
902.919; 6300.657; 5054.637; 8305.728
903.479; 6306.460; 5046.665; 8172.649
904.038; 6032.463; 4968.692; 7913.870
904.598; 5379.967; 4259.721; 7262.291
905.158; 6436.470; 5435.749; 6609.012
905.717; 6674.473; 5623.776; 6236.133
906.277; 6693.177; 5717.804; 5829.054
906.836; 7051.680; 6056.833; 5396.674
907.396; 6909.383; 6052.860; 4964.195
907.955; 6969.987; 5980.888; 4528.917
908.515; 6358.090; 5444.916; 4223.837
909.074; 6429.793; 5481.944; 4023.958
909.633; 6409.997; 5518.972; 4065.379
910.192; 7827.100; 6941.000; 4066.300
910.752; 6363.400; 5503.000; 3971.600
911.311; 6255.300; 5417.000; 3839.600
911.870; 6016.600; 5136.000; 3684.500
912.429; 7290.600; 6432.000; 3635.600
912.988; 7142.200; 6289.000; 3689.800
913.547; 5937.700; 5102.000; 3737.700
914.106; 6630.500; 5755.000; 3740.300
914.665; 6573.200; 5731.000; 3604.600
915.224; 7195.900; 6407.000; 3358.700
915.782; 6166.200; 5305.000; 3188.400
916.341; 7380.800; 6542.000; 3091.400
916.900; 6217.000; 5490.000; 3044.800
917.458; 5923.300; 5238.000; 2888.600
918.017; 6526.900; 5768.000; 2818.900
918.576; 6264.700; 5455.000; 2838.600
919.134; 5544.100; 4788.000; 2880.100
919.693; 6196.800; 5332.000; 2996.300
920.251; 6041.300; 5290.000; 3183.100
920.809; 5735.300; 4913.000; 3247.000
921.368; 6079.700; 5358.000; 3156.600
921.926; 5838.100; 5063.000; 2964.900
922.484; 6408.700; 5701.000; 2846.300
923.042; 6235.900; 5468.000; 2890.400
923.601; 7367.600; 6575.000; 2987.700
924.159; 6788.400; 6004.000; 3049.800
924.717; 5818.300; 5018.000; 3087.000
925.275; 6476.400; 5673.000; 3093.400
925.833; 5305.800; 4503.000; 3182.400
926.391; 6748.600; 5982.000; 3397.900
926.949; 6107.500; 5315.000; 3575.400
927.506; 6531.300; 5692.000; 3713.400
928.064; 6204.400; 5391.000; 3871.300
928.622; 6312.300; 5544.000; 4092.800
929.180; 5650.400; 4740.000; 4499.300
929.737; 5570.400; 4678.000; 4813.200
930.295; 6769.000; 5971.000; 5084.100
930.853; 5952.800; 5176.000; 5185.000
931.410; 5672.100; 4811.000; 5313.100
931.968; 6895.000; 5977.000; 5339.600
932.525; 6448.900; 5604.000; 5399.900
933.082; 5581.100; 4724.000; 5457.500
933.640; 6714.800; 5779.000; 5692.900
934.197; 6271.300; 5288.000; 5821.200
934.754; 6295.900; 5389.000; 5617.900
935.312; 6007.700; 5035.000; 5512.400
935.869; 7480.200; 6473.000; 5582.400
936.426; 6022.800; 5084.000; 5650.100
936.983; 6202.500; 5351.000; 5657.400
937.540; 5672.500; 4795.000; 5564.300
938.097; 6728.700; 5766.000; 5574.000
938.654; 6190.600; 5205.000; 5665.900
939.211; 6733.200; 5747.000; 5931.600
939.768; 6426.600; 5454.000; 6153.600
940.324; 6261.900; 5260.000; 6397.600
940.881; 6009.700; 5026.000; 6454.200
941.438; 7283.600; 6321.000; 6206.900
941.995; 7034.100; 6088.000; 6003.900
942.551; 5776.800; 4826.000; 6228.300
943.108; 6369.100; 5493.000; 6603.500
943.664; 5807.400; 4808.000; 7188.100
944.221; 7895.100; 6963.000; 7579.900
944.777; 5740.000; 4769.000; 7658.100
945.334; 5829.300; 4926.000; 7670.400
945.890; 6376.300; 5499.000; 7525.100
946.446; 6407.500; 5661.000; 7261.500
947.003; 6563.300; 5720.000; 6949.200
947.559; 7480.400; 6597.000; 6773.100
948.115; 7026.000; 6184.000; 6668.400
948.671; 6521.800; 5716.000; 6488.400
949.227; 5445.700; 4637.000; 6236.600
949.783; 5380.400; 4555.000; 6008.900
950.339; 6661.600; 5763.000; 5934.100
950.895; 7054.000; 6155.000; 5933.500
951.451; 6061.600; 5281.000; 6074.700
952.007; 6776.800; 5873.000; 6066.400
952.563; 6135.000; 5328.000; 5884.100
953.118; 5924.200; 5100.000; 5733.800
953.674; 6287.700; 5522.000; 5734.300
954.230; 6310.300; 5449.000; 6039.700
954.785; 6294.200; 5377.000; 6383.500
955.341; 6821.000; 5957.000; 6568.200
955.897; 5396.000; 4541.000; 6488.600
956.452; 6520.800; 5608.000; 6239.200
957.008; 7908.400; 7065.000; 5954.600
957.563; 7128.600; 6359.000; 5816.700
958.118; 5838.300; 5037.000; 5828.200
958.674; 6464.200; 5597.000; 5717.400
959.229; 7224.500; 6411.000; 5506.800
959.784; 5517.000; 4679.000; 5292.200
960.339; 7184.400; 6396.000; 5101.900
960.894; 6815.400; 5933.000; 5093.200
961.449; 5801.200; 4985.000; 5227.900
962.004; 9321.500; 8506.000; 5349.300
962.559; 5870.900; 5074.000; 5514.900
963.114; 4770.400; 3947.000; 5717.300
963.669; 6363.500; 5523.000; 5841.400
964.224; 6037.500; 5243.000; 5805.900
964.779; 5581.500; 4846.000; 5723.400
965.334; 7176.700; 6456.000; 5779.500
965.888; 5886.800; 5158.000; 5948.500
966.443; 6894.000; 6152.000; 6344.200
966.998; 5338.100; 4528.000; 6666.300
967.552; 6248.800; 5558.000; 6710.100
968.107; 5885.000; 5157.000; 6593.500
968.661; 6440.700; 5652.000; 6344.100
969.216; 5790.300; 5033.000; 6062.400
969.770; 6409.100; 5711.000; 5785.500
970.324; 6465.400; 5736.000; 5426.800
970.879; 6760.700; 6085.000; 5016.800
971.433; 6872.200; 6137.000; 4904.500
971.987; 6316.200; 5551.000; 4991.000
972.541; 6559.300; 5804.000; 4978.500
973.095; 7384.000; 6695.000; 4832.000
973.649; 5443.900; 4743.000; 4767.900
974.203; 5677.200; 4999.000; 4881.200
974.757; 5896.400; 5146.000; 4969.500
975.311; 6138.700; 5507.000; 4953.000
975.865; 6185.300; 5512.000; 4884.300
976.419; 5986.700; 5308.000; 4739.800
976.973; 5902.600; 5164.000; 4698.100
977.526; 6912.300; 6270.000; 4631.100
978.080; 5404.600; 4752.000; 4621.600
978.634; 6597.800; 5983.000; 4650.200
979.187; 6499.500; 5837.000; 4669.200
979.741; 7584.500; 6893.000; 4658.000
980.294; 5422.300; 4800.000; 4579.100
980.848; 4744.300; 4141.000; 4452.800
981.401; 5756.400; 5098.000; 4271.900
981.955; 6102.800; 5559.000; 4087.800
982.508; 5123.600; 4589.000; 3973.900
983.061; 6835.900; 6233.000; 3928.600
983.615; 5603.400; 5011.000; 3851.200
984.168; 5364.500; 4774.000; 3734.800
984.721; 6443.100; 5824.000; 3628.300
985.274; 6312.100; 5695.000; 3564.300
985.827; 6046.000; 5545.000; 3558.100
986.380; 4953.600; 4362.000; 3559.900
986.933; 6344.100; 5820.000; 3688.700
987.486; 6350.900; 5769.000; 3778.500
988.039; 6299.000; 5766.000; 3559.900
988.591; 6718.200; 6199.000; 3219.300
989.144; 5187.200; 4702.000; 2902.900
989.697; 5513.900; 4951.000; 2722.600
990.250; 6519.200; 5977.000; 2618.000
990.802; 5521.900; 4954.000; 2523.900
991.355; 7717.300; 7290.000; 2436.500
991.907; 6679.150; 6210.000; 2412.200
992.460; 5641.000; 5130.000; 2387.900
993.012; 5609.300; 5177.000; 2365.800
993.565; 5272.800; 4838.000; 2311.100
994.117; 7545.800; 7118.000; 2308.700
994.669; 5267.800; 4789.000; 2249.300
995.221; 6166.600; 5730.000; 2158.100
995.774; 6081.500; 5661.000; 2085.600
996.326; 5652.000; 5310.000; 2068.100
996.878; 6696.500; 6288.000; 1975.300
997.430; 5337.200; 5001.000; 1929.500
997.982; 5867.000; 5514.000; 1861.900
998.534; 5835.400; 5395.000; 1830.200
999.086; 5782.500; 5486.000; 1823.200
999.638; 5001.600; 4617.000; 1815.000
1000.190; 5519.100; 5201.000; 1796.600
1000.741; 5933.800; 5618.000; 1738.800
1001.293; 5330.000; 4958.000; 1666.200
1001.845; 5358.600; 4936.000; 1566.500
1002.396; 5948.700; 5683.000; 1471.900
1002.948; 5925.200; 5585.000; 1398.000
1003.500; 5814.100; 5384.000; 1356.500
1004.051; 7693.900; 7408.000; 1294.200
1004.603; 6556.000; 6321.000; 1190.000
1005.154; 4851.300; 4622.000; 1063.900
1005.705; 5954.900; 5715.000;  968.300
1006.257; 5837.500; 5621.000;  889.800
1006.808; 5687.600; 5409.000;  801.500
1007.359; 6478.900; 6277.000;  716.400
1007.910; 5355.200; 5166.000;  639.100
1008.461; 6216.900; 6046.000;  561.600
1009.013; 4816.800; 4631.000;  500.400
1009.564; 6824.600; 6641.000;  476.100
1010.115; 4930.100; 4749.000;  431.600
1010.665; 5008.200; 4862.000;  409.300
1011.216; 5664.000; 5486.000;  399.700
1011.767; 5902.300; 5682.000;  388.100
1012.318; 6161.200; 5979.000;  381.400
1012.869; 5672.200; 5469.000;  375.400
1013.419; 4968.900; 4882.000;  357.600
1013.970; 5664.600; 5508.000;  358.300
1014.521; 5159.200; 4920.000;  344.100
1015.071; 5699.900; 5526.000;  322.800
1015.622; 5329.000; 5173.000;  320.600
1016.172; 4990.900; 4798.000;  301.700
1016.723; 5157.500; 4985.000;  289.800
1017.273; 5080.300; 4919.000;  287.600
1017.823; 5492.500; 5266.000;  278.700
1018.374; 5160.000; 5017.000;  274.400
1018.924; 6173.200; 6026.000;  283.200
1019.474; 6085.100; 5935.000;  278.500
1020.024; 5533.600; 5446.000;  274.700
1020.574; 6280.200; 6046.000;  272.700
1021.124; 5808.800; 5659.000;  278.400
1021.674; 4659.300; 4550.000;  269.200
1022.224; 6129.100; 6058.000;  267.800
1022.774; 5692.100; 5508.000;  258.100
1023.324; 6548.100; 6390.000;  260.000
1023.874; 7788.100; 7690.000;  260.700
1024.423; 5184.700; 5024.000;  252.700
1024.973; 5056.900; 4838.000;  234.700
1025.523; 5278.100; 5137.000;  226.500
1026.072; 5163.900; 5038.000;  225.500
1026.622; 5797.900; 5608.000;  210.100
1027.172; 6182.100; 6037.000;  213.000
1027.721; 5102.700; 4936.000;  207.700
1028.270; 5753.600; 5591.000;  205.400
1028.820; 5490.900; 5374.000;  201.000
1029.369; 5270.800; 5199.000;  201.000
1029.918; 5516.900; 5341.000;  198.400
1030.468; 4765.800; 4593.000;  199.200
1031.017; 5459.600; 5332.000;  192.600
1031.566; 5216.500; 5112.000;  197.400
1032.115; 6005.700; 5870.000;  188.300
1032.664; 5140.100; 4961.000;  193.700
1033.213; 6409.000; 6321.000;  191.900
1033.762; 5492.600; 5365.000;  184.500
1034.311; 5832.800; 5729.000;  194.300
1034.860; 5989.200; 5882.000;  192.300
1035.408; 6356.700; 6205.000;  182.600
1035.957; 6273.100; 6129.000;  173.900
1036.506; 4459.500; 4341.000;  185.200
1037.055; 7494.500; 7433.000;  182.500
1037.603; 5780.700; 5562.000;  167.600
1038.152; 4501.300; 4363.000;  168.200
1038.700; 4980.300; 4879.000;  169.600
1039.249; 5884.900; 5805.000;  164.300
1039.797; 5520.500; 5351.000;  169.600
1040.345; 6150.400; 6042.000;  167.100
1040.894; 5458.700; 5358.000;  164.400
1041.442; 5513.600; 5318.000;  158.300
1041.990; 4812.000; 4711.000;  160.000
1042.538; 4580.200; 4442.000;  156.800
1043.087; 4834.100; 4622.000;  146.600
1043.635; 5908.300; 5900.000;  162.400
1044.183; 5091.600; 4946.000;  156.300
1044.731; 4960.400; 4900.000;  158.100
1045.279; 5903.800; 5836.000;  154.500
1045.827; 8046.000; 7934.000;  146.200
1046.374; 4356.400; 4281.000;  154.000
1046.922; 5083.100; 5002.000;  149.000
1047.470; 6094.800; 5941.000;  154.900
1048.018; 5742.200; 5569.000;  148.400
1048.565; 6305.800; 6230.000;  146.300
1049.113; 4770.100; 4693.000;  156.100
1049.660; 5431.300; 5334.000;  154.300
1050.208; 5899.700; 5811.000;  149.400
1050.755; 5266.300; 5115.000;  157.500
1051.303; 6097.900; 5906.000;  157.700
1051.850; 5503.300; 5349.000;  152.800
1052.397; 4010.000; 3904.000;  146.300
1052.945; 5403.300; 5306.000;  149.500
1053.492; 6583.600; 6448.000;  149.300
1054.039; 6427.500; 6276.000;  163.100
1054.586; 4825.800; 4669.000;  150.400
1055.133; 6140.200; 6065.000;  153.500
1055.680; 5646.400; 5558.000;  155.600
1056.227; 4646.900; 4517.000;  148.700
1056.774; 7110.400; 7027.000;  151.500
1057.321; 4506.000; 4417.000;  143.700
1057.868; 5710.700; 5537.000;  145.300
1058.415; 5770.500; 5620.000;  153.500
1058.961; 5962.200; 5887.000;  149.900
1059.508; 5644.700; 5514.000;  147.300
1060.055; 5084.700; 4957.000;  151.000
1060.601; 5435.400; 5313.000;  148.700
1061.148; 5510.000; 5405.000;  153.800
1061.694; 5222.400; 5146.000;  150.500
1062.241; 5208.400; 5032.000;  149.100
1062.787; 5891.300; 5747.000;  153.000
1063.334; 7182.300; 7001.000;  153.200
1063.880; 5971.300; 5827.000;  148.400
1064.426; 6296.400; 6202.000;  149.200
1064.972; 5255.500; 5161.000;  156.400
1065.518; 4941.200; 4912.000;  144.700
1066.065; 5545.400; 5581.000;  139.400
1066.611; 5294.800; 5178.000;  139.300
1067.157; 5678.100; 5532.000;  138.400
1067.703; 5952.000; 5887.000;  142.700
1068.249; 5221.200; 5113.000;  136.700
1068.794; 5508.100; 5423.000;  139.400
1069.340; 5060.900; 5006.000;  142.700
1069.886; 5224.900; 5117.000;  135.600
1070.432; 4713.800; 4606.000;  133.400
1070.977; 5341.100; 5135.000;  138.200
1071.523; 4938.900; 4894.000;  132.400
1072.068; 5053.500; 4936.000;  132.700
1072.614; 4568.100; 4503.000;  127.000
1073.160; 6208.200; 6090.000;  131.300
1073.705; 5067.200; 5030.000;  135.700
1074.250; 4918.900; 4904.000;  133.000
1074.796; 5834.200; 5771.000;  138.000
1075.341; 5907.200; 5822.000;  137.300
1075.886; 5185.600; 4986.000;  134.300
1076.431; 5851.200; 5812.000;  138.200
1076.976; 5726.100; 5633.000;  132.200
1077.521; 5133.600; 5046.000;  138.900
1078.067; 5147.500; 5050.000;  128.600
1078.612; 5961.000; 5886.000;  138.900
1079.156; 5343.800; 5189.000;  128.900
1079.701; 6235.700; 6155.000;  129.700
1080.246; 6240.500; 6178.000;  128.600
1080.791; 5627.700; 5562.000;  122.600
1081.336; 5868.800; 5852.000;  122.000
1081.880; 5844.800; 5717.000;  123.900
1082.425; 5061.400; 4948.000;  120.600
1082.970; 6468.300; 6384.000;  124.500
1083.514; 5276.100; 5162.000;  112.000
1084.059; 5191.200; 5063.000;  120.700
1084.603; 5058.700; 4893.000;  116.000
1085.147; 5808.000; 5713.000;  116.300
1085.692; 6487.400; 6383.000;  108.200
1086.236; 4427.500; 4346.000;  114.600
1086.780; 6845.100; 6644.000;  118.900
1087.325; 5882.700; 5849.000;  120.400
1087.869; 5501.400; 5459.000;  110.500
1088.413; 6316.900; 6238.000;  114.000
1088.957; 4737.800; 4614.000;  114.300
1089.501; 7005.300; 6857.000;  114.600
1090.045; 6589.800; 6559.000;  114.200
1090.589; 5061.000; 4966.000;  105.500
1091.133; 6052.100; 5902.000;  111.800
1091.676; 5222.500; 5140.000;  110.900
1092.220; 5375.600; 5377.000;  110.100
1092.764; 6358.400; 6290.000;  108.100
1093.307; 6059.600; 5998.000;  109.900
1093.851; 4934.800; 4870.000;  107.500
1094.395; 6199.400; 6119.000;   96.200
1094.938; 5656.400; 5617.000;   99.300
1095.482; 4981.800; 4918.000;   97.700
1096.025; 6416.100; 6310.000;   84.900
1096.568; 7043.100; 6932.000;   88.500
1097.112; 4421.800; 4354.000;   95.700
1097.655; 5316.100; 5181.000;   97.300
1098.198; 5327.900; 5278.000;   92.600
1098.741; 5541.800; 5520.000;   91.800
1099.285; 5896.200; 5763.000;   88.000
1099.828; 3844.400; 3796.000;   91.700
1100.371; 5502.700; 5383.000;   89.900
1100.914; 6184.400; 6094.000;   91.500
1101.457; 6117.600; 6083.000;   88.100
1101.999; 5206.200; 5084.000;   86.400
1102.542; 5732.900; 5645.000;   90.800
1103.085; 5941.700; 5802.000;   95.400
1103.628; 6969.800; 6918.000;   97.700
1104.170; 5236.500; 5102.000;   84.000
1104.713; 5807.200; 5745.000;   93.900
1105.256; 4955.800; 4875.000;   93.000
1105.798; 4455.300; 4434.000;   85.600
1106.341; 6655.300; 6532.000;   87.100
1106.883; 4661.700; 4570.000;   85.200
1107.425; 6098.900; 6045.000;   85.000
1107.968; 5617.600; 5472.000;   84.300
1108.510; 6183.000; 6108.000;   88.200
1109.052; 5596.100; 5533.000;   86.600
1109.594; 5044.900; 4946.000;   79.400
1110.136; 5836.700; 5831.000;   81.700
1110.679; 5690.700; 5623.000;   75.500
1111.221; 5494.200; 5411.000;   88.500
1111.763; 4976.400; 4911.000;   87.700
1112.304; 4905.600; 4854.000;   89.700
1112.846; 6076.500; 5956.000;   81.900
1113.388; 8782.900; 8762.000;   86.400
1113.930; 6314.800; 6282.000;   84.700
1114.472; 5496.600; 5366.000;   78.900
1115.013; 4947.400; 4872.000;   78.100
1115.555; 5355.100; 5271.000;   84.900
1116.097; 5163.100; 5162.000;   79.200
1116.638; 6280.200; 6142.000;   83.700
1117.180; 6033.100; 5892.000;   85.500
1117.721; 5167.900; 5089.000;   78.800
1118.262; 6194.800; 6168.000;   77.400
1118.804; 5776.600; 5668.000;   81.400
1119.345; 5284.500; 5154.000;   77.800
1119.886; 6441.200; 6365.000;   81.200
1120.427; 5349.000; 5263.000;   77.200
1120.969; 5463.700; 5361.000;   75.200
1121.510; 5103.000; 5095.000;   80.900
1122.051; 6621.800; 6478.000;   77.300
1122.592; 6008.100; 5955.000;   73.300
1123.133; 4930.400; 4880.000;   90.100
1123.673; 6508.600; 6445.000;   75.000
1124.214; 5573.600; 5548.000;   80.600
1124.755; 5864.200; 5830.000;   78.000
1125.296; 5671.800; 5628.000;   77.500
1125.836; 6308.100; 6237.000;   80.400
1126.377; 5461.000; 5435.000;   75.600
1126.918; 5605.200; 5571.000;   78.900
1127.458; 5701.800; 5616.000;   78.000
1127.999; 6009.400; 5905.000;   76.100
1128.539; 6361.900; 6283.000;   81.400
1129.079; 5847.700; 5794.000;   77.400
1129.620; 5063.700; 5066.000;   68.000
1130.160; 4916.900; 4819.000;   77.500
1130.700; 5834.600; 5809.000;   76.300
1131.240; 5884.300; 5810.000;   66.800
1131.781; 5686.500; 5572.000;   70.600
1132.321; 5497.100; 5434.000;   77.200
1132.861; 5096.100; 4954.000;   70.400
1133.401; 5462.700; 5415.000;   68.700
1133.941; 5743.900; 5752.000;   68.500
1134.481; 5539.300; 5399.000;   75.900
1135.020; 5560.700; 5478.000;   66.600
1135.560; 6139.700; 6106.000;   68.100
1136.100; 4539.800; 4466.000;   64.900
1136.640; 4664.900; 4595.000;   72.500
1137.179; 4856.900; 4772.000;   69.700
1137.719; 5569.200; 5456.000;   68.400
1138.258; 5357.100; 5364.000;   67.000
1138.798; 6063.300; 5978.000;   69.600
1139.337; 4365.800; 4292.000;   64.000
1139.877; 5868.300; 5855.000;   64.500
1140.416; 8095.600; 8129.000;   74.900
1140.955; 4825.400; 4763.000;   67.200
1141.494; 6215.600; 6114.000;   69.900
1142.034; 5354.900; 5349.000;   59.100
1142.573; 5916.000; 5846.000;   65.900
1143.112; 5065.500; 4973.000;   70.600
1143.651; 4893.300; 4810.000;   67.100
1144.190; 6403.200; 6414.000;   56.700
1144.729; 5563.500; 5553.000;   61.800
1145.267; 5302.900; 5202.000;   62.500
1145.806; 5860.500; 5715.000;   68.500
1146.345; 5932.100; 5888.000;   58.300
1146.884; 5766.700; 5660.000;   63.100
1147.422; 4857.900; 4811.000;   54.800
1147.961; 6581.800; 6432.000;   67.600
1148.500; 6164.100; 6104.000;   64.700
1149.038; 5882.900; 5811.000;   61.000
1149.577; 6465.100; 6411.000;   65.100
1150.115; 4077.900; 3998.000;   58.100
1150.653; 5586.100; 5591.000;   60.500
1151.192; 5094.100; 5061.000;   56.600
1151.730; 6054.100; 5962.000;   62.300
1152.268; 5388.600; 5302.000;   55.500
1152.806; 5280.300; 5130.000;   58.200
1153.344; 5305.600; 5204.000;   55.000
1153.882; 5493.200; 5389.000;   64.200
1154.421; 4244.100; 4188.000;   60.300
1154.958; 5520.000; 5482.000;   58.100
1155.496; 5953.700; 5874.000;   55.800
1156.034; 6719.500; 6597.000;   61.000
1156.572; 6167.900; 6053.000;   56.200
1157.110; 4310.900; 4289.000;   53.200
1157.647; 6258.800; 6224.000;   57.400
1158.185; 5223.300; 5144.000;   55.500
1158.723; 4673.700; 4643.000;   58.000
1159.260; 6455.300; 6461.000;   53.700
1159.798; 6103.200; 6045.000;   51.700
1160.335; 5827.300; 5797.000;   59.600

