gmr_left
Integration time [ms]: 4415.405
Averaging Nr. [scans]: 10
Smoothing Nr. [pixels]: 0
Data measured with spectrometer [name]: 7414430SP
Wave   ;Sample   ;Dark     ;Reference
[nm]   ;[counts] ;[counts] ;[counts] 

288.544; 5669.288; 5481.567;    6.613
289.143; 4636.655; 4445.805;   14.216
289.742; 6070.700; 5944.782;   11.816
290.341; 5766.334; 5549.822;   -4.936
290.940; 5266.746; 5126.334;    0.852
291.538; 6699.512; 6565.967;    1.792
292.137; 5910.523; 5724.192;    6.262
292.736; 7751.534; 7451.822;    8.164
293.335; 5401.668; 5236.041;   -6.418
293.934; 5846.813; 5668.136;   -2.904
294.532; 8325.558; 8170.262;   -5.162
295.131; 6525.059; 6327.777;  -10.283
295.730; 6335.647; 6165.880;  -16.141
296.328; 6076.415; 5919.741;  -14.740
296.927; 6043.970; 5823.527;   -8.768
297.525; 6003.803; 5870.784;  -15.255
298.124; 4875.583; 4719.534;  -22.063
298.722; 5860.948; 5667.405;  -14.796
299.321; 5425.271; 5160.111;  -10.466
299.919; 5823.927; 5655.808;  -10.979
300.518; 5282.238; 5062.438;  -12.077
301.116; 5262.060; 5088.125;  -13.509
301.715; 5648.271; 5476.557;  -11.939
302.313; 5444.648; 5256.375;  -15.424
302.911; 5774.039; 5621.171;  -19.833
303.509; 7630.037; 7470.388;   -3.567
304.108; 5931.970; 5754.438;   -9.553
304.706; 6415.493; 6182.500;   -8.582
305.304; 6490.738; 6357.468;  -12.348
305.902; 6147.515; 5985.563;  -14.411
306.500; 5749.215; 5621.059;   -7.194
307.098; 5931.593; 5766.937;   -9.322
307.696; 6335.571; 6148.666;  -19.192
308.294; 5832.471; 5652.933;   -9.736
308.892; 6059.582; 5935.455;  -15.482
309.490; 5616.671; 5442.755;  -14.107
310.088; 6494.949; 6295.396;  -15.862
310.686; 6645.438; 6399.270;  -10.781
311.284; 6241.049; 6134.692;  -14.878
311.882; 5754.572; 5647.399;   -9.948
312.480; 5577.350; 5377.040;  -15.503
313.078; 6696.605; 6571.419;  -17.262
313.675; 5513.416; 5344.059;   -3.694
314.273; 6607.627; 6491.006;  -18.246
314.871; 4499.316; 4387.228;  -15.190
315.468; 5207.539; 5086.171;  -12.633
316.066; 5578.549; 5378.019;   -5.765
316.664; 5235.117; 5124.990;  -14.317
317.261; 7712.760; 7501.531;   -8.677
317.859; 6454.649; 6383.247;  -11.804
318.456; 7023.982; 6947.801;   -3.107
319.054; 6582.938; 6478.350;   -3.062
319.651; 6257.583; 6074.594;   -6.706
320.249; 6910.382; 6764.594;   -5.206
320.846; 5889.382; 5767.831;   -4.679
321.443; 7126.316; 7003.613;   -7.920
322.041; 6999.294; 6863.432;  -14.105
322.638; 5901.538; 5873.557;   -6.263
323.235; 5456.248; 5353.375;   -7.424
323.833; 6285.604; 6144.042;  -14.765
324.430; 4962.971; 4823.814;  -10.550
325.027; 7547.327; 7492.045;   -9.951
325.624; 5182.814; 5037.771;   -3.712
326.221; 5593.459; 5515.481;   -9.368
326.818; 6851.060; 6752.095;   -5.637
327.415; 6047.692; 5883.005;   -6.699
328.012; 5479.347; 5293.117;   -5.713
328.609; 5806.270; 5667.824;   -9.983
329.206; 6360.848; 6302.553;   -7.154
329.803; 5862.526; 5770.431;   -1.682
330.400; 5483.192; 5373.857;   -2.741
330.997; 6553.959; 6398.510;   -4.339
331.594; 6363.438; 6309.646;  -10.278
332.191; 5658.148; 5513.435;   -6.967
332.787; 6771.104; 6623.131;   -0.480
333.384; 5946.305; 5864.241;  -10.333
333.981; 6513.373; 6493.301;  -19.900
334.578; 5406.884; 5197.644;  -19.816
335.174; 5607.484; 5451.614;  -15.844
335.771; 6696.285; 6559.961;  -12.670
336.367; 5562.263; 5394.394;  -21.124
336.964; 6356.063; 6137.810;  -18.226
337.561; 5756.429; 5655.582;  -13.311
338.157; 7535.297; 7429.612;  -19.006
338.754; 6442.698; 6305.286;  -19.418
339.350; 5720.909; 5531.421;  -29.433
339.946; 6092.263; 5908.979;  -16.622
340.543; 6912.098; 6726.633;  -16.744
341.139; 5736.466; 5622.079;  -21.841
341.735; 6370.677; 6137.947;  -25.012
342.332; 5533.421; 5311.191;  -19.156
342.928; 6484.087; 6365.379;  -20.443
343.524; 6293.877; 6140.857;  -14.397
344.120; 6107.110; 6034.729;  -20.654
344.716; 5736.621; 5567.636;   -5.730
345.313; 6586.910; 6491.590;  -10.929
345.909; 4925.854; 4700.448;  -19.843
346.505; 6052.265; 5954.910;  -19.645
347.101; 6805.864; 6646.147;   -9.618
347.697; 6482.220; 6396.497;  -10.305
348.293; 4918.042; 4852.084;  -23.189
348.889; 6100.086; 5965.240;  -18.418
349.485; 5492.553; 5374.457;  -10.476
350.081; 6339.708; 6229.540;  -17.320
350.676; 5608.365; 5471.969;  -21.088
351.272; 6703.830; 6672.840;  -12.821
351.868; 6319.230; 6170.107;  -13.165
352.464; 5849.853; 5717.784;  -12.464
353.059; 5172.675; 5013.372;  -22.547
353.655; 6482.019; 6246.942;   -9.379
354.251; 6217.130; 6029.314;   -8.266
354.846; 6100.675; 6051.520;  -17.705
355.442; 6152.476; 6058.985;   -9.317
356.038; 6121.441; 6001.648;  -11.049
356.633; 5881.375; 5753.728;  -10.006
357.229; 5902.797; 5792.494;  -13.120
357.824; 5742.998; 5618.256;  -15.647
358.420; 5470.831; 5342.335;  -19.204
359.015; 5589.897; 5433.553;  -12.263
359.610; 6360.508; 6199.748;  -16.421
360.206; 4755.731; 4613.949;  -20.074
360.801; 5121.630; 4989.573;  -13.277
361.396; 5909.664; 5775.979;   -5.822
361.992; 5408.598; 5307.256;  -11.247
362.587; 5439.109; 5357.827;  -21.502
363.182; 5624.420; 5457.229;   -7.461
363.777; 6137.386; 6069.447;   -8.719
364.372; 6092.608; 6050.361;  -14.590
364.967; 5621.098; 5475.840;  -15.145
365.563; 6820.242; 6697.708;   -7.192
366.158; 5554.686; 5421.507;   -5.662
366.753; 5217.475; 5143.757;   -8.378
367.348; 6189.431; 6005.246;  -14.990
367.942; 5684.620; 5506.497;   -6.005
368.537; 6260.987; 6153.150;  -11.504
369.132; 5834.975; 5757.342;  -10.576
369.727; 5140.987; 5037.765;  -12.573
370.322; 4737.387; 4595.091;  -11.560
370.917; 5938.865; 5842.969;  -10.388
371.511; 7414.386; 7311.299;   -9.161
372.106; 6632.098; 6524.840;  -10.245
372.701; 4753.021; 4616.606;  -10.158
373.296; 7337.231; 7212.424;   -4.719
373.890; 5337.509; 5243.827;  -11.802
374.485; 5835.421; 5755.458;  -13.500
375.079; 6254.708; 6165.272;   -6.276
375.674; 6943.320; 6819.348;   -0.447
376.268; 5741.087; 5693.824;   -6.916
376.863; 4842.566; 4784.930;  -14.483
377.457; 5526.275; 5440.104;   -6.903
378.052; 6558.654; 6456.656;   -9.844
378.646; 6387.721; 6323.666;  -12.601
379.240; 6175.676; 6030.570;  -14.715
379.835; 5362.909; 5223.005;  -12.331
380.429; 4639.365; 4499.880;   -9.074
381.023; 6745.332; 6686.475;   -1.729
381.617; 5801.910; 5705.293;  -13.714
382.212; 5804.720; 5704.022;   -7.060
382.806; 6557.275; 6396.104;   -2.303
383.400; 5824.465; 5801.524;   -0.815
383.994; 5765.221; 5653.428;   -4.429
384.588; 6054.998; 5945.137;   -6.261
385.182; 6324.375; 6274.639;    0.008
385.776; 6202.309; 6114.302;   -3.247
386.370; 5946.443; 5866.729;   -1.030
386.964; 5949.564; 5861.118;   -1.346
387.558; 5130.664; 5033.563;   -2.020
388.152; 5979.409; 5824.887;   -5.345
388.745; 7266.587; 7222.972;   -2.774
389.339; 6452.064; 6398.385;    3.510
389.933; 5935.586; 5911.655;    5.280
390.527; 7718.976; 7723.223;    2.610
391.120; 5172.699; 5074.455;   -7.914
391.714; 6195.998; 6149.989;   -1.903
392.308; 6992.708; 6811.480;    6.023
392.901; 5668.854; 5654.012;   -4.103
393.495; 5249.354; 5211.686;    3.284
394.089; 6935.654; 6843.864;    8.655
394.682; 6275.887; 6168.854;    2.312
395.275; 6482.465; 6403.851;   -7.402
395.869; 6012.254; 5942.626;   -1.072
396.462; 5466.731; 5435.979;    6.454
397.056; 6910.786; 6978.566;    8.494
397.649; 6668.276; 6572.689;    1.599
398.242; 6426.287; 6452.210;    3.153
398.836; 6905.397; 6924.404;   11.395
399.429; 5540.442; 5454.381;   14.695
400.022; 5989.009; 5910.649;    3.627
400.615; 7399.709; 7402.917;    8.383
401.208; 6144.364; 6070.474;   13.295
401.802; 6322.331; 6342.039;    6.211
402.395; 6220.509; 6126.649;    7.227
402.988; 6300.376; 6313.481;    2.700
403.581; 5641.453; 5668.250;   11.225
404.174; 6069.364; 6065.711;   18.922
404.767; 5642.898; 5544.959;   14.169
405.360; 5610.954; 5603.596;    8.999
405.953; 6891.131; 6861.483;   13.138
406.545; 6577.530; 6542.691;   13.937
407.138; 5540.253; 5510.982;   10.869
407.731; 5511.542; 5483.144;   12.768
408.324; 5877.441; 5857.034;   22.921
408.917; 6199.175; 6175.639;   15.308
409.509; 6744.109; 6749.184;   12.239
410.102; 5884.565; 5889.791;   13.741
410.695; 5989.552; 5923.110;   20.249
411.287; 5402.575; 5452.936;   21.793
411.880; 5242.453; 5246.813;   22.965
412.472; 5497.720; 5503.170;   15.082
413.065; 5783.720; 5735.526;   23.423
413.657; 5177.574; 5136.232;   21.077
414.250; 5813.119; 5801.180;   12.349
414.842; 6151.653; 6125.665;   20.423
415.434; 5155.441; 5145.124;   19.906
416.027; 5812.185; 5797.902;   26.574
416.619; 6498.719; 6455.239;   15.705
417.211; 5390.341; 5399.212;   17.791
417.804; 5623.473; 5649.034;   30.244
418.396; 5503.963; 5505.186;   24.177
418.988; 5974.741; 5929.539;   24.904
419.580; 5088.386; 5079.981;   20.692
420.172; 4869.896; 4804.532;   22.275
420.764; 6004.118; 6028.040;   26.773
421.356; 5807.307; 5735.846;   25.731
421.948; 6118.385; 6057.486;   24.876
422.540; 6095.317; 5988.426;   30.042
423.132; 5381.806; 5316.469;   32.728
423.724; 4989.462; 4990.750;   21.317
424.316; 5584.084; 5562.991;   29.359
424.908; 5316.684; 5306.763;   28.798
425.500; 5840.006; 5839.766;   30.512
426.092; 5800.406; 5813.795;   26.741
426.683; 6277.073; 6207.331;   27.029
427.275; 5738.839; 5706.112;   32.611
427.867; 5945.994; 5901.224;   33.796
428.458; 6643.927; 6570.214;   34.453
429.050; 6165.728; 6174.799;   34.255
429.642; 6723.305; 6702.152;   39.082
430.233; 4937.494; 4973.373;   41.138
430.825; 6651.039; 6574.290;   31.581
431.416; 6297.772; 6312.776;   35.755
432.008; 5794.771; 5785.518;   40.566
432.599; 5798.394; 5835.669;   46.322
433.190; 5678.972; 5673.924;   46.897
433.782; 4998.083; 5016.940;   41.069
434.373; 7955.782; 7932.891;   48.778
434.964; 5300.193; 5238.937;   50.078
435.556; 5631.594; 5643.313;   52.381
436.147; 6806.005; 6783.538;   38.251
436.738; 6238.005; 6216.626;   47.237
437.329; 6414.271; 6411.497;   61.304
437.920; 5808.672; 5909.043;   48.611
438.511; 4905.650; 4911.158;   44.910
439.103; 5464.337; 5442.359;   62.404
439.694; 6030.493; 6077.560;   63.075
440.285; 6589.226; 6606.342;   61.033
440.876; 7665.649; 7624.930;   57.249
441.466; 4985.582; 4938.128;   61.306
442.057; 5766.903; 5784.021;   65.773
442.648; 6663.793; 6629.352;   65.676
443.239; 5410.249; 5509.049;   55.963
443.830; 6206.548; 6119.850;   69.631
444.421; 5670.569; 5690.269;   69.943
445.011; 6093.337; 6044.240;   72.791
445.602; 6565.548; 6527.138;   68.848
446.193; 4043.548; 4025.969;   80.044
446.783; 5374.080; 5385.583;   82.599
447.374; 5945.359; 5929.362;   77.419
447.964; 6259.682; 6208.335;   72.605
448.555; 7154.613; 7223.662;   82.041
449.145; 5691.703; 5738.081;   76.230
449.736; 7032.870; 7014.854;   75.545
450.326; 6143.025; 6179.876;   67.945
450.917; 5747.880; 5723.790;   77.598
451.507; 5076.591; 5082.658;   68.027
452.097; 6508.036; 6490.368;   67.771
452.688; 6389.147; 6304.533;   62.884
453.278; 4565.769; 4527.655;   65.512
453.868; 6937.657; 6909.113;   71.796
454.458; 5500.369; 5508.596;   60.956
455.048; 6095.892; 6086.480;   62.356
455.639; 4669.291; 4670.133;   58.782
456.229; 6022.990; 6017.371;   65.209
456.819; 6365.879; 6310.384;   61.466
457.409; 6645.346; 6598.245;   59.967
457.999; 6183.301; 6187.713;   58.093
458.589; 5672.701; 5658.654;   59.536
459.179; 6070.101; 6018.506;   55.994
459.769; 5173.958; 5190.143;   43.624
460.358; 6758.957; 6708.826;   46.978
460.948; 5726.457; 5771.766;   49.821
461.538; 5458.968; 5352.872;   54.678
462.128; 5506.890; 5494.371;   49.309
462.717; 5820.200; 5833.634;   52.774
463.307; 5818.066; 5816.940;   48.101
463.897; 5351.878; 5357.948;   45.606
464.486; 7167.757; 7205.232;   45.010
465.076; 6093.534; 6073.297;   45.519
465.666; 5211.277; 5225.046;   50.058
466.255; 6572.500; 6590.100;   44.463
466.845; 5334.434; 5408.971;   41.206
467.434; 5948.589; 5963.350;   44.847
468.023; 5191.222; 5214.607;   46.760
468.613; 5856.401; 5777.654;   39.736
469.202; 5131.100; 5139.515;   46.461
469.791; 5880.000; 5905.020;   47.944
470.381; 5898.444; 5864.085;   47.529
470.970; 5667.433; 5605.980;   43.773
471.559; 5963.411; 5959.650;   41.646
472.148; 5231.255; 5252.221;   37.914
472.738; 6098.177; 6089.373;   48.071
473.327; 4871.599; 4874.257;   47.871
473.916; 5859.344; 5828.759;   37.716
474.505; 5947.132; 5974.484;   40.256
475.094; 6528.832; 6482.811;   43.269
475.683; 6312.843; 6371.471;   36.499
476.272; 5692.288; 5731.389;   44.542
476.861; 5417.243; 5407.887;   42.297
477.449; 5553.986; 5546.784;   46.878
478.038; 5218.410; 5151.392;   35.156
478.627; 5429.566; 5446.267;   42.514
479.216; 5872.064; 5893.335;   43.937
479.805; 5962.820; 5937.625;   51.393
480.393; 8156.165; 8145.920;   53.239
480.982; 6935.510; 6924.600;   38.955
481.571; 6681.598; 6654.682;   45.436
482.159; 5094.964; 5077.721;   51.007
482.748; 6238.809; 6295.164;   49.695
483.336; 6502.964; 6456.484;   48.280
483.925; 5495.587; 5467.250;   47.166
484.513; 5470.908; 5475.321;   55.404
485.102; 5930.509; 5977.104;   54.238
485.690; 7837.819; 7717.101;   55.748
486.278; 7505.797; 7496.097;   55.934
486.867; 5789.919; 5782.952;   57.106
487.455; 6597.809; 6500.668;   56.979
488.043; 5116.731; 5053.642;   57.564
488.631; 7513.664; 7444.375;   57.432
489.220; 6533.519; 6447.516;   63.646
489.808; 4881.664; 4790.870;   65.449
490.396; 6430.508; 6508.084;   61.977
490.984; 5440.642; 5490.074;   68.834
491.572; 6484.975; 6475.361;   70.775
492.160; 6094.531; 6070.642;   67.564
492.748; 5637.331; 5624.583;   66.808
493.336; 6548.630; 6545.354;   79.747
493.924; 5605.585; 5510.734;   88.688
494.512; 6421.653; 6351.001;   84.120
495.100; 6287.409; 6290.639;   86.250
495.687; 6726.796; 6684.661;  103.074
496.275; 5379.619; 5360.486;  108.717
496.863; 5634.275; 5635.797;  107.035
497.451; 5558.042; 5572.718;  117.993
498.038; 5873.552; 5881.833;  120.116
498.626; 5627.885; 5611.704;  143.059
499.214; 6068.497; 5977.097;  153.434
499.801; 5911.419; 5898.863;  175.121
500.389; 4778.796; 4766.602;  185.617
500.976; 6183.385; 6136.526;  215.789
501.564; 5927.264; 5944.840;  240.321
502.151; 4250.409; 4163.698;  267.007
502.738; 5562.652; 5479.358;  317.961
503.326; 5689.807; 5638.856;  361.216
503.913; 5968.441; 6019.282;  401.433
504.500; 6134.297; 6033.949;  446.492
505.088; 5201.119; 5161.012;  512.063
505.675; 5688.807; 5645.826;  586.387
506.262; 5641.731; 5691.702;  671.021
506.849; 5761.019; 5799.219;  759.062
507.436; 6582.174; 6604.688;  849.788
508.023; 5778.052; 5724.595;  944.288
508.610; 6438.419; 6444.249; 1020.690
509.197; 6195.931; 6140.315; 1089.052
509.784; 5807.630; 5717.176; 1133.776
510.371; 4824.163; 4775.968; 1165.501
510.958; 5924.186; 5882.843; 1251.735
511.545; 6870.908; 6857.054; 1350.248
512.132; 5781.685; 5698.793; 1525.945
512.719; 5145.741; 5104.282; 1834.933
513.305; 5328.586; 5310.962; 1965.349
513.892; 6784.209; 6702.550; 1963.265
514.479; 5921.319; 5832.516; 2046.446
515.066; 6518.130; 6464.414; 2252.803
515.652; 5898.585; 5881.377; 2567.247
516.239; 6320.930; 6313.117; 2636.919
516.825; 4909.353; 4921.298; 2482.304
517.412; 7334.008; 7283.559; 2427.031
517.998; 5679.897; 5628.919; 2540.463
518.585; 5575.109; 5531.698; 2609.007
519.171; 5947.685; 5920.734; 2842.088
519.758; 4981.107; 4972.529; 3090.703
520.344; 6474.530; 6431.176; 3176.076
520.930; 5136.998; 5097.474; 3295.037
521.516; 6176.341; 6125.727; 3500.959
522.103; 6841.808; 6779.321; 3736.704
522.689; 5623.364; 5566.632; 3971.022
523.275; 6620.042; 6608.807; 4213.778
523.861; 5701.775; 5668.242; 4190.361
524.447; 6588.952; 6462.714; 4070.602
525.033; 6657.775; 6618.856; 4088.892
525.619; 5355.298; 5328.593; 4416.851
526.205; 4998.842; 5023.866; 4836.835
526.791; 5621.597; 5627.483; 4885.903
527.377; 5441.498; 5337.652; 4544.907
527.963; 5981.442; 5968.302; 4321.995
528.549; 6102.142; 6039.599; 4473.979
529.135; 5308.264; 5226.988; 4788.663
529.721; 5881.720; 5866.922; 4888.577
530.306; 8014.142; 7995.599; 4775.779
530.892; 5574.108; 5557.906; 4793.906
531.478; 5485.986; 5415.170; 4956.948
532.063; 5204.353; 5180.705; 5136.936
532.649; 7262.065; 7262.157; 5336.867
533.235; 5230.853; 5212.764; 5748.092
533.820; 6709.719; 6608.546; 6456.875
534.406; 5697.021; 5666.180; 6590.167
534.991; 5282.220; 5289.655; 6179.622
535.576; 5741.842; 5694.926; 6098.691
536.162; 8064.331; 7974.028; 6441.234
536.747; 4968.287; 4940.101; 6816.224
537.333; 5328.042; 5302.154; 6889.752
537.918; 5771.187; 5755.368; 7154.280
538.503; 5385.819; 5371.101; 7150.848
539.088; 6086.453; 6099.467; 7253.308
539.673; 5553.031; 5513.345; 7625.180
540.259; 5369.297; 5372.741; 8226.793
540.844; 4720.675; 4634.856; 8745.092
541.429; 7088.109; 7120.016; 8762.553
542.014; 4899.265; 4949.771; 8871.497
542.599; 6042.531; 6063.583; 8886.008
543.184; 5051.854; 5041.082; 9079.139
543.769; 5377.609; 5326.045; 9076.182
544.354; 5579.231; 5529.138; 8354.081
544.938; 5998.776; 5998.352; 8236.809
545.523; 7059.964; 7062.691; 8222.179
546.108; 5756.298; 5738.999; 8114.082
546.693; 5731.043; 5653.590; 8535.912
547.278; 5768.431; 5769.494; 9238.322
547.862; 5750.575; 5704.975; 9034.405
548.447; 6502.865; 6339.890; 7795.011
549.031; 5560.232; 5521.425; 7485.099
549.616; 6011.098; 5912.444; 7626.308
550.201; 5426.253; 5297.260; 7627.909
550.785; 6276.554; 6214.963; 7859.125
551.370; 5047.898; 4994.762; 7990.654
551.954; 6456.510; 6431.926; 8196.468
552.538; 6323.031; 6355.256; 7959.495
553.123; 5423.865; 5310.801; 7964.826
553.707; 5619.811; 5611.185; 8515.957
554.291; 6770.576; 6768.055; 8724.024
554.876; 6392.554; 6346.844; 8524.211
555.460; 5447.132; 5443.484; 8704.456
556.044; 5394.822; 5278.934; 9141.473
556.628; 5806.199; 5740.702; 9250.197
557.212; 6669.487; 6627.428; 9444.237
557.796; 5655.577; 5621.699; 9379.783
558.380; 6119.366; 6056.000; 9353.658
558.964; 5943.720; 5879.121; 9210.310
559.548; 4962.876; 4817.085; 8475.153
560.132; 5565.210; 5477.422; 7954.084
560.716; 5123.133; 5065.040; 7489.529
561.300; 5012.609; 4919.223; 7211.952
561.884; 6271.499; 6281.613; 7141.313
562.467; 6224.177; 6136.076; 7155.386
563.051; 5831.688; 5819.092; 7323.158
563.635; 5705.066; 5635.267; 7709.114
564.219; 5772.965; 5793.623; 7678.855
564.802; 6244.555; 6082.983; 7376.187
565.386; 5922.622; 5788.142; 7054.372
565.969; 6814.621; 6725.002; 6589.196
566.553; 7516.377; 7384.373; 6279.371
567.136; 6754.866; 6652.970; 5967.930
567.720; 5983.655; 5855.687; 5660.703
568.303; 6170.822; 6024.082; 5648.615
568.887; 6020.655; 5900.250; 5618.443
569.470; 6208.967; 6009.495; 5411.875
570.053; 6473.344; 6312.610; 5149.274
570.637; 5488.121; 5194.587; 5122.798
571.220; 6548.043; 6360.649; 4957.369
571.803; 7644.867; 7391.436; 4933.018
572.386; 5876.644; 5532.818; 4840.973
572.969; 5917.855; 5597.191; 4592.886
573.552; 6057.311; 5723.006; 4348.387
574.135; 5503.745; 5165.314; 4002.290
574.718; 5764.700; 5343.841; 3654.773
575.301; 5776.861; 5304.195; 3502.288
575.884; 5789.022; 5264.548; 3349.803
576.467; 7167.155; 6533.687; 3191.403
577.050; 6679.333; 5972.505; 3062.418
577.633; 7969.477; 7248.194; 3214.200
578.216; 6449.011; 5558.591; 3284.889
578.799; 6557.089; 5724.172; 3189.777
579.381; 8454.811; 7434.709; 3064.502
579.964; 6337.610; 5321.185; 2888.357
580.547; 7170.600; 5915.515; 2905.760
581.129; 8228.856; 6835.004; 2966.849
581.712; 7548.579; 6015.829; 2887.292
582.294; 7466.744; 5849.670; 2771.631
582.877; 9270.978; 7448.779; 2711.602
583.459; 7722.923; 5788.865; 2577.049
584.042; 7799.112; 5660.878; 2454.707
584.624; 7569.667; 5359.783; 2305.893
585.206; 6826.844; 4502.581; 2189.546
585.789; 7858.245; 5443.987; 2112.577
586.371; 8564.168; 6153.545; 2153.065
586.953; 8944.601; 6358.040; 2197.806
587.536; 9529.812; 6688.591; 2105.489
588.118; 8741.624; 5611.886; 1963.911
588.700;10284.668; 6837.664; 1843.179
589.282; 9945.378; 6205.185; 1813.834
589.864; 9849.156; 5914.974; 1777.620
590.446; 8895.757; 4743.410; 1733.780
591.028;10384.979; 5847.532; 1676.008
591.610; 9709.989; 4786.935; 1631.649
592.192;11224.723; 5910.192; 1632.362
592.774;10395.368; 5196.694; 1569.507
593.356;10626.058; 5367.054; 1524.539
593.937;11076.834; 5418.089; 1569.720
594.519;12828.201; 6522.980; 1569.049
595.101;11571.023; 4808.242; 1545.452
595.683;12567.758; 5511.083; 1607.568
596.264;13226.290; 5733.994; 1615.506
596.846;13220.734; 5498.674; 1667.622
597.427;13262.857; 5333.876; 1670.469
598.009;13493.514; 5250.839; 1640.312
598.591;14529.279; 6341.651; 1541.022
599.172;13677.313; 5532.522; 1598.665
599.753;13796.568; 4953.922; 1619.068
600.335;16113.869; 6869.655; 1548.612
600.916;15557.224; 5819.093; 1607.510
601.498;16037.835; 6126.318; 1745.181
602.079;16300.936; 5848.932; 1801.011
602.660;16585.191; 5679.777; 1834.640
603.241;15863.901; 4596.565; 1787.351
603.823;17027.279; 5401.384; 1684.266
604.404;16609.381; 5057.730; 1654.241
604.985;17441.602; 5519.615; 1758.741
605.566;18806.557; 6349.618; 1697.679
606.147;18347.881; 5562.404; 1526.728
606.728;17935.637; 4921.279; 1484.086
607.309;18067.137; 5387.576; 1421.070
607.890;18318.779; 5481.176; 1369.867
608.471;18759.869; 5259.773; 1277.826
609.051;20084.725; 5983.847; 1180.416
609.632;20118.104; 5226.962; 1075.816
610.213;21028.469; 5714.655; 1053.313
610.794;21367.035; 5559.546;  979.442
611.374;22794.314; 6096.424;  917.414
611.955;22286.848; 4899.117;  819.987
612.536;23382.447; 5966.681;  752.627
613.116;23503.824; 5384.559;  690.799
613.697;23002.703; 5447.814;  674.974
614.277;22544.926; 5180.669;  663.846
614.858;21933.836; 5392.605;  665.898
615.438;22257.424; 5736.678;  660.712
616.019;23369.193; 6710.619;  632.732
616.599;21462.426; 4412.995;  551.759
617.179;23596.535; 5059.368;  512.871
617.760;26962.758; 7737.757;  473.655
618.340;25203.115; 5604.474;  440.004
618.920;26857.047; 7001.850;  429.731
619.500;25457.938; 5482.418;  441.361
620.080;24464.459; 5209.867;  425.202
620.660;24388.604; 5209.864;  408.164
621.241;25143.760; 5514.510;  387.161
621.821;25715.648; 5837.731;  378.017
622.401;26614.582; 6505.840;  379.188
622.980;25309.082; 4903.247;  350.019
623.560;26131.504; 5521.576;  336.446
624.140;25768.115; 5821.860;  336.473
624.720;25070.836; 6055.745;  334.974
625.300;24331.270; 5219.824;  325.717
625.880;25812.127; 5700.224;  308.519
626.459;28310.781; 5793.662;  307.117
627.039;29161.715; 4713.355;  290.890
627.619;32223.561; 7367.857;  286.635
628.198;30650.805; 6704.042;  282.535
628.778;30090.637; 6234.745;  285.474
629.357;29518.869; 4963.705;  284.103
629.937;30439.594; 5496.937;  292.178
630.516;31264.715; 7021.999;  290.749
631.096;30808.549; 5324.702;  285.489
631.675;32637.682; 6730.623;  287.022
632.254;30148.238; 5277.350;  286.038
632.834;30376.205; 5700.538;  276.451
633.413;32076.904; 6763.369;  279.447
633.992;31856.350; 6435.574;  264.508
634.571;31026.404; 6147.181;  271.010
635.151;30374.150; 5098.396;  277.338
635.730;32236.227; 5649.313;  289.305
636.309;34393.805; 6052.012;  285.306
636.888;34385.660; 6123.561;  254.051
637.467;32333.082; 4719.208;  230.324
638.046;34252.828; 6942.045;  253.349
638.625;34405.582; 6572.564;  246.866
639.204;35710.250; 5929.069;  240.825
639.782;35694.906; 5700.617;  261.970
640.361;34623.652; 6735.752;  277.780
640.940;31760.141; 5352.780;  270.101
641.519;31807.828; 5966.808;  248.622
642.097;32601.117; 6194.836;  239.843
642.676;33814.605; 5832.864;  244.264
643.255;34797.594; 5595.892;  234.985
643.833;36415.582; 6154.920;  244.406
644.412;36074.070; 5457.948;  244.927
644.990;35888.156; 5847.976;  249.948
645.569;36986.348; 6105.004;  249.569
646.147;38810.234; 6392.032;  243.290
646.726;36606.422; 5870.060;  249.511
647.304;35251.211; 5517.087;  228.032
647.882;34991.801; 4664.116;  214.552
648.461;36882.887; 6009.144;  214.973
649.039;36602.375; 6236.171;  223.394
649.617;36174.965; 6235.199;  261.415
650.195;36393.051; 5901.228;  298.736
650.773;35252.141; 5462.255;  309.557
651.352;34225.430; 4637.283;  297.978
651.930;33042.418; 4530.311;  289.399
652.508;34380.004; 6380.339;  285.620
653.086;34877.895; 6049.367;  272.241
653.663;35949.184; 5267.395;  265.062
654.241;36378.570; 4997.423;  286.083
654.819;36754.359; 5031.451;  286.404
655.397;36396.148; 5128.479;  291.825
655.975;34739.035; 5523.507;  299.145
656.553;35417.922; 6916.535;  288.866
657.130;34487.313; 5139.563;  304.087
657.708;36211.000; 5972.591;  302.908
658.286;35882.988; 5910.619;  294.629
658.863;35848.176; 5878.646;  293.350
659.441;37288.266; 5966.674;  318.671
660.018;36511.852; 5632.703;  333.692
660.596;35415.543; 4648.730;  335.013
661.173;36005.828; 5367.758;  371.534
661.750;35669.520; 5153.786;  365.155
662.328;36517.305; 6199.814;  349.976
662.905;33924.293; 5476.842;  332.997
663.482;32856.684; 5638.870;  321.717
664.060;32362.971; 5282.898;  314.438
664.637;34608.660; 6099.926;  306.259
665.214;36061.547; 5914.954;  314.580
665.791;36556.938; 5540.982;  334.501
666.368;36523.023; 5450.010;  329.222
666.945;36336.012; 6258.038;  342.143
667.522;34382.500; 5207.066;  370.964
668.099;34539.988; 5656.094;  396.885
668.676;34893.277; 5755.122;  391.706
669.253;37703.367; 6928.150;  369.627
669.830;37157.754; 6704.178;  360.348
670.407;36465.543; 5608.206;  344.769
670.984;35576.629; 5627.233;  322.890
671.560;34886.020; 6122.262;  316.910
672.137;33720.207; 5431.290;  322.531
672.714;34394.195; 6147.317;  318.552
673.290;35243.684; 5911.345;  324.473
673.867;34913.672; 5382.373;  340.594
674.443;35221.359; 4994.401;  319.515
675.020;37458.648; 5856.429;  286.336
675.596;35865.336; 5504.457;  247.557
676.173;34498.625; 4908.485;  227.778
676.749;33847.512; 4358.513;  224.399
677.326;33851.000; 4788.541;  230.520
677.902;34106.488; 5177.569;  241.841
678.478;33943.777; 4895.597;  239.762
679.054;37984.367; 8495.625;  248.583
679.631;35585.254; 5984.653;  237.503
680.207;36674.941; 7131.681;  245.924
680.783;33932.332; 4427.708;  224.845
681.359;34691.820; 5552.737;  209.666
681.935;35529.809; 5738.765;  191.687
682.511;34780.297; 5741.792;  210.008
683.087;35543.586; 6086.820;  213.329
683.663;34829.574; 5578.849;  216.850
684.239;33867.563; 4983.876;  229.471
684.815;35977.949; 6294.904;  248.792
685.390;36755.637; 7397.932;  231.813
685.966;34950.727; 5788.960;  221.234
686.542;33796.914; 5068.988;  214.255
687.118;34440.602; 5877.016;  212.276
687.693;34843.391; 6123.044;  233.096
688.269;34273.078; 5556.072;  246.917
688.844;34386.066; 5960.100;  236.938
689.420;33687.656; 5760.128;  242.059
689.995;36079.445; 7042.156;  245.480
690.571;34991.434; 6693.184;  244.701
691.146;32785.422; 5413.212;  251.922
691.722;33656.309; 5927.240;  284.743
692.297;33199.496; 5385.268;  320.664
692.872;34137.484; 5270.295;  313.885
693.448;34836.273; 5038.324;  290.106
694.023;34808.063; 5790.352;  304.327
694.598;34754.152; 5913.379;  319.648
695.173;33800.840; 5416.407;  323.169
695.748;32078.227; 4608.436;  376.389
696.323;32564.416; 5602.463;  397.610
696.898;33658.105; 6660.491;  430.231
697.473;32869.992; 4730.519;  454.952
698.048;34086.082; 5527.547;  478.973
698.623;33585.168; 4907.575;  477.094
699.198;33740.355; 5760.603;  496.915
699.773;32763.545; 5265.631;  490.236
700.348;32203.033; 5032.659;  519.957
700.922;34198.121; 5803.687;  575.678
701.497;33385.012; 5715.715;  621.399
702.072;32950.398; 6345.743;  664.420
702.646;33965.887; 6220.771;  690.541
703.221;34201.273; 5851.799;  748.862
703.795;32466.662; 5075.827;  774.282
704.370;30160.152; 4195.854;  799.803
704.944;30909.939; 5350.882;  875.824
705.519;31004.928; 5917.911;  902.945
706.093;30600.617; 5115.938;  889.266
706.668;31618.205; 5977.966;  903.487
707.242;31542.293; 6229.994;  881.708
707.816;30311.381; 5421.022;  892.329
708.390;31477.369; 5573.050;  970.250
708.965;32278.857; 5894.078;  984.671
709.539;30513.445; 5479.106; 1026.092
710.113;30701.135; 5717.134; 1067.913
710.687;31469.822; 6340.162; 1166.434
711.261;30458.012; 5046.190; 1190.854
711.835;30425.699; 5113.218; 1197.275
712.409;30326.387; 4673.246; 1308.096
712.983;30396.977; 4698.274; 1461.617
713.557;30282.863; 4738.302; 1611.838
714.131;30424.752; 5513.330; 1554.359
714.704;29853.041; 5052.357; 1520.780
715.278;30426.029; 5778.386; 1575.101
715.852;30704.117; 6195.414; 1689.822
716.425;31001.705; 7173.441; 1829.143
716.999;28290.693; 4602.469; 2008.664
717.573;29733.482; 6068.498; 2000.485
718.146;31704.871; 6993.525; 1914.506
718.720;31748.258; 5863.553; 1818.026
719.293;31945.047; 6102.581; 1734.147
719.867;29851.535; 5211.609; 1716.968
720.440;30867.324; 6702.637; 1918.589
721.013;29899.313; 5248.665; 1975.410
721.587;30794.100; 4707.693; 2073.331
722.160;32677.389; 6337.721; 2357.852
722.733;31669.477; 5699.749; 2657.073
723.306;32090.465; 5693.777; 2703.894
723.880;31608.854; 5874.805; 2549.415
724.453;32959.840; 6623.833; 2414.336
725.026;32150.029; 5414.861; 2298.557
725.599;32278.418; 5851.889; 2168.778
726.172;31243.406; 6048.917; 2106.099
726.745;30036.795; 5995.944; 2253.320
727.318;29795.883; 6349.973; 2404.740
727.891;28587.371; 5952.000; 2680.161
728.463;29026.160; 5874.028; 2838.882
729.036;28914.848; 5191.056; 2755.103
729.609;29214.637; 5164.084; 2731.824
730.182;30251.725; 6269.112; 2855.645
730.754;28431.912; 4264.140; 2946.866
731.327;29714.301; 6087.168; 2840.187
731.900;28388.889; 4722.196; 2647.608
732.472;29609.977; 5610.224; 2473.929
733.045;31119.365; 5415.252; 2445.750
733.617;30693.354; 4658.280; 2511.771
734.190;31383.643; 6048.308; 2581.592
734.762;30578.330; 5625.336; 2710.813
735.334;30582.818; 5705.364; 3005.733
735.907;31142.008; 5650.392; 3154.954
736.479;32133.096; 6477.420; 3171.675
737.051;31770.584; 6076.448; 3217.496
737.623;32701.572; 6125.476; 3246.217
738.195;32034.160; 5227.503; 2985.238
738.768;31676.350; 4413.532; 2727.559
739.340;33232.938; 5395.560; 2666.880
739.912;32728.025; 6154.587; 2769.601
740.484;31167.314; 6041.615; 2731.422
741.056;30553.303; 5406.643; 2963.043
741.628;30119.090; 5061.671; 3361.364
742.199;32243.779; 6600.699; 3641.185
742.771;31218.467; 4871.727; 3932.005
743.343;32012.756; 5107.755; 4319.926
743.915;32498.543; 5911.783; 4706.647
744.487;31992.232; 6027.811; 4874.968
745.058;30772.721; 6190.839; 4616.589
745.630;30388.107; 6120.867; 4253.410
746.201;30416.297; 5360.895; 4056.131
746.773;32743.686; 5970.923; 3772.952
747.344;32789.773; 5546.951; 3642.473
747.916;31946.662; 5867.979; 3752.294
748.487;32027.350; 6215.007; 4106.215
749.059;30319.938; 4925.035; 4457.835
749.630;30341.727; 5210.063; 4366.457
750.201;31441.514; 5596.090; 4600.078
750.773;31817.002; 5191.119; 4658.499
751.344;32337.092; 5646.146; 4609.319
751.915;32099.680; 5615.174; 4526.440
752.486;30934.367; 5290.202; 4536.061
753.057;31020.656; 5833.230; 4383.282
753.628;30739.045; 5134.258; 4296.503
754.199;31180.133; 5388.286; 4383.224
754.770;31465.121; 6050.314; 4653.545
755.341;31049.609; 6390.342; 4831.666
755.912;29920.098; 5515.370; 4831.387
756.483;30958.586; 6044.398; 4735.808
757.054;30725.574; 5429.426; 4685.029
757.625;30503.563; 4914.454; 4994.250
758.195;30232.150; 4772.482; 5051.471
758.766;30946.639; 5796.510; 5317.792
759.337;30137.127; 4685.538; 5646.512
759.907;30791.016; 4799.565; 5404.133
760.478;31637.504; 5292.594; 5090.954
761.048;32702.992; 6093.622; 4871.175
761.619;32024.881; 5987.649; 4589.396
762.189;31437.768; 5679.677; 4171.317
762.760;32087.656; 6186.706; 3872.538
763.330;32313.945; 6171.733; 3832.259
763.900;31563.834; 5877.761; 4150.180
764.471;30258.021; 5146.789; 4529.801
765.041;31164.209; 6472.817; 4715.922
765.611;31439.398; 6018.845; 4681.442
766.181;31504.387; 5600.873; 4717.063
766.751;31092.174; 5715.901; 4710.285
767.321;30045.863; 4850.929; 4450.305
767.891;31241.150; 5769.957; 4274.126
768.461;31812.939; 5538.985; 4215.047
769.031;31625.828; 5584.013; 4173.068
769.601;31954.516; 6515.041; 4174.689
770.171;30459.605; 4741.069; 4229.310
770.741;31187.293; 5430.097; 4352.031
771.311;31488.182; 5953.125; 4336.652
771.880;30532.270; 5107.152; 4300.873
772.450;30782.158; 5123.181; 4387.194
773.020;31241.746; 4730.208; 4220.415
773.589;31424.135; 5262.236; 4075.835
774.159;31638.523; 5286.264; 4105.756
774.729;31862.512; 5167.292; 4114.978
775.298;32017.100; 5219.320; 3693.298
775.867;31111.887; 5182.348; 3343.119
776.437;29792.076; 5672.376; 3062.040
777.006;28207.965; 4710.404; 2927.161
777.576;30337.053; 6039.432; 3046.482
778.145;30780.541; 5923.460; 3230.203
778.714;29945.729; 5528.488; 3253.324
779.283;29403.918; 5999.516; 3129.745
779.853;28912.006; 5550.544; 2983.566
780.422;29372.693; 5521.572; 2929.887
780.991;29815.082; 5881.600; 2863.908
781.560;29581.471; 6633.627; 2948.029
782.129;28886.059; 5883.656; 3074.149
782.698;29820.146; 6520.684; 2893.970
783.267;28532.936; 5196.711; 2721.391
783.836;30356.123; 5872.739; 2659.712
784.404;29410.512; 4896.768; 2622.233
784.973;28765.500; 4159.795; 2600.754
785.542;29880.588; 5541.823; 2528.475
786.111;30013.877; 6351.851; 2404.396
786.679;29092.365; 6007.879; 2365.717
787.248;27914.754; 4763.907; 2498.438
787.817;28429.941; 5303.935; 2645.659
788.385;28840.730; 6374.963; 2709.280
788.954;27195.117; 4857.991; 2620.500
789.522;29293.605; 6116.019; 2625.422
790.090;29109.295; 4816.047; 2743.843
790.659;29401.184; 5358.075; 2635.163
791.227;29123.672; 5509.103; 2495.484
791.795;29406.959; 5819.131; 2413.705
792.364;27937.947; 5044.159; 2345.326
792.932;28733.236; 5996.187; 2350.447
793.500;27417.023; 5421.214; 2429.768
794.068;27343.313; 4762.243; 2513.589
794.636;28518.201; 5129.271; 2664.310
795.204;27000.889; 4580.298; 2721.431
795.772;25841.078; 5100.326; 2802.052
796.340;25837.266; 5282.354; 2847.173
796.908;26411.555; 4563.382; 2997.194
797.476;27469.941; 4974.410; 3151.615
798.044;27097.430; 4456.438; 3110.735
798.612;27706.719; 5530.466; 2931.656
799.180;28093.607; 5639.494; 2785.777
799.747;27486.096; 5565.522; 2899.098
800.315;26107.984; 4923.550; 2955.519
800.883;26050.473; 4500.578; 2948.940
801.450;27750.461; 5537.606; 2965.361
802.018;28000.949; 5867.634; 3070.582
802.585;27135.236; 5644.662; 3156.103
803.153;25567.725; 5139.690; 3199.524
803.720;25147.314; 5170.718; 3168.845
804.287;24667.102; 5380.746; 3248.366
804.855;26078.189; 6321.773; 3406.187
805.422;25581.578; 5458.802; 3430.907
805.989;24816.867; 5009.830; 3453.528
806.556;24724.355; 5021.857; 3612.649
807.124;27039.543; 6214.885; 3736.570
807.691;26610.432; 4934.913; 3770.491
808.258;27356.920; 5577.941; 3705.012
808.825;27472.209; 6156.969; 3828.733
809.392;27021.596; 6660.997; 3986.754
809.959;26419.584; 5870.025; 4410.075
810.526;27163.273; 6678.053; 4774.996
811.093;26508.262; 6331.081; 4754.217
811.659;24904.150; 5531.109; 4661.238
812.226;24965.338; 5491.137; 4672.559
812.793;25255.326; 5759.165; 4822.979
813.360;24506.715; 5529.193; 5189.800
813.926;25125.002; 5868.221; 5310.622
814.493;24630.592; 4764.249; 5414.542
815.060;25081.979; 4516.277; 5548.963
815.626;24762.867; 4878.305; 5452.284
816.193;25353.355; 5715.333; 5339.305
816.759;24690.645; 5068.360; 5544.426
817.325;23870.832; 4486.389; 5706.547
817.892;25891.221; 6140.417; 5623.468
818.458;26224.309; 5899.444; 5586.689
819.024;25944.896; 6416.472; 5647.910
819.591;24389.285; 5628.500; 5762.031
820.157;22817.475; 4825.528; 6284.452
820.723;23185.063; 5904.556; 6906.973
821.289;26554.951; 8526.584; 7086.894
821.855;23973.238; 6078.612; 7054.915
822.421;22907.326; 5236.640; 7112.035
822.987;22480.115; 4891.668; 7256.156
823.553;23051.904; 5402.696; 7538.077
824.119;23810.191; 6121.724; 7594.298
824.685;24300.480; 6437.752; 7613.619
825.251;23807.068; 6140.780; 7644.140
825.816;23908.156; 6810.808; 7720.261
826.382;22792.846; 6051.835; 8014.282
826.948;22046.033; 6131.864; 8281.503
827.513;21263.021; 5517.892; 8289.624
828.079;21410.410; 4962.919; 8587.045
828.645;22297.098; 5791.947; 8821.865
829.210;21040.787; 4944.976; 9054.486
829.776;21256.475; 5965.003; 9054.607
830.341;20884.963; 6112.031; 9415.628
830.906;20416.752; 6304.059; 9932.449
831.472;18944.139; 5191.087;10150.271
832.037;20939.928; 6249.115; 9420.391
832.602;19105.617; 5259.143; 8664.912
833.167;19116.805; 5773.171; 8491.933
833.733;19903.893; 6187.199; 8872.854
834.298;18344.980; 4952.227; 9370.575
834.863;18932.670; 5789.255; 9610.695
835.428;19145.957; 5814.283; 9655.616
835.993;19265.646; 5997.311; 9437.838
836.558;19370.035; 6102.339; 9441.459
837.123;20936.523; 7443.367; 9600.979
837.688;19826.311; 5851.395; 9798.301
838.253;19739.500; 5924.422; 9902.921
838.817;18840.688; 5479.451;10339.742
839.382;19384.275; 6624.479;10548.363
839.947;18459.764; 5688.506;10252.484
840.511;18855.252; 6782.534;10040.005
841.076;16467.941; 4509.563;10099.926
841.641;17854.629; 6094.590;10347.347
842.205;17380.918; 5963.618;10817.368
842.770;18606.305; 6893.646;11435.289
843.334;16960.994; 5488.674;12072.409
843.898;16408.482; 5343.702;12635.431
844.463;17670.170; 6616.730;12537.252
845.027;16189.259; 5346.758;12759.673
845.591;16671.246; 6343.786;12821.993
846.156;15776.335; 5323.814;12520.914
846.720;16377.924; 6234.842;12390.436
847.284;15514.611; 5813.870;12956.456
847.848;15446.000; 6032.897;13240.177
848.412;15136.188; 5724.926;13216.998
848.976;16337.076; 6794.954;13014.619
849.540;16322.865; 7300.981;12355.740
850.104;15443.753; 6636.009;12208.761
850.668;13706.142; 4616.038;12106.882
851.232;14356.830; 4750.065;11862.103
851.796;15437.818; 5667.093;11700.523
852.359;15815.106; 6274.121;12375.944
852.923;15359.395; 6409.149;13087.966
853.487;14410.482; 6105.177;13297.187
854.050;12191.071; 3908.205;13851.207
854.614;13910.659; 5469.233;14854.229
855.177;14339.548; 5886.261;15802.149
855.741;14067.136; 6060.289;16603.570
856.304;14131.324; 6370.317;16359.891
856.868;12627.213; 5105.345;14365.512
857.431;12993.201; 5712.373;13361.333
857.995;12849.489; 5462.401;14130.554
858.558;13318.277; 5915.429;14883.175
859.121;13582.565; 6254.457;15754.195
859.684;13096.454; 5904.484;15995.017
860.247;12709.742; 5695.513;15149.537
860.810;12404.931; 5400.541;14640.358
861.374;14395.319; 7459.568;15551.079
861.937;11853.507; 4998.596;16519.801
862.500;11637.796; 5339.625;16796.521
863.062;10955.884; 5105.652;16538.742
863.625;11467.372; 5921.680;16716.764
864.188;11030.660; 5397.708;17055.084
864.751;10905.349; 5356.736;17197.705
865.314;11639.537; 5761.764;17151.625
865.876;12415.825; 6364.792;17783.547
866.439;12075.913; 6196.820;19283.467
867.002;12963.002; 7174.848;20256.389
867.564;12232.990; 6441.876;20485.410
868.127;11415.378; 5718.904;20789.730
868.689;11732.366; 5961.932;21981.951
869.252;12046.155; 6425.960;23803.771
869.814;11006.543; 5230.988;24974.094
870.377;11631.231; 5923.016;24690.314
870.939;13917.319; 8317.044;23963.436
871.501;11623.208; 5897.071;25167.156
872.063;10225.597; 4221.100;26995.477
872.626;10513.685; 4647.127;27443.098
873.188;11375.773; 5921.155;26718.418
873.750;10820.661; 5674.183;26558.840
874.312;10676.149; 5388.211;26701.561
874.874;12326.038; 6898.239;27970.582
875.436;11757.727; 6221.267;29173.402
875.998;11933.215; 6734.295;30376.623
876.560;11266.603; 6397.323;32507.344
877.122; 9944.991; 5260.351;34833.066
877.683;10642.079; 6151.379;36458.285
878.245; 9741.867; 5376.407;37248.207
878.807;10316.456; 6031.435;36758.027
879.369; 9246.544; 4942.463;35223.551
879.930; 9402.433; 5136.491;33824.969
880.492;10930.721; 6573.519;34436.492
881.053; 9441.409; 5102.547;37745.313
881.615; 9452.197; 5391.575;41184.633
882.176; 9495.586; 5567.603;42871.555
882.738;10138.674; 6274.630;41693.074
883.299; 8423.962; 4460.659;40289.895
883.860; 8510.051; 4709.687;39231.215
884.422; 9807.139; 6181.714;38264.039
884.983; 8526.527; 5033.742;37171.859
885.544; 9322.915; 5855.770;35842.379
886.105; 9094.004; 5720.798;34810.000
886.666; 8605.191; 5336.826;34519.020
887.227; 7876.380; 4744.854;33905.641
887.788; 8974.568; 5936.882;34502.965
888.349; 7862.557; 4873.910;34241.785
888.910; 9052.245; 6124.938;33722.203
889.471; 8691.533; 5846.966;32539.625
890.032; 8518.122; 5702.994;31528.346
890.593; 8860.110; 6083.022;32655.068
891.153; 8248.498; 5645.050;33882.289
891.714; 7320.287; 4819.078;33318.711
892.275; 7263.575; 5036.105;31848.930
892.835; 8502.863; 6330.134;30339.752
893.396; 8385.651; 6260.162;30074.973
893.956; 7623.939; 5605.189;30338.393
894.517; 7853.628; 5858.217;30864.113
895.077; 7833.616; 5932.246;29766.734
895.638; 8652.505; 6897.273;26379.557
896.198; 6735.993; 5026.301;24056.277
896.758; 7997.181; 6261.329;22961.898
897.319; 7232.069; 5611.357;21772.020
897.879; 7210.158; 5714.385;20877.539
898.439; 6252.146; 4747.413;19509.461
898.999; 7603.734; 6119.441;17297.582
899.559; 7490.922; 6037.469;14712.002
900.119; 6453.211; 5084.497;12790.224
900.679; 8089.599; 6747.525;11586.744
901.239; 7389.487; 6168.553;10776.465
901.799; 6935.176; 5786.581; 9691.687
902.359; 6286.964; 5185.609; 8725.907
902.919; 6148.252; 5054.637; 8305.728
903.479; 6200.741; 5046.665; 8172.649
904.038; 5954.529; 4968.692; 7913.870
904.598; 5260.817; 4259.721; 7262.291
905.158; 6319.905; 5435.749; 6609.012
905.717; 6571.694; 5623.776; 6236.133
906.277; 6680.082; 5717.804; 5829.054
906.836; 7033.271; 6056.833; 5396.674
907.396; 6831.659; 6052.860; 4964.195
907.955; 6852.447; 5980.888; 4528.917
908.515; 6281.635; 5444.916; 4223.837
909.074; 6331.224; 5481.944; 4023.958
909.633; 6353.412; 5518.972; 4065.379
910.192; 7728.200; 6941.000; 4066.300
910.752; 6300.800; 5503.000; 3971.600
911.311; 6176.100; 5417.000; 3839.600
911.870; 5940.200; 5136.000; 3684.500
912.429; 7203.300; 6432.000; 3635.600
912.988; 7042.700; 6289.000; 3689.800
913.547; 5836.000; 5102.000; 3737.700
914.106; 6528.400; 5755.000; 3740.300
914.665; 6499.600; 5731.000; 3604.600
915.224; 7136.600; 6407.000; 3358.700
915.782; 6079.800; 5305.000; 3188.400
916.341; 7307.600; 6542.000; 3091.400
916.900; 6112.600; 5490.000; 3044.800
917.458; 5837.600; 5238.000; 2888.600
918.017; 6428.200; 5768.000; 2818.900
918.576; 6167.500; 5455.000; 2838.600
919.134; 5451.200; 4788.000; 2880.100
919.693; 6099.600; 5332.000; 2996.300
920.251; 5973.200; 5290.000; 3183.100
920.809; 5655.200; 4913.000; 3247.000
921.368; 6001.000; 5358.000; 3156.600
921.926; 5756.400; 5063.000; 2964.900
922.484; 6365.600; 5701.000; 2846.300
923.042; 6138.200; 5468.000; 2890.400
923.601; 7283.100; 6575.000; 2987.700
924.159; 6692.400; 6004.000; 3049.800
924.717; 5731.500; 5018.000; 3087.000
925.275; 6365.000; 5673.000; 3093.400
925.833; 5228.200; 4503.000; 3182.400
926.391; 6664.700; 5982.000; 3397.900
926.949; 6021.900; 5315.000; 3575.400
927.506; 6454.400; 5692.000; 3713.400
928.064; 6122.200; 5391.000; 3871.300
928.622; 6248.200; 5544.000; 4092.800
929.180; 5578.400; 4740.000; 4499.300
929.737; 5458.600; 4678.000; 4813.200
930.295; 6694.400; 5971.000; 5084.100
930.853; 5839.500; 5176.000; 5185.000
931.410; 5545.400; 4811.000; 5313.100
931.968; 6762.200; 5977.000; 5339.600
932.525; 6364.100; 5604.000; 5399.900
933.082; 5470.200; 4724.000; 5457.500
933.640; 6571.600; 5779.000; 5692.900
934.197; 6129.000; 5288.000; 5821.200
934.754; 6187.000; 5389.000; 5617.900
935.312; 5900.400; 5035.000; 5512.400
935.869; 7328.300; 6473.000; 5582.400
936.426; 5930.200; 5084.000; 5650.100
936.983; 6104.300; 5351.000; 5657.400
937.540; 5556.300; 4795.000; 5564.300
938.097; 6589.400; 5766.000; 5574.000
938.654; 6044.600; 5205.000; 5665.900
939.211; 6588.300; 5747.000; 5931.600
939.768; 6284.000; 5454.000; 6153.600
940.324; 6112.500; 5260.000; 6397.600
940.881; 5861.900; 5026.000; 6454.200
941.438; 7204.000; 6321.000; 6206.900
941.995; 6913.800; 6088.000; 6003.900
942.551; 5694.000; 4826.000; 6228.300
943.108; 6266.700; 5493.000; 6603.500
943.664; 5680.800; 4808.000; 7188.100
944.221; 7750.000; 6963.000; 7579.900
944.777; 5617.400; 4769.000; 7658.100
945.334; 5755.800; 4926.000; 7670.400
945.890; 6335.800; 5499.000; 7525.100
946.446; 6400.900; 5661.000; 7261.500
947.003; 6564.000; 5720.000; 6949.200
947.559; 7450.200; 6597.000; 6773.100
948.115; 7037.300; 6184.000; 6668.400
948.671; 6533.000; 5716.000; 6488.400
949.227; 5441.300; 4637.000; 6236.600
949.783; 5343.400; 4555.000; 6008.900
950.339; 6613.400; 5763.000; 5934.100
950.895; 7004.300; 6155.000; 5933.500
951.451; 6033.200; 5281.000; 6074.700
952.007; 6727.200; 5873.000; 6066.400
952.563; 6086.900; 5328.000; 5884.100
953.118; 5888.400; 5100.000; 5733.800
953.674; 6279.400; 5522.000; 5734.300
954.230; 6250.700; 5449.000; 6039.700
954.785; 6238.100; 5377.000; 6383.500
955.341; 6775.700; 5957.000; 6568.200
955.897; 5326.800; 4541.000; 6488.600
956.452; 6499.200; 5608.000; 6239.200
957.008; 7869.100; 7065.000; 5954.600
957.563; 7070.600; 6359.000; 5816.700
958.118; 5760.200; 5037.000; 5828.200
958.674; 6341.900; 5597.000; 5717.400
959.229; 7108.600; 6411.000; 5506.800
959.784; 5422.800; 4679.000; 5292.200
960.339; 7095.800; 6396.000; 5101.900
960.894; 6708.400; 5933.000; 5093.200
961.449; 5682.300; 4985.000; 5227.900
962.004; 9185.300; 8506.000; 5349.300
962.559; 5789.200; 5074.000; 5514.900
963.114; 4677.600; 3947.000; 5717.300
963.669; 6264.200; 5523.000; 5841.400
964.224; 5944.800; 5243.000; 5805.900
964.779; 5487.600; 4846.000; 5723.400
965.334; 7109.400; 6456.000; 5779.500
965.888; 5873.800; 5158.000; 5948.500
966.443; 6831.800; 6152.000; 6344.200
966.998; 5269.500; 4528.000; 6666.300
967.552; 6141.500; 5558.000; 6710.100
968.107; 5793.700; 5157.000; 6593.500
968.661; 6337.300; 5652.000; 6344.100
969.216; 5727.800; 5033.000; 6062.400
969.770; 6328.800; 5711.000; 5785.500
970.324; 6391.800; 5736.000; 5426.800
970.879; 6690.600; 6085.000; 5016.800
971.433; 6766.400; 6137.000; 4904.500
971.987; 6238.600; 5551.000; 4991.000
972.541; 6462.100; 5804.000; 4978.500
973.095; 7290.800; 6695.000; 4832.000
973.649; 5378.300; 4743.000; 4767.900
974.203; 5569.100; 4999.000; 4881.200
974.757; 5843.400; 5146.000; 4969.500
975.311; 6099.300; 5507.000; 4953.000
975.865; 6156.100; 5512.000; 4884.300
976.419; 5966.200; 5308.000; 4739.800
976.973; 5849.600; 5164.000; 4698.100
977.526; 6862.000; 6270.000; 4631.100
978.080; 5394.000; 4752.000; 4621.600
978.634; 6546.800; 5983.000; 4650.200
979.187; 6454.900; 5837.000; 4669.200
979.741; 7547.500; 6893.000; 4658.000
980.294; 5394.900; 4800.000; 4579.100
980.848; 4718.200; 4141.000; 4452.800
981.401; 5723.700; 5098.000; 4271.900
981.955; 6056.300; 5559.000; 4087.800
982.508; 5081.500; 4589.000; 3973.900
983.061; 6779.200; 6233.000; 3928.600
983.615; 5554.400; 5011.000; 3851.200
984.168; 5323.000; 4774.000; 3734.800
984.721; 6402.900; 5824.000; 3628.300
985.274; 6289.200; 5695.000; 3564.300
985.827; 6022.300; 5545.000; 3558.100
986.380; 4912.000; 4362.000; 3559.900
986.933; 6285.200; 5820.000; 3688.700
987.486; 6284.800; 5769.000; 3778.500
988.039; 6257.400; 5766.000; 3559.900
988.591; 6663.400; 6199.000; 3219.300
989.144; 5154.500; 4702.000; 2902.900
989.697; 5446.100; 4951.000; 2722.600
990.250; 6440.600; 5977.000; 2618.000
990.802; 5452.000; 4954.000; 2523.900
991.355; 7696.500; 7290.000; 2436.500
991.907; 6623.400; 6210.000; 2412.200
992.460; 5550.300; 5130.000; 2387.900
993.012; 5561.900; 5177.000; 2365.800
993.565; 5232.400; 4838.000; 2311.100
994.117; 7502.000; 7118.000; 2308.700
994.669; 5221.500; 4789.000; 2249.300
995.221; 6148.700; 5730.000; 2158.100
995.774; 6039.500; 5661.000; 2085.600
996.326; 5626.300; 5310.000; 2068.100
996.878; 6649.700; 6288.000; 1975.300
997.430; 5316.800; 5001.000; 1929.500
997.982; 5841.300; 5514.000; 1861.900
998.534; 5792.900; 5395.000; 1830.200
999.086; 5742.000; 5486.000; 1823.200
999.638; 4991.300; 4617.000; 1815.000
1000.190; 5478.800; 5201.000; 1796.600
1000.741; 5846.400; 5618.000; 1738.800
1001.293; 5325.500; 4958.000; 1666.200
1001.845; 5311.300; 4936.000; 1566.500
1002.396; 5944.600; 5683.000; 1471.900
1002.948; 5873.500; 5585.000; 1398.000
1003.500; 5759.400; 5384.000; 1356.500
1004.051; 7696.300; 7408.000; 1294.200
1004.603; 6529.300; 6321.000; 1190.000
1005.154; 4774.200; 4622.000; 1063.900
1005.705; 5933.100; 5715.000;  968.300
1006.257; 5828.500; 5621.000;  889.800
1006.808; 5644.200; 5409.000;  801.500
1007.359; 6474.700; 6277.000;  716.400
1007.910; 5315.300; 5166.000;  639.100
1008.461; 6219.200; 6046.000;  561.600
1009.013; 4791.800; 4631.000;  500.400
1009.564; 6794.100; 6641.000;  476.100
1010.115; 4869.600; 4749.000;  431.600
1010.665; 4970.200; 4862.000;  409.300
1011.216; 5632.200; 5486.000;  399.700
1011.767; 5876.200; 5682.000;  388.100
1012.318; 6139.500; 5979.000;  381.400
1012.869; 5633.600; 5469.000;  375.400
1013.419; 4959.600; 4882.000;  357.600
1013.970; 5655.700; 5508.000;  358.300
1014.521; 5123.200; 4920.000;  344.100
1015.071; 5701.000; 5526.000;  322.800
1015.622; 5297.900; 5173.000;  320.600
1016.172; 4952.300; 4798.000;  301.700
1016.723; 5127.200; 4985.000;  289.800
1017.273; 5055.600; 4919.000;  287.600
1017.823; 5475.200; 5266.000;  278.700
1018.374; 5152.200; 5017.000;  274.400
1018.924; 6119.400; 6026.000;  283.200
1019.474; 6050.200; 5935.000;  278.500
1020.024; 5521.000; 5446.000;  274.700
1020.574; 6220.800; 6046.000;  272.700
1021.124; 5782.500; 5659.000;  278.400
1021.674; 4640.400; 4550.000;  269.200
1022.224; 6104.600; 6058.000;  267.800
1022.774; 5639.800; 5508.000;  258.100
1023.324; 6527.700; 6390.000;  260.000
1023.874; 7761.000; 7690.000;  260.700
1024.423; 5162.500; 5024.000;  252.700
1024.973; 5036.000; 4838.000;  234.700
1025.523; 5204.200; 5137.000;  226.500
1026.072; 5154.200; 5038.000;  225.500
1026.622; 5786.800; 5608.000;  210.100
1027.172; 6158.800; 6037.000;  213.000
1027.721; 5078.600; 4936.000;  207.700
1028.270; 5749.500; 5591.000;  205.400
1028.820; 5493.000; 5374.000;  201.000
1029.369; 5239.300; 5199.000;  201.000
1029.918; 5503.500; 5341.000;  198.400
1030.468; 4720.400; 4593.000;  199.200
1031.017; 5450.200; 5332.000;  192.600
1031.566; 5188.600; 5112.000;  197.400
1032.115; 5989.400; 5870.000;  188.300
1032.664; 5087.200; 4961.000;  193.700
1033.213; 6413.300; 6321.000;  191.900
1033.762; 5461.400; 5365.000;  184.500
1034.311; 5823.800; 5729.000;  194.300
1034.860; 5955.100; 5882.000;  192.300
1035.408; 6338.700; 6205.000;  182.600
1035.957; 6225.000; 6129.000;  173.900
1036.506; 4407.700; 4341.000;  185.200
1037.055; 7474.500; 7433.000;  182.500
1037.603; 5751.600; 5562.000;  167.600
1038.152; 4470.900; 4363.000;  168.200
1038.700; 4970.400; 4879.000;  169.600
1039.249; 5874.000; 5805.000;  164.300
1039.797; 5489.200; 5351.000;  169.600
1040.345; 6106.900; 6042.000;  167.100
1040.894; 5412.800; 5358.000;  164.400
1041.442; 5508.700; 5318.000;  158.300
1041.990; 4790.400; 4711.000;  160.000
1042.538; 4543.400; 4442.000;  156.800
1043.087; 4815.100; 4622.000;  146.600
1043.635; 5902.300; 5900.000;  162.400
1044.183; 5105.600; 4946.000;  156.300
1044.731; 4952.000; 4900.000;  158.100
1045.279; 5888.900; 5836.000;  154.500
1045.827; 8037.000; 7934.000;  146.200
1046.374; 4327.800; 4281.000;  154.000
1046.922; 5068.400; 5002.000;  149.000
1047.470; 6101.100; 5941.000;  154.900
1048.018; 5705.200; 5569.000;  148.400
1048.565; 6280.800; 6230.000;  146.300
1049.113; 4736.600; 4693.000;  156.100
1049.660; 5447.200; 5334.000;  154.300
1050.208; 5893.800; 5811.000;  149.400
1050.755; 5280.700; 5115.000;  157.500
1051.303; 6022.800; 5906.000;  157.700
1051.850; 5504.700; 5349.000;  152.800
1052.397; 3988.700; 3904.000;  146.300
1052.945; 5360.600; 5306.000;  149.500
1053.492; 6577.700; 6448.000;  149.300
1054.039; 6381.700; 6276.000;  163.100
1054.586; 4824.200; 4669.000;  150.400
1055.133; 6140.400; 6065.000;  153.500
1055.680; 5653.500; 5558.000;  155.600
1056.227; 4623.400; 4517.000;  148.700
1056.774; 7091.300; 7027.000;  151.500
1057.321; 4479.000; 4417.000;  143.700
1057.868; 5691.800; 5537.000;  145.300
1058.415; 5725.800; 5620.000;  153.500
1058.961; 5967.900; 5887.000;  149.900
1059.508; 5642.900; 5514.000;  147.300
1060.055; 5077.000; 4957.000;  151.000
1060.601; 5411.800; 5313.000;  148.700
1061.148; 5490.500; 5405.000;  153.800
1061.694; 5167.600; 5146.000;  150.500
1062.241; 5210.600; 5032.000;  149.100
1062.787; 5888.900; 5747.000;  153.000
1063.334; 7160.000; 7001.000;  153.200
1063.880; 5941.700; 5827.000;  148.400
1064.426; 6287.000; 6202.000;  149.200
1064.972; 5251.000; 5161.000;  156.400
1065.518; 4935.400; 4912.000;  144.700
1066.065; 5567.000; 5581.000;  139.400
1066.611; 5278.000; 5178.000;  139.300
1067.157; 5642.500; 5532.000;  138.400
1067.703; 5940.600; 5887.000;  142.700
1068.249; 5213.600; 5113.000;  136.700
1068.794; 5518.700; 5423.000;  139.400
1069.340; 5061.700; 5006.000;  142.700
1069.886; 5196.200; 5117.000;  135.600
1070.432; 4694.900; 4606.000;  133.400
1070.977; 5311.300; 5135.000;  138.200
1071.523; 4921.100; 4894.000;  132.400
1072.068; 5035.200; 4936.000;  132.700
1072.614; 4555.500; 4503.000;  127.000
1073.160; 6159.000; 6090.000;  131.300
1073.705; 5048.200; 5030.000;  135.700
1074.250; 4886.800; 4904.000;  133.000
1074.796; 5840.400; 5771.000;  138.000
1075.341; 5865.200; 5822.000;  137.300
1075.886; 5146.300; 4986.000;  134.300
1076.431; 5857.700; 5812.000;  138.200
1076.976; 5700.800; 5633.000;  132.200
1077.521; 5119.100; 5046.000;  138.900
1078.067; 5117.400; 5050.000;  128.600
1078.612; 5931.200; 5886.000;  138.900
1079.156; 5334.900; 5189.000;  128.900
1079.701; 6185.800; 6155.000;  129.700
1080.246; 6232.600; 6178.000;  128.600
1080.791; 5614.400; 5562.000;  122.600
1081.336; 5850.500; 5852.000;  122.000
1081.880; 5814.600; 5717.000;  123.900
1082.425; 5016.800; 4948.000;  120.600
1082.970; 6453.800; 6384.000;  124.500
1083.514; 5265.500; 5162.000;  112.000
1084.059; 5164.100; 5063.000;  120.700
1084.603; 5014.600; 4893.000;  116.000
1085.147; 5771.900; 5713.000;  116.300
1085.692; 6463.600; 6383.000;  108.200
1086.236; 4422.900; 4346.000;  114.600
1086.780; 6810.800; 6644.000;  118.900
1087.325; 5869.400; 5849.000;  120.400
1087.869; 5480.100; 5459.000;  110.500
1088.413; 6302.900; 6238.000;  114.000
1088.957; 4747.200; 4614.000;  114.300
1089.501; 6937.600; 6857.000;  114.600
1090.045; 6586.900; 6559.000;  114.200
1090.589; 5023.200; 4966.000;  105.500
1091.133; 6018.800; 5902.000;  111.800
1091.676; 5202.200; 5140.000;  110.900
1092.220; 5362.800; 5377.000;  110.100
1092.764; 6363.900; 6290.000;  108.100
1093.307; 6061.100; 5998.000;  109.900
1093.851; 4924.000; 4870.000;  107.500
1094.395; 6164.000; 6119.000;   96.200
1094.938; 5659.700; 5617.000;   99.300
1095.482; 4958.500; 4918.000;   97.700
1096.025; 6425.500; 6310.000;   84.900
1096.568; 7001.000; 6932.000;   88.500
1097.112; 4420.200; 4354.000;   95.700
1097.655; 5273.300; 5181.000;   97.300
1098.198; 5320.100; 5278.000;   92.600
1098.741; 5533.500; 5520.000;   91.800
1099.285; 5847.000; 5763.000;   88.000
1099.828; 3829.600; 3796.000;   91.700
1100.371; 5471.700; 5383.000;   89.900
1100.914; 6200.400; 6094.000;   91.500
1101.457; 6100.500; 6083.000;   88.100
1101.999; 5175.000; 5084.000;   86.400
1102.542; 5723.600; 5645.000;   90.800
1103.085; 5952.400; 5802.000;   95.400
1103.628; 6939.900; 6918.000;   97.700
1104.170; 5210.800; 5102.000;   84.000
1104.713; 5804.100; 5745.000;   93.900
1105.256; 4937.100; 4875.000;   93.000
1105.798; 4437.200; 4434.000;   85.600
1106.341; 6602.100; 6532.000;   87.100
1106.883; 4643.400; 4570.000;   85.200
1107.425; 6078.300; 6045.000;   85.000
1107.968; 5574.100; 5472.000;   84.300
1108.510; 6196.500; 6108.000;   88.200
1109.052; 5584.700; 5533.000;   86.600
1109.594; 5007.200; 4946.000;   79.400
1110.136; 5834.500; 5831.000;   81.700
1110.679; 5676.900; 5623.000;   75.500
1111.221; 5487.100; 5411.000;   88.500
1111.763; 4978.700; 4911.000;   87.700
1112.304; 4878.000; 4854.000;   89.700
1112.846; 6034.400; 5956.000;   81.900
1113.388; 8771.300; 8762.000;   86.400
1113.930; 6322.900; 6282.000;   84.700
1114.472; 5493.800; 5366.000;   78.900
1115.013; 4942.100; 4872.000;   78.100
1115.555; 5333.700; 5271.000;   84.900
1116.097; 5181.200; 5162.000;   79.200
1116.638; 6275.100; 6142.000;   83.700
1117.180; 6007.800; 5892.000;   85.500
1117.721; 5147.200; 5089.000;   78.800
1118.262; 6175.400; 6168.000;   77.400
1118.804; 5754.100; 5668.000;   81.400
1119.345; 5259.300; 5154.000;   77.800
1119.886; 6440.800; 6365.000;   81.200
1120.427; 5334.300; 5263.000;   77.200
1120.969; 5449.800; 5361.000;   75.200
1121.510; 5085.500; 5095.000;   80.900
1122.051; 6614.000; 6478.000;   77.300
1122.592; 5985.400; 5955.000;   73.300
1123.133; 4911.300; 4880.000;   90.100
1123.673; 6485.600; 6445.000;   75.000
1124.214; 5559.700; 5548.000;   80.600
1124.755; 5871.700; 5830.000;   78.000
1125.296; 5666.000; 5628.000;   77.500
1125.836; 6299.100; 6237.000;   80.400
1126.377; 5469.600; 5435.000;   75.600
1126.918; 5604.200; 5571.000;   78.900
1127.458; 5665.400; 5616.000;   78.000
1127.999; 6002.000; 5905.000;   76.100
1128.539; 6338.600; 6283.000;   81.400
1129.079; 5804.500; 5794.000;   77.400
1129.620; 5071.800; 5066.000;   68.000
1130.160; 4897.300; 4819.000;   77.500
1130.700; 5836.300; 5809.000;   76.300
1131.240; 5872.500; 5810.000;   66.800
1131.781; 5690.200; 5572.000;   70.600
1132.321; 5486.600; 5434.000;   77.200
1132.861; 5082.300; 4954.000;   70.400
1133.401; 5427.100; 5415.000;   68.700
1133.941; 5754.700; 5752.000;   68.500
1134.481; 5515.400; 5399.000;   75.900
1135.020; 5541.600; 5478.000;   66.600
1135.560; 6147.800; 6106.000;   68.100
1136.100; 4515.500; 4466.000;   64.900
1136.640; 4631.200; 4595.000;   72.500
1137.179; 4814.600; 4772.000;   69.700
1137.719; 5533.600; 5456.000;   68.400
1138.258; 5355.300; 5364.000;   67.000
1138.798; 6058.600; 5978.000;   69.600
1139.337; 4333.700; 4292.000;   64.000
1139.877; 5848.400; 5855.000;   64.500
1140.416; 8068.200; 8129.000;   74.900
1140.955; 4801.700; 4763.000;   67.200
1141.494; 6199.800; 6114.000;   69.900
1142.034; 5323.100; 5349.000;   59.100
1142.573; 5936.200; 5846.000;   65.900
1143.112; 5062.300; 4973.000;   70.600
1143.651; 4879.900; 4810.000;   67.100
1144.190; 6381.900; 6414.000;   56.700
1144.729; 5556.400; 5553.000;   61.800
1145.267; 5300.300; 5202.000;   62.500
1145.806; 5847.300; 5715.000;   68.500
1146.345; 5879.500; 5888.000;   58.300
1146.884; 5753.100; 5660.000;   63.100
1147.422; 4839.700; 4811.000;   54.800
1147.961; 6531.300; 6432.000;   67.600
1148.500; 6140.600; 6104.000;   64.700
1149.038; 5839.200; 5811.000;   61.000
1149.577; 6475.100; 6411.000;   65.100
1150.115; 4054.700; 3998.000;   58.100
1150.653; 5576.800; 5591.000;   60.500
1151.192; 5080.300; 5061.000;   56.600
1151.730; 6025.700; 5962.000;   62.300
1152.268; 5379.800; 5302.000;   55.500
1152.806; 5269.800; 5130.000;   58.200
1153.344; 5250.000; 5204.000;   55.000
1153.882; 5447.100; 5389.000;   64.200
1154.421; 4231.900; 4188.000;   60.300
1154.958; 5526.900; 5482.000;   58.100
1155.496; 5931.400; 5874.000;   55.800
1156.034; 6696.500; 6597.000;   61.000
1156.572; 6165.700; 6053.000;   56.200
1157.110; 4255.200; 4289.000;   53.200
1157.647; 6254.800; 6224.000;   57.400
1158.185; 5206.500; 5144.000;   55.500
1158.723; 4674.600; 4643.000;   58.000
1159.260; 6451.800; 6461.000;   53.700
1159.798; 6071.200; 6045.000;   51.700
1160.335; 5838.100; 5797.000;   59.600

