source
Integration time [ms]: 4415.405
Averaging Nr. [scans]: 10
Smoothing Nr. [pixels]: 0
Data measured with spectrometer [name]: 7414430SP
Wave   ;Sample   ;Dark     ;Reference
[nm]   ;[counts] ;[counts] ;[counts] 

288.544; 5734.721; 5481.567;    6.613
289.143; 4702.191; 4445.805;   14.216
289.742; 6135.005; 5944.782;   11.816
290.341; 5849.826; 5549.822;   -4.936
290.940; 5371.085; 5126.334;    0.852
291.538; 6766.223; 6565.967;    1.792
292.137; 5976.298; 5724.192;    6.262
292.736; 7810.626; 7451.822;    8.164
293.335; 5456.552; 5236.041;   -6.418
293.934; 5905.835; 5668.136;   -2.904
294.532; 8425.887; 8170.262;   -5.162
295.131; 6619.017; 6327.777;  -10.283
295.730; 6383.883; 6165.880;  -16.141
296.328; 6143.668; 5919.741;  -14.740
296.927; 6102.915; 5823.527;   -8.768
297.525; 6071.499; 5870.784;  -15.255
298.124; 4943.328; 4719.534;  -22.063
298.722; 5915.604; 5667.405;  -14.796
299.321; 5469.872; 5160.111;  -10.466
299.919; 5883.016; 5655.808;  -10.979
300.518; 5347.344; 5062.438;  -12.077
301.116; 5349.635; 5088.125;  -13.509
301.715; 5710.782; 5476.557;  -11.939
302.313; 5501.837; 5256.375;  -15.424
302.911; 5828.237; 5621.171;  -19.833
303.509; 7693.900; 7470.388;   -3.567
304.108; 6003.513; 5754.438;   -9.553
304.706; 6468.888; 6182.500;   -8.582
305.304; 6580.911; 6357.468;  -12.348
305.902; 6242.264; 5985.563;  -14.411
306.500; 5824.519; 5621.059;   -7.194
307.098; 6001.008; 5766.937;   -9.322
307.696; 6401.460; 6148.666;  -19.192
308.294; 5922.867; 5652.933;   -9.736
308.892; 6137.617; 5935.455;  -15.482
309.490; 5672.763; 5442.755;  -14.107
310.088; 6530.513; 6295.396;  -15.862
310.686; 6675.931; 6399.270;  -10.781
311.284; 6292.987; 6134.692;  -14.878
311.882; 5804.754; 5647.399;   -9.948
312.480; 5619.205; 5377.040;  -15.503
313.078; 6752.299; 6571.419;  -17.262
313.675; 5540.418; 5344.059;   -3.694
314.273; 6654.896; 6491.006;  -18.246
314.871; 4564.131; 4387.228;  -15.190
315.468; 5247.038; 5086.171;  -12.633
316.066; 5617.428; 5378.019;   -5.765
316.664; 5284.292; 5124.990;  -14.317
317.261; 7725.287; 7501.531;   -8.677
317.859; 6514.876; 6383.247;  -11.804
318.456; 7059.534; 6947.801;   -3.107
319.054; 6595.742; 6478.350;   -3.062
319.651; 6304.263; 6074.594;   -6.706
320.249; 6952.263; 6764.594;   -5.206
320.846; 5963.602; 5767.831;   -4.679
321.443; 7174.107; 7003.613;   -7.920
322.041; 7038.362; 6863.432;  -14.105
322.638; 5949.713; 5873.557;   -6.263
323.235; 5485.337; 5353.375;   -7.424
323.833; 6288.314; 6144.042;  -14.765
324.430; 5005.897; 4823.814;  -10.550
325.027; 7600.555; 7492.045;   -9.951
325.624; 5209.036; 5037.771;   -3.712
326.221; 5636.043; 5515.481;   -9.368
326.818; 6942.467; 6752.095;   -5.637
327.415; 6096.534; 5883.005;   -6.699
328.012; 5519.222; 5293.117;   -5.713
328.609; 5846.189; 5667.824;   -9.983
329.206; 6443.042; 6302.553;   -7.154
329.803; 5945.431; 5770.431;   -1.682
330.400; 5571.397; 5373.857;   -2.741
330.997; 6616.911; 6398.510;   -4.339
331.594; 6423.016; 6309.646;  -10.278
332.191; 5703.672; 5513.435;   -6.967
332.787; 6814.716; 6623.131;   -0.480
333.384; 5994.295; 5864.241;  -10.333
333.981; 6568.461; 6493.301;  -19.900
334.578; 5472.206; 5197.644;  -19.816
335.174; 5677.739; 5451.614;  -15.844
335.771; 6781.056; 6559.961;  -12.670
336.367; 5605.335; 5394.394;  -21.124
336.964; 6429.878; 6137.810;  -18.226
337.561; 5837.662; 5655.582;  -13.311
338.157; 7599.160; 7429.612;  -19.006
338.754; 6479.519; 6305.286;  -19.418
339.350; 5754.193; 5531.421;  -29.433
339.946; 6168.292; 5908.979;  -16.622
340.543; 6955.937; 6726.633;  -16.744
341.139; 5822.179; 5622.079;  -21.841
341.735; 6418.546; 6137.947;  -25.012
342.332; 5569.167; 5311.191;  -19.156
342.928; 6542.893; 6365.379;  -20.443
343.524; 6373.943; 6140.857;  -14.397
344.120; 6103.751; 6034.729;  -20.654
344.716; 5783.478; 5567.636;   -5.730
345.313; 6651.906; 6491.590;  -10.929
345.909; 4946.750; 4700.448;  -19.843
346.505; 6101.065; 5954.910;  -19.645
347.101; 6885.305; 6646.147;   -9.618
347.697; 6519.132; 6396.497;  -10.305
348.293; 4940.929; 4852.084;  -23.189
348.889; 6156.047; 5965.240;  -18.418
349.485; 5512.542; 5374.457;  -10.476
350.081; 6418.063; 6229.540;  -17.320
350.676; 5665.400; 5471.969;  -21.088
351.272; 6752.977; 6672.840;  -12.821
351.868; 6388.684; 6170.107;  -13.165
352.464; 5900.683; 5717.784;  -12.464
353.059; 5202.081; 5013.372;  -22.547
353.655; 6505.442; 6246.942;   -9.379
354.251; 6269.355; 6029.314;   -8.266
354.846; 6137.317; 6051.520;  -17.705
355.442; 6180.604; 6058.985;   -9.317
356.038; 6178.109; 6001.648;  -11.049
356.633; 5958.789; 5753.728;  -10.006
357.229; 5944.691; 5792.494;  -13.120
357.824; 5795.052; 5618.256;  -15.647
358.420; 5495.931; 5342.335;  -19.204
359.015; 5620.025; 5433.553;  -12.263
359.610; 6395.334; 6199.748;  -16.421
360.206; 4803.355; 4613.949;  -20.074
360.801; 5182.771; 4989.573;  -13.277
361.396; 5976.091; 5775.979;   -5.822
361.992; 5465.452; 5307.256;  -11.247
362.587; 5471.845; 5357.827;  -21.502
363.182; 5670.825; 5457.229;   -7.461
363.777; 6186.319; 6069.447;   -8.719
364.372; 6143.858; 6050.361;  -14.590
364.967; 5638.908; 5475.840;  -15.145
365.563; 6853.244; 6697.708;   -7.192
366.158; 5591.054; 5421.507;   -5.662
366.753; 5296.057; 5143.757;   -8.378
367.348; 6280.229; 6005.246;  -14.990
367.942; 5731.832; 5506.497;   -6.005
368.537; 6309.545; 6153.150;  -11.504
369.132; 5854.513; 5757.342;  -10.576
369.727; 5195.469; 5037.765;  -12.573
370.322; 4737.811; 4595.091;  -11.560
370.917; 5950.700; 5842.969;  -10.388
371.511; 7468.182; 7311.299;   -9.161
372.106; 6677.708; 6524.840;  -10.245
372.701; 4802.010; 4616.606;  -10.158
373.296; 7365.134; 7212.424;   -4.719
373.890; 5390.645; 5243.827;  -11.802
374.485; 5860.273; 5755.458;  -13.500
375.079; 6332.156; 6165.272;   -6.276
375.674; 6989.895; 6819.348;   -0.447
376.268; 5781.104; 5693.824;   -6.916
376.863; 4851.742; 4784.930;  -14.483
377.457; 5605.774; 5440.104;   -6.903
378.052; 6571.722; 6456.656;   -9.844
378.646; 6416.645; 6323.666;  -12.601
379.240; 6215.361; 6030.570;  -14.715
379.835; 5392.549; 5223.005;  -12.331
380.429; 4660.498; 4499.880;   -9.074
381.023; 6787.477; 6686.475;   -1.729
381.617; 5845.932; 5705.293;  -13.714
382.212; 5868.854; 5704.022;   -7.060
382.806; 6594.474; 6396.104;   -2.303
383.400; 5849.989; 5801.524;   -0.815
383.994; 5783.806; 5653.428;   -4.429
384.588; 6069.282; 5945.137;   -6.261
385.182; 6354.387; 6274.639;    0.008
385.776; 6256.223; 6114.302;   -3.247
386.370; 5948.120; 5866.729;   -1.030
386.964; 5970.837; 5861.118;   -1.346
387.558; 5161.748; 5033.563;   -2.020
388.152; 5994.180; 5824.887;   -5.345
388.745; 7298.541; 7222.972;   -2.774
389.339; 6493.944; 6398.385;    3.510
389.933; 6003.191; 5911.655;    5.280
390.527; 7796.543; 7723.223;    2.610
391.120; 5208.232; 5074.455;   -7.914
391.714; 6219.945; 6149.989;   -1.903
392.308; 6978.228; 6811.480;    6.023
392.901; 5679.531; 5654.012;   -4.103
393.495; 5283.590; 5211.686;    3.284
394.089; 6946.694; 6843.864;    8.655
394.682; 6285.071; 6168.854;    2.312
395.275; 6495.230; 6403.851;   -7.402
395.869; 6026.055; 5942.626;   -1.072
396.462; 5501.823; 5435.979;    6.454
397.056; 6950.189; 6978.566;    8.494
397.649; 6652.831; 6572.689;    1.599
398.242; 6460.080; 6452.210;    3.153
398.836; 6956.489; 6924.404;   11.395
399.429; 5583.303; 5454.381;   14.695
400.022; 5998.241; 5910.649;    3.627
400.615; 7424.147; 7402.917;    8.383
401.208; 6184.446; 6070.474;   13.295
401.802; 6349.857; 6342.039;    6.211
402.395; 6236.341; 6126.649;    7.227
402.988; 6319.559; 6313.481;    2.700
403.581; 5713.270; 5668.250;   11.225
404.174; 6097.085; 6065.711;   18.922
404.767; 5643.978; 5544.959;   14.169
405.360; 5639.987; 5603.596;    8.999
405.953; 6900.668; 6861.483;   13.138
406.545; 6627.440; 6542.691;   13.937
407.138; 5566.963; 5510.982;   10.869
407.731; 5530.964; 5483.144;   12.768
408.324; 5915.085; 5857.034;   22.921
408.917; 6185.887; 6175.639;   15.308
409.509; 6802.154; 6749.184;   12.239
410.102; 5875.996; 5889.791;   13.741
410.695; 6004.024; 5923.110;   20.249
411.287; 5413.061; 5452.936;   21.793
411.880; 5251.851; 5246.813;   22.965
412.472; 5545.291; 5503.170;   15.082
413.065; 5803.899; 5735.526;   23.423
413.657; 5192.035; 5136.232;   21.077
414.250; 5850.082; 5801.180;   12.349
414.842; 6117.914; 6125.665;   20.423
415.434; 5146.888; 5145.124;   19.906
416.027; 5855.021; 5797.902;   26.574
416.619; 6525.216; 6455.239;   15.705
417.211; 5381.690; 5399.212;   17.791
417.804; 5637.554; 5649.034;   30.244
418.396; 5534.963; 5505.186;   24.177
418.988; 5975.531; 5929.539;   24.904
419.580; 5110.032; 5079.981;   20.692
420.172; 4875.649; 4804.532;   22.275
420.764; 6043.436; 6028.040;   26.773
421.356; 5781.127; 5735.846;   25.731
421.948; 6108.878; 6057.486;   24.876
422.540; 6081.412; 5988.426;   30.042
423.132; 5396.143; 5316.469;   32.728
423.724; 4974.644; 4990.750;   21.317
424.316; 5605.923; 5562.991;   29.359
424.908; 5326.076; 5306.763;   28.798
425.500; 5866.017; 5839.766;   30.512
426.092; 5814.584; 5813.795;   26.741
426.683; 6289.928; 6207.331;   27.029
427.275; 5761.303; 5706.112;   32.611
427.867; 5947.491; 5901.224;   33.796
428.458; 6623.468; 6570.214;   34.453
429.050; 6167.525; 6174.799;   34.255
429.642; 6719.093; 6702.152;   39.082
430.233; 4937.728; 4973.373;   41.138
430.825; 6622.907; 6574.290;   31.581
431.416; 6338.439; 6312.776;   35.755
432.008; 5783.824; 5785.518;   40.566
432.599; 5806.602; 5835.669;   46.322
433.190; 5690.476; 5673.924;   46.897
433.782; 5005.580; 5016.940;   41.069
434.373; 7932.037; 7932.891;   48.778
434.964; 5284.008; 5238.937;   50.078
435.556; 5631.293; 5643.313;   52.381
436.147; 6841.168; 6783.538;   38.251
436.738; 6255.071; 6216.626;   47.237
437.329; 6390.448; 6411.497;   61.304
437.920; 5849.045; 5909.043;   48.611
438.511; 4900.774; 4911.158;   44.910
439.103; 5433.133; 5442.359;   62.404
439.694; 6003.523; 6077.560;   63.075
440.285; 6583.029; 6606.342;   61.033
440.876; 7708.326; 7624.930;   57.249
441.466; 4940.375; 4938.128;   61.306
442.057; 5791.538; 5784.021;   65.773
442.648; 6670.852; 6629.352;   65.676
443.239; 5386.496; 5509.049;   55.963
443.830; 6228.416; 6119.850;   69.631
444.421; 5703.300; 5690.269;   69.943
445.011; 6087.063; 6044.240;   72.791
445.602; 6539.498; 6527.138;   68.848
446.193; 4051.985; 4025.969;   80.044
446.783; 5395.678; 5385.583;   82.599
447.374; 5984.374; 5929.362;   77.419
447.964; 6256.947; 6208.335;   72.605
448.555; 7164.857; 7223.662;   82.041
449.145; 5694.473; 5738.081;   76.230
449.736; 7032.656; 7014.854;   75.545
450.326; 6142.742; 6179.876;   67.945
450.917; 5767.949; 5723.790;   77.598
451.507; 5083.617; 5082.658;   68.027
452.097; 6504.924; 6490.368;   67.771
452.688; 6325.265; 6304.533;   62.884
453.278; 4527.676; 4527.655;   65.512
453.868; 6950.250; 6909.113;   71.796
454.458; 5533.341; 5508.596;   60.956
455.048; 6105.812; 6086.480;   62.356
455.639; 4689.495; 4670.133;   58.782
456.229; 6033.834; 6017.371;   65.209
456.819; 6390.097; 6310.384;   61.466
457.409; 6657.283; 6598.245;   59.967
457.999; 6195.779; 6187.713;   58.093
458.589; 5658.145; 5658.654;   59.536
459.179; 6070.808; 6018.506;   55.994
459.769; 5185.717; 5190.143;   43.624
460.358; 6780.067; 6708.826;   46.978
460.948; 5744.232; 5771.766;   49.821
461.538; 5438.139; 5352.872;   54.678
462.128; 5500.134; 5494.371;   49.309
462.717; 5832.668; 5833.634;   52.774
463.307; 5819.965; 5816.940;   48.101
463.897; 5326.178; 5357.948;   45.606
464.486; 7172.819; 7205.232;   45.010
465.076; 6074.905; 6073.297;   45.519
465.666; 5205.171; 5225.046;   50.058
466.255; 6587.255; 6590.100;   44.463
466.845; 5350.463; 5408.971;   41.206
467.434; 5953.958; 5963.350;   44.847
468.023; 5193.342; 5214.607;   46.760
468.613; 5854.844; 5777.654;   39.736
469.202; 5162.199; 5139.515;   46.461
469.791; 5905.844; 5905.020;   47.944
470.381; 5892.961; 5864.085;   47.529
470.970; 5655.154; 5605.980;   43.773
471.559; 5980.873; 5959.650;   41.646
472.148; 5260.134; 5252.221;   37.914
472.738; 6090.512; 6089.373;   48.071
473.327; 4866.684; 4874.257;   47.871
473.916; 5882.919; 5828.759;   37.716
474.505; 5970.300; 5974.484;   40.256
475.094; 6500.441; 6482.811;   43.269
475.683; 6311.637; 6371.471;   36.499
476.272; 5677.716; 5731.389;   44.542
476.861; 5440.180; 5407.887;   42.297
477.449; 5562.083; 5546.784;   46.878
478.038; 5228.057; 5151.392;   35.156
478.627; 5451.606; 5446.267;   42.514
479.216; 5894.732; 5893.335;   43.937
479.805; 5992.624; 5937.625;   51.393
480.393; 8193.089; 8145.920;   53.239
480.982; 6948.529; 6924.600;   38.955
481.571; 6687.218; 6654.682;   45.436
482.159; 5109.008; 5077.721;   51.007
482.748; 6254.909; 6295.164;   49.695
483.336; 6522.069; 6456.484;   48.280
483.925; 5519.371; 5467.250;   47.166
484.513; 5473.038; 5475.321;   55.404
485.102; 5973.875; 5977.104;   54.238
485.690; 7849.002; 7717.101;   55.748
486.278; 7549.961; 7496.097;   55.934
486.867; 5795.366; 5782.952;   57.106
487.455; 6611.955; 6500.668;   56.979
488.043; 5118.729; 5053.642;   57.564
488.631; 7532.190; 7444.375;   57.432
489.220; 6537.646; 6447.516;   63.646
489.808; 4868.045; 4790.870;   65.449
490.396; 6465.499; 6508.084;   61.977
490.984; 5483.876; 5490.074;   68.834
491.572; 6502.027; 6475.361;   70.775
492.160; 6092.828; 6070.642;   67.564
492.748; 5642.193; 5624.583;   66.808
493.336; 6580.846; 6545.354;   79.747
493.924; 5597.240; 5510.734;   88.688
494.512; 6510.178; 6351.001;   84.120
495.100; 6306.788; 6290.639;   86.250
495.687; 6728.442; 6684.661;  103.074
496.275; 5410.979; 5360.486;  108.717
496.863; 5685.147; 5635.797;  107.035
497.451; 5557.367; 5572.718;  117.993
498.038; 5921.465; 5881.833;  120.116
498.626; 5648.473; 5611.704;  143.059
499.214; 6049.961; 5977.097;  153.434
499.801; 5914.763; 5898.863;  175.121
500.389; 4821.207; 4766.602;  185.617
500.976; 6187.769; 6136.526;  215.789
501.564; 5959.078; 5944.840;  240.321
502.151; 4260.322; 4163.698;  267.007
502.738; 5592.586; 5479.358;  317.961
503.326; 5715.750; 5638.856;  361.216
503.913; 5989.848; 6019.282;  401.433
504.500; 6173.325; 6033.949;  446.492
505.088; 5208.200; 5161.012;  512.063
505.675; 5710.683; 5645.826;  586.387
506.262; 5653.063; 5691.702;  671.021
506.849; 5812.472; 5799.219;  759.062
507.436; 6599.168; 6604.688;  849.788
508.023; 5770.826; 5724.595;  944.288
508.610; 6447.040; 6444.249; 1020.690
509.197; 6220.987; 6140.315; 1089.052
509.784; 5852.441; 5717.176; 1133.776
510.371; 4840.039; 4775.968; 1165.501
510.958; 5960.718; 5882.843; 1251.735
511.545; 6889.231; 6857.054; 1350.248
512.132; 5829.175; 5698.793; 1525.945
512.719; 5182.448; 5104.282; 1834.933
513.305; 5343.788; 5310.962; 1965.349
513.892; 6813.186; 6702.550; 1963.265
514.479; 5947.846; 5832.516; 2046.446
515.066; 6554.681; 6464.414; 2252.803
515.652; 5927.031; 5881.377; 2567.247
516.239; 6344.207; 6313.117; 2636.919
516.825; 4937.852; 4921.298; 2482.304
517.412; 7359.977; 7283.559; 2427.031
517.998; 5691.357; 5628.919; 2540.463
518.585; 5597.022; 5531.698; 2609.007
519.171; 5985.340; 5920.734; 2842.088
519.758; 5015.309; 4972.529; 3090.703
520.344; 6488.241; 6431.176; 3176.076
520.930; 5152.046; 5097.474; 3295.037
521.516; 6220.258; 6125.727; 3500.959
522.103; 6845.237; 6779.321; 3736.704
522.689; 5644.506; 5566.632; 3971.022
523.275; 6658.770; 6608.807; 4213.778
523.861; 5709.658; 5668.242; 4190.361
524.447; 6607.195; 6462.714; 4070.602
525.033; 6701.382; 6618.856; 4088.892
525.619; 5373.316; 5328.593; 4416.851
526.205; 5013.104; 5023.866; 4836.835
526.791; 5661.838; 5627.483; 4885.903
527.377; 5459.451; 5337.652; 4544.907
527.963; 6015.324; 5968.302; 4321.995
528.549; 6106.498; 6039.599; 4473.979
529.135; 5319.415; 5226.988; 4788.663
529.721; 5895.698; 5866.922; 4888.577
530.306; 8042.998; 7995.599; 4775.779
530.892; 5578.094; 5557.906; 4793.906
531.478; 5480.560; 5415.170; 4956.948
532.063; 5214.204; 5180.705; 5136.936
532.649; 7291.828; 7262.157; 5336.867
533.235; 5252.239; 5212.764; 5748.092
533.820; 6740.113; 6608.546; 6456.875
534.406; 5747.213; 5666.180; 6590.167
534.991; 5281.792; 5289.655; 6179.622
535.576; 5767.639; 5694.926; 6098.691
536.162; 8095.504; 7974.028; 6441.234
536.747; 4991.534; 4940.101; 6816.224
537.333; 5345.487; 5302.154; 6889.752
537.918; 5795.840; 5755.368; 7154.280
538.503; 5428.802; 5371.101; 7150.848
539.088; 6128.665; 6099.467; 7253.308
539.673; 5591.054; 5513.345; 7625.180
540.259; 5402.653; 5372.741; 8226.793
540.844; 4742.682; 4634.856; 8745.092
541.429; 7124.072; 7120.016; 8762.553
542.014; 4928.452; 4949.771; 8871.497
542.599; 6104.793; 6063.583; 8886.008
543.184; 5097.789; 5041.082; 9079.139
543.769; 5432.540; 5326.045; 9076.182
544.354; 5612.383; 5529.138; 8354.081
544.938; 6072.736; 5998.352; 8236.809
545.523; 7110.241; 7062.691; 8222.179
546.108; 5811.968; 5738.999; 8114.082
546.693; 5755.506; 5653.590; 8535.912
547.278; 5800.091; 5769.494; 9238.322
547.862; 5783.251; 5704.975; 9034.405
548.447; 6513.321; 6339.890; 7795.011
549.031; 5596.166; 5521.425; 7485.099
549.616; 6052.579; 5912.444; 7626.308
550.201; 5444.493; 5297.260; 7627.909
550.785; 6301.919; 6214.963; 7859.125
551.370; 5076.029; 4994.762; 7990.654
551.954; 6520.470; 6431.926; 8196.468
552.538; 6362.752; 6355.256; 7959.495
553.123; 5448.519; 5310.801; 7964.826
553.707; 5637.786; 5611.185; 8515.957
554.291; 6814.862; 6768.055; 8724.024
554.876; 6459.550; 6346.844; 8524.211
555.460; 5446.200; 5443.484; 8704.456
556.044; 5397.783; 5278.934; 9141.473
556.628; 5861.895; 5740.702; 9250.197
557.212; 6714.875; 6627.428; 9444.237
557.796; 5667.753; 5621.699; 9379.783
558.380; 6159.399; 6056.000; 9353.658
558.964; 5960.878; 5879.121; 9210.310
559.548; 5035.930; 4817.085; 8475.153
560.132; 5618.424; 5477.422; 7954.084
560.716; 5174.189; 5065.040; 7489.529
561.300; 5099.944; 4919.223; 7211.952
561.884; 6316.192; 6281.613; 7141.313
562.467; 6271.738; 6136.076; 7155.386
563.051; 5922.042; 5819.092; 7323.158
563.635; 5754.906; 5635.267; 7709.114
564.219; 5852.715; 5793.623; 7678.855
564.802; 6341.195; 6082.983; 7376.187
565.386; 6010.854; 5788.142; 7054.372
565.969; 6947.909; 6725.002; 6589.196
566.553; 7606.612; 7384.373; 6279.371
567.136; 6828.932; 6652.970; 5967.930
567.720; 6043.321; 5855.687; 5660.703
568.303; 6261.220; 6024.082; 5648.615
568.887; 6124.402; 5900.250; 5618.443
569.470; 6286.754; 6009.495; 5411.875
570.053; 6585.083; 6312.610; 5149.274
570.637; 5615.666; 5194.587; 5122.798
571.220; 6712.141; 6360.649; 4957.369
571.803; 7819.719; 7391.436; 4933.018
572.386; 6065.654; 5532.818; 4840.973
572.969; 6108.067; 5597.191; 4592.886
573.552; 6304.481; 5723.006; 4348.387
574.135; 5722.309; 5165.314; 4002.290
574.718; 5970.940; 5343.841; 3654.773
575.301; 6023.773; 5304.195; 3502.288
575.884; 6076.607; 5264.548; 3349.803
576.467; 7487.021; 6533.687; 3191.403
577.050; 7082.776; 5972.505; 3062.418
577.633; 8445.808; 7248.194; 3214.200
578.216; 6947.938; 5558.591; 3284.889
578.799; 7060.953; 5724.172; 3189.777
579.381; 8979.507; 7434.709; 3064.502
579.964; 6931.585; 5321.185; 2888.357
580.547; 7836.599; 5915.515; 2905.760
581.129; 9007.972; 6835.004; 2966.849
581.712; 8376.608; 6015.829; 2887.292
582.294; 8324.417; 5849.670; 2771.631
582.877;10243.465; 7448.779; 2711.602
583.459; 8759.357; 5788.865; 2577.049
584.042; 8970.320; 5660.878; 2454.707
584.624; 8788.236; 5359.783; 2305.893
585.206; 8132.215; 4502.581; 2189.546
585.789; 9178.768; 5443.987; 2112.577
586.371; 9917.598; 6153.545; 2153.065
586.953;10360.921; 6358.040; 2197.806
587.536;11083.638; 6688.591; 2105.489
588.118;10347.133; 5611.886; 1963.911
588.700;12080.967; 6837.664; 1843.179
589.282;11892.417; 6205.185; 1813.834
589.864;11916.504; 5914.974; 1777.620
590.446;11081.023; 4743.410; 1733.780
591.028;12690.834; 5847.532; 1676.008
591.610;12144.414; 4786.935; 1631.649
592.192;13757.998; 5910.192; 1632.362
592.774;12979.234; 5196.694; 1569.507
593.356;13300.215; 5367.054; 1524.539
593.937;13974.833; 5418.089; 1569.720
594.519;16063.886; 6522.980; 1569.049
595.101;14978.842; 4808.242; 1545.452
595.683;16160.883; 5511.083; 1607.568
596.264;17204.148; 5733.994; 1615.506
596.846;17336.990; 5498.674; 1667.622
597.427;17391.111; 5333.876; 1670.469
598.009;17636.762; 5250.839; 1640.312
598.591;18615.104; 6341.651; 1541.022
599.172;17835.711; 5532.522; 1598.665
599.753;18159.982; 4953.922; 1619.068
600.335;20602.676; 6869.655; 1548.612
600.916;20431.205; 5819.093; 1607.510
601.498;21282.381; 6126.318; 1745.181
602.079;21614.504; 5848.932; 1801.011
602.660;21959.686; 5679.777; 1834.640
603.241;21000.742; 4596.565; 1787.351
603.823;22501.797; 5401.384; 1684.266
604.404;22460.215; 5057.730; 1654.241
604.985;23506.285; 5519.615; 1758.741
605.566;24511.596; 6349.618; 1697.679
606.147;23880.873; 5562.404; 1526.728
606.728;23854.521; 4921.279; 1484.086
607.309;24324.996; 5387.576; 1421.070
607.890;25110.426; 5481.176; 1369.867
608.471;25976.045; 5259.773; 1277.826
609.051;27426.375; 5983.847; 1180.416
609.632;27250.902; 5226.962; 1075.816
610.213;28183.477; 5714.655; 1053.313
610.794;29368.629; 5559.546;  979.442
611.374;31318.418; 6096.424;  917.414
611.955;31007.422; 4899.117;  819.987
612.536;32344.002; 5966.681;  752.627
613.116;32729.191; 5384.559;  690.799
613.697;32120.467; 5447.814;  674.974
614.277;31668.371; 5180.669;  663.846
614.858;30807.264; 5392.605;  665.898
615.438;30570.162; 5736.678;  660.712
616.019;31640.559; 6710.619;  632.732
616.599;29823.012; 4412.995;  551.759
617.179;32972.824; 5059.368;  512.871
617.760;36579.641; 7737.757;  473.655
618.340;35391.363; 5604.474;  440.004
618.920;37566.414; 7001.850;  429.731
619.500;35966.566; 5482.418;  441.361
620.080;33978.020; 5209.867;  425.202
620.660;33116.109; 5209.864;  408.164
621.241;34112.711; 5514.510;  387.161
621.821;35483.645; 5837.731;  378.017
622.401;36758.293; 6505.840;  379.188
622.980;35652.746; 4903.247;  350.019
623.560;36238.328; 5521.576;  336.446
624.140;35450.039; 5821.860;  336.473
624.720;34285.211; 6055.745;  334.974
625.300;33330.688; 5219.824;  325.717
625.880;35165.859; 5700.224;  308.519
626.459;38667.188; 5793.662;  307.117
627.039;40808.891; 4713.355;  290.890
627.619;44407.527; 7367.857;  286.635
628.198;42594.313; 6704.042;  282.535
628.778;42083.809; 6234.745;  285.474
629.357;41544.418; 4963.705;  284.103
629.937;42273.707; 5496.937;  292.178
630.516;42761.383; 7021.999;  290.749
631.096;43053.879; 5324.702;  285.489
631.675;45368.328; 6730.623;  287.022
632.254;42953.641; 5277.350;  286.038
632.834;42758.270; 5700.538;  276.451
633.413;45089.254; 6763.369;  279.447
633.992;45234.316; 6435.574;  264.508
634.571;43883.359; 6147.181;  271.010
635.151;43025.613; 5098.396;  277.338
635.730;45260.160; 5649.313;  289.305
636.309;47785.348; 6052.012;  285.306
636.888;47189.254; 6123.561;  254.051
637.467;45012.285; 4719.208;  230.324
638.046;46969.453; 6942.045;  253.349
638.625;47653.297; 6572.564;  246.866
639.204;49962.070; 5929.069;  240.825
639.782;50352.281; 5700.617;  261.970
640.361;48150.328; 6735.752;  277.780
640.940;44275.473; 5352.780;  270.101
641.519;44191.520; 5966.808;  248.622
642.097;45818.164; 6194.836;  239.843
642.676;47739.211; 5832.864;  244.264
643.255;50430.258; 5595.892;  234.985
643.833;52814.102; 6154.920;  244.406
644.412;52837.246; 5457.948;  244.927
644.990;51851.594; 5847.976;  249.948
645.569;52177.238; 6105.004;  249.569
646.147;54789.887; 6392.032;  243.290
646.726;52408.633; 5870.060;  249.511
647.304;50558.777; 5517.087;  228.032
647.882;50993.824; 4664.116;  214.552
648.461;54614.270; 6009.144;  214.973
649.039;53515.414; 6236.171;  223.394
649.617;51747.262; 6235.199;  261.415
650.195;52281.207; 5901.228;  298.736
650.773;50031.652; 5462.255;  309.557
651.352;48011.098; 4637.283;  297.978
651.930;46630.145; 4530.311;  289.399
652.508;48794.691; 6380.339;  285.620
653.086;49181.238; 6049.367;  272.241
653.663;50870.281; 5267.395;  265.062
654.241;52097.129; 4997.423;  286.083
654.819;51712.977; 5031.451;  286.404
655.397;50910.820; 5128.479;  291.825
655.975;48722.168; 5523.507;  299.145
656.553;49524.313; 6916.535;  288.866
657.130;49104.359; 5139.563;  304.087
657.708;50780.004; 5972.591;  302.908
658.286;49703.551; 5910.619;  294.629
658.863;49391.395; 5878.646;  293.350
659.441;51848.941; 5966.674;  318.671
660.018;51242.387; 5632.703;  333.692
660.596;50706.934; 4648.730;  335.013
661.173;51049.379; 5367.758;  371.534
661.750;50180.125; 5153.786;  365.155
662.328;51074.871; 6199.814;  349.976
662.905;47706.918; 5476.842;  332.997
663.482;45594.363; 5638.870;  321.717
664.060;44760.309; 5282.898;  314.438
664.637;48058.156; 6099.926;  306.259
665.214;50706.602; 5914.954;  314.580
665.791;52058.648; 5540.982;  334.501
666.368;51560.992; 5450.010;  329.222
666.945;50831.039; 6258.038;  342.143
667.522;49097.887; 5207.066;  370.964
668.099;49400.430; 5656.094;  396.885
668.676;49566.477; 5755.122;  391.706
669.253;52804.125; 6928.150;  369.627
669.830;52692.270; 6704.178;  360.348
670.407;51422.113; 5608.206;  344.769
670.984;49747.461; 5627.233;  322.890
671.560;48686.809; 6122.262;  316.910
672.137;47386.453; 5431.290;  322.531
672.714;49175.699; 6147.317;  318.552
673.290;50856.543; 5911.345;  324.473
673.867;50072.789; 5382.373;  340.594
674.443;49947.238; 4994.401;  319.515
675.020;52547.383; 5856.429;  286.336
675.596;51180.727; 5504.457;  247.557
676.173;50081.176; 4908.485;  227.778
676.749;49804.719; 4358.513;  224.399
677.326;49837.668; 4788.541;  230.520
677.902;49653.613; 5177.569;  241.841
678.478;49222.859; 4895.597;  239.762
679.054;53610.105; 8495.625;  248.583
679.631;50878.449; 5984.653;  237.503
680.207;50616.195; 7131.681;  245.924
680.783;48022.141; 4427.708;  224.845
681.359;49614.488; 5552.737;  209.666
681.935;51633.832; 5738.765;  191.687
682.511;50523.980; 5741.792;  210.008
683.087;51537.727; 6086.820;  213.329
683.663;50600.570; 5578.849;  216.850
684.239;50058.117; 4983.876;  229.471
684.815;52676.262; 6294.904;  248.792
685.390;53782.309; 7397.932;  231.813
685.966;51452.355; 5788.960;  221.234
686.542;49299.902; 5068.988;  214.255
687.118;50477.246; 5877.016;  212.276
687.693;51506.492; 6123.044;  233.096
688.269;50400.539; 5556.072;  246.917
688.844;49444.684; 5960.100;  236.938
689.420;49362.633; 5760.128;  242.059
689.995;53455.578; 7042.156;  245.480
690.571;52667.621; 6693.184;  244.701
691.146;49810.270; 5413.212;  251.922
691.722;51339.113; 5927.240;  284.743
692.297;51290.859; 5385.268;  320.664
692.872;52554.508; 5270.295;  313.885
693.448;53815.551; 5038.324;  290.106
694.023;53191.898; 5790.352;  304.327
694.598;53058.246; 5913.379;  319.648
695.173;52629.590; 5416.407;  323.169
695.748;50924.938; 4608.436;  376.389
696.323;51038.582; 5602.463;  397.610
696.898;51804.527; 6660.491;  430.231
697.473;51200.473; 4730.519;  454.952
698.048;51337.418; 5527.547;  478.973
698.623;50776.664; 4907.575;  477.094
699.198;51403.613; 5760.603;  496.915
699.773;50105.859; 5265.631;  490.236
700.348;49374.805; 5032.659;  519.957
700.922;52754.250; 5803.687;  575.678
701.497;52205.797; 5715.715;  621.399
702.072;50706.043; 6345.743;  664.420
702.646;52216.887; 6220.771;  690.541
703.221;53051.734; 5851.799;  748.862
703.795;51196.980; 5075.827;  774.282
704.370;48755.023; 4195.854;  799.803
704.944;48860.871; 5350.882;  875.824
705.519;48994.219; 5917.911;  902.945
706.093;48061.563; 5115.938;  889.266
706.668;48788.910; 5977.966;  903.487
707.242;48634.953; 6229.994;  881.708
707.816;48030.602; 5421.022;  892.329
708.390;49480.945; 5573.050;  970.250
708.965;50347.793; 5894.078;  984.671
709.539;48391.539; 5479.106; 1026.092
710.113;47984.285; 5717.134; 1067.913
710.687;49095.730; 6340.162; 1166.434
711.261;48509.375; 5046.190; 1190.854
711.835;48756.121; 5113.218; 1197.275
712.409;49398.367; 4673.246; 1308.096
712.983;49676.016; 4698.274; 1461.617
713.557;49812.262; 4738.302; 1611.838
714.131;49922.105; 5513.330; 1554.359
714.704;49090.551; 5052.357; 1520.780
715.278;49430.098; 5778.386; 1575.101
715.852;49437.742; 6195.414; 1689.822
716.425;49407.090; 7173.441; 1829.143
716.999;46985.637; 4602.469; 2008.664
717.573;48874.582; 6068.498; 2000.485
718.146;50740.027; 6993.525; 1914.506
718.720;50737.672; 5863.553; 1818.026
719.293;50841.121; 6102.581; 1734.147
719.867;48160.766; 5211.609; 1716.968
720.440;48644.613; 6702.637; 1918.589
721.013;48050.559; 5248.665; 1975.410
721.587;50212.102; 4707.693; 2073.331
722.160;53582.949; 6337.721; 2357.852
722.733;52700.094; 5699.749; 2657.073
723.306;53255.641; 5693.777; 2703.894
723.880;52336.688; 5874.805; 2549.415
724.453;53005.832; 6623.833; 2414.336
725.026;52732.980; 5414.861; 2298.557
725.599;53072.125; 5851.889; 2168.778
726.172;51879.570; 6048.917; 2106.099
726.745;50129.117; 5995.944; 2253.320
727.318;49502.063; 6349.973; 2404.740
727.891;48090.707; 5952.000; 2680.161
728.463;48400.656; 5874.028; 2838.882
729.036;48113.102; 5191.056; 2755.103
729.609;48200.047; 5164.084; 2731.824
730.182;49157.691; 6269.112; 2855.645
730.754;47054.137; 4264.140; 2946.866
731.327;48743.984; 6087.168; 2840.187
731.900;48046.832; 4722.196; 2647.608
732.472;49603.375; 5610.224; 2473.929
733.045;51293.523; 5415.252; 2445.750
733.617;50913.969; 4658.280; 2511.771
734.190;52488.613; 6048.308; 2581.592
734.762;51222.961; 5625.336; 2710.813
735.334;50475.504; 5705.364; 3005.733
735.907;50532.652; 5650.392; 3154.954
736.479;52265.199; 6477.420; 3171.675
737.051;51728.945; 6076.448; 3217.496
737.623;53288.090; 6125.476; 3246.217
738.195;53322.934; 5227.503; 2985.238
738.768;53390.980; 4413.532; 2727.559
739.340;54808.926; 5395.560; 2666.880
739.912;54204.875; 6154.587; 2769.601
740.484;51793.418; 6041.615; 2731.422
741.056;50713.363; 5406.643; 2963.043
741.628;50283.609; 5061.671; 3361.364
742.199;53473.855; 6600.699; 3641.185
742.771;53932.902; 4871.727; 3932.005
743.343;55237.648; 5107.755; 4319.926
743.915;55132.496; 5911.783; 4706.647
744.487;53290.641; 6027.811; 4874.968
745.058;51253.488; 6190.839; 4616.589
745.630;50665.133; 6120.867; 4253.410
746.201;52098.879; 5360.895; 4056.131
746.773;54917.523; 5970.923; 3772.952
747.344;55395.672; 5546.951; 3642.473
747.916;53828.516; 5867.979; 3752.294
748.487;53061.961; 6215.007; 4106.215
749.059;51013.707; 4925.035; 4457.835
749.630;51448.453; 5210.063; 4366.457
750.201;52652.000; 5596.090; 4600.078
750.773;53365.047; 5191.119; 4658.499
751.344;53108.691; 5646.146; 4609.319
751.915;52533.438; 5615.174; 4526.440
752.486;52629.684; 5290.202; 4536.061
753.057;52776.730; 5833.230; 4383.282
753.628;51937.676; 5134.258; 4296.503
754.199;52787.523; 5388.286; 4383.224
754.770;53101.766; 6050.314; 4653.545
755.341;52878.215; 6390.342; 4831.666
755.912;51882.660; 5515.370; 4831.387
756.483;52727.004; 6044.398; 4735.808
757.054;51540.453; 5429.426; 4685.029
757.625;51268.098; 4914.454; 4994.250
758.195;51474.441; 4772.482; 5051.471
758.766;52593.789; 5796.510; 5317.792
759.337;51670.336; 4685.538; 5646.512
759.907;51802.980; 4799.565; 5404.133
760.478;52984.426; 5292.594; 5090.954
761.048;54961.371; 6093.622; 4871.175
761.619;53754.520; 5987.649; 4589.396
762.189;52367.965; 5679.677; 4171.317
762.760;53238.012; 6186.706; 3872.538
763.330;53585.258; 6171.733; 3832.259
763.900;51805.902; 5877.761; 4150.180
764.471;50029.848; 5146.789; 4529.801
765.041;51533.395; 6472.817; 4715.922
765.611;52741.539; 6018.845; 4681.442
766.181;52783.086; 5600.873; 4717.063
766.751;51633.230; 5715.901; 4710.285
767.321;51004.180; 4850.929; 4450.305
767.891;52786.824; 5769.957; 4274.126
768.461;53452.570; 5538.985; 4215.047
769.031;53168.016; 5584.013; 4173.068
769.601;53964.363; 6515.041; 4174.689
770.171;53781.109; 4741.069; 4229.310
770.741;54535.855; 5430.097; 4352.031
771.311;54202.699; 5953.125; 4336.652
771.880;52500.945; 5107.152; 4300.873
772.450;51988.391; 5123.181; 4387.194
773.020;53709.238; 4730.208; 4220.415
773.589;54458.785; 5262.236; 4075.835
774.159;53738.629; 5286.264; 4105.756
774.729;52851.773; 5167.292; 4114.978
775.298;52546.621; 5219.320; 3693.298
775.867;51851.469; 5182.348; 3343.119
776.437;51892.613; 5672.376; 3062.040
777.006;50692.660; 4710.404; 2927.161
777.576;52271.105; 6039.432; 3046.482
778.145;51943.352; 5923.460; 3230.203
778.714;50070.496; 5528.488; 3253.324
779.283;48915.645; 5999.516; 3129.745
779.853;48851.188; 5550.544; 2983.566
780.422;49610.234; 5521.572; 2929.887
780.991;50017.379; 5881.600; 2863.908
781.560;50516.227; 6633.627; 2948.029
782.129;49471.871; 5883.656; 3074.149
782.698;50120.020; 6520.684; 2893.970
783.267;47960.863; 5196.711; 2721.391
783.836;49038.109; 5872.739; 2659.712
784.404;48577.355; 4896.768; 2622.233
784.973;48225.402; 4159.795; 2600.754
785.542;49536.348; 5541.823; 2528.475
786.111;50484.793; 6351.851; 2404.396
786.679;49958.141; 6007.879; 2365.717
787.248;47755.188; 4763.907; 2498.438
787.817;47858.832; 5303.935; 2645.659
788.385;48612.977; 6374.963; 2709.280
788.954;47043.324; 4857.991; 2620.500
789.522;49129.070; 6116.019; 2625.422
790.090;48984.816; 4816.047; 2743.843
790.659;49091.660; 5358.075; 2635.163
791.227;48182.309; 5509.103; 2495.484
791.795;48996.152; 5819.131; 2413.705
792.364;47218.398; 5044.159; 2345.326
792.932;47279.645; 5996.187; 2350.447
793.500;46211.391; 5421.214; 2429.768
794.068;46116.039; 4762.243; 2513.589
794.636;47235.781; 5129.271; 2664.310
795.204;45416.527; 4580.298; 2721.431
795.772;43872.074; 5100.326; 2802.052
796.340;44382.621; 5282.354; 2847.173
796.908;45368.867; 4563.382; 2997.194
797.476;46399.414; 4974.410; 3151.615
798.044;45956.258; 4456.438; 3110.735
798.612;46900.004; 5530.466; 2931.656
799.180;46889.051; 5639.494; 2785.777
799.747;46169.898; 5565.522; 2899.098
800.315;44263.441; 4923.550; 2955.519
800.883;44343.590; 4500.578; 2948.940
801.450;46232.434; 5537.606; 2965.361
802.018;47266.879; 5867.634; 3070.582
802.585;45184.625; 5644.662; 3156.103
803.153;42606.672; 5139.690; 3199.524
803.720;42557.117; 5170.718; 3168.845
804.287;42920.563; 5380.746; 3248.366
804.855;43830.910; 6321.773; 3406.187
805.422;42738.656; 5458.802; 3430.907
805.989;42086.500; 5009.830; 3453.528
806.556;42710.047; 5021.857; 3612.649
807.124;45693.094; 6214.885; 3736.570
807.691;45010.641; 4934.913; 3770.491
808.258;45234.688; 5577.941; 3705.012
808.825;45342.031; 6156.969; 3828.733
809.392;44772.879; 6660.997; 3986.754
809.959;43706.625; 5870.025; 4410.075
810.526;44870.871; 6678.053; 4774.996
811.093;43992.117; 6331.081; 4754.217
811.659;43355.563; 5531.109; 4661.238
812.226;43597.906; 5491.137; 4672.559
812.793;43819.852; 5759.165; 4822.979
813.360;43894.500; 5529.193; 5189.800
813.926;43372.047; 5868.221; 5310.622
814.493;42436.492; 4764.249; 5414.542
815.060;42564.836; 4516.277; 5548.963
815.626;42004.582; 4878.305; 5452.284
816.193;42645.730; 5715.333; 5339.305
816.759;41223.574; 5068.360; 5544.426
817.325;39740.020; 4486.389; 5706.547
817.892;41997.465; 6140.417; 5623.468
818.458;42729.613; 5899.444; 5586.689
819.024;41956.957; 6416.472; 5647.910
819.591;40403.805; 5628.500; 5762.031
820.157;39295.852; 4825.528; 6284.452
820.723;40271.297; 5904.556; 6906.973
821.289;43058.941; 8526.584; 7086.894
821.855;40125.188; 6078.612; 7054.915
822.421;39168.832; 5236.640; 7112.035
822.987;39518.480; 4891.668; 7256.156
823.553;40308.625; 5402.696; 7538.077
824.119;39660.672; 6121.724; 7594.298
824.685;38500.520; 6437.752; 7613.619
825.251;37797.563; 6140.780; 7644.140
825.816;38618.508; 6810.808; 7720.261
826.382;38065.656; 6051.835; 8014.282
826.948;38319.500; 6131.864; 8281.503
827.513;37325.148; 5517.892; 8289.624
828.079;36721.293; 4962.919; 8587.045
828.645;37835.539; 5791.947; 8821.865
829.210;36229.387; 4944.976; 9054.486
829.776;36120.230; 5965.003; 9054.607
830.341;35133.078; 6112.031; 9415.628
830.906;34398.324; 6304.059; 9932.449
831.472;32787.570; 5191.087;10150.271
832.037;33503.516; 6249.115; 9420.391
832.602;31882.762; 5259.143; 8664.912
833.167;32180.207; 5773.171; 8491.933
833.733;32305.354; 6187.199; 8872.854
834.298;31317.498; 4952.227; 9370.575
834.863;32183.045; 5789.255; 9610.695
835.428;31046.990; 5814.283; 9655.616
835.993;30914.637; 5997.311; 9437.838
836.558;31277.582; 6102.339; 9441.459
837.123;32761.928; 7443.367; 9600.979
837.688;31140.773; 5851.395; 9798.301
838.253;30600.420; 5924.422; 9902.921
838.817;29346.666; 5479.451;10339.742
839.382;30045.012; 6624.479;10548.363
839.947;28620.658; 5688.506;10252.484
840.511;29427.404; 6782.534;10040.005
841.076;26821.750; 4509.563;10099.926
841.641;27640.295; 6094.590;10347.347
842.205;28146.941; 5963.618;10817.368
842.770;29091.688; 6893.646;11435.289
843.334;27464.434; 5488.674;12072.409
843.898;27121.180; 5343.702;12635.431
844.463;28580.826; 6616.730;12537.252
845.027;27170.771; 5346.758;12759.673
845.591;27573.117; 6343.786;12821.993
846.156;26617.664; 5323.814;12520.914
846.720;27280.910; 6234.842;12390.436
847.284;25713.955; 5813.870;12956.456
847.848;25039.900; 6032.897;13240.177
848.412;24316.547; 5724.926;13216.998
848.976;25294.492; 6794.954;13014.619
849.540;25583.238; 7300.981;12355.740
850.104;24877.584; 6636.009;12208.761
850.668;22819.432; 4616.038;12106.882
851.232;22604.676; 4750.065;11862.103
851.796;23775.523; 5667.093;11700.523
852.359;24391.469; 6274.121;12375.944
852.923;24376.914; 6409.149;13087.966
853.487;23595.660; 6105.177;13297.187
854.050;21119.105; 3908.205;13851.207
854.614;22321.553; 5469.233;14854.229
855.177;22864.299; 5886.261;15802.149
855.741;22454.844; 6060.289;16603.570
856.304;22182.291; 6370.317;16359.891
856.868;20636.736; 5105.345;14365.512
857.431;20591.883; 5712.373;13361.333
857.995;20290.428; 5462.401;14130.554
858.558;20888.674; 5915.429;14883.175
859.121;21380.920; 6254.457;15754.195
859.684;21024.566; 5904.484;15995.017
860.247;20765.111; 5695.513;15149.537
860.810;20434.658; 5400.541;14640.358
861.374;22587.104; 7459.568;15551.079
861.937;20283.850; 4998.596;16519.801
862.500;20488.695; 5339.625;16796.521
863.062;19955.941; 5105.652;16538.742
863.625;19867.986; 5921.680;16716.764
864.188;19037.633; 5397.708;17055.084
864.751;18529.080; 5356.736;17197.705
865.314;18415.225; 5761.764;17151.625
865.876;19249.471; 6364.792;17783.547
866.439;19149.518; 6196.820;19283.467
867.002;19829.264; 7174.848;20256.389
867.564;18827.010; 6441.876;20485.410
868.127;17986.254; 5718.904;20789.730
868.689;18369.801; 5961.932;21981.951
869.252;18560.447; 6425.960;23803.771
869.814;17098.193; 5230.988;24974.094
870.377;17623.238; 5923.016;24690.314
870.939;20090.385; 8317.044;23963.436
871.501;17564.631; 5897.071;25167.156
872.063;15770.876; 4221.100;26995.477
872.626;16100.922; 4647.127;27443.098
873.188;17098.969; 5921.155;26718.418
873.750;16519.514; 5674.183;26558.840
874.312;16507.461; 5388.211;26701.561
874.874;17822.506; 6898.239;27970.582
875.436;17194.652; 6221.267;29173.402
875.998;17423.299; 6734.295;30376.623
876.560;16647.443; 6397.323;32507.344
877.122;15257.790; 5260.351;34833.066
877.683;15761.436; 6151.379;36458.285
878.245;14784.781; 5376.407;37248.207
878.807;14974.128; 6031.435;36758.027
879.369;13667.474; 4942.463;35223.551
879.930;13848.720; 5136.491;33824.969
880.492;15426.665; 6573.519;34436.492
881.053;13793.012; 5102.547;37745.313
881.615;13824.457; 5391.575;41184.633
882.176;13802.903; 5567.603;42871.555
882.738;14482.549; 6274.630;41693.074
883.299;12648.396; 4460.659;40289.895
883.860;12358.441; 4709.687;39231.215
884.422;13481.587; 6181.714;38264.039
884.983;12331.033; 5033.742;37171.859
885.544;12861.779; 5855.770;35842.379
886.105;12657.225; 5720.798;34810.000
886.666;12021.671; 5336.826;34519.020
887.227;11072.217; 4744.854;33905.641
887.788;12107.563; 5936.882;34502.965
888.349;10955.408; 4873.910;34241.785
888.910;12109.654; 6124.938;33722.203
889.471;11497.000; 5846.966;32539.625
890.032;11111.347; 5702.994;31528.346
890.593;11416.092; 6083.022;32655.068
891.153;10795.038; 5645.050;33882.289
891.714; 9873.884; 4819.078;33318.711
892.275; 9801.530; 5036.105;31848.930
892.835;10817.276; 6330.134;30339.752
893.396;10508.222; 6260.162;30074.973
893.956; 9545.768; 5605.189;30338.393
894.517; 9723.014; 5858.217;30864.113
895.077; 9768.660; 5932.246;29766.734
895.638;10481.006; 6897.273;26379.557
896.198; 8338.552; 5026.301;24056.277
896.758; 9526.197; 6261.329;22961.898
897.319; 8701.144; 5611.357;21772.020
897.879; 8646.789; 5714.385;20877.539
898.439; 7557.235; 4747.413;19509.461
898.999; 8860.381; 6119.441;17297.582
899.559; 8699.927; 6037.469;14712.002
900.119; 7626.573; 5084.497;12790.224
900.679; 9212.119; 6747.525;11586.744
901.239; 8404.565; 6168.553;10776.465
901.799; 7913.511; 5786.581; 9691.687
902.359; 7235.957; 5185.609; 8725.907
902.919; 7035.803; 5054.637; 8305.728
903.479; 7055.149; 5046.665; 8172.649
904.038; 6755.595; 4968.692; 7913.870
904.598; 6076.241; 4259.721; 7262.291
905.158; 7091.586; 5435.749; 6609.012
905.717; 7280.833; 5623.776; 6236.133
906.277; 7297.479; 5717.804; 5829.054
906.836; 7628.524; 6056.833; 5396.674
907.396; 7497.771; 6052.860; 4964.195
907.955; 7517.716; 5980.888; 4528.917
908.515; 6870.962; 5444.916; 4223.837
909.074; 6936.908; 5481.944; 4023.958
909.633; 6918.054; 5518.972; 4065.379
910.192; 8275.300; 6941.000; 4066.300
910.752; 6796.700; 5503.000; 3971.600
911.311; 6706.500; 5417.000; 3839.600
911.870; 6482.000; 5136.000; 3684.500
912.429; 7706.800; 6432.000; 3635.600
912.988; 7535.400; 6289.000; 3689.800
913.547; 6319.500; 5102.000; 3737.700
914.106; 7007.400; 5755.000; 3740.300
914.665; 6946.900; 5731.000; 3604.600
915.224; 7538.100; 6407.000; 3358.700
915.782; 6541.300; 5305.000; 3188.400
916.341; 7774.700; 6542.000; 3091.400
916.900; 6547.500; 5490.000; 3044.800
917.458; 6298.100; 5238.000; 2888.600
918.017; 6887.700; 5768.000; 2818.900
918.576; 6570.300; 5455.000; 2838.600
919.134; 5882.600; 4788.000; 2880.100
919.693; 6551.800; 5332.000; 2996.300
920.251; 6455.100; 5290.000; 3183.100
920.809; 6097.900; 4913.000; 3247.000
921.368; 6416.600; 5358.000; 3156.600
921.926; 6199.800; 5063.000; 2964.900
922.484; 6788.800; 5701.000; 2846.300
923.042; 6585.000; 5468.000; 2890.400
923.601; 7755.400; 6575.000; 2987.700
924.159; 7143.800; 6004.000; 3049.800
924.717; 6202.600; 5018.000; 3087.000
925.275; 6861.200; 5673.000; 3093.400
925.833; 5701.400; 4503.000; 3182.400
926.391; 7155.300; 5982.000; 3397.900
926.949; 6505.000; 5315.000; 3575.400
927.506; 6953.100; 5692.000; 3713.400
928.064; 6607.000; 5391.000; 3871.300
928.622; 6745.300; 5544.000; 4092.800
929.180; 6069.900; 4740.000; 4499.300
929.737; 6002.700; 4678.000; 4813.200
930.295; 7267.500; 5971.000; 5084.100
930.853; 6403.300; 5176.000; 5185.000
931.410; 6156.400; 4811.000; 5313.100
931.968; 7380.800; 5977.000; 5339.600
932.525; 6926.500; 5604.000; 5399.900
933.082; 6078.800; 4724.000; 5457.500
933.640; 7193.100; 5779.000; 5692.900
934.197; 6762.400; 5288.000; 5821.200
934.754; 6832.200; 5389.000; 5617.900
935.312; 6484.700; 5035.000; 5512.400
935.869; 7970.900; 6473.000; 5582.400
936.426; 6538.500; 5084.000; 5650.100
936.983; 6745.300; 5351.000; 5657.400
937.540; 6224.300; 4795.000; 5564.300
938.097; 7258.700; 5766.000; 5574.000
938.654; 6724.400; 5205.000; 5665.900
939.211; 7294.700; 5747.000; 5931.600
939.768; 6985.600; 5454.000; 6153.600
940.324; 6818.400; 5260.000; 6397.600
940.881; 6553.800; 5026.000; 6454.200
941.438; 7923.900; 6321.000; 6206.900
941.995; 7662.600; 6088.000; 6003.900
942.551; 6410.700; 4826.000; 6228.300
943.108; 6961.700; 5493.000; 6603.500
943.664; 6378.000; 4808.000; 7188.100
944.221; 8487.600; 6963.000; 7579.900
944.777; 6348.900; 4769.000; 7658.100
945.334; 6462.900; 4926.000; 7670.400
945.890; 7043.000; 5499.000; 7525.100
946.446; 7078.800; 5661.000; 7261.500
947.003; 7278.100; 5720.000; 6949.200
947.559; 8172.900; 6597.000; 6773.100
948.115; 7750.600; 6184.000; 6668.400
948.671; 7181.600; 5716.000; 6488.400
949.227; 6146.300; 4637.000; 6236.600
949.783; 6039.100; 4555.000; 6008.900
950.339; 7272.700; 5763.000; 5934.100
950.895; 7677.600; 6155.000; 5933.500
951.451; 6745.700; 5281.000; 6074.700
952.007; 7423.400; 5873.000; 6066.400
952.563; 6727.900; 5328.000; 5884.100
953.118; 6505.800; 5100.000; 5733.800
953.674; 6908.400; 5522.000; 5734.300
954.230; 6961.100; 5449.000; 6039.700
954.785; 6903.400; 5377.000; 6383.500
955.341; 7458.300; 5957.000; 6568.200
955.897; 6004.100; 4541.000; 6488.600
956.452; 7138.200; 5608.000; 6239.200
957.008; 8501.500; 7065.000; 5954.600
957.563; 7707.000; 6359.000; 5816.700
958.118; 6417.300; 5037.000; 5828.200
958.674; 6999.400; 5597.000; 5717.400
959.229; 7816.700; 6411.000; 5506.800
959.784; 6099.800; 4679.000; 5292.200
960.339; 7756.300; 6396.000; 5101.900
960.894; 7338.000; 5933.000; 5093.200
961.449; 6337.900; 4985.000; 5227.900
962.004; 9811.000; 8506.000; 5349.300
962.559; 6424.000; 5074.000; 5514.900
963.114; 5275.800; 3947.000; 5717.300
963.669; 6846.300; 5523.000; 5841.400
964.224; 6574.200; 5243.000; 5805.900
964.779; 6140.400; 4846.000; 5723.400
965.334; 7730.200; 6456.000; 5779.500
965.888; 6478.700; 5158.000; 5948.500
966.443; 7477.500; 6152.000; 6344.200
966.998; 5887.700; 4528.000; 6666.300
967.552; 6749.600; 5558.000; 6710.100
968.107; 6398.100; 5157.000; 6593.500
968.661; 6929.700; 5652.000; 6344.100
969.216; 6318.100; 5033.000; 6062.400
969.770; 6946.800; 5711.000; 5785.500
970.324; 6969.000; 5736.000; 5426.800
970.879; 7265.000; 6085.000; 5016.800
971.433; 7341.600; 6137.000; 4904.500
971.987; 6797.200; 5551.000; 4991.000
972.541; 6979.400; 5804.000; 4978.500
973.095; 7851.800; 6695.000; 4832.000
973.649; 5904.600; 4743.000; 4767.900
974.203; 6084.000; 4999.000; 4881.200
974.757; 6327.700; 5146.000; 4969.500
975.311; 6539.000; 5507.000; 4953.000
975.865; 6606.000; 5512.000; 4884.300
976.419; 6380.900; 5308.000; 4739.800
976.973; 6297.700; 5164.000; 4698.100
977.526; 7311.800; 6270.000; 4631.100
978.080; 5837.200; 4752.000; 4621.600
978.634; 6987.600; 5983.000; 4650.200
979.187; 6828.800; 5837.000; 4669.200
979.741; 7973.000; 6893.000; 4658.000
980.294; 5793.100; 4800.000; 4579.100
980.848; 5151.900; 4141.000; 4452.800
981.401; 6175.400; 5098.000; 4271.900
981.955; 6485.000; 5559.000; 4087.800
982.508; 5509.200; 4589.000; 3973.900
983.061; 7156.800; 6233.000; 3928.600
983.615; 5952.900; 5011.000; 3851.200
984.168; 5707.100; 4774.000; 3734.800
984.721; 6806.300; 5824.000; 3628.300
985.274; 6657.100; 5695.000; 3564.300
985.827; 6358.700; 5545.000; 3558.100
986.380; 5291.700; 4362.000; 3559.900
986.933; 6628.600; 5820.000; 3688.700
987.486; 6670.500; 5769.000; 3778.500
988.039; 6605.700; 5766.000; 3559.900
988.591; 7004.300; 6199.000; 3219.300
989.144; 5482.200; 4702.000; 2902.900
989.697; 5777.300; 4951.000; 2722.600
990.250; 6758.000; 5977.000; 2618.000
990.802; 5749.800; 4954.000; 2523.900
991.355; 7991.500; 7290.000; 2436.500
991.907; 6928.750; 6210.000; 2412.200
992.460; 5866.000; 5130.000; 2387.900
993.012; 5852.600; 5177.000; 2365.800
993.565; 5487.700; 4838.000; 2311.100
994.117; 7792.000; 7118.000; 2308.700
994.669; 5475.200; 4789.000; 2249.300
995.221; 6396.700; 5730.000; 2158.100
995.774; 6273.000; 5661.000; 2085.600
996.326; 5846.400; 5310.000; 2068.100
996.878; 6899.200; 6288.000; 1975.300
997.430; 5534.700; 5001.000; 1929.500
997.982; 6076.700; 5514.000; 1861.900
998.534; 6018.700; 5395.000; 1830.200
999.086; 5958.000; 5486.000; 1823.200
999.638; 5204.900; 4617.000; 1815.000
1000.190; 5690.100; 5201.000; 1796.600
1000.741; 6085.200; 5618.000; 1738.800
1001.293; 5534.200; 4958.000; 1666.200
1001.845; 5523.900; 4936.000; 1566.500
1002.396; 6157.000; 5683.000; 1471.900
1002.948; 6077.500; 5585.000; 1398.000
1003.500; 5965.900; 5384.000; 1356.500
1004.051; 7884.800; 7408.000; 1294.200
1004.603; 6745.500; 6321.000; 1190.000
1005.154; 4985.800; 4622.000; 1063.900
1005.705; 6111.300; 5715.000;  968.300
1006.257; 5988.700; 5621.000;  889.800
1006.808; 5776.500; 5409.000;  801.500
1007.359; 6636.100; 6277.000;  716.400
1007.910; 5444.700; 5166.000;  639.100
1008.461; 6347.500; 6046.000;  561.600
1009.013; 4919.200; 4631.000;  500.400
1009.564; 6929.800; 6641.000;  476.100
1010.115; 4994.600; 4749.000;  431.600
1010.665; 5115.800; 4862.000;  409.300
1011.216; 5728.600; 5486.000;  399.700
1011.767; 5958.700; 5682.000;  388.100
1012.318; 6251.700; 5979.000;  381.400
1012.869; 5766.500; 5469.000;  375.400
1013.419; 5099.600; 4882.000;  357.600
1013.970; 5763.100; 5508.000;  358.300
1014.521; 5243.900; 4920.000;  344.100
1015.071; 5792.800; 5526.000;  322.800
1015.622; 5420.300; 5173.000;  320.600
1016.172; 5061.300; 4798.000;  301.700
1016.723; 5262.500; 4985.000;  289.800
1017.273; 5161.400; 4919.000;  287.600
1017.823; 5565.400; 5266.000;  278.700
1018.374; 5253.700; 5017.000;  274.400
1018.924; 6268.200; 6026.000;  283.200
1019.474; 6182.900; 5935.000;  278.500
1020.024; 5626.100; 5446.000;  274.700
1020.574; 6327.900; 6046.000;  272.700
1021.124; 5885.600; 5659.000;  278.400
1021.674; 4757.000; 4550.000;  269.200
1022.224; 6219.000; 6058.000;  267.800
1022.774; 5768.900; 5508.000;  258.100
1023.324; 6621.700; 6390.000;  260.000
1023.874; 7885.400; 7690.000;  260.700
1024.423; 5288.800; 5024.000;  252.700
1024.973; 5152.400; 4838.000;  234.700
1025.523; 5362.800; 5137.000;  226.500
1026.072; 5243.700; 5038.000;  225.500
1026.622; 5849.900; 5608.000;  210.100
1027.172; 6257.500; 6037.000;  213.000
1027.721; 5183.500; 4936.000;  207.700
1028.270; 5814.900; 5591.000;  205.400
1028.820; 5568.000; 5374.000;  201.000
1029.369; 5337.400; 5199.000;  201.000
1029.918; 5616.600; 5341.000;  198.400
1030.468; 4832.500; 4593.000;  199.200
1031.017; 5550.700; 5332.000;  192.600
1031.566; 5287.000; 5112.000;  197.400
1032.115; 6093.900; 5870.000;  188.300
1032.664; 5213.400; 4961.000;  193.700
1033.213; 6499.400; 6321.000;  191.900
1033.762; 5562.800; 5365.000;  184.500
1034.311; 5918.800; 5729.000;  194.300
1034.860; 6049.200; 5882.000;  192.300
1035.408; 6435.600; 6205.000;  182.600
1035.957; 6323.700; 6129.000;  173.900
1036.506; 4514.200; 4341.000;  185.200
1037.055; 7551.400; 7433.000;  182.500
1037.603; 5844.300; 5562.000;  167.600
1038.152; 4529.000; 4363.000;  168.200
1038.700; 5061.200; 4879.000;  169.600
1039.249; 5956.600; 5805.000;  164.300
1039.797; 5600.300; 5351.000;  169.600
1040.345; 6198.500; 6042.000;  167.100
1040.894; 5510.800; 5358.000;  164.400
1041.442; 5569.400; 5318.000;  158.300
1041.990; 4871.200; 4711.000;  160.000
1042.538; 4632.000; 4442.000;  156.800
1043.087; 4893.600; 4622.000;  146.600
1043.635; 5995.500; 5900.000;  162.400
1044.183; 5180.900; 4946.000;  156.300
1044.731; 5032.200; 4900.000;  158.100
1045.279; 5990.100; 5836.000;  154.500
1045.827; 8111.400; 7934.000;  146.200
1046.374; 4427.900; 4281.000;  154.000
1046.922; 5152.900; 5002.000;  149.000
1047.470; 6150.300; 5941.000;  154.900
1048.018; 5807.200; 5569.000;  148.400
1048.565; 6395.700; 6230.000;  146.300
1049.113; 4833.100; 4693.000;  156.100
1049.660; 5520.900; 5334.000;  154.300
1050.208; 6000.900; 5811.000;  149.400
1050.755; 5330.900; 5115.000;  157.500
1051.303; 6113.400; 5906.000;  157.700
1051.850; 5573.200; 5349.000;  152.800
1052.397; 4084.800; 3904.000;  146.300
1052.945; 5463.700; 5306.000;  149.500
1053.492; 6670.000; 6448.000;  149.300
1054.039; 6461.400; 6276.000;  163.100
1054.586; 4881.900; 4669.000;  150.400
1055.133; 6230.700; 6065.000;  153.500
1055.680; 5713.600; 5558.000;  155.600
1056.227; 4694.400; 4517.000;  148.700
1056.774; 7162.900; 7027.000;  151.500
1057.321; 4523.300; 4417.000;  143.700
1057.868; 5750.400; 5537.000;  145.300
1058.415; 5787.800; 5620.000;  153.500
1058.961; 6023.700; 5887.000;  149.900
1059.508; 5712.400; 5514.000;  147.300
1060.055; 5150.600; 4957.000;  151.000
1060.601; 5491.500; 5313.000;  148.700
1061.148; 5569.100; 5405.000;  153.800
1061.694; 5266.400; 5146.000;  150.500
1062.241; 5267.500; 5032.000;  149.100
1062.787; 5957.700; 5747.000;  153.000
1063.334; 7260.400; 7001.000;  153.200
1063.880; 6023.400; 5827.000;  148.400
1064.426; 6401.200; 6202.000;  149.200
1064.972; 5314.800; 5161.000;  156.400
1065.518; 4988.300; 4912.000;  144.700
1066.065; 5624.300; 5581.000;  139.400
1066.611; 5351.300; 5178.000;  139.300
1067.157; 5739.600; 5532.000;  138.400
1067.703; 6011.300; 5887.000;  142.700
1068.249; 5293.000; 5113.000;  136.700
1068.794; 5562.700; 5423.000;  139.400
1069.340; 5119.600; 5006.000;  142.700
1069.886; 5297.100; 5117.000;  135.600
1070.432; 4737.200; 4606.000;  133.400
1070.977; 5400.500; 5135.000;  138.200
1071.523; 4986.900; 4894.000;  132.400
1072.068; 5110.700; 4936.000;  132.700
1072.614; 4604.900; 4503.000;  127.000
1073.160; 6240.000; 6090.000;  131.300
1073.705; 5125.500; 5030.000;  135.700
1074.250; 4975.900; 4904.000;  133.000
1074.796; 5920.900; 5771.000;  138.000
1075.341; 5922.500; 5822.000;  137.300
1075.886; 5233.400; 4986.000;  134.300
1076.431; 5912.000; 5812.000;  138.200
1076.976; 5790.300; 5633.000;  132.200
1077.521; 5163.000; 5046.000;  138.900
1078.067; 5162.400; 5050.000;  128.600
1078.612; 6041.200; 5886.000;  138.900
1079.156; 5399.200; 5189.000;  128.900
1079.701; 6276.700; 6155.000;  129.700
1080.246; 6300.800; 6178.000;  128.600
1080.791; 5690.400; 5562.000;  122.600
1081.336; 5909.400; 5852.000;  122.000
1081.880; 5856.200; 5717.000;  123.900
1082.425; 5096.200; 4948.000;  120.600
1082.970; 6540.600; 6384.000;  124.500
1083.514; 5348.900; 5162.000;  112.000
1084.059; 5219.400; 5063.000;  120.700
1084.603; 5076.100; 4893.000;  116.000
1085.147; 5850.200; 5713.000;  116.300
1085.692; 6535.700; 6383.000;  108.200
1086.236; 4504.100; 4346.000;  114.600
1086.780; 6867.600; 6644.000;  118.900
1087.325; 5885.300; 5849.000;  120.400
1087.869; 5565.000; 5459.000;  110.500
1088.413; 6377.200; 6238.000;  114.000
1088.957; 4793.300; 4614.000;  114.300
1089.501; 7045.300; 6857.000;  114.600
1090.045; 6649.300; 6559.000;  114.200
1090.589; 5089.800; 4966.000;  105.500
1091.133; 6082.100; 5902.000;  111.800
1091.676; 5262.200; 5140.000;  110.900
1092.220; 5429.900; 5377.000;  110.100
1092.764; 6444.900; 6290.000;  108.100
1093.307; 6090.000; 5998.000;  109.900
1093.851; 4985.100; 4870.000;  107.500
1094.395; 6241.700; 6119.000;   96.200
1094.938; 5731.900; 5617.000;   99.300
1095.482; 5012.600; 4918.000;   97.700
1096.025; 6443.100; 6310.000;   84.900
1096.568; 7035.800; 6932.000;   88.500
1097.112; 4480.000; 4354.000;   95.700
1097.655; 5377.200; 5181.000;   97.300
1098.198; 5401.300; 5278.000;   92.600
1098.741; 5603.300; 5520.000;   91.800
1099.285; 5962.300; 5763.000;   88.000
1099.828; 3917.000; 3796.000;   91.700
1100.371; 5561.500; 5383.000;   89.900
1100.914; 6265.900; 6094.000;   91.500
1101.457; 6170.800; 6083.000;   88.100
1101.999; 5198.600; 5084.000;   86.400
1102.542; 5796.000; 5645.000;   90.800
1103.085; 6013.700; 5802.000;   95.400
1103.628; 7011.200; 6918.000;   97.700
1104.170; 5294.400; 5102.000;   84.000
1104.713; 5870.500; 5745.000;   93.900
1105.256; 4988.300; 4875.000;   93.000
1105.798; 4522.700; 4434.000;   85.600
1106.341; 6676.300; 6532.000;   87.100
1106.883; 4693.000; 4570.000;   85.200
1107.425; 6114.600; 6045.000;   85.000
1107.968; 5648.700; 5472.000;   84.300
1108.510; 6218.000; 6108.000;   88.200
1109.052; 5638.300; 5533.000;   86.600
1109.594; 5081.800; 4946.000;   79.400
1110.136; 5877.000; 5831.000;   81.700
1110.679; 5740.000; 5623.000;   75.500
1111.221; 5536.600; 5411.000;   88.500
1111.763; 5044.600; 4911.000;   87.700
1112.304; 4955.900; 4854.000;   89.700
1112.846; 6096.700; 5956.000;   81.900
1113.388; 8882.700; 8762.000;   86.400
1113.930; 6370.200; 6282.000;   84.700
1114.472; 5533.600; 5366.000;   78.900
1115.013; 4996.400; 4872.000;   78.100
1115.555; 5398.300; 5271.000;   84.900
1116.097; 5232.300; 5162.000;   79.200
1116.638; 6297.700; 6142.000;   83.700
1117.180; 6062.000; 5892.000;   85.500
1117.721; 5203.000; 5089.000;   78.800
1118.262; 6206.100; 6168.000;   77.400
1118.804; 5809.600; 5668.000;   81.400
1119.345; 5296.000; 5154.000;   77.800
1119.886; 6484.500; 6365.000;   81.200
1120.427; 5383.500; 5263.000;   77.200
1120.969; 5489.600; 5361.000;   75.200
1121.510; 5149.600; 5095.000;   80.900
1122.051; 6663.300; 6478.000;   77.300
1122.592; 6053.600; 5955.000;   73.300
1123.133; 4977.100; 4880.000;   90.100
1123.673; 6540.300; 6445.000;   75.000
1124.214; 5622.000; 5548.000;   80.600
1124.755; 5940.000; 5830.000;   78.000
1125.296; 5722.200; 5628.000;   77.500
1125.836; 6353.400; 6237.000;   80.400
1126.377; 5492.600; 5435.000;   75.600
1126.918; 5666.000; 5571.000;   78.900
1127.458; 5742.200; 5616.000;   78.000
1127.999; 6057.800; 5905.000;   76.100
1128.539; 6409.600; 6283.000;   81.400
1129.079; 5882.000; 5794.000;   77.400
1129.620; 5083.800; 5066.000;   68.000
1130.160; 4939.700; 4819.000;   77.500
1130.700; 5868.100; 5809.000;   76.300
1131.240; 5937.500; 5810.000;   66.800
1131.781; 5751.500; 5572.000;   70.600
1132.321; 5548.200; 5434.000;   77.200
1132.861; 5131.100; 4954.000;   70.400
1133.401; 5485.800; 5415.000;   68.700
1133.941; 5772.100; 5752.000;   68.500
1134.481; 5569.700; 5399.000;   75.900
1135.020; 5589.200; 5478.000;   66.600
1135.560; 6186.300; 6106.000;   68.100
1136.100; 4551.900; 4466.000;   64.900
1136.640; 4697.200; 4595.000;   72.500
1137.179; 4878.400; 4772.000;   69.700
1137.719; 5592.300; 5456.000;   68.400
1138.258; 5422.500; 5364.000;   67.000
1138.798; 6108.300; 5978.000;   69.600
1139.337; 4402.100; 4292.000;   64.000
1139.877; 5889.700; 5855.000;   64.500
1140.416; 8145.900; 8129.000;   74.900
1140.955; 4872.100; 4763.000;   67.200
1141.494; 6259.300; 6114.000;   69.900
1142.034; 5380.600; 5349.000;   59.100
1142.573; 5960.200; 5846.000;   65.900
1143.112; 5094.800; 4973.000;   70.600
1143.651; 4917.300; 4810.000;   67.100
1144.190; 6427.000; 6414.000;   56.700
1144.729; 5601.500; 5553.000;   61.800
1145.267; 5377.600; 5202.000;   62.500
1145.806; 5894.200; 5715.000;   68.500
1146.345; 5926.300; 5888.000;   58.300
1146.884; 5816.300; 5660.000;   63.100
1147.422; 4869.700; 4811.000;   54.800
1147.961; 6613.100; 6432.000;   67.600
1148.500; 6166.300; 6104.000;   64.700
1149.038; 5890.600; 5811.000;   61.000
1149.577; 6526.500; 6411.000;   65.100
1150.115; 4111.000; 3998.000;   58.100
1150.653; 5621.800; 5591.000;   60.500
1151.192; 5111.100; 5061.000;   56.600
1151.730; 6081.700; 5962.000;   62.300
1152.268; 5419.700; 5302.000;   55.500
1152.806; 5310.300; 5130.000;   58.200
1153.344; 5306.300; 5204.000;   55.000
1153.882; 5500.800; 5389.000;   64.200
1154.421; 4260.400; 4188.000;   60.300
1154.958; 5569.000; 5482.000;   58.100
1155.496; 5995.800; 5874.000;   55.800
1156.034; 6746.900; 6597.000;   61.000
1156.572; 6187.400; 6053.000;   56.200
1157.110; 4332.800; 4289.000;   53.200
1157.647; 6286.700; 6224.000;   57.400
1158.185; 5260.300; 5144.000;   55.500
1158.723; 4675.200; 4643.000;   58.000
1159.260; 6509.400; 6461.000;   53.700
1159.798; 6135.100; 6045.000;   51.700
1160.335; 5877.900; 5797.000;   59.600

