
Integration time [ms]:   3.276
Averaging Nr. [scans]: 1000
Smoothing Nr. [pixels]: 0
Data measured with spectrometer [name]: 7414430SP
Wave   ;Sample   ;Dark     ;Reference
[nm]   ;[counts] ;[counts] ;[counts] 

288.544;  151.122;    7.793;  793.890
289.143;  154.541;    7.462;  681.602
289.742;  154.614;    8.602;  828.814
290.341;  140.242;    1.321;  789.841
290.940;  129.202;   -0.709;  730.702
291.538;  130.934;    0.881;  881.108
292.137;  130.872;    0.122;  792.581
292.736;  134.610;   -1.929;  975.101
293.335;  132.209;   -8.229;  735.086
293.934;  131.260;   -5.279;  781.677
294.532;  130.153;   -1.369; 1031.958
295.131;  116.710;   -7.641;  834.394
295.730;  117.194;   -8.420;  809.588
296.328;  115.439;   -5.611;  783.442
296.927;  115.368;   -5.781;  779.652
297.525;  117.637;   -6.361;  781.236
298.124;  107.355;  -11.382;  654.009
298.722;  110.778;   -7.641;  761.933
299.321;  109.054;   -6.811;  708.597
299.919;  107.631;   -6.991;  751.918
300.518;  103.901;  -10.362;  689.338
301.116;  105.625;   -9.581;  691.381
301.715;  106.123;   -4.891;  730.222
302.313;  104.863;   -8.801;  704.943
302.911;  100.160;   -8.522;  733.830
303.509;  104.991;   -6.171;  925.627
304.108;  102.765;   -7.311;  760.383
304.706;  102.355;   -8.321;  801.664
305.304;   96.587;  -10.222;  796.707
305.902;  101.668;   -6.021;  784.484
306.500;   97.379;   -4.971;  728.200
307.098;   96.299;   -7.061;  746.560
307.696;   94.529;   -8.801;  780.432
308.294;   95.331;   -6.411;  731.359
308.892;   96.410;   -2.901;  759.769
309.490;   92.427;   -5.041;  712.161
310.088;   91.769;   -5.002;  788.444
310.686;   95.296;   -2.041;  821.749
311.284;   90.735;   -2.351;  766.040
311.882;   88.865;   -4.422;  731.225
312.480;   85.721;   -4.192;  697.167
313.078;   87.113;   -1.172;  808.331
313.675;   87.573;   -2.601;  691.600
314.273;   82.820;   -1.312;  797.837
314.871;   82.366;   -3.942;  589.829
315.468;   80.786;   -2.802;  652.090
316.066;   83.689;   -0.701;  694.427
316.664;   75.534;   -4.362;  656.351
317.261;   79.840;   -2.872;  910.128
317.859;   74.739;   -2.022;  768.735
318.456;   76.090;   -0.531;  830.096
319.054;   71.920;   -3.912;  787.828
319.651;   70.894;   -4.752;  759.928
320.249;   69.046;   -2.602;  810.188
320.846;   67.050;   -0.821;  714.286
321.443;   65.287;   -4.642;  832.135
322.041;   62.940;   -5.002;  812.315
322.638;   59.122;   -3.982;  701.456
323.235;   60.542;   -3.411;  665.683
323.833;   57.940;   -7.361;  740.354
324.430;   54.001;   -8.611;  615.900
325.027;   53.638;   -4.061;  876.855
325.624;   53.699;   -4.031;  644.532
326.221;   51.202;   -7.481;  689.717
326.818;   50.252;   -5.281;  818.332
327.415;   54.257;   -7.460;  748.828
328.012;   53.484;   -5.510;  690.585
328.609;   51.387;   -7.880;  731.389
329.206;   50.505;   -8.331;  778.621
329.803;   49.683;   -5.121;  737.841
330.400;   53.018;   -4.510;  704.260
330.997;   55.344;   -6.441;  817.147
331.594;   53.144;   -8.831;  788.185
332.191;   57.292;   -7.621;  728.722
332.787;   60.879;   -4.591;  844.463
333.384;   60.033;   -7.412;  763.093
333.981;   58.578;   -8.293;  815.687
334.578;   60.373;   -7.052;  708.378
335.174;   63.740;   -3.102;  731.469
335.771;   63.835;   -5.943;  836.456
336.367;   61.374;   -7.393;  710.631
336.964;   63.921;   -4.063;  793.266
337.561;   61.793;   -3.813;  731.112
338.157;   57.482;   -4.654;  911.916
338.754;   55.119;   -7.934;  796.589
339.350;   52.218;   -4.414;  722.493
339.946;   54.726;   -4.664;  773.135
340.543;   47.814;   -6.375;  846.136
341.139;   42.375;   -9.815;  720.836
341.735;   39.459;   -4.526;  772.593
342.332;   37.931;   -4.895;  691.472
342.928;   38.412;   -4.295;  795.394
343.524;   32.700;   -5.476;  761.684
344.120;   29.320;   -5.856;  738.562
344.716;   32.463;   -2.155;  723.717
345.313;   29.972;   -6.275;  795.342
345.909;   24.890;   -8.815;  627.336
346.505;   26.353;   -5.305;  740.247
347.101;   26.719;   -2.674;  827.864
347.697;   27.498;   -4.344;  785.398
348.293;   22.406;   -9.975;  627.244
348.889;   23.043;   -5.774;  745.914
349.485;   22.321;   -5.004;  688.205
350.081;   22.471;   -4.704;  772.592
350.676;   17.872;   -6.635;  691.606
351.272;   22.053;   -4.504;  809.530
351.868;   21.646;   -3.914;  780.497
352.464;   19.405;   -9.044;  723.932
353.059;   15.718;   -8.314;  646.017
353.655;   18.765;   -7.024;  777.063
354.251;   20.551;   -5.343;  759.845
354.846;   15.053;   -8.604;  740.646
355.442;   12.067;   -6.945;  753.071
356.038;   13.759;   -7.564;  751.708
356.633;   14.506;   -5.814;  728.594
357.229;   12.473;   -7.364;  724.757
357.824;   10.573;   -8.024;  703.600
358.420;    9.256;   -9.384;  679.726
359.015;   10.147;   -5.104;  695.357
359.610;   11.682;   -6.854;  763.920
360.206;    5.203;  -10.185;  603.240
360.801;    7.875;   -7.054;  646.503
361.396;   10.083;   -5.034;  725.975
361.992;    5.546;   -8.284;  668.220
362.587;    2.893;   -8.625;  670.160
363.182;    3.957;   -7.674;  689.631
363.777;    5.248;   -5.164;  738.242
364.372;    5.293;   -8.604;  737.314
364.967;    1.410;   -9.055;  680.744
365.563;    5.233;   -6.114;  815.567
366.158;    2.674;   -5.814;  685.161
366.753;    3.345;   -7.854;  649.263
367.348;    1.112;   -7.804;  746.056
367.942;    1.649;   -7.954;  697.298
368.537;   -0.179;   -4.984;  754.245
369.132;    0.693;   -8.564;  703.428
369.727;   -3.471;   -8.855;  638.079
370.322;   -1.983;   -6.245;  580.186
370.917;   -3.329;   -6.425;  710.646
371.511;    1.100;   -6.294;  861.834
372.106;   -2.778;   -7.685;  776.964
372.701;   -6.720;   -7.335;  585.988
373.296;   -0.393;   -4.564;  863.135
373.890;   -5.267;  -10.235;  647.840
374.485;   -7.722;   -7.885;  691.199
375.079;   -3.797;   -7.324;  738.685
375.674;   -2.512;   -3.494;  812.970
376.268;   -6.825;   -8.525;  691.759
376.863;  -12.413;  -10.086;  580.327
377.457;   -6.026;   -7.025;  662.490
378.052;   -8.061;   -3.585;  764.884
378.646;   -8.825;   -7.595;  741.167
379.240;   -8.939;   -8.335;  721.176
379.835;   -8.279;   -5.785;  636.978
380.429;  -10.519;   -4.335;  562.557
381.023;  -10.667;   -6.805;  779.205
381.617;  -12.402;   -9.195;  680.106
382.212;   -9.382;   -6.905;  685.303
382.806;   -8.586;   -3.745;  760.690
383.400;  -12.657;   -7.745;  672.281
383.994;  -13.723;   -9.765;  664.870
384.588;  -10.358;   -6.564;  697.701
385.182;   -8.535;   -5.344;  726.624
385.776;  -10.745;   -8.514;  706.875
386.370;  -13.241;   -9.555;  681.968
386.964;  -12.538;   -8.715;  684.155
387.558;  -10.713;   -6.174;  598.360
388.152;  -13.676;   -8.725;  681.959
388.745;  -12.165;   -7.965;  814.707
389.339;  -10.424;   -5.924;  747.642
389.933;   -9.365;   -5.524;  695.370
390.527;  -10.388;   -7.114;  859.029
391.120;  -16.716;  -10.725;  595.318
391.714;  -13.284;   -8.035;  711.633
392.308;  -10.408;   -3.574;  780.253
392.901;  -14.499;   -7.245;  642.460
393.495;  -16.058;   -9.285;  595.414
394.089;  -13.711;   -5.895;  760.452
394.682;  -15.121;   -4.295;  697.188
395.275;  -15.409;   -9.875;  719.927
395.869;  -16.806;   -8.485;  667.314
396.462;  -15.295;   -7.455;  616.609
397.056;  -10.470;   -5.424;  776.621
397.649;  -16.145;   -6.605;  731.575
398.242;  -12.858;   -8.224;  712.645
398.836;  -12.203;   -7.474;  766.408
399.429;  -12.943;   -7.094;  631.041
400.022;  -17.483;   -9.475;  665.902
400.615;  -14.441;   -7.145;  805.609
401.208;  -12.536;   -7.174;  691.451
401.802;  -14.937;   -5.515;  699.329
402.395;  -16.051;   -9.875;  683.502
402.988;  -16.887;   -8.845;  696.627
403.581;  -13.847;   -8.874;  646.878
404.174;  -11.460;   -5.324;  686.568
404.767;  -14.375;   -9.575;  638.583
405.360;  -16.790;  -10.965;  621.445
405.953;  -12.385;   -8.764;  759.034
406.545;  -10.812;   -7.514;  725.342
407.138;  -15.331;  -10.025;  618.350
407.731;  -13.363;  -10.034;  613.303
408.324;  -10.024;   -9.374;  660.554
408.917;  -11.098;   -6.534;  681.864
409.509;  -12.261;   -8.004;  740.396
410.102;  -14.783;   -9.875;  643.948
410.695;   -8.884;   -8.604;  665.758
411.287;   -9.295;   -6.794;  599.821
411.880;  -10.895;   -9.334;  585.421
412.472;  -14.641;  -10.254;  613.092
413.065;  -11.634;   -6.714;  629.408
413.657;   -9.104;   -7.234;  576.678
414.250;   -8.227;  -10.544;  646.681
414.842;  -10.914;   -9.744;  676.353
415.434;   -9.059;   -6.994;  570.463
416.027;   -4.969;   -5.893;  652.196
416.619;   -6.358;   -7.264;  713.400
417.211;   -6.754;  -10.374;  599.352
417.804;   -3.978;   -7.993;  628.499
418.396;   -7.844;   -7.234;  607.643
418.988;   -5.438;   -9.443;  659.238
419.580;   -8.847;  -10.724;  568.276
420.172;   -6.048;  -10.323;  536.196
420.764;   -1.713;   -8.793;  672.482
421.356;   -3.437;  -11.143;  636.898
421.948;   -3.981;   -8.293;  677.661
422.540;    0.461;   -7.893;  680.027
423.132;   -0.135;   -7.082;  600.641
423.724;   -3.027;   -8.653;  561.267
424.316;   -1.460;  -10.213;  621.345
424.908;    1.746;   -9.762;  591.517
425.500;    3.100;   -5.572;  647.978
426.092;    3.084;   -8.422;  648.268
426.683;    1.999;   -9.283;  684.836
427.275;    4.853;   -7.852;  641.471
427.867;    6.419;   -5.272;  668.948
428.458;    6.859;   -7.682;  732.344
429.050;    5.625;  -10.612;  680.749
429.642;    7.607;   -9.882;  743.124
430.233;    8.880;   -6.962;  569.356
430.825;    9.547;   -6.842;  724.809
431.416;    6.785;   -9.672;  698.241
432.008;   10.721;   -6.552;  651.723
432.599;   11.770;   -6.891;  656.073
433.190;    8.003;  -10.912;  637.670
433.782;    7.209;  -11.172;  590.395
434.373;   14.888;   -6.061;  884.765
434.964;   13.512;   -8.251;  602.920
435.556;   10.138;   -9.722;  634.537
436.147;   14.336;   -9.082;  758.490
436.738;   14.328;   -8.041;  701.099
437.329;   19.742;   -7.341;  721.723
437.920;   12.307;   -8.162;  666.688
438.511;   11.960;  -11.802;  564.526
439.103;   18.692;  -10.191;  623.998
439.694;   20.293;   -7.601;  681.583
440.285;   20.977;   -8.541;  764.432
440.876;   19.589;   -9.751;  845.738
441.466;   18.096;   -9.401;  575.162
442.057;   24.700;   -7.760;  665.814
442.648;   22.479;   -9.971;  746.255
443.239;   21.210;  -11.001;  620.477
443.830;   26.025;   -7.990;  704.958
444.421;   28.210;   -7.910;  655.474
445.011;   24.778;   -8.131;  693.619
445.602;   24.064;   -7.111;  743.126
446.193;   25.804;  -10.920;  488.117
446.783;   30.580;   -6.500;  640.397
447.374;   25.916;   -8.671;  692.759
447.964;   27.075;  -10.781;  713.770
448.555;   34.838;   -9.650;  822.742
449.145;   31.467;   -8.660;  662.853
449.736;   31.908;   -8.990;  803.179
450.326;   32.202;   -9.500;  713.626
450.917;   37.243;   -8.680;  675.324
451.507;   35.723;   -7.520;  600.661
452.097;   36.741;   -8.590;  746.267
452.688;   37.892;  -11.340;  742.160
453.278;   37.788;  -10.100;  566.840
453.868;   42.225;   -6.019;  793.550
454.458;   40.791;   -9.440;  651.141
455.048;   40.487;  -10.560;  711.783
455.639;   41.549;  -11.799;  567.096
456.229;   44.943;   -6.899;  710.694
456.819;   47.205;   -7.389;  751.158
457.409;   48.183;  -11.119;  773.993
457.999;   50.939;   -9.289;  737.505
458.589;   50.979;   -6.139;  686.606
459.179;   49.934;   -8.729;  717.658
459.769;   48.453;   -9.789;  627.099
460.358;   52.471;  -10.259;  797.262
460.948;   52.532;   -7.299;  689.503
461.538;   54.673;  -10.289;  660.677
462.128;   53.232;  -11.269;  664.934
462.717;   59.377;   -9.368;  710.326
463.307;   61.654;   -7.908;  705.846
463.897;   57.824;   -9.599;  656.942
464.486;   56.838;   -9.769;  837.128
465.076;   61.784;   -8.048;  733.776
465.666;   66.199;   -9.358;  652.900
466.255;   62.254;   -7.919;  785.651
466.845;   61.807;  -11.689;  666.749
467.434;   64.440;   -7.818;  725.873
468.023;   66.536;   -7.678;  658.357
468.613;   64.093;  -10.939;  713.946
469.202;   67.966;  -10.118;  646.507
469.791;   72.180;   -9.108;  737.811
470.381;   73.815;   -6.058;  742.813
470.970;   73.255;  -10.428;  711.099
471.559;   73.727;  -10.268;  733.291
472.148;   77.353;   -8.448;  675.737
472.738;   79.156;   -6.917;  765.466
473.327;   79.313;  -11.978;  637.529
473.916;   78.238;  -11.888;  737.446
474.505;   82.220;   -9.437;  751.703
475.094;   86.102;   -6.747;  806.570
475.683;   84.419;   -9.367;  797.699
476.272;   85.810;  -12.637;  730.632
476.861;   88.537;  -10.027;  706.754
477.449;   95.419;   -8.716;  728.487
478.038;   89.365;   -9.577;  692.513
478.627;   90.366;   -9.718;  714.852
479.216;   97.955;   -8.947;  769.441
479.805;   99.802;   -6.256;  783.375
480.393;   99.895;   -7.937; 1008.945
480.982;   98.923;   -7.717;  874.501
481.571;  104.639;   -9.266;  858.333
482.159;  105.290;   -7.636;  705.386
482.748;  104.989;   -9.667;  821.385
483.336;  109.846;  -10.376;  858.209
483.925;  110.621;   -7.147;  774.373
484.513;  117.035;   -7.996;  758.962
485.102;  113.536;  -10.027;  810.965
485.690;  122.775;  -10.446; 1011.050
486.278;  124.717;   -8.446;  979.329
486.867;  124.842;   -6.356;  809.662
487.455;  127.224;   -9.136;  898.229
488.043;  128.125;  -10.646;  748.361
488.631;  136.939;   -7.456; 1005.079
489.220;  140.340;   -6.636;  908.626
489.808;  141.092;  -11.036;  741.415
490.396;  148.269;  -10.246;  914.645
490.984;  154.787;   -8.556;  830.161
491.572;  165.104;   -5.886;  940.315
492.160;  170.114;   -9.486;  919.081
492.748;  182.870;  -10.976;  884.341
493.336;  205.375;   -8.776; 1019.693
493.924;  231.367;   -5.465;  958.077
494.512;  259.376;   -9.986; 1066.638
495.100;  295.160;  -10.636; 1103.280
495.687;  347.328;  -10.885; 1206.373
496.275;  407.930;   -8.126; 1150.796
496.863;  473.889;  -10.586; 1281.171
497.451;  568.130;  -11.926; 1386.805
498.038;  698.807;  -10.885; 1556.729
498.626;  802.696;   -6.315; 1741.407
499.214;  951.627;   -7.326; 2016.609
499.801; 1129.962;  -11.906; 2220.633
500.389; 1362.357;  -10.466; 2312.494
500.976; 1656.137;   -5.236; 2744.849
501.564; 2067.442;   -8.936; 3148.565
502.151; 2412.891;  -13.176; 3515.999
502.738; 2824.500;  -10.646; 3971.274
503.326; 3201.238;   -9.525; 4403.796
503.913; 3565.020;  -10.856; 5161.749
504.500; 3876.573;  -11.586; 5986.420
505.088; 4304.174;  -10.336; 6381.201
505.675; 4822.962;   -6.355; 6925.547
506.262; 5426.422;   -9.046; 7619.060
506.849; 6099.709;  -10.416; 8733.969
507.436; 6593.882;  -10.305; 9790.121
508.023; 7162.671;   -5.496; 9985.472
508.610; 7385.130;   -7.856;10434.618
509.197; 8002.313;  -10.097;11198.435
509.784; 9277.220;  -10.886;12391.194
510.371;10314.013;   -9.315;13603.713
510.958;11062.542;   -9.936;14426.586
511.545;11767.866;   -9.326;15243.775
512.132;12596.693;  -10.075;15945.876
512.719;13094.586;   -7.796;16340.369
513.305;14040.507;  -10.606;18011.766
513.892;14761.362;  -11.486;19754.971
514.479;15976.692;   -9.126;20967.805
515.066;17517.238;   -6.026;22299.793
515.652;18765.131;   -8.466;22908.660
516.239;19820.799;  -10.886;23798.875
516.825;20802.682;  -11.496;25567.275
517.412;21701.770;   -5.796;28154.959
517.998;22513.172;  -10.506;28344.111
518.585;22753.367;  -10.076;27134.219
519.171;23224.734;   -8.315;27268.576
519.758;24500.516;   -8.596;28964.129
520.344;26464.967;   -8.466;30664.494
520.930;26723.221;  -11.006;32550.605
521.516;27676.787;  -10.495;35422.895
522.103;29968.924;   -5.526;38280.004
522.689;30730.217;   -8.746;37835.117
523.275;30633.162;  -11.376;37288.613
523.861;32092.457;  -11.156;37281.395
524.447;33469.262;   -8.135;37846.949
525.033;32848.480;   -7.896;38321.949
525.619;32999.184;  -12.476;38579.285
526.205;34403.770;   -9.516;40622.875
526.791;37372.953;   -6.926;42258.836
527.377;37516.270;   -8.346;42966.902
527.963;38979.387;   -8.717;42018.949
528.549;38120.531;  -11.016;42476.828
529.135;36730.367;   -8.536;41854.852
529.721;35881.184;   -9.666;41237.711
530.306;35293.570;  -10.066;41259.445
530.892;35209.289;  -11.356;41506.047
531.478;36677.629;   -6.596;43559.613
532.063;39373.340;   -8.836;47695.563
532.649;40226.668;  -10.047;50808.324
533.235;41011.535;   -9.746;51787.500
533.820;41671.898;   -6.566;52145.035
534.406;42902.477;  -10.817;51133.488
534.991;42699.977;   -9.416;49996.805
535.576;41325.004;   -9.036;48882.852
536.162;41984.934;   -6.156;46942.285
536.747;42992.363;  -11.607;45711.746
537.333;46021.371;  -11.787;48510.180
537.918;49581.090;  -12.437;50439.891
538.503;48464.422;   -7.196;50863.711
539.088;44961.355;  -10.556;50906.922
539.673;44953.543;   -8.767;52621.965
540.259;44869.176;  -10.026;52368.094
540.844;42280.133;   -7.416;50879.109
541.429;43335.719;   -9.467;52077.777
542.014;46437.102;   -9.527;52716.695
542.599;46436.078;   -9.946;52363.281
543.184;43659.313;   -7.927;53187.137
543.769;44569.988;   -9.297;54697.605
544.354;44422.301;  -10.127;53913.914
544.938;43384.313;   -9.267;49680.164
545.523;45362.848;   -6.506;47386.277
546.108;47843.773;   -9.787;49151.949
546.693;49919.480;  -11.587;51384.637
547.278;49983.887;  -10.986;51853.254
547.862;47197.586;   -8.206;51173.750
548.447;42912.691;  -10.067;51691.395
549.031;41979.137;   -9.637;52456.703
549.616;46360.797;   -9.926;52714.516
550.201;45903.672;   -6.347;52414.598
550.785;46772.070;   -7.917;52355.059
551.370;46063.813;  -10.867;54589.453
551.954;45642.531;   -9.047;58267.348
552.538;46928.461;   -7.827;59062.176
553.123;45418.027;  -10.287;58115.285
553.707;42784.535;  -12.178;56556.285
554.291;43620.859;   -8.717;56201.668
554.876;45946.004;   -7.457;55335.762
555.460;46363.238;  -10.387;54155.703
556.044;48066.504;   -9.618;53721.484
556.628;46410.109;  -11.567;53731.016
557.212;45022.813;   -8.097;54312.531
557.796;42979.738;  -11.077;53797.773
558.380;43392.621;  -11.108;56145.984
558.964;44392.152;   -9.057;57277.930
559.548;45699.406;   -6.977;56459.641
560.132;43342.313;  -11.457;54434.543
560.716;41904.141;  -11.378;54800.617
561.300;42686.973;   -9.577;57606.945
561.884;43664.316;   -7.127;58972.445
562.467;42044.609;   -7.118;57327.570
563.051;41776.039;  -13.358;54962.434
563.635;42933.785;  -10.178;52594.473
564.219;42976.738;   -7.837;50610.410
564.802;43530.090;  -11.398;49551.180
565.386;43563.059;  -12.788;48370.953
565.969;43390.156;   -9.077;48178.871
566.553;41807.266;   -6.207;49957.305
567.136;42215.566;   -8.568;50369.594
567.720;39033.492;  -11.868;49492.004
568.303;37179.430;   -8.268;50616.352
568.887;36986.621;   -8.698;50727.148
569.470;37258.684;   -6.808;51698.379
570.053;36668.305;  -13.188;52122.078
570.637;34935.473;  -12.037;52536.438
571.220;34403.633;   -8.577;51186.098
571.803;34785.133;   -8.498;51032.762
572.386;36549.301;  -10.498;49609.887
572.969;38986.402;   -9.388;48285.926
573.552;37744.730;   -8.338;47624.285
574.135;36459.344;   -8.518;45498.641
574.718;33997.586;  -13.628;41970.434
575.301;32694.055;  -10.893;41447.137
575.884;31390.521;   -8.158;40923.836
576.467;31764.340;  -10.328;45267.723
577.050;32535.418;  -13.058;48175.543
577.633;34371.809;   -9.458;47729.328
578.216;34751.602;   -8.928;47579.793
578.799;34627.141;   -9.358;47820.996
579.381;33987.766;  -11.388;48115.551
579.964;32135.369;  -11.718;47333.766
580.547;33528.285;   -8.588;46668.969
581.129;34330.141;   -8.859;44466.141
581.712;35038.363;  -10.729;44164.922
582.294;35705.629;  -11.118;46477.855
582.877;35797.559;   -5.218;48244.254
583.459;33849.961;   -8.679;47437.895
584.042;31847.832;  -10.709;46943.219
584.624;31762.480;  -11.669;46792.227
585.206;31364.656;   -8.218;46557.250
585.789;31376.652;  -10.569;45793.773
586.371;34004.371;  -11.859;43836.391
586.953;34997.277;  -10.719;42972.492
587.536;35643.426;   -7.198;42487.211
588.118;35909.902;   -8.720;42086.414
588.700;31766.326;  -10.439;43389.930
589.282;29966.092;   -9.198;43646.039
589.864;28997.021;   -9.199;43438.109
590.446;28359.686;  -11.319;43151.926
591.028;28192.557;  -11.159;42781.867
591.610;29079.266;  -11.779;42839.098
592.192;28571.299;   -7.668;42820.402
592.774;28213.516;  -11.949;40724.277
593.356;27648.270;  -12.129;39874.789
593.937;27124.428;  -10.669;39980.648
594.519;29036.270;   -6.509;42069.633
595.101;31297.135;  -10.849;42976.031
595.683;31642.330;  -11.679;44084.441
596.264;32509.500;   -9.049;43478.797
596.846;32032.203;   -8.849;43803.672
597.427;31642.037;   -9.570;42986.934
598.009;33259.781;  -12.620;42832.219
598.591;33731.441;  -10.039;42580.086
599.172;33005.277;  -10.369;43061.805
599.753;32999.914;   -9.140;41691.469
600.335;34406.367;  -11.430;40692.520
600.916;32850.059;   -9.939;39982.422
601.498;30533.240;   -8.479;40318.617
602.079;29162.404;  -10.920;40670.609
602.660;28768.033;  -11.480;41450.898
603.241;30210.643;  -11.699;41137.738
603.823;29137.654;   -9.579;38868.797
604.404;28407.639;  -10.620;38182.785
604.985;29991.254;  -10.450;38078.047
605.566;29880.184;   -9.129;38056.633
606.147;29777.000;   -7.510;37020.418
606.728;31728.650;  -10.660;37883.359
607.309;30689.051;  -11.740;38748.273
607.890;30034.709;   -9.759;38850.230
608.471;29449.846;   -8.250;37457.918
609.051;28832.836;   -9.240;36066.457
609.632;27829.768;  -12.120;35991.074
610.213;28410.656;   -9.110;37402.641
610.794;29373.182;   -8.030;38383.363
611.374;28843.473;   -8.110;40562.387
611.955;29310.064;  -13.560;38533.727
612.536;30958.502;  -11.400;36951.789
613.116;30440.289;   -8.070;37197.891
613.697;30728.727;  -10.830;38411.125
614.277;28932.748;  -11.641;38673.938
614.858;29845.697;  -13.310;37075.863
615.438;29455.021;   -7.460;35092.906
616.019;26913.416;   -7.601;33666.301
616.599;27390.285;  -12.020;34189.023
617.179;29406.211;  -11.780;36952.047
617.760;30224.172;   -8.570;39582.574
618.340;31226.090;  -11.471;38943.977
618.920;32821.469;  -11.170;37594.156
619.500;32634.027;  -11.071;37866.938
620.080;31548.027;   -7.750;37869.043
620.660;32348.602;  -12.711;36868.617
621.241;33536.906;  -10.211;36352.309
621.821;33824.375;  -10.961;35459.520
622.401;33168.957;   -7.720;35207.414
622.980;32188.193;   -8.981;35980.422
623.560;30765.918;   -9.331;37351.328
624.140;29658.471;   -9.850;34388.582
624.720;24968.900;   -7.451;32368.764
625.300;21412.758;   -9.070;32638.629
625.880;24674.166;  -12.601;34599.035
626.459;28394.203;  -11.751;36831.738
627.039;31358.199;   -9.281;38299.098
627.619;31641.328;   -8.801;38289.574
628.198;30088.875;  -12.071;37220.695
628.778;29131.850;   -9.461;37632.563
629.357;29715.785;   -8.491;38003.012
629.937;29619.783;   -9.721;38402.039
630.516;29077.295;   -9.951;37868.801
631.096;29206.219;  -11.731;35760.410
631.675;31507.273;   -8.572;35225.219
632.254;36806.164;  -11.282;35130.289
632.834;36276.887;  -13.322;35794.570
633.413;34420.855;  -10.301;35788.922
633.992;31862.766;   -8.582;34532.863
634.571;32729.033;   -8.352;33590.113
635.151;35727.824;  -11.912;34943.863
635.730;34450.000;  -10.511;35352.523
636.309;30703.947;   -7.731;35366.605
636.888;27769.303;   -9.952;36165.637
637.467;28096.439;  -11.672;37515.902
638.046;29942.070;   -8.901;39288.695
638.625;33030.105;   -7.912;38279.699
639.204;32951.023;  -10.022;37741.598
639.782;31413.078;  -12.252;38364.551
640.361;27981.443;  -10.041;36740.621
640.940;25171.719;  -11.161;34950.082
641.519;25539.926;   -9.701;34137.398
642.097;27921.250;  -11.271;35654.258
642.676;31038.051;   -8.651;35637.957
643.255;32342.900;   -8.711;36567.074
643.833;31584.838;   -9.581;37809.434
644.412;31759.439;  -13.711;37337.293
644.990;30754.992;  -11.811;37018.531
645.569;30152.037;   -9.411;36518.469
646.147;29539.615;  -10.291;36186.430
646.726;29452.936;  -12.401;36267.688
647.304;30628.930;  -10.411;36647.625
647.882;32395.572;   -9.651;39286.742
648.461;34184.379;   -9.631;39157.703
649.039;32667.162;  -11.881;35412.883
649.617;31725.676;   -9.661;34744.918
650.195;31252.199;   -9.301;35403.098
650.773;30236.932;  -10.511;35053.797
651.352;27498.943;  -11.521;33756.816
651.930;25007.189;  -12.211;31868.773
652.508;23554.840;   -9.171;33121.551
653.086;27549.934;   -9.371;33564.793
653.663;30790.191;  -13.161;34054.668
654.241;29331.379;  -13.031;35693.309
654.819;30638.330;   -9.371;36422.906
655.397;30580.459;  -10.511;38213.484
655.975;30187.494;  -10.371;39507.625
656.553;30377.748;  -10.051;39498.223
657.130;28821.182;  -10.061;40395.480
657.708;27839.529;   -9.561;39242.020
658.286;27983.543;  -11.511;38920.020
658.863;29324.471;  -10.261;40202.898
659.441;32242.293;   -7.531;39677.938
660.018;31851.412;   -9.501;40413.355
660.596;30601.340;  -13.301;39931.414
661.173;32327.387;  -11.211;39604.531
661.750;32550.576;   -9.951;39700.070
662.328;31383.086;   -9.390;39292.809
662.905;30569.793;  -11.330;38235.648
663.482;26509.963;   -9.050;36212.305
664.060;24423.631;   -8.240;35944.945
664.637;27092.662;  -10.050;35170.785
665.214;28858.539;  -11.760;34197.523
665.791;30935.805;  -10.530;34549.520
666.368;29934.553;   -9.690;35118.578
666.945;30201.400;   -9.320;36019.418
667.522;31771.789;  -11.860;36048.438
668.099;31720.531;  -10.770;36243.914
668.676;30770.602;   -6.260;35958.875
669.253;29196.691;   -7.000;37384.730
669.830;29558.555;  -10.190;36779.629
670.407;29520.498;   -9.550;35231.289
670.984;29428.693;   -9.260;35544.270
671.560;30070.023;   -9.280;35466.867
672.137;28938.930;  -11.810;34280.863
672.714;29510.084;  -11.490;34632.863
673.290;30300.268;   -7.740;35135.422
673.867;30300.230;  -10.660;36114.480
674.443;30875.617;  -12.230;36152.859
675.020;29303.047;  -10.450;35327.238
675.596;29896.666;   -9.260;35795.176
676.173;30319.721;  -10.780;35430.355
676.749;29989.775;  -13.690;33549.516
677.326;30011.754;  -11.980;32210.012
677.902;30167.768;   -8.630;32068.871
678.478;29405.857;  -10.730;32583.891
679.054;28624.947;  -10.520;32088.928
679.631;29401.518;  -11.920;30978.848
680.207;30680.219;   -7.490;33160.887
680.783;32071.213;   -9.860;35570.363
681.359;31241.295;  -13.380;36125.184
681.935;30540.502;  -12.480;35240.922
682.511;29916.725;   -7.900;34429.961
683.087;29963.170;   -7.710;34463.680
683.663;29409.908;  -11.480;34648.898
684.239;28508.391;  -14.090;34546.457
684.815;28144.500;   -7.560;35586.375
685.390;28397.619;   -9.910;35821.895
685.966;28857.553;  -11.159;35085.871
686.542;31465.197;  -11.169;34198.230
687.118;33673.777;   -5.959;32847.707
687.693;34130.250;  -10.329;32794.027
688.269;33513.344;  -12.059;33072.367
688.844;31546.967;  -10.909;33141.664
689.420;29561.225;   -8.019;33965.742
689.995;27443.139;   -8.399;34655.523
690.571;26151.322;  -10.949;33576.742
691.146;26564.371;   -9.619;32657.219
691.722;26166.186;   -8.999;32526.979
692.297;25506.828;  -11.589;33014.617
692.872;27210.797;  -11.739;34012.254
693.448;26993.221;  -11.059;34237.434
694.023;26182.854;  -10.139;34142.672
694.598;28332.992;   -9.029;34132.031
695.173;29004.672;  -13.319;34205.250
695.748;28344.576;  -10.169;32882.488
696.323;28296.840;   -8.339;32864.906
696.898;28309.432;   -8.169;33170.004
697.473;28172.223;  -12.309;32432.984
698.048;27742.650;  -10.989;31649.303
698.623;27725.281;   -9.329;30778.141
699.198;29260.939;   -9.849;31140.119
699.773;30442.412;  -12.329;31764.299
700.348;29108.568;  -10.389;31780.816
700.922;29227.766;   -9.269;32046.375
701.497;29871.600;   -9.329;32603.574
702.072;30136.361;  -10.789;34799.871
702.646;29156.018;  -10.839;35793.172
703.221;26666.480;   -9.099;35201.590
703.795;28733.311;  -10.939;34764.527
704.370;29454.834;  -12.859;34307.367
704.944;29512.195;  -11.559;33509.887
705.519;30436.043;   -7.939;31388.584
706.093;31544.734;  -10.499;31340.104
706.668;32142.033;  -11.289;32630.281
707.242;30728.807;  -11.509;32728.779
707.816;29013.830;   -9.639;32947.238
708.390;27581.816;  -11.429;33277.855
708.965;28332.830;  -11.869;33834.336
709.539;28446.193;  -11.689;33709.273
710.113;28767.992;  -10.478;33044.313
710.687;28609.910;  -10.228;31953.992
711.261;26836.391;  -13.698;30505.949
711.835;26369.152;  -13.378;30262.369
712.409;26837.930;   -9.698;31254.447
712.983;28713.787;  -11.898;32754.986
713.557;29999.479;  -15.138;34018.824
714.131;29645.420;  -14.098;34579.625
714.704;28755.574;   -9.958;33890.262
715.278;26358.672;  -10.028;33531.102
715.852;25382.145;  -11.148;33601.660
716.425;26198.967;   -9.068;33515.117
716.999;26920.043;  -10.038;33185.555
717.573;27976.098;   -9.798;33905.996
718.146;29413.541;  -12.378;35199.293
718.720;29308.199;  -11.918;35060.551
719.293;28593.977;   -8.088;34973.230
719.867;31537.621;  -10.888;36394.449
720.440;31746.445;  -11.938;36663.008
721.013;30077.189;  -12.818;35102.426
721.587;28518.137;  -10.298;33985.266
722.160;26939.633;  -10.048;33524.965
722.733;25914.826;  -12.108;32987.043
723.306;26544.865;  -10.818;33066.301
723.880;28724.766;   -8.908;33399.500
724.453;30885.205;   -9.878;33468.297
725.026;30011.107;  -11.188;33816.637
725.599;27079.848;  -11.678;32797.996
726.172;26927.582;   -9.618;33187.434
726.745;28105.988;   -8.258;35136.613
727.318;29642.768;  -12.978;35751.730
727.891;30629.797;  -12.148;35890.430
728.463;30480.473;   -8.968;34822.090
729.036;29304.721;  -10.188;32895.086
729.609;29592.447;  -11.788;31823.225
730.182;26517.297;  -11.788;31445.283
730.754;24027.850;  -10.268;32373.223
731.327;24105.795;   -9.998;33676.820
731.900;24127.113;  -12.228;33417.000
732.472;25204.213;  -13.848;31978.498
733.045;27385.693;   -8.698;30368.777
733.617;27359.352;  -10.607;30574.215
734.190;27078.549;  -11.507;31280.975
734.762;24524.453;  -13.647;31674.412
735.334;22674.533;   -9.767;31247.291
735.907;22852.838;   -9.897;29876.211
736.479;22972.012;  -11.637;29808.488
737.051;22801.322;   -9.567;30233.547
737.623;24013.768;   -8.187;31469.086
738.195;24705.254;  -11.187;31784.225
738.768;26421.248;  -12.337;32120.523
739.340;26824.992;  -12.227;32094.342
739.912;25825.549;  -11.057;31312.680
740.484;24600.211;  -10.207;31946.238
741.056;23209.467;  -10.047;32984.059
741.628;24755.859;  -13.627;33897.715
742.199;27147.270;   -7.177;33213.016
742.771;25485.279;  -10.797;31369.113
743.343;23088.703;  -11.997;31865.473
743.915;21983.936;  -12.867;32388.631
744.487;22100.795;   -7.617;31079.568
745.058;22336.479;   -9.557;30570.107
745.630;22968.352;   -9.877;29970.127
746.201;24119.207;  -14.177;29186.766
746.773;24627.318;   -9.237;28805.723
747.344;24532.068;   -9.847;29591.223
747.916;22849.924;  -11.657;31412.201
748.487;22540.918;  -10.587;32194.898
749.059;23732.121;   -8.707;32533.719
749.630;24791.951;  -10.537;32158.518
750.201;23828.441;  -11.687;30855.395
750.773;21970.424;  -11.647;28622.555
751.344;21913.762;   -7.147;28405.732
751.915;22957.607;   -9.757;28461.551
752.486;22712.342;  -12.427;27842.850
753.057;20450.311;  -12.227;27845.008
753.628;19117.938;  -10.417;27728.107
754.199;20111.600;  -11.767;27381.086
754.770;21353.699;  -11.187;25882.203
755.341;21516.951;  -10.507;25886.184
755.912;21840.365;   -9.387;26050.861
756.483;21218.434;  -10.647;26798.779
757.054;19360.010;  -11.837;27048.238
757.625;18061.072;  -12.716;26294.838
758.195;17896.039;   -9.666;26142.076
758.766;17577.021;   -8.656;26392.234
759.337;18266.863;  -12.856;26334.594
759.907;19958.986;  -13.366;27579.652
760.478;20835.443;   -8.576;28352.770
761.048;20308.377;  -10.526;27325.088
761.619;19450.531;  -11.116;26460.428
762.189;19381.275;  -12.136;26029.826
762.760;20222.254;   -9.456;26430.145
763.330;21585.691;   -7.136;26670.902
763.900;21237.975;  -11.786;26603.021
764.471;18578.303;  -11.546;25542.740
765.041;17231.191;   -8.096;24358.459
765.611;17304.693;   -8.876;23991.297
766.181;17688.191;  -12.196;24470.236
766.751;18499.039;  -11.636;24845.975
767.321;18524.955;  -10.156;24533.633
767.891;16690.676;  -11.766;24916.492
768.461;15991.753;  -14.936;24776.771
769.031;16423.000;  -12.356;24757.988
769.601;18113.906;   -7.526;24181.088
770.171;18177.355;  -10.766;23670.387
770.741;17061.744;  -13.176;22960.045
771.311;17149.852;  -10.616;22917.523
771.880;17715.953;   -9.576;23562.941
772.450;17279.084;  -10.336;24216.500
773.020;17085.018;  -13.516;24140.398
773.589;16657.500;  -13.466;24414.857
774.159;16108.014;   -8.686;23858.717
774.729;15570.841;   -9.476;22942.135
775.298;15178.959;  -13.666;22324.033
775.867;14830.546;  -11.716;21140.313
776.437;14974.808;   -9.906;20838.092
777.006;14696.953;  -12.166;20599.510
777.576;14620.063;  -12.356;20508.809
778.145;14731.133;  -11.646;20732.947
778.714;14667.247;   -8.226;21062.465
779.283;13900.952;   -9.556;20949.664
779.853;13313.806;  -14.116;20508.623
780.422;13654.159;  -11.506;20649.082
780.991;13211.583;   -9.556;21527.520
781.560;12118.911;   -9.095;22632.658
782.129;11907.230;  -12.135;23048.277
782.698;11933.956;  -10.865;23438.555
783.267;11618.426;   -9.335;23267.734
783.836;11547.937;  -11.045;22415.133
784.404;12563.355;  -13.865;20443.152
784.973;13134.640;  -13.095;19699.150
785.542;12993.571;  -11.575;19763.828
786.111;12819.320;   -9.705;20341.408
786.679;12429.650;  -12.105;20207.967
787.248;12227.979;  -12.455;19516.465
787.817;12076.575;  -11.535;18900.363
788.385;11685.572;   -9.765;17879.121
788.954;11138.702;  -14.005;17658.301
789.522;10609.267;  -11.955;17788.879
790.090;11112.408;  -10.135;18118.277
790.659;11633.466;  -10.975;18338.736
791.227;11027.571;  -13.375;18508.615
791.795;11356.113;  -12.375;17898.254
792.364;11798.800;  -10.725;17295.133
792.932;12233.203;   -9.715;16822.051
793.500;12486.610;  -12.675;17040.148
794.068;12684.428;  -13.495;17179.787
794.636;12808.566;  -10.885;16664.246
795.204;12175.943;  -11.045;16524.545
795.772;12214.294;  -13.175;17274.564
796.340;11754.720;  -12.445;17891.002
796.908;11524.951;   -9.735;17648.561
797.476;11497.269;   -9.815;17064.080
798.044;11090.822;  -13.985;16672.777
798.612;10285.623;  -13.115;17023.996
799.180; 9944.913;  -10.185;16561.615
799.747; 9828.372;   -9.055;15962.773
800.315; 9518.168;  -12.385;15296.992
800.883; 9239.680;  -15.035;14801.771
801.450; 9322.877;  -10.365;14534.430
802.018; 9400.408;   -9.855;14173.248
802.585; 9426.146;  -11.905;14029.547
803.153; 9432.760;  -11.585;13836.846
803.720; 9314.242;   -9.095;13567.324
804.287; 8992.807;   -9.135;13360.622
804.855; 8555.563;  -11.604;13681.981
805.422; 8386.274;  -11.794;13536.560
805.989; 8373.628;  -10.734;13355.958
806.556; 8497.806;  -10.444;13747.896
807.124; 8764.365;  -12.764;13987.376
807.691; 8707.521;  -12.964;14038.674
808.258; 8523.371;  -11.134;14120.152
808.825; 8230.539;   -9.854;13860.111
809.392; 8332.006;  -10.504;13268.790
809.959; 7826.775;  -13.054;12680.389
810.526; 7349.458;   -8.294;12427.308
811.093; 7389.351;   -8.394;12030.105
811.659; 8069.221;  -12.304;11653.664
812.226; 8576.875;  -13.944;11637.183
812.793; 8230.366;  -10.484;11611.521
813.360; 7526.665;  -10.144;11885.181
813.926; 7106.961;  -11.684;12770.539
814.493; 6830.953;  -13.644;12677.638
815.060; 6470.009;   -9.724;11974.336
815.626; 6505.815;   -9.854;11594.715
816.193; 6935.704;  -13.254;11579.474
816.759; 7006.813;  -13.204;11666.972
817.325; 7071.379;   -9.434;11325.530
817.892; 7385.064;  -10.134;11105.369
818.458; 7798.065;  -13.474;10843.928
819.024; 7505.822;  -11.854;10714.406
819.591; 7171.949;  -10.244;10469.165
820.157; 6930.938;  -10.704;10235.523
820.723; 6365.714;  -12.324;10847.563
821.289; 6037.977;   -9.444;11040.980
821.855; 5992.925;   -8.374;10357.100
822.421; 6031.325;  -10.234; 9978.918
822.987; 6007.468;  -13.294; 9754.177
823.553; 5669.212;  -10.884;10065.755
824.119; 5463.659;   -8.884;10036.294
824.685; 5600.132;   -6.784;10029.192
825.251; 5715.679;  -12.004;10199.230
825.816; 5633.712;  -11.474; 9820.189
826.382; 5340.202;   -9.174; 9297.248
826.948; 5487.090;   -9.214; 9381.347
827.513; 5942.063;  -10.774; 9450.726
828.079; 5814.644;  -11.924; 9472.444
828.645; 5209.739;  -10.543; 9292.643
829.210; 5041.223;  -10.533; 9065.341
829.776; 5025.029;  -10.753; 9132.620
830.341; 4884.123;  -10.173; 9092.878
830.906; 5012.805;  -10.743; 9078.557
831.472; 5413.040;  -11.113; 8534.535
832.037; 5256.303;  -10.603; 8677.874
832.602; 4716.419;  -13.323; 8628.692
833.167; 4410.230;  -10.823; 8879.031
833.733; 4342.443;  -10.113; 9189.790
834.298; 4466.517;  -13.583; 9052.608
834.863; 4538.461;  -12.703; 8895.087
835.428; 4506.921;  -10.523; 8824.266
835.993; 4379.485;   -6.963; 8845.385
836.558; 4215.821;  -10.763; 8888.563
837.123; 4299.057;   -9.903; 8966.582
837.688; 4506.798;   -9.913; 8617.860
838.253; 4720.082;  -10.283; 8590.699
838.817; 4929.336;  -12.963; 8443.797
839.382; 4892.628;  -14.243; 8799.356
839.947; 4581.238;  -10.733; 8810.595
840.511; 4268.532;   -9.383; 8796.394
841.076; 3894.716;  -12.563; 8347.231
841.641; 3917.546;  -12.953; 8224.330
842.205; 4021.444;   -7.043; 8223.349
842.770; 4077.744;   -8.163; 8622.107
843.334; 4247.704;  -12.503; 8410.386
843.898; 4222.261;  -11.693; 8337.465
844.463; 4257.140;  -10.203; 8506.283
845.027; 4051.988;   -9.533; 8280.962
845.591; 3837.706;  -13.443; 8231.141
846.156; 3862.936;  -13.143; 7969.179
846.720; 3747.599;   -9.433; 7768.278
847.284; 3625.348;  -11.033; 7630.957
847.848; 3466.400;  -10.403; 7472.395
848.412; 3387.995;  -11.553; 7437.394
848.976; 3439.109;   -8.393; 7674.592
849.540; 3366.085;   -8.713; 7836.011
850.104; 3414.240;  -12.463; 7913.669
850.668; 3771.807;  -12.973; 7694.508
851.232; 3930.474;  -10.793; 7756.887
851.796; 3761.298;  -10.662; 7926.545
852.359; 3442.157;  -13.082; 7827.844
852.923; 3265.497;  -12.192; 7641.163
853.487; 3083.618;  -11.912; 7342.501
854.050; 3015.672;  -10.892; 7042.820
854.614; 3159.504;  -13.992; 7151.338
855.177; 3269.960;  -11.732; 7105.077
855.741; 3327.773;   -8.962; 6989.675
856.304; 3236.790;   -9.442; 6596.634
856.868; 3173.407;  -14.192; 6356.272
857.431; 3266.489;  -12.702; 6468.571
857.995; 3374.090;   -9.942; 6373.210
858.558; 3385.715;   -9.112; 6324.448
859.121; 3127.196;  -12.932; 6408.327
859.684; 2983.787;  -13.442; 6347.886
860.247; 3107.322;  -10.632; 6321.264
860.810; 3121.774;  -11.272; 6301.903
861.374; 2903.479;   -9.832; 6607.881
861.937; 2641.477;  -11.762; 6408.200
862.500; 2602.329;   -9.722; 6572.639
863.062; 2752.962;  -10.512; 6387.297
863.625; 2938.161;  -11.232; 6190.836
864.188; 3114.848;  -14.112; 5807.254
864.751; 3173.962;  -11.302; 5682.413
865.314; 3071.262;  -10.112; 5547.492
865.876; 2875.397;  -12.182; 5500.150
866.439; 2854.005;  -10.722; 5415.909
867.002; 2829.144;   -9.252; 5501.567
867.564; 2627.057;   -9.572; 5413.946
868.127; 2420.854;  -13.142; 5160.325
868.689; 2318.563;  -12.902; 5133.183
869.252; 2247.280;   -9.732; 5252.382
869.814; 2160.626;   -9.432; 5297.141
870.377; 2173.528;  -11.552; 5390.919
870.939; 2238.940;   -9.052; 5599.898
871.501; 2298.801;  -10.982; 5248.336
872.063; 2310.643;  -12.292; 4854.235
872.626; 2266.881;  -14.912; 4817.074
873.188; 2266.790;  -13.112; 4987.732
873.750; 2237.598;  -13.442; 4868.651
874.312; 2137.724;   -9.402; 4779.330
874.874; 2049.912;  -11.062; 4866.348
875.436; 1972.979;  -13.931; 4718.887
875.998; 1971.657;   -9.561; 4660.005
876.560; 1999.364;  -11.321; 4462.964
877.122; 1943.635;  -12.221; 4145.042
877.683; 1835.786;  -12.191; 4056.481
878.245; 1753.486;  -12.101; 3950.740
878.807; 1787.925;   -8.971; 4058.958
879.369; 1817.092;  -12.071; 3954.677
879.930; 1730.100;  -14.621; 3941.495
880.492; 1666.513;  -10.311; 4067.014
881.053; 1646.213;  -10.901; 3859.633
881.615; 1536.619;  -14.411; 3776.071
882.176; 1436.260;  -13.761; 3734.750
882.738; 1389.711;   -9.181; 3678.489
883.299; 1366.508;  -11.791; 3405.407
883.860; 1357.934;  -13.121; 3351.106
884.422; 1362.542;  -11.211; 3394.044
884.983; 1325.587;  -10.091; 3166.443
885.544; 1238.210;   -8.461; 3189.802
886.105; 1156.444;  -12.361; 3160.360
886.666; 1083.594;  -14.141; 3093.059
887.227; 1018.141;  -11.361; 2941.957
887.788;  953.291;  -11.401; 2974.836
888.349;  887.479;  -13.791; 2721.214
888.910;  881.686;  -13.191; 2696.493
889.471;  890.414;   -9.881; 2560.172
890.032;  878.045;   -9.881; 2558.190
890.593;  850.828;  -10.371; 2567.669
891.153;  820.674;  -13.301; 2460.307
891.714;  772.132;  -11.431; 2372.046
892.275;  738.226;  -11.291; 2309.505
892.835;  705.675;  -11.471; 2382.543
893.396;  648.236;  -11.541; 2295.502
893.956;  588.724;  -11.181; 2162.420
894.517;  548.320;  -11.741; 2125.439
895.077;  536.707;  -11.671; 2086.978
895.638;  537.744;  -11.311; 2126.316
896.198;  508.949;   -9.831; 1838.275
896.758;  464.876;   -8.421; 1892.813
897.319;  430.621;  -12.351; 1792.232
897.879;  413.062;  -13.511; 1762.751
898.439;  388.442;  -12.001; 1661.149
898.999;  361.655;  -10.180; 1781.468
899.559;  350.823;  -12.030; 1703.347
900.119;  346.697;  -15.710; 1537.525
900.679;  344.291;   -8.900; 1638.384
901.239;  330.149;   -8.340; 1527.902
901.799;  318.040;  -13.910; 1456.441
902.359;  311.323;  -13.460; 1357.140
902.919;  304.411;  -11.490; 1331.118
903.479;  290.589;  -12.110; 1317.257
904.038;  269.286;  -11.720; 1262.595
904.598;  250.961;  -13.610; 1152.034
905.158;  245.820;  -11.040; 1240.893
905.717;  240.541;  -10.900; 1233.691
906.277;  230.173;  -15.080; 1217.330
906.836;  220.189;  -13.380; 1222.408
907.396;  212.333;  -10.780; 1193.047
907.955;  204.211;   -8.500; 1182.526
908.515;  197.455;  -12.760; 1099.364
909.074;  190.581;  -11.900; 1092.863
909.633;  184.805;   -8.950; 1069.121
910.192;  180.285;   -8.770; 1196.460
910.752;  174.574;  -12.390; 1029.960
911.311;  170.115;  -13.680; 1009.780
911.870;  168.206;  -12.370;  971.460
912.429;  168.800;  -10.900; 1094.080
912.988;  166.796;  -11.690; 1081.060
913.547;  162.426;  -13.240;  940.380
914.106;  158.243;  -11.990;  999.420
914.665;  153.604;   -9.990;  984.020
915.224;  153.714;  -12.880; 1035.760
915.782;  152.756;  -12.350;  922.560
916.341;  151.542;   -9.110; 1049.840
916.900;  149.509;   -9.270;  925.260
917.458;  146.161;  -13.240;  884.220
918.017;  145.933;  -13.550;  942.600
918.576;  145.754;  -12.320;  904.440
919.134;  143.917;  -11.490;  837.980
919.693;  142.474;  -13.670;  893.060
920.251;  140.033;  -15.470;  876.500
920.809;  138.617;  -11.290;  839.580
921.368;  138.057;  -10.210;  885.360
921.926;  137.340;  -12.140;  842.940
922.484;  136.644;  -13.080;  903.360
923.042;  135.323;  -11.720;  880.340
923.601;  138.178;   -7.480;  998.680
924.159;  136.141;  -11.570;  935.560
924.717;  133.702;  -13.840;  841.080
925.275;  133.337;  -10.640;  903.240
925.833;  133.258;  -11.540;  779.320
926.391;  134.379;  -12.960;  938.380
926.949;  132.248;  -14.130;  857.680
927.506;  132.722;  -11.750;  903.500
928.064;  132.733;  -10.250;  877.580
928.622;  132.386;  -13.030;  880.100
929.180;  131.795;  -13.400;  814.180
929.737;  132.277;  -10.700;  808.540
930.295;  136.223;  -10.070;  928.480
930.853;  138.121;  -11.960;  849.100
931.410;  138.992;  -13.120;  821.120
931.968;  138.259;  -10.770;  940.660
932.525;  138.303;  -10.680;  909.380
933.082;  139.028;  -13.130;  811.440
933.640;  139.711;  -13.210;  925.900
934.197;  137.743;  -11.060;  886.360
934.754;  139.245;   -9.580;  897.780
935.312;  141.256;  -14.000;  863.340
935.869;  146.956;  -10.710; 1012.980
936.426;  146.283;   -9.860;  872.800
936.983;  147.305;   -9.710;  889.020
937.540;  146.961;  -13.990;  838.280
938.097;  146.121;  -14.040;  940.120
938.654;  146.591;  -10.310;  898.860
939.211;  149.707;  -10.560;  952.480
939.768;  152.824;  -13.900;  915.420
940.324;  156.578;  -14.760;  904.200
940.881;  156.988;  -10.370;  878.500
941.438;  158.087;   -8.260; 1021.200
941.995;  154.482;  -12.540;  992.560
942.551;  152.883;  -14.670;  875.620
943.108;  152.250;  -10.450;  937.920
943.664;  153.907;  -10.750;  869.340
944.221;  158.014;  -11.550; 1088.140
944.777;  155.202;  -14.770;  869.680
945.334;  155.198;  -12.820;  884.840
945.890;  159.332;  -10.130;  946.480
946.446;  160.222;  -13.470;  947.020
947.003;  161.001;  -12.120;  964.940
947.559;  163.611;   -9.980; 1063.040
948.115;  162.179;   -9.080; 1026.540
948.671;  159.898;  -10.830;  967.300
949.227;  157.065;  -12.440;  859.560
949.783;  154.045;  -12.910;  858.900
950.339;  156.336;  -10.270;  991.000
950.895;  156.728;  -13.630; 1023.840
951.451;  156.156;  -15.100;  925.280
952.007;  156.959;  -11.330;  998.540
952.563;  158.095;  -10.580;  937.780
953.118;  157.357;  -13.440;  904.940
953.674;  157.791;  -12.710;  935.780
954.230;  157.718;  -10.350;  949.640
954.785;  154.731;   -9.190;  936.640
955.341;  152.697;  -11.200;  998.160
955.897;  150.011;  -16.560;  834.660
956.452;  151.837;  -12.570;  953.840
957.008;  151.128;   -7.970; 1083.640
957.563;  148.281;  -11.940; 1009.540
958.118;  143.210;  -13.450;  877.700
958.674;  143.620;  -12.030;  946.780
959.229;  144.825;   -9.410; 1013.980
959.784;  142.913;  -12.000;  832.400
960.339;  141.737;  -14.780; 1001.280
960.894;  138.609;   -9.860;  963.760
961.449;  135.112;   -9.970;  859.960
962.004;  135.462;  -10.900; 1212.840
962.559;  131.386;  -13.150;  860.140
963.114;  128.533;  -13.740;  742.480
963.669;  128.575;   -9.820;  915.500
964.224;  127.087;  -13.890;  874.340
964.779;  127.169;  -12.600;  828.420
965.334;  127.589;  -10.950; 1017.860
965.888;  127.194;  -11.170;  875.360
966.443;  129.357;  -12.540;  972.380
966.998;  129.468;  -15.780;  819.460
967.552;  128.474;   -9.760;  908.380
968.107;  124.889;   -9.060;  868.300
968.661;  128.538;  -11.950;  922.440
969.216;  131.689;  -12.800;  856.280
969.770;  130.094;  -11.210;  917.200
970.324;  124.957;  -11.610;  923.140
970.879;  113.168;  -11.370;  947.180
971.433;  100.950;  -12.540;  952.720
971.987;   90.775;  -11.320;  895.340
972.541;   85.873;  -10.720;  917.100
973.095;   86.168;   -9.680; 1009.460
973.649;   86.271;  -11.440;  809.480
974.203;   87.721;  -11.210;  829.040
974.757;   90.687;  -10.240;  855.220
975.311;   92.377;  -13.720;  872.600
975.865;   91.711;  -13.770;  881.820
976.419;   91.139;  -11.690;  857.400
976.973;   93.162;   -9.510;  849.620
977.526;   94.334;  -12.620;  949.920
978.080;   94.393;  -12.010;  796.780
978.634;   96.152;  -10.170;  921.320
979.187;   94.233;   -9.020;  905.400
979.741;   93.534;   -9.820; 1018.380
980.294;   88.258;  -14.870;  789.160
980.848;   86.774;  -12.380;  717.220
981.401;   89.029;  -10.350;  816.540
981.955;   91.099;  -13.720;  844.300
982.508;   89.555;  -11.490;  746.340
983.061;   90.547;  -10.000;  915.260
983.615;   86.646;  -11.480;  798.800
984.168;   84.862;  -13.220;  770.080
984.721;   83.231;  -13.960;  880.760
985.274;   82.938;  -10.870;  867.500
985.827;   82.108;   -9.790;  834.220
986.380;   79.550;  -13.120;  721.340
986.933;   79.445;  -12.450;  864.800
987.486;   77.028;  -10.210;  861.920
988.039;   76.498;   -8.430;  863.100
988.591;   74.442;  -10.520;  893.260
989.144;   72.903;  -14.860;  737.260
989.697;   71.329;  -13.080;  758.740
990.250;   72.416;  -10.150;  858.100
990.802;   71.574;  -13.430;  755.860
991.355;   72.601;  -12.750;  974.880
991.907;   70.280;  -12.040;  864.320
992.460;   67.958;  -11.330;  753.760
993.012;   66.905;  -13.610;  749.540
993.565;   66.467;  -13.460;  711.360
994.117;   67.411;   -9.360;  950.780
994.669;   65.009;  -11.300;  701.320
995.221;   62.456;  -13.540;  791.920
995.774;   61.029;  -13.430;  787.580
996.326;   59.157;  -12.520;  740.220
996.878;   58.778;  -10.950;  838.420
997.430;   57.612;  -14.300;  699.860
997.982;   56.320;  -13.760;  750.140
998.534;   56.905;  -11.530;  739.060
999.086;   54.789;  -10.310;  738.220
999.638;   53.054;  -12.530;  661.380
1000.190;   51.678;  -11.840;  699.320
1000.741;   50.147;  -10.260;  742.700
1001.293;   49.129;   -8.860;  686.020
1001.845;   47.305;  -13.700;  676.640
1002.396;   47.986;  -12.100;  743.400
1002.948;   47.621;  -12.760;  737.400
1003.500;   46.520;  -10.380;  723.780
1004.051;   47.715;  -11.900;  907.580
1004.603;   46.508;  -12.250;  791.820
1005.154;   42.590;  -13.210;  608.980
1005.705;   41.746;  -10.950;  723.960
1006.257;   41.849;  -13.880;  707.220
1006.808;   40.864;  -12.840;  685.460
1007.359;   39.917;  -10.570;  763.240
1007.910;   39.590;   -9.620;  646.640
1008.461;   39.412;  -13.630;  732.940
1009.013;   38.486;  -17.200;  588.340
1009.564;   39.931;  -10.200;  793.520
1010.115;   37.671;  -12.570;  597.040
1010.665;   37.371;  -15.150;  602.160
1011.216;   37.495;  -14.480;  667.920
1011.767;   36.146;  -11.340;  697.920
1012.318;   37.231;   -9.780;  736.980
1012.869;   36.214;  -12.380;  679.000
1013.419;   35.567;  -15.560;  603.120
1013.970;   35.481;  -11.010;  666.640
1014.521;   34.809;  -11.610;  620.620
1015.071;   36.042;  -13.450;  670.380
1015.622;   35.245;  -13.870;  635.460
1016.172;   34.131;  -11.610;  596.820
1016.723;   33.397;  -12.120;  614.380
1017.273;   33.578;  -13.620;  604.160
1017.823;   33.727;  -14.140;  650.340
1018.374;   32.877;  -12.800;  611.760
1018.924;   33.164;  -12.340;  716.880
1019.474;   33.521;  -11.410;  718.880
1020.024;   32.241;  -14.770;  657.580
1020.574;   32.184;   -9.780;  726.160
1021.124;   33.057;   -8.560;  673.580
1021.674;   31.437;  -15.190;  559.120
1022.224;   33.041;  -13.530;  708.940
1022.774;   31.949;  -13.280;  668.820
1023.324;   32.326;  -10.690;  753.520
1023.874;   33.633;  -10.240;  875.760
1024.423;   30.382;  -12.540;  613.700
1024.973;   30.093;  -10.010;  610.760
1025.523;   29.971;  -10.550;  620.960
1026.072;   29.920;  -13.560;  606.420
1026.622;   29.891;  -15.120;  675.740
1027.172;   30.451;  -11.260;  715.660
1027.721;   29.110;  -11.410;  601.220
1028.270;   29.524;  -13.530;  663.400
1028.820;   29.739;  -13.680;  638.080
1029.369;   28.703;  -13.520;  612.700
1029.918;   29.554;  -10.980;  649.840
1030.468;   28.742;  -13.530;  564.780
1031.017;   28.802;  -13.170;  634.800
1031.566;   27.634;  -12.200;  608.900
1032.115;   28.964;   -9.960;  694.500
1032.664;   27.192;  -13.210;  596.480
1033.213;   27.876;  -12.500;  735.420
1033.762;   26.786;  -11.910;  635.620
1034.311;   27.081;   -9.640;  677.220
1034.860;   28.182;  -13.310;  691.000
1035.408;   27.699;  -11.830;  722.720
1035.957;   27.684;  -12.000;  719.540
1036.506;   25.907;  -11.690;  530.800
1037.055;   28.191;  -10.990;  844.320
1037.603;   26.194;  -15.120;  664.000
1038.152;   24.534;  -12.450;  534.760
1038.700;   25.588;  -10.560;  585.740
1039.249;   25.776;  -11.080;  681.220
1039.797;   25.546;  -12.540;  633.360
1040.345;   24.609;  -11.920;  705.420
1040.894;   24.878;  -11.410;  625.300
1041.442;   24.651;  -14.320;  632.200
1041.990;   23.888;  -16.240;  559.160
1042.538;   23.555;  -11.680;  536.180
1043.087;   23.237;  -10.760;  570.860
1043.635;   25.444;  -11.850;  670.500
1044.183;   23.674;  -15.480;  586.400
1044.731;   22.872;  -11.770;  576.000
1045.279;   23.342;  -13.090;  674.920
1045.827;   26.108;  -12.440;  892.400
1046.374;   22.949;  -13.840;  515.420
1046.922;   22.194;  -13.220;  590.580
1047.470;   23.437;  -10.230;  691.300
1048.018;   23.227;  -14.590;  647.960
1048.565;   23.783;  -12.050;  708.600
1049.113;   22.132;  -11.650;  557.000
1049.660;   21.690;  -10.510;  629.660
1050.208;   22.403;  -13.310;  675.640
1050.755;   21.335;  -15.900;  606.580
1051.303;   22.520;  -11.430;  686.820
1051.850;   21.334;   -8.480;  635.120
1052.397;   19.771;  -15.010;  473.960
1052.945;   20.460;  -13.960;  617.760
1053.492;   21.981;  -13.150;  741.840
1054.039;   21.445;   -9.630;  720.180
1054.586;   20.359;  -13.680;  557.240
1055.133;   21.444;  -14.570;  693.140
1055.680;   21.292;  -13.820;  646.620
1056.227;   20.545;  -11.730;  542.780
1056.774;   21.751;  -12.480;  794.980
1057.321;   19.302;  -13.930;  523.260
1057.868;   19.538;  -11.690;  651.320
1058.415;   19.593;   -9.520;  651.980
1058.961;   19.818;  -13.160;  678.940
1059.508;   20.391;  -12.920;  643.820
1060.055;   19.754;  -11.920;  581.780
1060.601;   20.009;  -11.500;  624.300
1061.148;   19.703;  -14.330;  616.820
1061.694;   18.547;  -16.870;  592.580
1062.241;   18.648;  -10.330;  596.320
1062.787;   19.809;  -10.620;  663.140
1063.334;   20.950;  -10.110;  808.560
1063.880;   19.137;  -13.400;  668.360
1064.426;   19.314;  -10.680;  706.820
1064.972;   17.902;   -9.920;  601.340
1065.518;   17.041;  -10.980;  566.640
1066.065;   18.792;  -14.890;  624.460
1066.611;   17.447;  -12.870;  598.800
1067.157;   18.917;  -12.950;  641.860
1067.703;   17.669;  -13.540;  668.480
1068.249;   18.088;  -13.540;  605.220
1068.794;   17.353;  -12.600;  626.880
1069.340;   16.420;  -10.620;  578.960
1069.886;   17.191;  -12.830;  590.700
1070.432;   16.034;  -14.870;  541.720
1070.977;   16.462;  -11.980;  601.080
1071.523;   16.121;   -8.200;  573.060
1072.068;   16.931;  -12.330;  582.000
1072.614;   16.333;  -16.370;  527.760
1073.160;   17.170;  -11.100;  687.040
1073.705;   15.265;  -10.480;  572.520
1074.250;   15.673;  -14.520;  559.900
1074.796;   16.456;  -11.460;  655.160
1075.341;   16.083;  -11.950;  664.100
1075.886;   15.651;  -11.460;  594.240
1076.431;   15.569;  -13.770;  649.880
1076.976;   15.060;  -12.680;  639.220
1077.521;   14.704;  -13.170;  583.080
1078.067;   14.520;  -10.860;  579.400
1078.612;   15.753;  -13.920;  661.620
1079.156;   15.088;  -13.880;  601.540
1079.701;   15.037;  -13.120;  693.260
1080.246;   15.877;   -9.940;  696.300
1080.791;   14.728;  -14.740;  625.020
1081.336;   14.977;  -13.750;  659.320
1081.880;   13.959;  -13.400;  649.680
1082.425;   13.781;  -12.220;  573.480
1082.970;   15.758;  -11.610;  717.040
1083.514;   13.964;  -13.580;  597.000
1084.059;   12.763;  -12.810;  586.720
1084.603;   12.889;  -12.320;  565.840
1085.147;   14.525;  -13.190;  645.220
1085.692;   14.240;  -12.480;  716.800
1086.236;   12.660;  -13.020;  503.140
1086.780;   14.940;   -9.190;  751.440
1087.325;   13.894;  -12.480;  654.620
1087.869;   13.498;  -12.450;  610.700
1088.413;   13.677;  -12.240;  705.040
1088.957;   11.861;   -9.020;  543.400
1089.501;   13.969;  -10.320;  766.640
1090.045;   12.775;  -12.720;  726.480
1090.589;   11.079;  -13.690;  569.920
1091.133;   11.788;  -10.020;  673.340
1091.676;   12.423;  -12.330;  591.940
1092.220;   12.218;  -14.970;  600.920
1092.764;   12.942;  -12.430;  706.960
1093.307;   12.152;   -9.800;  673.780
1093.851;   10.150;  -14.970;  556.540
1094.395;   12.141;  -15.310;  683.140
1094.938;   11.613;  -10.370;  632.520
1095.482;   11.551;  -11.050;  559.800
1096.025;   12.224;  -11.840;  710.880
1096.568;   12.671;  -12.840;  779.280
1097.112;    9.719;  -14.700;  508.180
1097.655;   10.977;   -8.720;  603.000
1098.198;   10.281;  -13.610;  600.180
1098.741;   10.547;  -13.350;  612.860
1099.285;   10.988;  -11.230;  657.300
1099.828;    8.926;  -11.840;  439.400
1100.371;   10.475;  -10.840;  608.160
1100.914;   10.799;  -14.190;  682.660
1101.457;   10.335;  -11.240;  679.900
1101.999;    9.722;  -11.270;  584.680
1102.542;   10.290;  -11.480;  641.440
1103.085;    9.899;  -11.750;  658.500
1103.628;   10.480;  -11.400;  762.060
1104.170;    9.081;  -10.490;  588.280
1104.713;    9.578;  -10.600;  646.700
1105.256;    9.211;  -14.360;  557.440
1105.798;    8.406;  -13.210;  499.980
1106.341;   11.051;  -10.270;  728.900
1106.883;    9.115;  -12.200;  521.340
1107.425;    9.305;  -13.110;  668.180
1107.968;    8.879;  -12.840;  612.380
1108.510;    9.408;   -6.480;  684.960
1109.052;    7.742;  -13.940;  612.620
1109.594;    8.035;  -13.690;  554.440
1110.136;    9.310;  -11.880;  643.220
1110.679;    8.322;   -9.500;  633.080
1111.221;    9.197;  -14.160;  604.460
1111.763;    7.871;  -13.980;  559.220
1112.304;    7.382;  -13.880;  547.140
1112.846;    8.901;  -12.210;  666.240
1113.388;   10.547;  -11.390;  942.180
1113.930;    7.703;  -14.540;  694.200
1114.472;    7.191;  -12.640;  606.540
1115.013;    5.864;  -11.620;  551.280
1115.555;    6.482;  -13.640;  587.100
1116.097;    6.001;  -15.380;  579.480
1116.638;    7.077;  -12.640;  684.600
1117.180;    7.849;   -9.850;  667.740
1117.721;    7.405;  -13.690;  568.580
1118.262;    7.893;  -12.680;  677.960
1118.804;    7.346;  -12.530;  637.340
1119.345;    6.247;  -11.690;  578.400
1119.886;    7.540;  -13.380;  704.040
1120.427;    5.963;  -14.070;  589.020
1120.969;    5.427;  -13.500;  597.920
1121.510;    4.522;  -11.480;  563.060
1122.051;    6.350;  -12.830;  723.580
1122.592;    5.968;  -14.290;  655.420
1123.133;    4.570;  -12.400;  547.940
1123.673;    6.717;  -10.130;  706.480
1124.214;    5.866;  -12.930;  612.460
1124.755;    6.642;  -14.380;  639.460
1125.296;    5.192;  -14.000;  627.320
1125.836;    6.827;  -10.070;  691.500
1126.377;    4.852;  -12.640;  599.660
1126.918;    5.923;  -12.960;  614.980
1127.458;    3.785;  -13.350;  622.220
1127.999;    5.922;  -10.750;  656.980
1128.539;    5.731;  -12.350;  694.240
1129.079;    4.551;  -14.860;  632.720
1129.620;    4.104;  -13.840;  558.100
1130.160;    4.422;  -12.330;  539.480
1130.700;    4.767;  -14.530;  640.840
1131.240;    5.054;  -12.530;  643.700
1131.781;    4.475;  -14.450;  619.680
1132.321;    4.725;   -9.790;  599.120
1132.861;    3.582;  -14.860;  564.200
1133.401;    3.648;  -14.290;  593.940
1133.941;    4.465;  -11.750;  626.280
1134.481;    3.083;   -9.920;  597.580
1135.020;    3.184;  -12.290;  609.160
1135.560;    4.257;  -11.650;  674.940
1136.100;    3.130;  -16.270;  501.160
1136.640;    2.324;  -10.890;  510.480
1137.179;    2.923;  -14.180;  537.960
1137.719;    3.713;  -16.250;  605.400
1138.258;    3.524;  -14.230;  587.360
1138.798;    4.119;   -9.090;  663.780
1139.337;    2.248;  -15.130;  482.840
1139.877;    3.590;  -13.680;  642.360
1140.416;    5.676;  -11.320;  878.060
1140.955;    2.194;  -10.860;  535.380
1141.494;    3.512;  -12.920;  669.280
1142.034;    2.357;  -13.930;  583.520
1142.573;    3.450;  -11.440;  646.280
1143.112;    2.324;  -12.000;  553.480
1143.651;    2.541;  -13.670;  536.480
1144.190;    3.702;  -12.730;  691.640
1144.729;    3.026;  -14.560;  607.420
1145.267;    3.139;  -11.830;  584.900
1145.806;    3.242;  -12.230;  637.040
1146.345;    2.037;  -14.130;  635.020
1146.884;    1.656;  -11.590;  622.500
1147.422;    2.138;  -12.550;  533.060
1147.961;    3.189;  -11.180;  708.460
1148.500;    3.372;  -11.510;  669.720
1149.038;    2.542;  -11.640;  632.500
1149.577;    2.031;  -10.130;  698.640
1150.115;    0.180;  -13.970;  452.280
1150.653;    1.780;  -14.520;  607.340
1151.192;    1.503;  -12.810;  552.920
1151.730;    1.916;   -9.100;  652.560
1152.268;    1.255;  -12.220;  589.520
1152.806;    0.962;  -14.140;  571.180
1153.344;    0.140;  -12.350;  577.640
1153.882;    1.183;   -8.980;  600.060
1154.421;   -0.218;  -15.190;  470.620
1154.958;    0.126;  -15.210;  595.240
1155.496;    1.796;  -12.850;  645.280
1156.034;    0.984;   -9.940;  721.880
1156.572;    2.162;  -13.570;  667.060
1157.110;   -0.594;  -14.590;  473.940
1157.647;    1.172;  -13.030;  676.960
1158.185;    0.019;  -12.140;  564.320
1158.723;   -0.623;  -14.390;  509.200
1159.260;    0.582;  -14.090;  701.700
1159.798;    0.738;  -11.920;  658.160
1160.335;    0.354;  -11.110;  631.820

