
Integration time [ms]:   3.276
Averaging Nr. [scans]: 1000
Smoothing Nr. [pixels]: 0
Data measured with spectrometer [name]: 7414430SP
Wave   ;Sample   ;Dark     ;Reference
[nm]   ;[counts] ;[counts] ;[counts] 

288.544;  151.152;    7.793;  793.890
289.143;  155.739;    7.462;  681.602
289.742;  155.703;    8.602;  828.814
290.341;  141.171;    1.321;  789.841
290.940;  130.351;   -0.709;  730.702
291.538;  130.407;    0.881;  881.108
292.137;  131.046;    0.122;  792.581
292.736;  135.585;   -1.929;  975.101
293.335;  132.822;   -8.229;  735.086
293.934;  132.237;   -5.279;  781.677
294.532;  130.470;   -1.369; 1031.958
295.131;  117.004;   -7.641;  834.394
295.730;  117.534;   -8.420;  809.588
296.328;  116.296;   -5.611;  783.442
296.927;  116.643;   -5.781;  779.652
297.525;  117.726;   -6.361;  781.236
298.124;  107.712;  -11.382;  654.009
298.722;  111.555;   -7.641;  761.933
299.321;  109.136;   -6.811;  708.597
299.919;  107.260;   -6.991;  751.918
300.518;  104.218;  -10.362;  689.338
301.116;  105.869;   -9.581;  691.381
301.715;  105.466;   -4.891;  730.222
302.313;  104.813;   -8.801;  704.943
302.911;   99.238;   -8.522;  733.830
303.509;  105.651;   -6.171;  925.627
304.108;  103.390;   -7.311;  760.383
304.706;  102.273;   -8.321;  801.664
305.304;   97.776;  -10.222;  796.707
305.902;  102.213;   -6.021;  784.484
306.500;   98.171;   -4.971;  728.200
307.098;   97.009;   -7.061;  746.560
307.696;   94.199;   -8.801;  780.432
308.294;   94.388;   -6.411;  731.359
308.892;   97.288;   -2.901;  759.769
309.490;   93.259;   -5.041;  712.161
310.088;   91.941;   -5.002;  788.444
310.686;   95.607;   -2.041;  821.749
311.284;   91.609;   -2.351;  766.040
311.882;   89.745;   -4.422;  731.225
312.480;   85.419;   -4.192;  697.167
313.078;   86.894;   -1.172;  808.331
313.675;   87.990;   -2.601;  691.600
314.273;   83.200;   -1.312;  797.837
314.871;   81.779;   -3.942;  589.829
315.468;   80.454;   -2.802;  652.090
316.066;   83.095;   -0.701;  694.427
316.664;   76.596;   -4.362;  656.351
317.261;   80.951;   -2.872;  910.128
317.859;   75.598;   -2.022;  768.735
318.456;   76.195;   -0.531;  830.096
319.054;   72.909;   -3.912;  787.828
319.651;   71.037;   -4.752;  759.928
320.249;   69.344;   -2.602;  810.188
320.846;   67.884;   -0.821;  714.286
321.443;   65.277;   -4.642;  832.135
322.041;   62.437;   -5.002;  812.315
322.638;   59.711;   -3.982;  701.456
323.235;   60.946;   -3.411;  665.683
323.833;   58.133;   -7.361;  740.354
324.430;   54.116;   -8.611;  615.900
325.027;   54.644;   -4.061;  876.855
325.624;   54.358;   -4.031;  644.532
326.221;   51.660;   -7.481;  689.717
326.818;   51.649;   -5.281;  818.332
327.415;   54.396;   -7.460;  748.828
328.012;   53.397;   -5.510;  690.585
328.609;   53.114;   -7.880;  731.389
329.206;   50.933;   -8.331;  778.621
329.803;   50.363;   -5.121;  737.841
330.400;   52.975;   -4.510;  704.260
330.997;   54.614;   -6.441;  817.147
331.594;   52.488;   -8.831;  788.185
332.191;   58.668;   -7.621;  728.722
332.787;   60.644;   -4.591;  844.463
333.384;   59.647;   -7.412;  763.093
333.981;   58.693;   -8.293;  815.687
334.578;   61.794;   -7.052;  708.378
335.174;   64.519;   -3.102;  731.469
335.771;   63.802;   -5.943;  836.456
336.367;   60.939;   -7.393;  710.631
336.964;   64.517;   -4.063;  793.266
337.561;   62.442;   -3.813;  731.112
338.157;   58.771;   -4.654;  911.916
338.754;   55.199;   -7.934;  796.589
339.350;   53.119;   -4.414;  722.493
339.946;   56.308;   -4.664;  773.135
340.543;   47.683;   -6.375;  846.136
341.139;   42.655;   -9.815;  720.836
341.735;   39.213;   -4.526;  772.593
342.332;   38.350;   -4.895;  691.472
342.928;   38.297;   -4.295;  795.394
343.524;   32.610;   -5.476;  761.684
344.120;   29.524;   -5.856;  738.562
344.716;   31.575;   -2.155;  723.717
345.313;   30.844;   -6.275;  795.342
345.909;   25.263;   -8.815;  627.336
346.505;   26.970;   -5.305;  740.247
347.101;   27.646;   -2.674;  827.864
347.697;   27.825;   -4.344;  785.398
348.293;   22.522;   -9.975;  627.244
348.889;   23.616;   -5.774;  745.914
349.485;   23.036;   -5.004;  688.205
350.081;   23.030;   -4.704;  772.592
350.676;   18.251;   -6.635;  691.606
351.272;   22.788;   -4.504;  809.530
351.868;   22.925;   -3.914;  780.497
352.464;   19.622;   -9.044;  723.932
353.059;   15.403;   -8.314;  646.017
353.655;   18.973;   -7.024;  777.063
354.251;   20.156;   -5.343;  759.845
354.846;   15.344;   -8.604;  740.646
355.442;   13.469;   -6.945;  753.071
356.038;   14.506;   -7.564;  751.708
356.633;   14.207;   -5.814;  728.594
357.229;   12.384;   -7.364;  724.757
357.824;   10.708;   -8.024;  703.600
358.420;    9.787;   -9.384;  679.726
359.015;   10.205;   -5.104;  695.357
359.610;   11.261;   -6.854;  763.920
360.206;    5.678;  -10.185;  603.240
360.801;    8.931;   -7.054;  646.503
361.396;   10.849;   -5.034;  725.975
361.992;    5.652;   -8.284;  668.220
362.587;    2.779;   -8.625;  670.160
363.182;    5.066;   -7.674;  689.631
363.777;    5.583;   -5.164;  738.242
364.372;    6.182;   -8.604;  737.314
364.967;    1.438;   -9.055;  680.744
365.563;    6.124;   -6.114;  815.567
366.158;    3.975;   -5.814;  685.161
366.753;    3.434;   -7.854;  649.263
367.348;    2.424;   -7.804;  746.056
367.942;    1.908;   -7.954;  697.298
368.537;    1.259;   -4.984;  754.245
369.132;    0.857;   -8.564;  703.428
369.727;   -3.253;   -8.855;  638.079
370.322;   -0.984;   -6.245;  580.186
370.917;   -1.826;   -6.425;  710.646
371.511;    0.603;   -6.294;  861.834
372.106;   -2.066;   -7.685;  776.964
372.701;   -5.435;   -7.335;  585.988
373.296;    0.398;   -4.564;  863.135
373.890;   -5.056;  -10.235;  647.840
374.485;   -6.906;   -7.885;  691.199
375.079;   -3.692;   -7.324;  738.685
375.674;   -1.534;   -3.494;  812.970
376.268;   -5.975;   -8.525;  691.759
376.863;  -11.851;  -10.086;  580.327
377.457;   -5.461;   -7.025;  662.490
378.052;   -6.763;   -3.585;  764.884
378.646;   -8.316;   -7.595;  741.167
379.240;   -8.907;   -8.335;  721.176
379.835;   -7.677;   -5.785;  636.978
380.429;   -9.688;   -4.335;  562.557
381.023;   -9.519;   -6.805;  779.205
381.617;  -11.791;   -9.195;  680.106
382.212;   -9.170;   -6.905;  685.303
382.806;   -7.773;   -3.745;  760.690
383.400;  -11.909;   -7.745;  672.281
383.994;  -13.088;   -9.765;  664.870
384.588;   -9.423;   -6.564;  697.701
385.182;   -7.979;   -5.344;  726.624
385.776;   -9.286;   -8.514;  706.875
386.370;  -13.397;   -9.555;  681.968
386.964;  -11.408;   -8.715;  684.155
387.558;   -9.763;   -6.174;  598.360
388.152;  -13.590;   -8.725;  681.959
388.745;  -11.369;   -7.965;  814.707
389.339;   -9.712;   -5.924;  747.642
389.933;   -8.355;   -5.524;  695.370
390.527;   -9.852;   -7.114;  859.029
391.120;  -15.986;  -10.725;  595.318
391.714;  -13.472;   -8.035;  711.633
392.308;   -9.947;   -3.574;  780.253
392.901;  -13.617;   -7.245;  642.460
393.495;  -15.278;   -9.285;  595.414
394.089;  -13.903;   -5.895;  760.452
394.682;  -13.909;   -4.295;  697.188
395.275;  -14.450;   -9.875;  719.927
395.869;  -15.278;   -8.485;  667.314
396.462;  -13.802;   -7.455;  616.609
397.056;  -10.314;   -5.424;  776.621
397.649;  -15.062;   -6.605;  731.575
398.242;  -12.560;   -8.224;  712.645
398.836;  -11.869;   -7.474;  766.408
399.429;  -12.596;   -7.094;  631.041
400.022;  -16.487;   -9.475;  665.902
400.615;  -13.313;   -7.145;  805.609
401.208;  -11.831;   -7.174;  691.451
401.802;  -13.749;   -5.515;  699.329
402.395;  -14.986;   -9.875;  683.502
402.988;  -15.759;   -8.845;  696.627
403.581;  -12.415;   -8.874;  646.878
404.174;  -10.042;   -5.324;  686.568
404.767;  -13.531;   -9.575;  638.583
405.360;  -16.005;  -10.965;  621.445
405.953;  -10.558;   -8.764;  759.034
406.545;   -9.751;   -7.514;  725.342
407.138;  -14.477;  -10.025;  618.350
407.731;  -13.239;  -10.034;  613.303
408.324;   -9.533;   -9.374;  660.554
408.917;  -10.033;   -6.534;  681.864
409.509;  -10.996;   -8.004;  740.396
410.102;  -14.058;   -9.875;  643.948
410.695;   -8.162;   -8.604;  665.758
411.287;   -8.973;   -6.794;  599.821
411.880;  -10.063;   -9.334;  585.421
412.472;  -12.932;  -10.254;  613.092
413.065;  -10.532;   -6.714;  629.408
413.657;   -8.376;   -7.234;  576.678
414.250;   -7.783;  -10.544;  646.681
414.842;  -10.248;   -9.744;  676.353
415.434;   -8.479;   -6.994;  570.463
416.027;   -3.689;   -5.893;  652.196
416.619;   -6.108;   -7.264;  713.400
417.211;   -6.409;  -10.374;  599.352
417.804;   -3.134;   -7.993;  628.499
418.396;   -6.756;   -7.234;  607.643
418.988;   -4.702;   -9.443;  659.238
419.580;   -7.043;  -10.724;  568.276
420.172;   -5.672;  -10.323;  536.196
420.764;   -1.076;   -8.793;  672.482
421.356;   -2.350;  -11.143;  636.898
421.948;   -3.812;   -8.293;  677.661
422.540;    1.508;   -7.893;  680.027
423.132;    0.662;   -7.082;  600.641
423.724;   -2.036;   -8.653;  561.267
424.316;   -0.311;  -10.213;  621.345
424.908;    2.284;   -9.762;  591.517
425.500;    3.017;   -5.572;  647.978
426.092;    4.522;   -8.422;  648.268
426.683;    2.973;   -9.283;  684.836
427.275;    5.889;   -7.852;  641.471
427.867;    7.014;   -5.272;  668.948
428.458;    7.809;   -7.682;  732.344
429.050;    6.999;  -10.612;  680.749
429.642;    8.855;   -9.882;  743.124
430.233;    9.361;   -6.962;  569.356
430.825;   10.080;   -6.842;  724.809
431.416;    7.898;   -9.672;  698.241
432.008;   10.593;   -6.552;  651.723
432.599;   11.921;   -6.891;  656.073
433.190;    8.758;  -10.912;  637.670
433.782;    8.963;  -11.172;  590.395
434.373;   16.124;   -6.061;  884.765
434.964;   14.667;   -8.251;  602.920
435.556;   12.320;   -9.722;  634.537
436.147;   15.265;   -9.082;  758.490
436.738;   15.441;   -8.041;  701.099
437.329;   20.001;   -7.341;  721.723
437.920;   13.017;   -8.162;  666.688
438.511;   13.517;  -11.802;  564.526
439.103;   19.622;  -10.191;  623.998
439.694;   21.447;   -7.601;  681.583
440.285;   22.263;   -8.541;  764.432
440.876;   20.704;   -9.751;  845.738
441.466;   19.904;   -9.401;  575.162
442.057;   25.031;   -7.760;  665.814
442.648;   24.110;   -9.971;  746.255
443.239;   22.837;  -11.001;  620.477
443.830;   27.580;   -7.990;  704.958
444.421;   28.645;   -7.910;  655.474
445.011;   25.504;   -8.131;  693.619
445.602;   25.160;   -7.111;  743.126
446.193;   26.865;  -10.920;  488.117
446.783;   31.581;   -6.500;  640.397
447.374;   27.469;   -8.671;  692.759
447.964;   27.832;  -10.781;  713.770
448.555;   36.182;   -9.650;  822.742
449.145;   32.725;   -8.660;  662.853
449.736;   33.845;   -8.990;  803.179
450.326;   33.573;   -9.500;  713.626
450.917;   37.764;   -8.680;  675.324
451.507;   36.737;   -7.520;  600.661
452.097;   37.719;   -8.590;  746.267
452.688;   38.682;  -11.340;  742.160
453.278;   38.475;  -10.100;  566.840
453.868;   42.933;   -6.019;  793.550
454.458;   40.772;   -9.440;  651.141
455.048;   41.115;  -10.560;  711.783
455.639;   43.039;  -11.799;  567.096
456.229;   46.768;   -6.899;  710.694
456.819;   48.000;   -7.389;  751.158
457.409;   48.945;  -11.119;  773.993
457.999;   51.730;   -9.289;  737.505
458.589;   50.606;   -6.139;  686.606
459.179;   51.555;   -8.729;  717.658
459.769;   49.283;   -9.789;  627.099
460.358;   54.001;  -10.259;  797.262
460.948;   53.832;   -7.299;  689.503
461.538;   56.326;  -10.289;  660.677
462.128;   53.745;  -11.269;  664.934
462.717;   60.189;   -9.368;  710.326
463.307;   63.216;   -7.908;  705.846
463.897;   58.860;   -9.599;  656.942
464.486;   58.851;   -9.769;  837.128
465.076;   62.718;   -8.048;  733.776
465.666;   66.470;   -9.358;  652.900
466.255;   64.092;   -7.919;  785.651
466.845;   62.678;  -11.689;  666.749
467.434;   66.580;   -7.818;  725.873
468.023;   67.043;   -7.678;  658.357
468.613;   65.124;  -10.939;  713.946
469.202;   69.313;  -10.118;  646.507
469.791;   73.206;   -9.108;  737.811
470.381;   75.263;   -6.058;  742.813
470.970;   74.747;  -10.428;  711.099
471.559;   74.706;  -10.268;  733.291
472.148;   77.873;   -8.448;  675.737
472.738;   79.953;   -6.917;  765.466
473.327;   80.440;  -11.978;  637.529
473.916;   80.217;  -11.888;  737.446
474.505;   83.489;   -9.437;  751.703
475.094;   87.056;   -6.747;  806.570
475.683;   86.071;   -9.367;  797.699
476.272;   87.541;  -12.637;  730.632
476.861;   89.795;  -10.027;  706.754
477.449;   96.043;   -8.716;  728.487
478.038;   90.485;   -9.577;  692.513
478.627;   91.766;   -9.718;  714.852
479.216;   98.367;   -8.947;  769.441
479.805;  101.421;   -6.256;  783.375
480.393;  101.379;   -7.937; 1008.945
480.982;  100.730;   -7.717;  874.501
481.571;  106.172;   -9.266;  858.333
482.159;  107.179;   -7.636;  705.386
482.748;  106.807;   -9.667;  821.385
483.336;  111.361;  -10.376;  858.209
483.925;  112.796;   -7.147;  774.373
484.513;  118.547;   -7.996;  758.962
485.102;  115.466;  -10.027;  810.965
485.690;  124.462;  -10.446; 1011.050
486.278;  125.908;   -8.446;  979.329
486.867;  127.058;   -6.356;  809.662
487.455;  128.343;   -9.136;  898.229
488.043;  129.949;  -10.646;  748.361
488.631;  138.937;   -7.456; 1005.079
489.220;  141.974;   -6.636;  908.626
489.808;  142.211;  -11.036;  741.415
490.396;  150.555;  -10.246;  914.645
490.984;  155.908;   -8.556;  830.161
491.572;  166.114;   -5.886;  940.315
492.160;  172.055;   -9.486;  919.081
492.748;  182.705;  -10.976;  884.341
493.336;  205.301;   -8.776; 1019.693
493.924;  231.195;   -5.465;  958.077
494.512;  258.591;   -9.986; 1066.638
495.100;  294.912;  -10.636; 1103.280
495.687;  349.592;  -10.885; 1206.373
496.275;  412.567;   -8.126; 1150.796
496.863;  479.728;  -10.586; 1281.171
497.451;  578.095;  -11.926; 1386.805
498.038;  710.101;  -10.885; 1556.729
498.626;  818.575;   -6.315; 1741.407
499.214;  968.704;   -7.326; 2016.609
499.801; 1167.099;  -11.906; 2220.633
500.389; 1394.548;  -10.466; 2312.494
500.976; 1694.378;   -5.236; 2744.849
501.564; 2119.889;   -8.936; 3148.565
502.151; 2472.220;  -13.176; 3515.999
502.738; 2885.602;  -10.646; 3971.274
503.326; 3275.157;   -9.525; 4403.796
503.913; 3694.189;  -10.856; 5161.749
504.500; 4079.077;  -11.586; 5986.420
505.088; 4459.141;  -10.336; 6381.201
505.675; 4988.329;   -6.355; 6925.547
506.262; 5660.898;   -9.046; 7619.060
506.849; 6383.382;  -10.416; 8733.969
507.436; 6932.317;  -10.305; 9790.121
508.023; 7486.532;   -5.496; 9985.472
508.610; 7683.902;   -7.856;10434.618
509.197; 8286.923;  -10.097;11198.435
509.784; 9607.028;  -10.886;12391.194
510.371;10792.582;   -9.315;13603.713
510.958;11562.733;   -9.936;14426.586
511.545;12265.374;   -9.326;15243.775
512.132;13045.164;  -10.075;15945.876
512.719;13582.459;   -7.796;16340.369
513.305;14795.516;  -10.606;18011.766
513.892;15502.788;  -11.486;19754.971
514.479;16644.436;   -9.126;20967.805
515.066;18019.881;   -6.026;22299.793
515.652;19531.982;   -8.466;22908.660
516.239;20814.156;  -10.886;23798.875
516.825;21710.545;  -11.496;25567.275
517.412;22821.666;   -5.796;28154.959
517.998;23538.297;  -10.506;28344.111
518.585;23461.559;  -10.076;27134.219
519.171;23982.107;   -8.315;27268.576
519.758;25862.035;   -8.596;28964.129
520.344;27758.154;   -8.466;30664.494
520.930;27373.328;  -11.006;32550.605
521.516;28519.197;  -10.495;35422.895
522.103;30384.467;   -5.526;38280.004
522.689;31042.193;   -8.746;37835.117
523.275;30424.193;  -11.376;37288.613
523.861;31893.637;  -11.156;37281.395
524.447;33694.457;   -8.135;37846.949
525.033;33529.109;   -7.896;38321.949
525.619;33582.781;  -12.476;38579.285
526.205;34724.855;   -9.516;40622.875
526.791;37404.305;   -6.926;42258.836
527.377;37161.500;   -8.346;42966.902
527.963;37852.297;   -8.717;42018.949
528.549;36895.605;  -11.016;42476.828
529.135;35329.246;   -8.536;41854.852
529.721;33278.273;   -9.666;41237.711
530.306;30926.963;  -10.066;41259.445
530.892;29839.824;  -11.356;41506.047
531.478;32198.475;   -6.596;43559.613
532.063;37460.859;   -8.836;47695.563
532.649;39694.309;  -10.047;50808.324
533.235;40410.184;   -9.746;51787.500
533.820;40435.992;   -6.566;52145.035
534.406;40834.891;  -10.817;51133.488
534.991;39439.262;   -9.416;49996.805
535.576;35798.809;   -9.036;48882.852
536.162;33445.410;   -6.156;46942.285
536.747;32735.736;  -11.607;45711.746
537.333;37381.168;  -11.787;48510.180
537.918;44341.043;  -12.437;50439.891
538.503;47683.305;   -7.196;50863.711
539.088;46560.492;  -10.556;50906.922
539.673;47403.277;   -8.767;52621.965
540.259;47953.375;  -10.026;52368.094
540.844;45169.520;   -7.416;50879.109
541.429;46772.184;   -9.467;52077.777
542.014;48701.508;   -9.527;52716.695
542.599;47665.977;   -9.946;52363.281
543.184;44536.480;   -7.927;53187.137
543.769;45765.195;   -9.297;54697.605
544.354;46116.793;  -10.127;53913.914
544.938;44643.680;   -9.267;49680.164
545.523;46328.891;   -6.506;47386.277
546.108;49102.254;   -9.787;49151.949
546.693;50917.148;  -11.587;51384.637
547.278;51241.035;  -10.986;51853.254
547.862;48187.332;   -8.206;51173.750
548.447;43528.727;  -10.067;51691.395
549.031;42524.496;   -9.637;52456.703
549.616;47261.852;   -9.926;52714.516
550.201;47211.047;   -6.347;52414.598
550.785;48613.266;   -7.917;52355.059
551.370;47716.633;  -10.867;54589.453
551.954;47220.500;   -9.047;58267.348
552.538;47996.754;   -7.827;59062.176
553.123;46255.789;  -10.287;58115.285
553.707;44034.172;  -12.178;56556.285
554.291;45521.621;   -8.717;56201.668
554.876;48586.652;   -7.457;55335.762
555.460;48693.051;  -10.387;54155.703
556.044;48736.703;   -9.618;53721.484
556.628;46616.887;  -11.567;53731.016
557.212;45539.340;   -8.097;54312.531
557.796;44425.832;  -11.077;53797.773
558.380;44548.563;  -11.108;56145.984
558.964;44840.117;   -9.057;57277.930
559.548;45572.793;   -6.977;56459.641
560.132;43518.148;  -11.457;54434.543
560.716;42176.438;  -11.378;54800.617
561.300;43590.945;   -9.577;57606.945
561.884;44794.570;   -7.127;58972.445
562.467;42815.203;   -7.118;57327.570
563.051;41818.313;  -13.358;54962.434
563.635;43160.828;  -10.178;52594.473
564.219;44110.000;   -7.837;50610.410
564.802;44798.867;  -11.398;49551.180
565.386;44285.219;  -12.788;48370.953
565.969;43701.293;   -9.077;48178.871
566.553;42566.094;   -6.207;49957.305
567.136;43442.129;   -8.568;50369.594
567.720;40096.426;  -11.868;49492.004
568.303;37886.504;   -8.268;50616.352
568.887;37745.898;   -8.698;50727.148
569.470;38435.355;   -6.808;51698.379
570.053;37657.809;  -13.188;52122.078
570.637;35186.754;  -12.037;52536.438
571.220;34841.410;   -8.577;51186.098
571.803;35821.195;   -8.498;51032.762
572.386;38207.965;  -10.498;49609.887
572.969;40824.301;   -9.388;48285.926
573.552;39020.277;   -8.338;47624.285
574.135;37476.754;   -8.518;45498.641
574.718;34914.598;  -13.628;41970.434
575.301;34184.949;  -10.893;41447.137
575.884;33455.301;   -8.158;40923.836
576.467;34517.328;  -10.328;45267.723
577.050;36118.453;  -13.058;48175.543
577.633;37365.148;   -9.458;47729.328
578.216;36544.285;   -8.928;47579.793
578.799;35730.910;   -9.358;47820.996
579.381;34701.738;  -11.388;48115.551
579.964;32717.244;  -11.718;47333.766
580.547;34593.090;   -8.588;46668.969
581.129;35209.484;   -8.859;44466.141
581.712;35910.992;  -10.729;44164.922
582.294;36362.527;  -11.118;46477.855
582.877;36628.965;   -5.218;48244.254
583.459;34885.523;   -8.679;47437.895
584.042;32614.762;  -10.709;46943.219
584.624;32557.850;  -11.669;46792.227
585.206;32486.992;   -8.218;46557.250
585.789;33082.418;  -10.569;45793.773
586.371;35414.055;  -11.859;43836.391
586.953;35896.391;  -10.719;42972.492
587.536;36884.102;   -7.198;42487.211
588.118;37302.875;   -8.720;42086.414
588.700;33510.484;  -10.439;43389.930
589.282;32568.463;   -9.198;43646.039
589.864;33481.988;   -9.199;43438.109
590.446;34646.340;  -11.319;43151.926
591.028;34342.406;  -11.159;42781.867
591.610;33081.629;  -11.779;42839.098
592.192;30592.217;   -7.668;42820.402
592.774;29329.541;  -11.949;40724.277
593.356;28444.395;  -12.129;39874.789
593.937;27502.375;  -10.669;39980.648
594.519;29829.582;   -6.509;42069.633
595.101;31858.109;  -10.849;42976.031
595.683;31858.506;  -11.679;44084.441
596.264;32630.223;   -9.049;43478.797
596.846;32276.689;   -8.849;43803.672
597.427;31996.621;   -9.570;42986.934
598.009;33132.875;  -12.620;42832.219
598.591;33646.574;  -10.039;42580.086
599.172;33388.570;  -10.369;43061.805
599.753;33597.121;   -9.140;41691.469
600.335;34677.848;  -11.430;40692.520
600.916;32811.461;   -9.939;39982.422
601.498;30852.074;   -8.479;40318.617
602.079;29305.455;  -10.920;40670.609
602.660;29096.445;  -11.480;41450.898
603.241;30834.365;  -11.699;41137.738
603.823;29385.785;   -9.579;38868.797
604.404;28836.398;  -10.620;38182.785
604.985;30595.121;  -10.450;38078.047
605.566;30502.248;   -9.129;38056.633
606.147;30538.965;   -7.510;37020.418
606.728;32153.627;  -10.660;37883.359
607.309;30839.254;  -11.740;38748.273
607.890;30557.021;   -9.759;38850.230
608.471;30060.270;   -8.250;37457.918
609.051;29395.922;   -9.240;36066.457
609.632;28086.186;  -12.120;35991.074
610.213;28347.789;   -9.110;37402.641
610.794;29366.178;   -8.030;38383.363
611.374;29400.625;   -8.110;40562.387
611.955;30128.010;  -13.560;38533.727
612.536;31479.197;  -11.400;36951.789
613.116;31215.432;   -8.070;37197.891
613.697;31422.949;  -10.830;38411.125
614.277;29611.004;  -11.641;38673.938
614.858;30326.508;  -13.310;37075.863
615.438;29996.828;   -7.460;35092.906
616.019;27783.893;   -7.601;33666.301
616.599;27970.627;  -12.020;34189.023
617.179;29497.281;  -11.780;36952.047
617.760;30615.086;   -8.570;39582.574
618.340;31440.646;  -11.471;38943.977
618.920;32229.586;  -11.170;37594.156
619.500;32280.984;  -11.071;37866.938
620.080;31506.398;   -7.750;37869.043
620.660;32643.789;  -12.711;36868.617
621.241;34536.711;  -10.211;36352.309
621.821;34844.762;  -10.961;35459.520
622.401;33533.961;   -7.720;35207.414
622.980;32446.064;   -8.981;35980.422
623.560;31083.586;   -9.331;37351.328
624.140;29941.908;   -9.850;34388.582
624.720;25056.965;   -7.451;32368.764
625.300;21546.061;   -9.070;32638.629
625.880;24926.709;  -12.601;34599.035
626.459;29135.994;  -11.751;36831.738
627.039;31940.268;   -9.281;38299.098
627.619;31805.449;   -8.801;38289.574
628.198;30205.760;  -12.071;37220.695
628.778;29218.447;   -9.461;37632.563
629.357;29947.650;   -8.491;38003.012
629.937;30103.654;   -9.721;38402.039
630.516;29565.551;   -9.951;37868.801
631.096;29255.977;  -11.731;35760.410
631.675;31688.701;   -8.572;35225.219
632.254;36827.188;  -11.282;35130.289
632.834;36280.027;  -13.322;35794.570
633.413;34668.449;  -10.301;35788.922
633.992;32160.553;   -8.582;34532.863
634.571;32667.199;   -8.352;33590.113
635.151;35054.660;  -11.912;34943.863
635.730;33603.938;  -10.511;35352.523
636.309;30438.361;   -7.731;35366.605
636.888;28051.656;   -9.952;36165.637
637.467;28597.227;  -11.672;37515.902
638.046;30031.441;   -8.901;39288.695
638.625;32976.348;   -7.912;38279.699
639.204;32957.219;  -10.022;37741.598
639.782;31908.746;  -12.252;38364.551
640.361;27844.799;  -10.041;36740.621
640.940;25122.223;  -11.161;34950.082
641.519;25727.100;   -9.701;34137.398
642.097;28702.744;  -11.271;35654.258
642.676;31691.945;   -8.651;35637.957
643.255;32769.215;   -8.711;36567.074
643.833;31971.939;   -9.581;37809.434
644.412;31998.156;  -13.711;37337.293
644.990;30999.754;  -11.811;37018.531
645.569;31047.680;   -9.411;36518.469
646.147;30767.697;  -10.291;36186.430
646.726;30620.221;  -12.401;36267.688
647.304;31468.588;  -10.411;36647.625
647.882;32906.137;   -9.651;39286.742
648.461;34652.605;   -9.631;39157.703
649.039;33044.313;  -11.881;35412.883
649.617;31909.533;   -9.661;34744.918
650.195;31123.996;   -9.301;35403.098
650.773;29757.357;  -10.511;35053.797
651.352;27571.424;  -11.521;33756.816
651.930;25288.203;  -12.211;31868.773
652.508;23530.559;   -9.171;33121.551
653.086;27429.105;   -9.371;33564.793
653.663;30461.852;  -13.161;34054.668
654.241;29277.738;  -13.031;35693.309
654.819;30809.180;   -9.371;36422.906
655.397;30587.730;  -10.511;38213.484
655.975;29922.539;  -10.371;39507.625
656.553;29433.967;  -10.051;39498.223
657.130;28156.770;  -10.061;40395.480
657.708;27650.186;   -9.561;39242.020
658.286;27725.826;  -11.511;38920.020
658.863;28726.256;  -10.261;40202.898
659.441;32057.338;   -7.531;39677.938
660.018;32124.182;   -9.501;40413.355
660.596;30751.494;  -13.301;39931.414
661.173;32367.344;  -11.211;39604.531
661.750;32906.465;   -9.951;39700.070
662.328;32051.445;   -9.390;39292.809
662.905;31009.785;  -11.330;38235.648
663.482;26463.488;   -9.050;36212.305
664.060;24501.709;   -8.240;35944.945
664.637;27442.822;  -10.050;35170.785
665.214;28905.820;  -11.760;34197.523
665.791;30497.215;  -10.530;34549.520
666.368;29711.121;   -9.690;35118.578
666.945;30156.932;   -9.320;36019.418
667.522;31673.213;  -11.860;36048.438
668.099;31500.020;  -10.770;36243.914
668.676;30085.768;   -6.260;35958.875
669.253;28758.395;   -7.000;37384.730
669.830;29027.520;  -10.190;36779.629
670.407;28984.680;   -9.550;35231.289
670.984;29028.434;   -9.260;35544.270
671.560;29783.160;   -9.280;35466.867
672.137;28965.402;  -11.810;34280.863
672.714;30047.953;  -11.490;34632.863
673.290;31369.586;   -7.740;35135.422
673.867;31302.309;  -10.660;36114.480
674.443;31044.584;  -12.230;36152.859
675.020;29008.090;  -10.450;35327.238
675.596;30136.379;   -9.260;35795.176
676.173;30990.357;  -10.780;35430.355
676.749;30547.340;  -13.690;33549.516
677.326;30097.859;  -11.980;32210.012
677.902;29904.018;   -8.630;32068.871
678.478;29215.441;  -10.730;32583.891
679.054;28347.432;  -10.520;32088.928
679.631;28888.508;  -11.920;30978.848
680.207;30283.428;   -7.490;33160.887
680.783;31683.834;   -9.860;35570.363
681.359;30801.773;  -13.380;36125.184
681.935;30667.334;  -12.480;35240.922
682.511;30498.713;   -7.900;34429.961
683.087;30772.031;   -7.710;34463.680
683.663;30028.965;  -11.480;34648.898
684.239;28567.066;  -14.090;34546.457
684.815;27912.994;   -7.560;35586.375
685.390;27964.029;   -9.910;35821.895
685.966;28482.012;  -11.159;35085.871
686.542;31116.283;  -11.169;34198.230
687.118;33528.219;   -5.959;32847.707
687.693;33846.754;  -10.329;32794.027
688.269;33536.121;  -12.059;33072.367
688.844;31772.662;  -10.909;33141.664
689.420;29876.262;   -8.019;33965.742
689.995;28150.422;   -8.399;34655.523
690.571;26902.820;  -10.949;33576.742
691.146;26862.652;   -9.619;32657.219
691.722;26595.400;   -8.999;32526.979
692.297;26358.256;  -11.589;33014.617
692.872;27614.400;  -11.739;34012.254
693.448;27327.979;  -11.059;34237.434
694.023;26338.205;  -10.139;34142.672
694.598;28404.668;   -9.029;34132.031
695.173;29181.938;  -13.319;34205.250
695.748;28247.965;  -10.169;32882.488
696.323;28024.881;   -8.339;32864.906
696.898;28103.242;   -8.169;33170.004
697.473;28204.799;  -12.309;32432.984
698.048;27431.338;  -10.989;31649.303
698.623;27097.287;   -9.329;30778.141
699.198;28575.748;   -9.849;31140.119
699.773;30030.867;  -12.329;31764.299
700.348;28960.982;  -10.389;31780.816
700.922;28899.957;   -9.269;32046.375
701.497;29775.281;   -9.329;32603.574
702.072;29777.932;  -10.789;34799.871
702.646;28481.588;  -10.839;35793.172
703.221;26622.488;   -9.099;35201.590
703.795;28492.799;  -10.939;34764.527
704.370;28905.021;  -12.859;34307.367
704.944;29105.148;  -11.559;33509.887
705.519;29735.439;   -7.939;31388.584
706.093;30957.689;  -10.499;31340.104
706.668;31374.031;  -11.289;32630.281
707.242;30307.850;  -11.509;32728.779
707.816;29076.512;   -9.639;32947.238
708.390;27570.990;  -11.429;33277.855
708.965;28013.783;  -11.869;33834.336
709.539;28132.207;  -11.689;33709.273
710.113;28199.021;  -10.478;33044.313
710.687;27580.211;  -10.228;31953.992
711.261;26036.701;  -13.698;30505.949
711.835;26048.801;  -13.378;30262.369
712.409;26551.209;   -9.698;31254.447
712.983;28507.984;  -11.898;32754.986
713.557;29788.809;  -15.138;34018.824
714.131;29595.145;  -14.098;34579.625
714.704;28480.000;   -9.958;33890.262
715.278;26001.383;  -10.028;33531.102
715.852;24915.740;  -11.148;33601.660
716.425;26099.432;   -9.068;33515.117
716.999;27260.465;  -10.038;33185.555
717.573;28059.785;   -9.798;33905.996
718.146;28941.469;  -12.378;35199.293
718.720;28927.277;  -11.918;35060.551
719.293;28873.150;   -8.088;34973.230
719.867;31875.350;  -10.888;36394.449
720.440;31627.248;  -11.938;36663.008
721.013;29747.398;  -12.818;35102.426
721.587;28101.672;  -10.298;33985.266
722.160;26891.221;  -10.048;33524.965
722.733;25981.584;  -12.108;32987.043
723.306;26376.201;  -10.818;33066.301
723.880;28394.180;   -8.908;33399.500
724.453;30447.916;   -9.878;33468.297
725.026;29648.150;  -11.188;33816.637
725.599;26974.484;  -11.678;32797.996
726.172;27003.113;   -9.618;33187.434
726.745;28039.408;   -8.258;35136.613
727.318;29377.156;  -12.978;35751.730
727.891;30035.998;  -12.148;35890.430
728.463;29575.648;   -8.968;34822.090
729.036;28175.736;  -10.188;32895.086
729.609;28574.082;  -11.788;31823.225
730.182;25679.480;  -11.788;31445.283
730.754;23256.795;  -10.268;32373.223
731.327;23647.623;   -9.998;33676.820
731.900;24204.168;  -12.228;33417.000
732.472;25101.086;  -13.848;31978.498
733.045;26712.467;   -8.698;30368.777
733.617;26669.387;  -10.607;30574.215
734.190;26828.092;  -11.507;31280.975
734.762;24434.828;  -13.647;31674.412
735.334;22550.865;   -9.767;31247.291
735.907;22936.299;   -9.897;29876.211
736.479;23176.041;  -11.637;29808.488
737.051;22945.455;   -9.567;30233.547
737.623;23513.701;   -8.187;31469.086
738.195;23903.949;  -11.187;31784.225
738.768;26152.652;  -12.337;32120.523
739.340;27022.898;  -12.227;32094.342
739.912;26009.111;  -11.057;31312.680
740.484;24566.324;  -10.207;31946.238
741.056;23036.715;  -10.047;32984.059
741.628;24248.428;  -13.627;33897.715
742.199;26423.889;   -7.177;33213.016
742.771;25137.906;  -10.797;31369.113
743.343;23094.313;  -11.997;31865.473
743.915;22083.709;  -12.867;32388.631
744.487;21897.121;   -7.617;31079.568
745.058;21766.875;   -9.557;30570.107
745.630;22345.092;   -9.877;29970.127
746.201;23753.309;  -14.177;29186.766
746.773;24764.102;   -9.237;28805.723
747.344;24624.334;   -9.847;29591.223
747.916;22722.656;  -11.657;31412.201
748.487;22623.393;  -10.587;32194.898
749.059;23977.963;   -8.707;32533.719
749.630;24861.609;  -10.537;32158.518
750.201;24083.244;  -11.687;30855.395
750.773;22337.334;  -11.647;28622.555
751.344;22030.045;   -7.147;28405.732
751.915;22916.438;   -9.757;28461.551
752.486;22941.805;  -12.427;27842.850
753.057;20914.744;  -12.227;27845.008
753.628;19707.441;  -10.417;27728.107
754.199;20572.170;  -11.767;27381.086
754.770;21592.246;  -11.187;25882.203
755.341;21848.117;  -10.507;25886.184
755.912;22086.395;   -9.387;26050.861
756.483;21726.424;  -10.647;26798.779
757.054;19882.646;  -11.837;27048.238
757.625;18352.604;  -12.716;26294.838
758.195;18152.340;   -9.666;26142.076
758.766;17937.139;   -8.656;26392.234
759.337;18500.438;  -12.856;26334.594
759.907;19917.635;  -13.366;27579.652
760.478;20830.371;   -8.576;28352.770
761.048;20307.801;  -10.526;27325.088
761.619;19285.840;  -11.116;26460.428
762.189;19396.727;  -12.136;26029.826
762.760;20515.656;   -9.456;26430.145
763.330;21647.219;   -7.136;26670.902
763.900;21201.387;  -11.786;26603.021
764.471;18734.494;  -11.546;25542.740
765.041;17205.752;   -8.096;24358.459
765.611;16988.191;   -8.876;23991.297
766.181;17386.018;  -12.196;24470.236
766.751;18665.252;  -11.636;24845.975
767.321;18427.061;  -10.156;24533.633
767.891;16205.248;  -11.766;24916.492
768.461;15529.733;  -14.936;24776.771
769.031;16108.651;  -12.356;24757.988
769.601;17836.971;   -7.526;24181.088
770.171;17958.000;  -10.766;23670.387
770.741;17117.826;  -13.176;22960.045
771.311;17217.697;  -10.616;22917.523
771.880;17779.643;   -9.576;23562.941
772.450;17747.830;  -10.336;24216.500
773.020;17721.764;  -13.516;24140.398
773.589;16863.182;  -13.466;24414.857
774.159;16160.774;   -8.686;23858.717
774.729;15774.644;   -9.476;22942.135
775.298;15384.326;  -13.666;22324.033
775.867;14940.289;  -11.716;21140.313
776.437;15109.425;   -9.906;20838.092
777.006;14903.141;  -12.166;20599.510
777.576;14548.530;  -12.356;20508.809
778.145;14505.174;  -11.646;20732.947
778.714;14562.099;   -8.226;21062.465
779.283;14091.550;   -9.556;20949.664
779.853;13577.189;  -14.116;20508.623
780.422;13986.916;  -11.506;20649.082
780.991;13557.306;   -9.556;21527.520
781.560;12216.010;   -9.095;22632.658
782.129;11927.427;  -12.135;23048.277
782.698;11914.739;  -10.865;23438.555
783.267;11518.609;   -9.335;23267.734
783.836;11447.617;  -11.045;22415.133
784.404;12458.982;  -13.865;20443.152
784.973;13139.285;  -13.095;19699.150
785.542;13219.927;  -11.575;19763.828
786.111;13059.324;   -9.705;20341.408
786.679;12557.464;  -12.105;20207.967
787.248;12315.989;  -12.455;19516.465
787.817;12116.150;  -11.535;18900.363
788.385;11695.397;   -9.765;17879.121
788.954;11107.438;  -14.005;17658.301
789.522;10518.030;  -11.955;17788.879
790.090;10935.597;  -10.135;18118.277
790.659;11526.675;  -10.975;18338.736
791.227;11114.336;  -13.375;18508.615
791.795;11453.919;  -12.375;17898.254
792.364;11741.792;  -10.725;17295.133
792.932;12101.476;   -9.715;16822.051
793.500;12448.637;  -12.675;17040.148
794.068;12776.394;  -13.495;17179.787
794.636;12957.472;  -10.885;16664.246
795.204;12261.147;  -11.045;16524.545
795.772;12224.554;  -13.175;17274.564
796.340;11718.241;  -12.445;17891.002
796.908;11451.103;   -9.735;17648.561
797.476;11314.038;   -9.815;17064.080
798.044;10888.285;  -13.985;16672.777
798.612;10187.442;  -13.115;17023.996
799.180; 9814.359;  -10.185;16561.615
799.747; 9638.013;   -9.055;15962.773
800.315; 9361.856;  -12.385;15296.992
800.883; 9160.356;  -15.035;14801.771
801.450; 9353.241;  -10.365;14534.430
802.018; 9477.039;   -9.855;14173.248
802.585; 9469.297;  -11.905;14029.547
803.153; 9450.576;  -11.585;13836.846
803.720; 9247.701;   -9.095;13567.324
804.287; 8684.190;   -9.135;13360.622
804.855; 8163.685;  -11.604;13681.981
805.422; 8086.364;  -11.794;13536.560
805.989; 8179.439;  -10.734;13355.958
806.556; 8407.115;  -10.444;13747.896
807.124; 8691.383;  -12.764;13987.376
807.691; 8654.780;  -12.964;14038.674
808.258; 8428.461;  -11.134;14120.152
808.825; 8020.164;   -9.854;13860.111
809.392; 8135.757;  -10.504;13268.790
809.959; 7745.948;  -13.054;12680.389
810.526; 7247.739;   -8.294;12427.308
811.093; 7206.510;   -8.394;12030.105
811.659; 7803.831;  -12.304;11653.664
812.226; 8355.998;  -13.944;11637.183
812.793; 8087.383;  -10.484;11611.521
813.360; 7438.891;  -10.144;11885.181
813.926; 7114.401;  -11.684;12770.539
814.493; 6935.458;  -13.644;12677.638
815.060; 6561.624;   -9.724;11974.336
815.626; 6509.597;   -9.854;11594.715
816.193; 6882.210;  -13.254;11579.474
816.759; 6917.476;  -13.204;11666.972
817.325; 6944.480;   -9.434;11325.530
817.892; 7293.084;  -10.134;11105.369
818.458; 7723.282;  -13.474;10843.928
819.024; 7348.750;  -11.854;10714.406
819.591; 7075.872;  -10.244;10469.165
820.157; 6904.810;  -10.704;10235.523
820.723; 6415.104;  -12.324;10847.563
821.289; 6126.899;   -9.444;11040.980
821.855; 6066.757;   -8.374;10357.100
822.421; 6013.130;  -10.234; 9978.918
822.987; 5927.902;  -13.294; 9754.177
823.553; 5532.150;  -10.884;10065.755
824.119; 5345.454;   -8.884;10036.294
824.685; 5514.435;   -6.784;10029.192
825.251; 5649.514;  -12.004;10199.230
825.816; 5598.478;  -11.474; 9820.189
826.382; 5309.155;   -9.174; 9297.248
826.948; 5447.091;   -9.214; 9381.347
827.513; 5859.950;  -10.774; 9450.726
828.079; 5728.743;  -11.924; 9472.444
828.645; 5134.638;  -10.543; 9292.643
829.210; 4950.346;  -10.533; 9065.341
829.776; 4907.501;  -10.753; 9132.620
830.341; 4794.978;  -10.173; 9092.878
830.906; 4959.987;  -10.743; 9078.557
831.472; 5304.765;  -11.113; 8534.535
832.037; 5120.879;  -10.603; 8677.874
832.602; 4605.023;  -13.323; 8628.692
833.167; 4345.628;  -10.823; 8879.031
833.733; 4286.920;  -10.113; 9189.790
834.298; 4422.881;  -13.583; 9052.608
834.863; 4555.886;  -12.703; 8895.087
835.428; 4587.519;  -10.523; 8824.266
835.993; 4445.242;   -6.963; 8845.385
836.558; 4253.635;  -10.763; 8888.563
837.123; 4318.873;   -9.903; 8966.582
837.688; 4583.120;   -9.913; 8617.860
838.253; 4835.063;  -10.283; 8590.699
838.817; 5010.687;  -12.963; 8443.797
839.382; 4946.687;  -14.243; 8799.356
839.947; 4643.706;  -10.733; 8810.595
840.511; 4333.634;   -9.383; 8796.394
841.076; 3936.094;  -12.563; 8347.231
841.641; 3982.087;  -12.953; 8224.330
842.205; 4073.349;   -7.043; 8223.349
842.770; 4099.244;   -8.163; 8622.107
843.334; 4242.111;  -12.503; 8410.386
843.898; 4213.850;  -11.693; 8337.465
844.463; 4216.508;  -10.203; 8506.283
845.027; 4019.305;   -9.533; 8280.962
845.591; 3842.811;  -13.443; 8231.141
846.156; 3841.433;  -13.143; 7969.179
846.720; 3763.257;   -9.433; 7768.278
847.284; 3657.625;  -11.033; 7630.957
847.848; 3511.085;  -10.403; 7472.395
848.412; 3397.481;  -11.553; 7437.394
848.976; 3424.906;   -8.393; 7674.592
849.540; 3353.961;   -8.713; 7836.011
850.104; 3404.911;  -12.463; 7913.669
850.668; 3756.464;  -12.973; 7694.508
851.232; 3924.947;  -10.793; 7756.887
851.796; 3790.772;  -10.662; 7926.545
852.359; 3470.748;  -13.082; 7827.844
852.923; 3294.120;  -12.192; 7641.163
853.487; 3154.237;  -11.912; 7342.501
854.050; 3139.551;  -10.892; 7042.820
854.614; 3279.267;  -13.992; 7151.338
855.177; 3381.629;  -11.732; 7105.077
855.741; 3420.093;   -8.962; 6989.675
856.304; 3330.597;   -9.442; 6596.634
856.868; 3312.152;  -14.192; 6356.272
857.431; 3437.111;  -12.702; 6468.571
857.995; 3573.028;   -9.942; 6373.210
858.558; 3603.869;   -9.112; 6324.448
859.121; 3335.354;  -12.932; 6408.327
859.684; 3154.083;  -13.442; 6347.886
860.247; 3240.731;  -10.632; 6321.264
860.810; 3267.797;  -11.272; 6301.903
861.374; 3022.969;   -9.832; 6607.881
861.937; 2754.560;  -11.762; 6408.200
862.500; 2752.792;   -9.722; 6572.639
863.062; 2903.785;  -10.512; 6387.297
863.625; 3037.098;  -11.232; 6190.836
864.188; 3201.268;  -14.112; 5807.254
864.751; 3300.190;  -11.302; 5682.413
865.314; 3225.108;  -10.112; 5547.492
865.876; 3006.722;  -12.182; 5500.150
866.439; 2973.614;  -10.722; 5415.909
867.002; 2929.195;   -9.252; 5501.567
867.564; 2739.436;   -9.572; 5413.946
868.127; 2520.581;  -13.142; 5160.325
868.689; 2391.459;  -12.902; 5133.183
869.252; 2275.361;   -9.732; 5252.382
869.814; 2166.620;   -9.432; 5297.141
870.377; 2178.055;  -11.552; 5390.919
870.939; 2257.292;   -9.052; 5599.898
871.501; 2344.372;  -10.982; 5248.336
872.063; 2356.335;  -12.292; 4854.235
872.626; 2291.462;  -14.912; 4817.074
873.188; 2277.483;  -13.112; 4987.732
873.750; 2258.109;  -13.442; 4868.651
874.312; 2183.628;   -9.402; 4779.330
874.874; 2101.442;  -11.062; 4866.348
875.436; 2017.300;  -13.931; 4718.887
875.998; 2012.792;   -9.561; 4660.005
876.560; 2044.305;  -11.321; 4462.964
877.122; 1985.338;  -12.221; 4145.042
877.683; 1881.804;  -12.191; 4056.481
878.245; 1800.838;  -12.101; 3950.740
878.807; 1836.051;   -8.971; 4058.958
879.369; 1862.400;  -12.071; 3954.677
879.930; 1781.141;  -14.621; 3941.495
880.492; 1726.167;  -10.311; 4067.014
881.053; 1697.250;  -10.901; 3859.633
881.615; 1590.750;  -14.411; 3776.071
882.176; 1489.300;  -13.761; 3734.750
882.738; 1437.811;   -9.181; 3678.489
883.299; 1425.959;  -11.791; 3405.407
883.860; 1458.812;  -13.121; 3351.106
884.422; 1518.098;  -11.211; 3394.044
884.983; 1546.863;  -10.091; 3166.443
885.544; 1439.608;   -8.461; 3189.802
886.105; 1177.596;  -12.361; 3160.360
886.666;  874.166;  -14.141; 3093.059
887.227;  659.382;  -11.361; 2941.957
887.788;  572.808;  -11.401; 2974.836
888.349;  556.552;  -13.791; 2721.214
888.910;  588.131;  -13.191; 2696.493
889.471;  625.717;   -9.881; 2560.172
890.032;  642.379;   -9.881; 2558.190
890.593;  647.240;  -10.371; 2567.669
891.153;  648.831;  -13.301; 2460.307
891.714;  632.572;  -11.431; 2372.046
892.275;  618.985;  -11.291; 2309.505
892.835;  599.683;  -11.471; 2382.543
893.396;  560.779;  -11.541; 2295.502
893.956;  514.088;  -11.181; 2162.420
894.517;  482.313;  -11.741; 2125.439
895.077;  478.561;  -11.671; 2086.978
895.638;  483.546;  -11.311; 2126.316
896.198;  460.029;   -9.831; 1838.275
896.758;  422.739;   -8.421; 1892.813
897.319;  396.608;  -12.351; 1792.232
897.879;  383.251;  -13.511; 1762.751
898.439;  360.181;  -12.001; 1661.149
898.999;  338.807;  -10.180; 1781.468
899.559;  330.210;  -12.030; 1703.347
900.119;  325.066;  -15.710; 1537.525
900.679;  321.931;   -8.900; 1638.384
901.239;  308.706;   -8.340; 1527.902
901.799;  298.663;  -13.910; 1456.441
902.359;  293.315;  -13.460; 1357.140
902.919;  287.295;  -11.490; 1331.118
903.479;  276.343;  -12.110; 1317.257
904.038;  256.712;  -11.720; 1262.595
904.598;  241.580;  -13.610; 1152.034
905.158;  238.674;  -11.040; 1240.893
905.717;  233.195;  -10.900; 1233.691
906.277;  222.884;  -15.080; 1217.330
906.836;  212.215;  -13.380; 1222.408
907.396;  201.666;  -10.780; 1193.047
907.955;  194.008;   -8.500; 1182.526
908.515;  187.997;  -12.760; 1099.364
909.074;  182.807;  -11.900; 1092.863
909.633;  177.740;   -8.950; 1069.121
910.192;  174.002;   -8.770; 1196.460
910.752;  169.445;  -12.390; 1029.960
911.311;  166.143;  -13.680; 1009.780
911.870;  163.544;  -12.370;  971.460
912.429;  164.598;  -10.900; 1094.080
912.988;  164.271;  -11.690; 1081.060
913.547;  159.661;  -13.240;  940.380
914.106;  154.903;  -11.990;  999.420
914.665;  153.315;   -9.990;  984.020
915.224;  151.589;  -12.880; 1035.760
915.782;  151.269;  -12.350;  922.560
916.341;  151.589;   -9.110; 1049.840
916.900;  145.952;   -9.270;  925.260
917.458;  145.121;  -13.240;  884.220
918.017;  145.332;  -13.550;  942.600
918.576;  144.746;  -12.320;  904.440
919.134;  143.258;  -11.490;  837.980
919.693;  142.037;  -13.670;  893.060
920.251;  140.223;  -15.470;  876.500
920.809;  138.956;  -11.290;  839.580
921.368;  138.368;  -10.210;  885.360
921.926;  136.890;  -12.140;  842.940
922.484;  136.362;  -13.080;  903.360
923.042;  135.830;  -11.720;  880.340
923.601;  138.279;   -7.480;  998.680
924.159;  137.675;  -11.570;  935.560
924.717;  133.692;  -13.840;  841.080
925.275;  133.067;  -10.640;  903.240
925.833;  133.268;  -11.540;  779.320
926.391;  134.246;  -12.960;  938.380
926.949;  132.525;  -14.130;  857.680
927.506;  132.721;  -11.750;  903.500
928.064;  132.577;  -10.250;  877.580
928.622;  131.779;  -13.030;  880.100
929.180;  131.430;  -13.400;  814.180
929.737;  132.525;  -10.700;  808.540
930.295;  136.210;  -10.070;  928.480
930.853;  138.025;  -11.960;  849.100
931.410;  139.060;  -13.120;  821.120
931.968;  137.716;  -10.770;  940.660
932.525;  137.990;  -10.680;  909.380
933.082;  138.349;  -13.130;  811.440
933.640;  139.148;  -13.210;  925.900
934.197;  136.866;  -11.060;  886.360
934.754;  137.891;   -9.580;  897.780
935.312;  141.065;  -14.000;  863.340
935.869;  144.794;  -10.710; 1012.980
936.426;  145.084;   -9.860;  872.800
936.983;  145.661;   -9.710;  889.020
937.540;  147.331;  -13.990;  838.280
938.097;  145.676;  -14.040;  940.120
938.654;  145.803;  -10.310;  898.860
939.211;  147.449;  -10.560;  952.480
939.768;  151.176;  -13.900;  915.420
940.324;  154.990;  -14.760;  904.200
940.881;  156.211;  -10.370;  878.500
941.438;  157.758;   -8.260; 1021.200
941.995;  153.791;  -12.540;  992.560
942.551;  150.322;  -14.670;  875.620
943.108;  149.422;  -10.450;  937.920
943.664;  152.548;  -10.750;  869.340
944.221;  156.531;  -11.550; 1088.140
944.777;  153.504;  -14.770;  869.680
945.334;  153.400;  -12.820;  884.840
945.890;  155.319;  -10.130;  946.480
946.446;  155.995;  -13.470;  947.020
947.003;  158.651;  -12.120;  964.940
947.559;  160.188;   -9.980; 1063.040
948.115;  159.527;   -9.080; 1026.540
948.671;  157.386;  -10.830;  967.300
949.227;  155.695;  -12.440;  859.560
949.783;  152.668;  -12.910;  858.900
950.339;  155.183;  -10.270;  991.000
950.895;  155.453;  -13.630; 1023.840
951.451;  154.017;  -15.100;  925.280
952.007;  153.921;  -11.330;  998.540
952.563;  153.628;  -10.580;  937.780
953.118;  152.219;  -13.440;  904.940
953.674;  150.811;  -12.710;  935.780
954.230;  149.962;  -10.350;  949.640
954.785;  148.100;   -9.190;  936.640
955.341;  146.877;  -11.200;  998.160
955.897;  144.896;  -16.560;  834.660
956.452;  146.564;  -12.570;  953.840
957.008;  146.161;   -7.970; 1083.640
957.563;  143.805;  -11.940; 1009.540
958.118;  139.541;  -13.450;  877.700
958.674;  139.630;  -12.030;  946.780
959.229;  140.684;   -9.410; 1013.980
959.784;  138.920;  -12.000;  832.400
960.339;  137.361;  -14.780; 1001.280
960.894;  133.940;   -9.860;  963.760
961.449;  130.042;   -9.970;  859.960
962.004;  130.274;  -10.900; 1212.840
962.559;  124.718;  -13.150;  860.140
963.114;  122.249;  -13.740;  742.480
963.669;  121.748;   -9.820;  915.500
964.224;  120.719;  -13.890;  874.340
964.779;  118.724;  -12.600;  828.420
965.334;  120.023;  -10.950; 1017.860
965.888;  119.493;  -11.170;  875.360
966.443;  121.929;  -12.540;  972.380
966.998;  121.458;  -15.780;  819.460
967.552;  120.163;   -9.760;  908.380
968.107;  116.365;   -9.060;  868.300
968.661;  118.291;  -11.950;  922.440
969.216;  118.373;  -12.800;  856.280
969.770;  118.258;  -11.210;  917.200
970.324;  117.718;  -11.610;  923.140
970.879;  114.674;  -11.370;  947.180
971.433;  111.208;  -12.540;  952.720
971.987;  106.108;  -11.320;  895.340
972.541;  103.084;  -10.720;  917.100
973.095;  102.527;   -9.680; 1009.460
973.649;  100.565;  -11.440;  809.480
974.203;  100.098;  -11.210;  829.040
974.757;  100.371;  -10.240;  855.220
975.311;  101.142;  -13.720;  872.600
975.865;  100.565;  -13.770;  881.820
976.419;   97.900;  -11.690;  857.400
976.973;   98.260;   -9.510;  849.620
977.526;   99.816;  -12.620;  949.920
978.080;   98.931;  -12.010;  796.780
978.634;   99.774;  -10.170;  921.320
979.187;   98.196;   -9.020;  905.400
979.741;   95.937;   -9.820; 1018.380
980.294;   91.033;  -14.870;  789.160
980.848;   88.948;  -12.380;  717.220
981.401;   90.611;  -10.350;  816.540
981.955;   93.162;  -13.720;  844.300
982.508;   92.104;  -11.490;  746.340
983.061;   91.840;  -10.000;  915.260
983.615;   88.929;  -11.480;  798.800
984.168;   85.491;  -13.220;  770.080
984.721;   84.355;  -13.960;  880.760
985.274;   83.858;  -10.870;  867.500
985.827;   83.030;   -9.790;  834.220
986.380;   80.603;  -13.120;  721.340
986.933;   79.459;  -12.450;  864.800
987.486;   77.876;  -10.210;  861.920
988.039;   77.466;   -8.430;  863.100
988.591;   75.048;  -10.520;  893.260
989.144;   72.925;  -14.860;  737.260
989.697;   71.578;  -13.080;  758.740
990.250;   72.206;  -10.150;  858.100
990.802;   71.465;  -13.430;  755.860
991.355;   71.921;  -12.750;  974.880
991.907;   69.824;  -12.040;  864.320
992.460;   67.726;  -11.330;  753.760
993.012;   67.309;  -13.610;  749.540
993.565;   65.825;  -13.460;  711.360
994.117;   67.504;   -9.360;  950.780
994.669;   63.939;  -11.300;  701.320
995.221;   62.538;  -13.540;  791.920
995.774;   60.218;  -13.430;  787.580
996.326;   59.196;  -12.520;  740.220
996.878;   58.580;  -10.950;  838.420
997.430;   56.978;  -14.300;  699.860
997.982;   55.868;  -13.760;  750.140
998.534;   55.163;  -11.530;  739.060
999.086;   54.410;  -10.310;  738.220
999.638;   52.803;  -12.530;  661.380
1000.190;   52.914;  -11.840;  699.320
1000.741;   51.712;  -10.260;  742.700
1001.293;   51.764;   -8.860;  686.020
1001.845;   50.003;  -13.700;  676.640
1002.396;   49.895;  -12.100;  743.400
1002.948;   49.641;  -12.760;  737.400
1003.500;   47.982;  -10.380;  723.780
1004.051;   49.160;  -11.900;  907.580
1004.603;   46.768;  -12.250;  791.820
1005.154;   43.323;  -13.210;  608.980
1005.705;   42.947;  -10.950;  723.960
1006.257;   42.219;  -13.880;  707.220
1006.808;   41.789;  -12.840;  685.460
1007.359;   41.356;  -10.570;  763.240
1007.910;   39.611;   -9.620;  646.640
1008.461;   40.228;  -13.630;  732.940
1009.013;   38.779;  -17.200;  588.340
1009.564;   39.497;  -10.200;  793.520
1010.115;   37.697;  -12.570;  597.040
1010.665;   37.992;  -15.150;  602.160
1011.216;   37.067;  -14.480;  667.920
1011.767;   36.932;  -11.340;  697.920
1012.318;   37.100;   -9.780;  736.980
1012.869;   35.971;  -12.380;  679.000
1013.419;   35.704;  -15.560;  603.120
1013.970;   35.756;  -11.010;  666.640
1014.521;   34.766;  -11.610;  620.620
1015.071;   35.532;  -13.450;  670.380
1015.622;   34.688;  -13.870;  635.460
1016.172;   34.022;  -11.610;  596.820
1016.723;   33.776;  -12.120;  614.380
1017.273;   33.702;  -13.620;  604.160
1017.823;   34.072;  -14.140;  650.340
1018.374;   33.178;  -12.800;  611.760
1018.924;   33.415;  -12.340;  716.880
1019.474;   32.686;  -11.410;  718.880
1020.024;   32.185;  -14.770;  657.580
1020.574;   32.472;   -9.780;  726.160
1021.124;   32.800;   -8.560;  673.580
1021.674;   31.233;  -15.190;  559.120
1022.224;   32.844;  -13.530;  708.940
1022.774;   32.124;  -13.280;  668.820
1023.324;   31.921;  -10.690;  753.520
1023.874;   33.648;  -10.240;  875.760
1024.423;   31.225;  -12.540;  613.700
1024.973;   30.531;  -10.010;  610.760
1025.523;   29.333;  -10.550;  620.960
1026.072;   30.225;  -13.560;  606.420
1026.622;   29.710;  -15.120;  675.740
1027.172;   30.819;  -11.260;  715.660
1027.721;   29.627;  -11.410;  601.220
1028.270;   29.573;  -13.530;  663.400
1028.820;   29.919;  -13.680;  638.080
1029.369;   28.991;  -13.520;  612.700
1029.918;   29.437;  -10.980;  649.840
1030.468;   28.481;  -13.530;  564.780
1031.017;   29.434;  -13.170;  634.800
1031.566;   28.067;  -12.200;  608.900
1032.115;   28.432;   -9.960;  694.500
1032.664;   27.170;  -13.210;  596.480
1033.213;   27.665;  -12.500;  735.420
1033.762;   27.905;  -11.910;  635.620
1034.311;   27.575;   -9.640;  677.220
1034.860;   27.947;  -13.310;  691.000
1035.408;   27.743;  -11.830;  722.720
1035.957;   27.589;  -12.000;  719.540
1036.506;   25.756;  -11.690;  530.800
1037.055;   28.333;  -10.990;  844.320
1037.603;   26.650;  -15.120;  664.000
1038.152;   24.207;  -12.450;  534.760
1038.700;   25.096;  -10.560;  585.740
1039.249;   25.931;  -11.080;  681.220
1039.797;   25.787;  -12.540;  633.360
1040.345;   25.122;  -11.920;  705.420
1040.894;   25.277;  -11.410;  625.300
1041.442;   24.877;  -14.320;  632.200
1041.990;   24.447;  -16.240;  559.160
1042.538;   24.393;  -11.680;  536.180
1043.087;   23.766;  -10.760;  570.860
1043.635;   25.765;  -11.850;  670.500
1044.183;   23.710;  -15.480;  586.400
1044.731;   23.275;  -11.770;  576.000
1045.279;   23.283;  -13.090;  674.920
1045.827;   26.020;  -12.440;  892.400
1046.374;   22.114;  -13.840;  515.420
1046.922;   22.265;  -13.220;  590.580
1047.470;   23.841;  -10.230;  691.300
1048.018;   23.059;  -14.590;  647.960
1048.565;   23.858;  -12.050;  708.600
1049.113;   22.225;  -11.650;  557.000
1049.660;   21.778;  -10.510;  629.660
1050.208;   22.994;  -13.310;  675.640
1050.755;   21.280;  -15.900;  606.580
1051.303;   22.744;  -11.430;  686.820
1051.850;   21.661;   -8.480;  635.120
1052.397;   20.109;  -15.010;  473.960
1052.945;   20.985;  -13.960;  617.760
1053.492;   22.213;  -13.150;  741.840
1054.039;   22.470;   -9.630;  720.180
1054.586;   20.541;  -13.680;  557.240
1055.133;   21.668;  -14.570;  693.140
1055.680;   21.365;  -13.820;  646.620
1056.227;   20.340;  -11.730;  542.780
1056.774;   22.128;  -12.480;  794.980
1057.321;   19.079;  -13.930;  523.260
1057.868;   20.025;  -11.690;  651.320
1058.415;   19.756;   -9.520;  651.980
1058.961;   20.301;  -13.160;  678.940
1059.508;   20.098;  -12.920;  643.820
1060.055;   19.362;  -11.920;  581.780
1060.601;   20.550;  -11.500;  624.300
1061.148;   19.345;  -14.330;  616.820
1061.694;   18.592;  -16.870;  592.580
1062.241;   19.319;  -10.330;  596.320
1062.787;   19.498;  -10.620;  663.140
1063.334;   20.421;  -10.110;  808.560
1063.880;   19.106;  -13.400;  668.360
1064.426;   19.194;  -10.680;  706.820
1064.972;   17.656;   -9.920;  601.340
1065.518;   17.073;  -10.980;  566.640
1066.065;   18.150;  -14.890;  624.460
1066.611;   18.131;  -12.870;  598.800
1067.157;   18.450;  -12.950;  641.860
1067.703;   18.262;  -13.540;  668.480
1068.249;   17.878;  -13.540;  605.220
1068.794;   17.569;  -12.600;  626.880
1069.340;   16.447;  -10.620;  578.960
1069.886;   17.496;  -12.830;  590.700
1070.432;   16.209;  -14.870;  541.720
1070.977;   16.363;  -11.980;  601.080
1071.523;   16.224;   -8.200;  573.060
1072.068;   16.651;  -12.330;  582.000
1072.614;   16.466;  -16.370;  527.760
1073.160;   16.912;  -11.100;  687.040
1073.705;   15.665;  -10.480;  572.520
1074.250;   15.900;  -14.520;  559.900
1074.796;   16.744;  -11.460;  655.160
1075.341;   17.212;  -11.950;  664.100
1075.886;   15.720;  -11.460;  594.240
1076.431;   14.999;  -13.770;  649.880
1076.976;   15.712;  -12.680;  639.220
1077.521;   14.740;  -13.170;  583.080
1078.067;   14.479;  -10.860;  579.400
1078.612;   14.832;  -13.920;  661.620
1079.156;   14.780;  -13.880;  601.540
1079.701;   15.329;  -13.120;  693.260
1080.246;   16.624;   -9.940;  696.300
1080.791;   14.590;  -14.740;  625.020
1081.336;   14.764;  -13.750;  659.320
1081.880;   14.765;  -13.400;  649.680
1082.425;   13.943;  -12.220;  573.480
1082.970;   15.771;  -11.610;  717.040
1083.514;   14.461;  -13.580;  597.000
1084.059;   12.931;  -12.810;  586.720
1084.603;   13.094;  -12.320;  565.840
1085.147;   14.131;  -13.190;  645.220
1085.692;   15.031;  -12.480;  716.800
1086.236;   12.369;  -13.020;  503.140
1086.780;   14.755;   -9.190;  751.440
1087.325;   14.210;  -12.480;  654.620
1087.869;   13.335;  -12.450;  610.700
1088.413;   13.816;  -12.240;  705.040
1088.957;   11.515;   -9.020;  543.400
1089.501;   13.789;  -10.320;  766.640
1090.045;   13.221;  -12.720;  726.480
1090.589;   11.645;  -13.690;  569.920
1091.133;   12.757;  -10.020;  673.340
1091.676;   12.435;  -12.330;  591.940
1092.220;   11.975;  -14.970;  600.920
1092.764;   12.429;  -12.430;  706.960
1093.307;   12.816;   -9.800;  673.780
1093.851;   11.476;  -14.970;  556.540
1094.395;   11.676;  -15.310;  683.140
1094.938;   12.198;  -10.370;  632.520
1095.482;   11.229;  -11.050;  559.800
1096.025;   12.109;  -11.840;  710.880
1096.568;   12.102;  -12.840;  779.280
1097.112;    9.599;  -14.700;  508.180
1097.655;   11.281;   -8.720;  603.000
1098.198;    9.872;  -13.610;  600.180
1098.741;   10.391;  -13.350;  612.860
1099.285;   11.022;  -11.230;  657.300
1099.828;    9.379;  -11.840;  439.400
1100.371;   10.248;  -10.840;  608.160
1100.914;   10.562;  -14.190;  682.660
1101.457;   10.679;  -11.240;  679.900
1101.999;    9.162;  -11.270;  584.680
1102.542;   10.191;  -11.480;  641.440
1103.085;    9.811;  -11.750;  658.500
1103.628;   10.809;  -11.400;  762.060
1104.170;    8.995;  -10.490;  588.280
1104.713;   10.259;  -10.600;  646.700
1105.256;    9.046;  -14.360;  557.440
1105.798;    8.548;  -13.210;  499.980
1106.341;   10.290;  -10.270;  728.900
1106.883;    9.145;  -12.200;  521.340
1107.425;    9.010;  -13.110;  668.180
1107.968;    9.090;  -12.840;  612.380
1108.510;    9.129;   -6.480;  684.960
1109.052;    8.449;  -13.940;  612.620
1109.594;    8.491;  -13.690;  554.440
1110.136;    9.687;  -11.880;  643.220
1110.679;    7.709;   -9.500;  633.080
1111.221;    8.402;  -14.160;  604.460
1111.763;    8.128;  -13.980;  559.220
1112.304;    7.694;  -13.880;  547.140
1112.846;    8.803;  -12.210;  666.240
1113.388;   11.045;  -11.390;  942.180
1113.930;    8.441;  -14.540;  694.200
1114.472;    7.184;  -12.640;  606.540
1115.013;    6.149;  -11.620;  551.280
1115.555;    6.616;  -13.640;  587.100
1116.097;    5.977;  -15.380;  579.480
1116.638;    7.531;  -12.640;  684.600
1117.180;    6.672;   -9.850;  667.740
1117.721;    7.070;  -13.690;  568.580
1118.262;    7.986;  -12.680;  677.960
1118.804;    7.458;  -12.530;  637.340
1119.345;    5.693;  -11.690;  578.400
1119.886;    7.945;  -13.380;  704.040
1120.427;    6.047;  -14.070;  589.020
1120.969;    5.698;  -13.500;  597.920
1121.510;    4.868;  -11.480;  563.060
1122.051;    6.765;  -12.830;  723.580
1122.592;    5.649;  -14.290;  655.420
1123.133;    4.880;  -12.400;  547.940
1123.673;    6.548;  -10.130;  706.480
1124.214;    6.192;  -12.930;  612.460
1124.755;    6.504;  -14.380;  639.460
1125.296;    6.502;  -14.000;  627.320
1125.836;    6.098;  -10.070;  691.500
1126.377;    5.988;  -12.640;  599.660
1126.918;    5.685;  -12.960;  614.980
1127.458;    4.610;  -13.350;  622.220
1127.999;    5.604;  -10.750;  656.980
1128.539;    6.487;  -12.350;  694.240
1129.079;    4.557;  -14.860;  632.720
1129.620;    4.546;  -13.840;  558.100
1130.160;    4.252;  -12.330;  539.480
1130.700;    5.029;  -14.530;  640.840
1131.240;    5.330;  -12.530;  643.700
1131.781;    4.310;  -14.450;  619.680
1132.321;    4.690;   -9.790;  599.120
1132.861;    3.410;  -14.860;  564.200
1133.401;    3.422;  -14.290;  593.940
1133.941;    4.153;  -11.750;  626.280
1134.481;    3.418;   -9.920;  597.580
1135.020;    4.293;  -12.290;  609.160
1135.560;    4.348;  -11.650;  674.940
1136.100;    3.242;  -16.270;  501.160
1136.640;    3.205;  -10.890;  510.480
1137.179;    3.713;  -14.180;  537.960
1137.719;    3.675;  -16.250;  605.400
1138.258;    3.717;  -14.230;  587.360
1138.798;    3.672;   -9.090;  663.780
1139.337;    2.061;  -15.130;  482.840
1139.877;    3.177;  -13.680;  642.360
1140.416;    5.293;  -11.320;  878.060
1140.955;    2.516;  -10.860;  535.380
1141.494;    3.317;  -12.920;  669.280
1142.034;    2.404;  -13.930;  583.520
1142.573;    3.433;  -11.440;  646.280
1143.112;    2.227;  -12.000;  553.480
1143.651;    2.443;  -13.670;  536.480
1144.190;    3.484;  -12.730;  691.640
1144.729;    2.079;  -14.560;  607.420
1145.267;    2.373;  -11.830;  584.900
1145.806;    3.054;  -12.230;  637.040
1146.345;    2.007;  -14.130;  635.020
1146.884;    2.348;  -11.590;  622.500
1147.422;    0.934;  -12.550;  533.060
1147.961;    3.863;  -11.180;  708.460
1148.500;    3.067;  -11.510;  669.720
1149.038;    3.014;  -11.640;  632.500
1149.577;    2.660;  -10.130;  698.640
1150.115;    0.327;  -13.970;  452.280
1150.653;    1.784;  -14.520;  607.340
1151.192;    2.115;  -12.810;  552.920
1151.730;    1.109;   -9.100;  652.560
1152.268;    1.032;  -12.220;  589.520
1152.806;    1.320;  -14.140;  571.180
1153.344;    0.271;  -12.350;  577.640
1153.882;    1.158;   -8.980;  600.060
1154.421;    0.184;  -15.190;  470.620
1154.958;    0.583;  -15.210;  595.240
1155.496;    1.910;  -12.850;  645.280
1156.034;    2.050;   -9.940;  721.880
1156.572;    1.765;  -13.570;  667.060
1157.110;   -0.247;  -14.590;  473.940
1157.647;    0.999;  -13.030;  676.960
1158.185;   -0.355;  -12.140;  564.320
1158.723;   -1.026;  -14.390;  509.200
1159.260;    0.715;  -14.090;  701.700
1159.798;    1.107;  -11.920;  658.160
1160.335;   -0.020;  -11.110;  631.820

