gmr_left
Integration time [ms]: 384.568
Averaging Nr. [scans]: 20
Smoothing Nr. [pixels]: 0
Data measured with spectrometer [name]: 7414430SP
Wave   ;Sample   ;Dark     ;Reference
[nm]   ;[counts] ;[counts] ;[counts] 

288.544;  639.954;  568.515;  793.890
289.143;  540.514;  409.561;  681.602
289.742;  668.382;  554.563;  828.814
290.341;  639.164;  505.621;  789.841
290.940;  592.534;  470.651;  730.702
291.538;  713.741;  638.612;  881.108
292.137;  645.619;  534.599;  792.581
292.736;  812.214;  681.621;  975.101
293.335;  598.061;  510.669;  735.086
293.934;  634.006;  495.663;  781.677
294.532;  862.970;  741.656; 1031.958
295.131;  693.565;  595.746;  834.394
295.730;  675.747;  598.740;  809.588
296.328;  654.808;  543.748;  783.442
296.927;  642.387;  597.761;  779.652
297.525;  653.602;  550.746;  781.236
298.124;  540.631;  421.822;  654.009
298.722;  632.242;  559.769;  761.933
299.321;  595.269;  487.787;  708.597
299.919;  640.191;  498.805;  751.918
300.518;  579.786;  469.828;  689.338
301.116;  576.544;  504.786;  691.381
301.715;  617.706;  511.760;  730.222
302.313;  604.472;  453.771;  704.943
302.911;  631.914;  513.844;  733.830
303.509;  797.598;  690.770;  925.627
304.108;  658.229;  544.767;  760.383
304.706;  687.086;  555.763;  801.664
305.304;  689.755;  584.826;  796.707
305.902;  679.743;  580.759;  784.484
306.500;  630.869;  507.790;  728.200
307.098;  657.073;  522.797;  746.560
307.696;  681.683;  583.814;  780.432
308.294;  638.855;  558.798;  731.359
308.892;  666.723;  546.766;  759.769
309.490;  625.640;  509.809;  712.161
310.088;  701.242;  605.831;  788.444
310.686;  722.471;  599.777;  821.749
311.284;  678.583;  545.812;  766.040
311.882;  651.261;  537.830;  731.225
312.480;  622.663;  498.852;  697.167
313.078;  720.123;  628.829;  808.331
313.675;  622.719;  501.790;  691.600
314.273;  714.875;  596.854;  797.837
314.871;  530.884;  410.841;  589.829
315.468;  592.964;  515.844;  652.090
316.066;  619.843;  490.792;  694.427
316.664;  594.531;  490.855;  656.351
317.261;  808.362;  738.822;  910.128
317.859;  695.246;  589.840;  768.735
318.456;  735.303;  653.806;  830.096
319.054;  696.729;  615.833;  787.828
319.651;  679.719;  575.818;  759.928
320.249;  724.769;  657.818;  810.188
320.846;  634.422;  532.804;  714.286
321.443;  749.832;  658.817;  832.135
322.041;  716.898;  623.828;  812.315
322.638;  623.862;  561.821;  701.456
323.235;  593.222;  516.771;  665.683
323.833;  669.075;  582.791;  740.354
324.430;  559.378;  431.805;  615.900
325.027;  785.693;  719.791;  876.855
325.624;  595.927;  430.747;  644.532
326.221;  634.074;  470.764;  689.717
326.818;  745.275;  639.788;  818.332
327.415;  682.661;  529.732;  748.828
328.012;  640.750;  477.725;  690.585
328.609;  684.528;  521.743;  731.389
329.206;  726.987;  601.760;  778.621
329.803;  688.592;  539.767;  737.841
330.400;  661.666;  498.741;  704.260
330.997;  761.043;  568.762;  817.147
331.594;  741.570;  600.815;  788.185
332.191;  684.811;  534.767;  728.722
332.787;  785.182;  605.786;  844.463
333.384;  709.759;  523.840;  763.093
333.981;  753.704;  572.897;  815.687
334.578;  653.608;  498.876;  708.378
335.174;  670.489;  497.878;  731.469
335.771;  770.318;  594.918;  836.456
336.367;  656.936;  505.953;  710.631
336.964;  731.554;  578.927;  793.266
337.561;  676.807;  529.941;  731.112
338.157;  817.983;  709.000;  911.916
338.754;  719.773;  608.020;  796.589
339.350;  655.743;  535.012;  722.493
339.946;  697.819;  575.978;  773.135
340.543;  754.753;  657.060;  846.136
341.139;  645.446;  529.094;  720.836
341.735;  687.844;  610.102;  772.593
342.332;  617.335;  532.087;  691.472
342.928;  713.256;  574.076;  795.394
343.524;  676.187;  581.108;  761.684
344.120;  652.804;  531.115;  738.562
344.716;  637.221;  541.060;  723.717
345.313;  710.358;  584.063;  795.342
345.909;  546.900;  435.072;  627.336
346.505;  658.231;  573.043;  740.247
347.101;  724.634;  594.029;  827.864
347.697;  684.976;  585.008;  785.398
348.293;  541.127;  442.033;  627.244
348.889;  647.060;  578.023;  745.914
349.485;  593.200;  517.010;  688.205
350.081;  677.070;  577.005;  772.592
350.676;  604.319;  521.040;  691.606
351.272;  699.730;  594.987;  809.530
351.868;  664.252;  566.970;  780.497
352.464;  622.660;  564.990;  723.932
353.059;  563.711;  473.015;  646.017
353.655;  665.412;  584.980;  777.063
354.251;  653.685;  553.958;  759.845
354.846;  635.207;  534.006;  740.646
355.442;  639.463;  561.039;  753.071
356.038;  629.440;  554.998;  751.708
356.633;  625.941;  546.993;  728.594
357.229;  612.657;  547.008;  724.757
357.824;  590.304;  515.022;  703.600
358.420;  559.555;  529.017;  679.726
359.015;  582.695;  508.004;  695.357
359.610;  642.254;  579.992;  763.920
360.206;  498.156;  418.041;  603.240
360.801;  535.708;  482.003;  646.503
361.396;  597.619;  522.978;  725.975
361.992;  551.104;  504.022;  668.220
362.587;  543.611;  512.048;  670.160
363.182;  568.004;  531.024;  689.631
363.777;  615.494;  559.010;  738.242
364.372;  619.355;  578.016;  737.314
364.967;  558.386;  518.048;  680.744
365.563;  674.278;  623.995;  815.567
366.158;  565.182;  502.007;  685.161
366.753;  528.960;  489.992;  649.263
367.348;  612.448;  579.023;  746.056
367.942;  573.126;  519.008;  697.298
368.537;  616.803;  552.029;  754.245
369.132;  582.842;  517.017;  703.428
369.727;  518.454;  477.052;  638.079
370.322;  467.264;  430.032;  580.186
370.917;  574.469;  528.040;  710.646
371.511;  714.798;  666.020;  861.834
372.106;  637.836;  615.048;  776.964
372.701;  466.852;  439.062;  585.988
373.296;  704.162;  671.012;  863.135
373.890;  517.761;  486.048;  647.840
374.485;  564.007;  535.071;  691.199
375.079;  595.898;  582.021;  738.685
375.674;  662.580;  650.017;  812.970
376.268;  558.892;  528.049;  691.759
376.863;  460.150;  451.103;  580.327
377.457;  529.940;  514.031;  662.490
378.052;  613.084;  601.059;  764.884
378.646;  605.240;  571.058;  741.167
379.240;  583.496;  552.064;  721.176
379.835;  506.426;  532.037;  636.978
380.429;  451.262;  427.045;  562.557
381.023;  629.651;  597.070;  779.205
381.617;  545.617;  514.081;  680.106
382.212;  544.820;  518.036;  685.303
382.806;  610.940;  610.031;  760.690
383.400;  548.432;  550.067;  672.281
383.994;  530.838;  557.073;  664.870
384.588;  557.727;  535.029;  697.701
385.182;  595.983;  584.999;  726.624
385.776;  574.217;  539.019;  706.875
386.370;  550.047;  545.054;  681.968
386.964;  547.315;  553.031;  684.155
387.558;  477.751;  448.003;  598.360
388.152;  546.699;  545.045;  681.959
388.745;  662.038;  664.039;  814.707
389.339;  618.437;  623.014;  747.642
389.933;  558.877;  552.998;  695.370
390.527;  710.266;  720.024;  859.029
391.120;  476.188;  481.071;  595.318
391.714;  560.882;  588.039;  711.633
392.308;  634.982;  622.008;  780.253
392.901;  516.363;  497.037;  642.460
393.495;  466.053;  508.057;  595.414
394.089;  624.568;  649.046;  760.452
394.682;  564.261;  534.047;  697.188
395.275;  585.543;  577.047;  719.927
395.869;  543.815;  567.061;  667.314
396.462;  501.426;  512.039;  616.609
397.056;  627.370;  631.003;  776.621
397.649;  602.172;  601.057;  731.575
398.242;  587.341;  583.025;  712.645
398.836;  629.249;  630.013;  766.408
399.429;  500.468;  486.015;  631.041
400.022;  549.947;  536.059;  665.902
400.615;  665.919;  675.043;  805.609
401.208;  555.794;  580.009;  691.451
401.802;  569.214;  569.036;  699.329
402.395;  557.347;  535.059;  683.502
402.988;  569.188;  588.070;  696.627
403.581;  528.666;  560.023;  646.878
404.174;  559.947;  573.994;  686.568
404.767;  534.513;  529.040;  638.583
405.360;  506.396;  506.062;  621.445
405.953;  624.300;  648.008;  759.034
406.545;  605.584;  583.996;  725.342
407.138;  504.144;  507.039;  618.350
407.731;  507.865;  507.029;  613.303
408.324;  537.688;  560.975;  660.554
408.917;  566.583;  577.999;  681.864
409.509;  615.641;  618.027;  740.396
410.102;  531.404;  542.051;  643.948
410.695;  550.970;  557.970;  665.758
411.287;  496.075;  482.981;  599.821
411.880;  486.979;  456.988;  585.421
412.472;  497.665;  511.027;  613.092
413.065;  522.545;  563.006;  629.408
413.657;  477.416;  484.963;  576.678
414.250;  543.765;  525.966;  646.681
414.842;  558.984;  576.997;  676.353
415.434;  474.496;  475.969;  570.463
416.027;  542.930;  535.922;  652.196
416.619;  596.253;  592.962;  713.400
417.211;  494.403;  500.964;  599.352
417.804;  518.432;  540.914;  628.499
418.396;  507.153;  513.965;  607.643
418.988;  555.163;  525.944;  659.238
419.580;  463.838;  484.978;  568.276
420.172;  450.426;  456.944;  536.196
420.764;  563.469;  578.913;  672.482
421.356;  539.111;  544.925;  636.898
421.948;  562.912;  552.947;  677.661
422.540;  564.118;  580.890;  680.027
423.132;  506.012;  498.887;  600.641
423.724;  467.616;  455.931;  561.267
424.316;  518.137;  504.916;  621.345
424.908;  498.934;  498.869;  591.517
425.500;  544.553;  548.869;  647.978
426.092;  542.772;  551.867;  648.268
426.683;  583.073;  583.896;  684.836
427.275;  546.026;  540.848;  641.471
427.867;  560.265;  557.841;  668.948
428.458;  616.858;  592.842;  732.344
429.050;  576.941;  569.867;  680.749
429.642;  623.501;  615.845;  743.124
430.233;  472.060;  460.832;  569.356
430.825;  619.641;  584.837;  724.809
431.416;  585.959;  594.868;  698.241
432.008;  543.187;  538.823;  651.723
432.599;  556.451;  555.814;  656.073
433.190;  547.205;  534.859;  637.670
433.782;  498.149;  480.858;  590.395
434.373;  753.160;  771.800;  884.765
434.964;  507.023;  467.798;  602.920
435.556;  537.572;  533.836;  634.537
436.147;  634.850;  617.822;  758.490
436.738;  587.707;  584.816;  701.099
437.329;  597.568;  599.763;  721.723
437.920;  564.831;  563.852;  666.688
438.511;  471.589;  440.845;  564.526
439.103;  517.528;  524.772;  623.998
439.694;  574.125;  546.759;  681.583
440.285;  656.085;  607.773;  764.432
440.876;  712.086;  709.798;  845.738
441.466;  483.013;  436.786;  575.162
442.057;  557.355;  554.731;  665.814
442.648;  639.691;  617.772;  746.255
443.239;  513.512;  531.791;  620.477
443.830;  588.178;  578.742;  704.958
444.421;  557.564;  482.716;  655.474
445.011;  586.602;  529.779;  693.619
445.602;  625.070;  592.785;  743.126
446.193;  403.855;  379.734;  488.117
446.783;  536.799;  497.697;  640.397
447.374;  581.147;  563.772;  692.759
447.964;  602.197;  602.773;  713.770
448.555;  696.100;  654.692;  822.742
449.145;  557.193;  533.728;  662.853
449.736;  677.647;  656.742;  803.179
450.326;  601.078;  545.740;  713.626
450.917;  561.933;  549.684;  675.324
451.507;  506.632;  455.692;  600.661
452.097;  632.878;  600.710;  746.267
452.688;  621.718;  534.700;  742.160
453.278;  474.713;  444.693;  566.840
453.868;  677.375;  618.665;  793.550
454.458;  548.675;  473.696;  651.141
455.048;  606.567;  546.703;  711.783
455.639;  474.987;  439.663;  567.096
456.229;  598.190;  544.649;  710.694
456.819;  631.815;  579.648;  751.158
457.409;  655.876;  604.657;  773.993
457.999;  620.694;  557.628;  737.505
458.589;  573.606;  525.632;  686.606
459.179;  604.211;  550.641;  717.658
459.769;  522.494;  487.663;  627.099
460.358;  673.333;  644.621;  797.262
460.948;  578.745;  522.625;  689.503
461.538;  559.846;  488.618;  660.677
462.128;  559.890;  481.649;  664.934
462.717;  589.737;  569.572;  710.326
463.307;  594.634;  556.553;  705.846
463.897;  561.729;  479.614;  656.942
464.486;  705.951;  640.657;  837.128
465.076;  619.720;  582.592;  733.776
465.666;  546.135;  516.547;  652.900
466.255;  664.493;  592.604;  785.651
466.845;  558.610;  481.612;  666.749
467.434;  615.521;  576.589;  725.873
468.023;  551.736;  457.573;  658.357
468.613;  608.056;  526.632;  713.946
469.202;  544.260;  470.579;  646.507
469.791;  616.835;  542.548;  737.811
470.381;  624.761;  556.544;  742.813
470.970;  599.460;  486.551;  711.099
471.559;  619.481;  565.571;  733.291
472.148;  568.331;  481.536;  675.737
472.738;  638.296;  569.527;  765.466
473.327;  533.138;  430.534;  637.529
473.916;  618.001;  547.564;  737.446
474.505;  635.985;  552.520;  751.703
475.094;  680.395;  578.500;  806.570
475.683;  669.959;  568.521;  797.699
476.272;  608.940;  507.526;  730.632
476.861;  597.127;  481.495;  706.754
477.449;  604.388;  502.441;  728.487
478.038;  578.108;  477.526;  692.513
478.627;  599.194;  504.533;  714.852
479.216;  643.432;  583.468;  769.441
479.805;  657.036;  548.450;  783.375
480.393;  851.915;  759.493; 1008.945
480.982;  740.892;  614.513;  874.501
481.571;  719.855;  628.447;  858.333
482.159;  584.931;  453.444;  705.386
482.748;  705.305;  548.478;  821.385
483.336;  727.528;  621.459;  858.209
483.925;  652.894;  539.473;  774.373
484.513;  639.701;  520.408;  758.962
485.102;  670.717;  554.482;  810.965
485.690;  849.292;  716.421; 1011.050
486.278;  827.173;  684.421;  979.329
486.867;  673.846;  541.430;  809.662
487.455;  756.780;  578.448;  898.229
488.043;  614.880;  447.449;  748.361
488.631;  839.351;  712.404; 1005.079
489.220;  769.259;  584.396;  908.626
489.808;  625.576;  424.435;  741.415
490.396;  768.748;  593.422;  914.645
490.984;  699.191;  505.423;  830.161
491.572;  797.776;  618.405;  940.315
492.160;  774.280;  526.449;  919.081
492.748;  754.742;  526.453;  884.341
493.336;  870.338;  620.406; 1019.693
493.924;  820.449;  534.383;  958.077
494.512;  937.328;  599.427; 1066.638
495.100;  972.911;  569.449; 1103.280
495.687; 1077.486;  637.387; 1206.373
496.275; 1043.490;  490.398; 1150.796
496.863; 1178.713;  517.440; 1281.171
497.451; 1285.312;  507.445; 1386.805
498.038; 1432.513;  560.377; 1556.729
498.626; 1617.380;  520.384; 1741.407
499.214; 1960.323;  543.421; 2016.609
499.801; 2190.639;  548.436; 2220.633
500.389; 2360.998;  465.391; 2312.494
500.976; 2802.015;  564.395; 2744.849
501.564; 3040.507;  530.437; 3148.565
502.151; 3176.549;  369.446; 3515.999
502.738; 3741.057;  520.406; 3971.274
503.326; 4374.944;  490.375; 4403.796
503.913; 4935.375;  530.410; 5161.749
504.500; 5467.827;  553.430; 5986.420
505.088; 6087.534;  476.427; 6381.201
505.675; 7092.675;  520.377; 6925.547
506.262; 7971.018;  513.446; 7619.060
506.849; 8749.918;  535.414; 8733.969
507.436; 9444.736;  590.385; 9790.121
508.023; 9539.860;  518.391; 9985.472
508.610;10122.987;  592.412;10434.618
509.197;11268.920;  546.469;11198.435
509.784;12378.824;  543.417;12391.194
510.371;13193.533;  433.368;13603.713
510.958;13755.976;  505.437;14426.586
511.545;13845.629;  634.424;15243.775
512.132;14583.188;  547.379;15945.876
512.719;15674.475;  475.410;16340.369
513.305;17310.203;  478.430;18011.766
513.892;18951.104;  600.455;19754.971
514.479;20139.359;  549.396;20967.805
515.066;20943.477;  615.402;22299.793
515.652;22144.170;  523.404;22908.660
516.239;23624.035;  603.420;23798.875
516.825;25173.619;  464.409;25567.275
517.412;26477.404;  686.393;28154.959
517.998;25052.357;  501.432;28344.111
518.585;23720.500;  509.446;27134.219
519.171;24137.100;  535.383;27268.576
519.758;24648.035;  440.395;28964.129
520.344;26114.174;  573.417;30664.494
520.930;28189.971;  456.459;32550.605
521.516;30952.063;  596.383;35422.895
522.103;32415.850;  639.408;38280.004
522.689;32524.373;  498.450;37835.117
523.275;32815.469;  614.439;37288.613
523.861;33804.051;  552.413;37281.395
524.447;35062.688;  614.384;37846.949
525.033;35010.152;  601.436;38321.949
525.619;33147.598;  461.452;38579.285
526.205;33069.156;  483.435;40622.875
526.791;34653.973;  528.398;42258.836
527.377;35419.688;  509.449;42966.902
527.963;36212.043;  570.470;42018.949
528.549;37032.688;  580.452;42476.828
529.135;35228.703;  481.428;41854.852
529.721;33082.578;  524.432;41237.711
530.306;33213.734;  714.452;41259.445
530.892;34881.633;  517.433;41506.047
531.478;38734.387;  526.417;43559.613
532.063;41914.438;  462.445;47695.563
532.649;44330.020;  662.479;50808.324
533.235;45449.125;  487.442;51787.500
533.820;45150.977;  612.394;52145.035
534.406;42984.551;  511.477;51133.488
534.991;41520.906;  497.448;49996.805
535.576;39055.195;  517.432;48882.852
536.162;35838.828;  729.426;46942.285
536.747;34324.648;  444.482;45711.746
537.333;35324.648;  487.479;48510.180
537.918;38460.922;  520.466;50439.891
538.503;40591.641;  498.421;50863.711
539.088;42969.285;  570.460;50906.922
539.673;47328.539;  530.467;52621.965
540.259;49861.293;  483.443;52368.094
540.844;50338.301;  434.436;50879.109
541.429;50046.359;  655.487;52077.777
542.014;50994.918;  451.502;52716.695
542.599;49071.543;  569.453;52363.281
543.184;48073.336;  489.483;53187.137
543.769;50091.379;  467.486;54697.605
544.354;49484.504;  493.480;53913.914
544.938;46777.027;  571.467;49680.164
545.523;44094.313;  652.446;47386.277
546.108;46474.367;  518.488;49151.949
546.693;49665.938;  533.513;51384.637
547.278;46861.434;  570.458;51853.254
547.862;44937.277;  517.429;51173.750
548.447;44932.445;  574.495;51691.395
549.031;44500.797;  497.523;52456.703
549.616;44888.254;  562.461;52714.516
550.201;46486.250;  489.473;52414.598
550.785;49762.859;  590.491;52355.059
551.370;52525.465;  465.503;54589.453
551.954;53730.352;  594.493;58267.348
552.538;52069.031;  577.473;59062.176
553.123;51910.789;  462.501;58115.285
553.707;53088.574;  511.538;56556.285
554.291;52221.637;  614.485;56201.668
554.876;50808.281;  623.498;55335.762
555.460;49982.383;  508.520;54155.703
556.044;50426.445;  493.553;53721.484
556.628;49902.625;  527.507;53731.016
557.212;48254.160;  603.462;54312.531
557.796;46657.457;  537.507;53797.773
558.380;46296.871;  548.549;56145.984
558.964;47178.563;  560.481;57277.930
559.548;49573.156;  445.483;56459.641
560.132;50585.676;  485.524;54434.543
560.716;51265.898;  460.547;54800.617
561.300;52449.195;  460.475;57606.945
561.884;51198.469;  560.512;58972.445
562.467;50712.156;  560.545;57327.570
563.051;50999.449;  540.544;54962.434
563.635;49687.344;  540.533;52594.473
564.219;46328.473;  504.511;50610.410
564.802;46367.230;  572.550;49551.180
565.386;47024.230;  516.541;48370.953
565.969;46731.035;  604.488;48178.871
566.553;46941.996;  698.527;49957.305
567.136;46152.402;  608.551;50369.594
567.720;47071.789;  542.569;49492.004
568.303;48846.793;  564.544;50616.352
568.887;50581.852;  548.534;50727.148
569.470;51047.199;  555.580;51698.379
570.053;47960.504;  572.573;52122.078
570.637;45943.719;  491.514;52536.438
571.220;45457.676;  588.510;51186.098
571.803;45248.859;  680.584;51032.762
572.386;45759.188;  495.561;49609.887
572.969;46661.512;  526.538;48285.926
573.552;47482.359;  531.549;47624.285
574.135;45660.766;  458.591;45498.641
574.718;41643.820;  474.559;41970.434
575.301;40496.836;  487.068;41447.137
575.884;39349.848;  499.577;40923.836
576.467;41238.289;  559.569;45267.723
577.050;41751.504;  575.580;48175.543
577.633;41595.930;  663.538;47729.328
578.216;42528.992;  503.574;47579.793
578.799;46878.906;  523.600;47820.996
579.381;47979.320;  669.567;48115.551
579.964;43714.926;  503.538;47333.766
580.547;40919.910;  537.579;46668.969
581.129;40788.496;  621.610;44466.141
581.712;41212.504;  551.621;44164.922
582.294;43011.742;  522.570;46477.855
582.877;41347.762;  703.563;48244.254
583.459;39962.309;  544.619;47437.895
584.042;41956.934;  520.618;46943.219
584.624;42146.438;  507.624;46792.227
585.206;42422.285;  407.575;46557.250
585.789;41702.105;  477.611;45793.773
586.371;40307.387;  552.638;43836.391
586.953;38831.703;  598.608;42972.492
587.536;37325.793;  635.574;42487.211
588.118;37891.430;  543.679;42086.414
588.700;39077.461;  662.631;43389.930
589.282;40440.633;  586.599;43646.039
589.864;40228.930;  523.612;43438.109
590.446;40537.664;  407.647;43151.926
591.028;39863.012;  543.639;42781.867
591.610;40043.055;  439.615;42839.098
592.192;39703.070;  565.599;42820.402
592.774;37471.531;  475.629;40724.277
593.356;36767.387;  501.668;39874.789
593.937;36305.535;  523.605;39980.648
594.519;36925.117;  611.612;42069.633
595.101;37583.359;  460.657;42976.031
595.683;38770.355;  509.666;44084.441
596.264;40608.793;  540.611;43478.797
596.846;42138.168;  517.630;43803.672
597.427;41003.273;  487.679;42986.934
598.009;40085.016;  472.681;42832.219
598.591;38332.188;  598.632;42580.086
599.172;37239.605;  500.640;43061.805
599.753;36932.586;  454.676;41691.469
600.335;37195.711;  637.693;40692.520
600.916;37065.160;  552.666;39982.422
601.498;37566.738;  559.652;40318.617
602.079;38668.492;  534.676;40670.609
602.660;37307.758;  531.685;41450.898
603.241;36521.801;  434.637;41137.738
603.823;37034.816;  514.648;38868.797
604.404;38487.047;  451.688;38182.785
604.985;40396.988;  509.695;38078.047
605.566;41211.949;  595.634;38056.633
606.147;39573.184;  537.708;37020.418
606.728;37911.672;  457.716;37883.359
607.309;36888.660;  483.697;38748.273
607.890;36752.633;  526.661;38850.230
608.471;36969.590;  469.685;37457.918
609.051;36875.559;  536.742;36066.457
609.632;36682.066;  458.735;35991.074
610.213;38082.164;  541.693;37402.641
610.794;39780.645;  503.699;38383.363
611.374;38438.398;  568.707;40562.387
611.955;37926.852;  444.725;38533.727
612.536;39937.215;  573.691;36951.789
613.116;39630.520;  524.698;37197.891
613.697;39299.770;  515.744;38411.125
614.277;39006.746;  494.753;38673.938
614.858;35805.582;  516.696;37075.863
615.438;33656.695;  536.691;35092.906
616.019;33300.414;  622.756;33666.301
616.599;34688.156;  423.733;34189.023
617.179;38128.277;  475.710;36952.047
617.760;38207.746;  708.686;39582.574
618.340;35804.938;  498.765;38943.977
618.920;35205.180;  653.742;37594.156
619.500;35250.215;  495.768;37866.938
620.080;35377.121;  479.741;37869.043
620.660;35565.910;  468.802;36868.617
621.241;36118.441;  491.762;36352.309
621.821;35970.750;  592.749;35459.520
622.401;36119.672;  587.742;35207.414
622.980;37650.289;  463.779;35980.422
623.560;36587.320;  460.758;37351.328
624.140;33827.035;  557.741;34388.582
624.720;34134.027;  554.748;32368.764
625.300;36327.227;  485.743;32638.629
625.880;37373.359;  503.780;34599.035
626.459;35956.355;  556.753;36831.738
627.039;34905.859;  444.772;38299.098
627.619;36609.324;  703.802;38289.574
628.198;37917.375;  572.791;37220.695
628.778;38933.125;  551.748;37632.563
629.357;39712.902;  448.751;38003.012
629.937;38957.422;  496.798;38402.039
630.516;36247.480;  605.794;37868.801
631.096;34907.582;  498.751;35760.410
631.675;34041.738;  625.817;35225.219
632.254;34131.027;  508.833;35130.289
632.834;35665.648;  534.822;35794.570
633.413;35935.285;  638.771;35788.922
633.992;35431.906;  587.820;34532.863
634.571;36151.371;  576.844;33590.113
635.151;35802.191;  476.831;34943.863
635.730;35346.867;  511.775;35352.523
636.309;35418.254;  583.793;35366.605
636.888;35127.980;  593.820;36165.637
637.467;35492.922;  450.842;37515.902
638.046;36620.895;  646.791;39288.695
638.625;36694.898;  649.820;38279.699
639.204;36996.730;  541.850;37741.598
639.782;37622.656;  526.878;38364.551
640.361;37212.672;  639.809;36740.621
640.940;36498.434;  503.807;34950.082
641.519;36141.391;  532.805;34137.398
642.097;34742.949;  556.804;35654.258
642.676;34972.711;  571.802;35637.957
643.255;35026.918;  489.800;36567.074
643.833;36480.078;  569.799;37809.434
644.412;37788.438;  490.797;37337.293
644.990;38121.547;  534.795;37018.531
645.569;38293.758;  555.793;36518.469
646.147;36860.715;  588.792;36186.430
646.726;35204.273;  552.790;36267.688
647.304;34607.984;  509.788;36647.625
647.882;34572.543;  425.787;39286.742
648.461;34458.301;  559.785;39157.703
649.039;34758.063;  588.783;35412.883
649.617;33985.223;  570.781;34744.918
650.195;33639.879;  570.780;35403.098
650.773;33940.738;  470.778;35053.797
651.352;33989.047;  391.776;33756.816
651.930;33164.609;  420.775;31868.773
652.508;32843.867;  603.773;33121.551
653.086;32435.727;  545.771;33564.793
653.663;33653.234;  497.770;34054.668
654.241;34049.195;  453.768;35693.309
654.819;35003.605;  476.766;36422.906
655.397;37346.465;  443.764;38213.484
655.975;39347.574;  530.763;39507.625
656.553;41056.031;  618.761;39498.223
657.130;39482.391;  478.759;40395.480
657.708;39323.148;  552.758;39242.020
658.286;37936.059;  525.756;38920.020
658.863;36833.520;  545.754;40202.898
659.441;36624.129;  541.752;39677.938
660.018;37842.988;  509.751;40413.355
660.596;39155.945;  406.749;39931.414
661.173;39717.805;  500.747;39604.531
661.750;39544.613;  486.746;39700.070
662.328;39581.676;  564.744;39292.809
662.905;37834.633;  510.742;38235.648
663.482;35339.691;  513.741;36212.305
664.060;34785.801;  514.739;35944.945
664.637;34528.063;  585.737;35170.785
665.214;34531.121;  550.735;34197.523
665.791;36305.328;  529.734;34549.520
666.368;37211.637;  530.732;35118.578
666.945;35385.496;  585.730;36019.418
667.522;34822.008;  470.729;36048.438
668.099;36348.516;  505.727;36243.914
668.676;36313.027;  532.725;35958.875
669.253;36120.934;  629.723;37384.730
669.830;34610.195;  578.722;36779.629
670.407;33044.703;  537.720;35231.289
670.984;32198.512;  544.718;35544.270
671.560;32671.072;  560.717;35466.867
672.137;31946.281;  498.715;34280.863
672.714;32402.990;  579.713;34632.863
673.290;33551.551;  548.711;35135.422
673.867;32525.658;  482.710;36114.480
674.443;32783.270;  428.708;36152.859
675.020;34400.129;  541.706;35327.238
675.596;35423.785;  521.705;35795.176
676.173;34681.594;  436.703;35430.355
676.749;34831.805;  385.701;33549.516
677.326;34123.164;  432.700;32210.012
677.902;35297.324;  468.698;32068.871
678.478;34481.781;  424.696;32583.891
679.054;33226.891;  772.694;32088.928
679.631;33054.949;  548.693;30978.848
680.207;33794.512;  660.691;33160.887
680.783;34174.770;  412.689;35570.363
681.359;34472.379;  522.688;36125.184
681.935;33919.039;  540.686;35240.922
682.511;33509.648;  540.684;34429.961
683.087;32887.406;  558.682;34463.680
683.663;32085.465;  498.681;34648.898
684.239;32055.525;  433.679;34546.457
684.815;32151.484;  576.677;35586.375
685.390;32540.443;  664.676;35821.895
685.966;32642.402;  527.674;35085.871
686.542;31936.361;  491.672;34198.230
687.118;32201.521;  520.671;32847.707
687.693;32232.080;  578.669;32794.027
688.269;30590.990;  516.667;33072.367
688.844;29604.449;  567.665;33141.664
689.420;30676.758;  519.664;33965.742
689.995;31315.316;  626.662;34655.523
690.571;31035.426;  615.660;33576.742
691.146;31921.535;  510.659;32657.219
691.722;31303.244;  535.657;32526.979
692.297;30056.705;  459.655;33014.617
692.872;29676.363;  475.654;34012.254
693.448;29234.373;  459.652;34237.434
694.023;29619.383;  537.650;34142.672
694.598;30388.240;  531.648;34132.031
695.173;30611.451;  519.647;34205.250
695.748;29312.760;  415.645;32882.488
696.323;30121.219;  537.643;32864.906
696.898;30777.729;  566.642;33170.004
697.473;30109.887;  437.640;32432.984
698.048;29933.447;  517.638;31649.303
698.623;31135.205;  453.636;30778.141
699.198;31988.865;  536.635;31140.119
699.773;32449.424;  455.633;31764.299
700.348;31604.883;  474.631;31780.816
700.922;31605.793;  520.630;32046.375
701.497;31625.451;  512.628;32603.574
702.072;31712.561;  594.626;34799.871
702.646;31991.570;  601.625;35793.172
703.221;32179.080;  531.623;35201.590
703.795;31787.039;  466.621;34764.527
704.370;32226.848;  386.619;34307.367
704.944;31825.158;  523.618;33509.887
705.519;31619.666;  558.616;31388.584
706.093;32519.125;  467.614;31340.104
706.668;32848.434;  533.613;32630.281
707.242;32540.094;  587.611;32728.779
707.816;31505.553;  511.609;32947.238
708.390;30896.713;  521.607;33277.855
708.965;31719.973;  565.606;33834.336
709.539;31887.631;  518.604;33709.273
710.113;31165.340;  525.602;33044.313
710.687;31751.799;  551.601;31953.992
711.261;32042.709;  468.599;30505.949
711.835;31417.768;  462.597;30262.369
712.409;30899.828;  413.595;31254.447
712.983;32470.188;  424.594;32754.986
713.557;34800.297;  423.592;34018.824
714.131;34704.254;  500.590;34579.625
714.704;33598.664;  495.589;33890.262
715.278;32787.625;  530.587;33531.102
715.852;32662.434;  564.585;33601.660
716.425;32085.742;  663.584;33515.117
716.999;31728.900;  432.582;33185.555
717.573;32711.160;  567.580;33905.996
718.146;33470.570;  615.578;35199.293
718.720;33276.777;  518.577;35060.551
719.293;33193.840;  565.575;34973.230
719.867;32950.348;  470.573;36394.449
720.440;33303.305;  603.572;36663.008
721.013;33632.316;  519.570;35102.426
721.587;32567.375;  405.568;33985.266
722.160;32214.834;  562.566;33524.965
722.733;31974.645;  547.565;32987.043
723.306;33208.703;  513.563;33066.301
723.880;34455.910;  565.561;33399.500
724.453;34546.820;  640.560;33468.297
725.026;33644.680;  497.558;33816.637
725.599;32592.090;  539.556;32797.996
726.172;32676.299;  558.555;33187.434
726.745;33935.957;  538.553;35136.613
727.318;33636.766;  584.551;35751.730
727.891;32377.777;  534.549;35890.430
728.463;31346.586;  535.548;34822.090
729.036;30714.045;  447.546;32895.086
729.609;29541.805;  473.544;31823.225
730.182;29737.514;  580.543;31445.283
730.754;30783.672;  407.541;32373.223
731.327;32748.682;  545.539;33676.820
731.900;32513.342;  421.537;33417.000
732.472;31842.301;  542.536;31978.498
733.045;31566.910;  502.534;30368.777
733.617;30443.119;  437.532;30574.215
734.190;29785.729;  572.531;31280.975
734.762;29304.287;  534.529;31674.412
735.334;29255.848;  527.527;31247.291
735.907;28944.307;  547.526;29876.211
736.479;28596.215;  576.524;29808.488
737.051;29600.475;  544.522;30233.547
737.623;31653.934;  559.520;31469.086
738.195;33069.094;  477.519;31784.225
738.768;33546.152;  389.517;32120.523
739.340;33427.813;  500.515;32094.342
739.912;33307.070;  596.514;31312.680
740.484;32160.129;  543.512;31946.238
741.056;31981.539;  498.510;32984.059
741.628;33663.949;  476.508;33897.715
742.199;32792.457;  596.507;33213.016
742.771;31151.916;  444.505;31369.113
743.343;31466.775;  475.503;31865.473
743.915;31729.785;  503.502;32388.631
744.487;31159.594;  586.500;31079.568
745.058;29370.453;  562.498;30570.107
745.630;27558.514;  564.497;29970.127
746.201;27207.623;  475.495;29186.766
746.773;26767.031;  553.493;28805.723
747.344;26085.641;  515.491;29591.223
747.916;25612.150;  541.490;31412.201
748.487;25966.760;  572.488;32194.898
749.059;26797.869;  453.486;32533.719
749.630;27474.527;  480.485;32158.518
750.201;26839.486;  523.483;30855.395
750.773;26134.496;  478.481;28622.555
751.344;25130.455;  514.479;28405.732
751.915;24088.615;  512.478;28461.551
752.486;24412.873;  462.476;27842.850
753.057;25637.232;  533.474;27845.008
753.628;25521.941;  485.473;27728.107
754.199;24237.051;  483.471;27381.086
754.770;23836.461;  560.469;25882.203
755.341;23577.070;  609.468;25886.184
755.912;23484.080;  508.466;26050.861
756.483;23441.139;  564.464;26798.779
757.054;22575.148;  533.462;27048.238
757.625;22574.107;  470.461;26294.838
758.195;23192.016;  436.459;26142.076
758.766;22831.676;  534.457;26392.234
759.337;22669.184;  432.456;26334.594
759.907;23283.494;  436.454;27579.652
760.478;23635.953;  497.452;28352.770
761.048;23599.012;  566.450;27325.088
761.619;23463.771;  553.449;26460.428
762.189;22891.980;  490.447;26029.826
762.760;22035.289;  588.445;26430.145
763.330;20884.250;  548.444;26670.902
763.900;20384.309;  537.442;26603.021
764.471;20526.768;  468.440;25542.740
765.041;20775.076;  599.438;24358.459
765.611;21459.836;  540.437;23991.297
766.181;22193.445;  538.435;24470.236
766.751;21783.555;  542.433;24845.975
767.321;20544.863;  474.432;24533.633
767.891;19982.424;  499.430;24916.492
768.461;19955.582;  532.428;24776.771
769.031;19111.191;  503.427;24757.988
769.601;18071.650;  591.425;24181.088
770.171;17113.359;  421.423;23670.387
770.741;17244.270;  467.421;22960.045
771.311;17755.578;  568.420;22917.523
771.880;17913.887;  445.418;23562.941
772.450;17349.047;  487.416;24216.500
773.020;17320.207;  424.415;24140.398
773.589;17207.715;  493.413;24414.857
774.159;17075.625;  462.411;23858.717
774.729;16928.135;  480.409;22942.135
775.298;15539.243;  485.408;22324.033
775.867;14613.803;  494.406;21140.313
776.437;14986.911;  512.404;20838.092
777.006;15083.320;  443.403;20599.510
777.576;14947.730;  528.401;20508.809
778.145;15070.689;  558.399;20732.947
778.714;15583.198;  529.398;21062.465
779.283;15562.658;  558.396;20949.664
779.853;15522.567;  481.394;20508.623
780.422;16106.876;  526.392;20649.082
780.991;15898.886;  553.391;21527.520
781.560;15103.245;  606.389;22632.658
782.129;14555.804;  543.387;23048.277
782.698;14729.313;  606.386;23438.555
783.267;15000.772;  519.384;23267.734
783.836;15424.481;  536.382;22415.133
784.404;15049.940;  443.380;20443.152
784.973;14579.550;  387.379;19699.150
785.542;13977.859;  495.377;19763.828
786.111;14464.719;  591.375;20341.408
786.679;14936.328;  534.374;20207.967
787.248;14188.337;  423.372;19516.465
787.817;14287.996;  503.370;18900.363
788.385;14621.806;  571.369;17879.121
788.954;13764.165;  423.367;17658.301
789.522;13631.124;  605.365;17788.879
790.090;14179.633;  433.363;18118.277
790.659;14606.843;  493.362;18338.736
791.227;14959.502;  505.360;18508.615
791.795;14569.111;  533.358;17898.254
792.364;13238.521;  476.357;17295.133
792.932;12997.180;  532.355;16822.051
793.500;13297.188;  508.353;17040.148
794.068;13807.598;  416.352;17179.787
794.636;13594.707;  478.350;16664.246
795.204;12591.767;  432.348;16524.545
795.772;12191.426;  462.346;17274.564
796.340;12621.535;  484.345;17891.002
796.908;12779.044;  442.343;17648.561
797.476;12974.053;  447.341;17064.080
798.044;12982.713;  400.340;16672.777
798.612;12853.071;  499.338;17023.996
799.180;12427.730;  534.336;16561.615
799.747;12226.590;  503.334;15962.773
800.315;12818.749;  439.333;15296.992
800.883;13069.108;  398.331;14801.771
801.450;12554.918;  515.329;14534.430
802.018;11977.478;  525.328;14173.248
802.585;12101.236;  497.326;14029.547
803.153;12057.646;  497.324;13836.846
803.720;12058.005;  507.322;13567.324
804.287;12305.164;  479.321;13360.622
804.855;12075.123;  582.319;13681.981
805.422;11810.782;  490.317;13536.560
805.989;11585.742;  482.316;13355.958
806.556;11935.801;  479.314;13747.896
807.124;12479.710;  525.312;13987.376
807.691;12075.720;  443.311;14038.674
808.258;11839.129;  505.309;14120.152
808.825;12207.488;  541.307;13860.111
809.392;12364.797;  625.305;13268.790
809.959;12244.807;  562.304;12680.389
810.526;12074.115;  651.302;12427.308
811.093;11666.325;  582.300;12030.105
811.659;11429.334;  502.299;11653.664
812.226;11504.094;  500.297;11637.183
812.793;11467.652;  539.295;11611.521
813.360;11118.012;  467.293;11885.181
813.926;11177.121;  535.292;12770.539
814.493;11191.280;  441.290;12677.638
815.060;11025.939;  420.288;11974.336
815.626;10759.999;  421.287;11594.715
816.193;10925.858;  517.285;11579.474
816.759;10914.617;  453.283;11666.972
817.325;11113.126;  404.282;11325.530
817.892;11237.285;  526.280;11105.369
818.458;11109.645;  534.278;10843.928
819.024;10770.204;  578.276;10714.406
819.591;10065.713;  528.275;10469.165
820.157; 9811.223;  434.273;10235.523
820.723;10511.132;  525.271;10847.563
821.289;11013.941;  791.270;11040.980
821.855;10317.601;  537.268;10357.100
822.421;10231.260;  444.266; 9978.918
822.987;10299.769;  433.264; 9754.177
823.553;10033.928;  512.263;10065.755
824.119;10088.987;  543.261;10036.294
824.685; 9942.996;  600.259;10029.192
825.251; 9678.506;  542.258;10199.230
825.816; 9508.715;  622.256; 9820.189
826.382; 8893.225;  556.254; 9297.248
826.948; 8529.483;  585.253; 9381.347
827.513; 8618.742;  504.251; 9450.726
828.079; 8750.752;  469.249; 9472.444
828.645; 8890.312;  543.247; 9292.643
829.210; 8766.670;  434.246; 9065.341
829.776; 8455.180;  570.244; 9132.620
830.341; 8034.239;  564.242; 9092.878
830.906; 8077.298;  584.241; 9078.557
831.472; 7938.007;  449.239; 8534.535
832.037; 7884.117;  581.237; 8677.874
832.602; 7751.625;  467.235; 8628.692
833.167; 7685.035;  540.234; 8879.031
833.733; 7709.994;  556.232; 9189.790
834.298; 7473.003;  412.230; 9052.608
834.863; 7412.913;  522.229; 8895.087
835.428; 7513.772;  565.227; 8824.266
835.993; 7681.831;  546.225; 8845.385
836.558; 7527.090;  548.224; 8888.563
837.123; 7401.350;  686.222; 8966.582
837.688; 7086.459;  521.220; 8617.860
838.253; 6959.768;  510.218; 8590.699
838.817; 6825.927;  487.217; 8443.797
839.382; 7208.637;  608.215; 8799.356
839.947; 7460.146;  537.213; 8810.595
840.511; 7407.105;  610.212; 8796.394
841.076; 6725.564;  413.210; 8347.231
841.641; 6555.523;  549.208; 8224.330
842.205; 6604.783;  548.206; 8223.349
842.770; 6779.042;  632.205; 8622.107
843.334; 6809.101;  493.203; 8410.386
843.898; 6974.660;  500.201; 8337.465
844.463; 7066.270;  598.200; 8506.283
845.027; 6708.079;  512.198; 8280.962
845.591; 6491.938;  562.196; 8231.141
846.156; 6422.347;  490.195; 7969.179
846.720; 6488.506;  592.193; 7768.278
847.284; 6311.766;  497.191; 7630.957
847.848; 6314.725;  570.189; 7472.395
848.412; 6308.834;  553.188; 7437.394
848.976; 6349.843;  637.186; 7674.592
849.540; 6348.903;  660.184; 7836.011
850.104; 6317.712;  600.183; 7913.669
850.668; 6177.321;  405.181; 7694.508
851.232; 6216.081;  426.179; 7756.887
851.796; 6236.040;  506.177; 7926.545
852.359; 5996.099;  596.176; 7827.844
852.923; 5782.858;  574.174; 7641.163
853.487; 5872.467;  578.172; 7342.501
854.050; 5657.177;  371.171; 7042.820
854.614; 5465.136;  501.169; 7151.338
855.177; 5458.395;  542.167; 7105.077
855.741; 5482.354;  555.166; 6989.675
856.304; 5279.014;  575.164; 6596.634
856.868; 5000.923;  453.162; 6356.272
857.431; 4990.332;  522.160; 6468.571
857.995; 5099.791;  497.159; 6373.210
858.558; 5268.050;  551.157; 6324.448
859.121; 5304.959;  567.155; 6408.327
859.684; 5138.319;  516.154; 6347.886
860.247; 5016.628;  519.152; 6321.264
860.810; 4972.637;  486.150; 6301.903
861.374; 5283.047;  667.148; 6607.881
861.937; 5350.806;  465.147; 6408.200
862.500; 5538.465;  506.145; 6572.639
863.062; 5332.625;  431.143; 6387.297
863.625; 5176.884;  541.142; 6190.836
864.188; 4964.293;  497.140; 5807.254
864.751; 4932.802;  498.138; 5682.413
865.314; 4837.562;  535.136; 5547.492
865.876; 4860.871;  555.135; 5500.150
866.439; 4854.980;  556.133; 5415.909
867.002; 4855.439;  688.131; 5501.567
867.564; 4714.148;  595.130; 5413.946
868.127; 4588.458;  527.128; 5160.325
868.689; 4398.217;  549.126; 5133.183
869.252; 4305.026;  596.125; 5252.382
869.814; 4308.835;  474.123; 5297.141
870.377; 4568.794;  533.121; 5390.919
870.939; 4789.404;  773.119; 5599.898
871.501; 4629.363;  550.118; 5248.336
872.063; 4377.622;  398.116; 4854.235
872.626; 4311.332;  419.114; 4817.074
873.188; 4445.590;  534.113; 4987.732
873.750; 4404.100;  532.111; 4868.651
874.312; 4447.409;  525.109; 4779.330
874.874; 4567.918;  635.107; 4866.348
875.436; 4338.228;  571.106; 4718.887
875.998; 4193.587;  631.104; 4660.005
876.560; 4001.596;  552.102; 4462.964
877.122; 3671.405;  466.101; 4145.042
877.683; 3598.464;  609.099; 4056.481
878.245; 3489.924;  493.097; 3950.740
878.807; 3443.583;  561.096; 4058.958
879.369; 3414.542;  448.094; 3954.677
879.930; 3446.301;  447.092; 3941.495
880.492; 3525.061;  620.090; 4067.014
881.053; 3449.420;  462.089; 3859.633
881.615; 3438.679;  468.087; 3776.071
882.176; 3391.338;  518.085; 3734.750
882.738; 3467.298;  603.084; 3678.489
883.299; 3254.057;  378.082; 3405.407
883.860; 3102.766;  423.080; 3351.106
884.422; 3052.225;  552.078; 3394.044
884.983; 2766.185;  481.077; 3166.443
885.544; 2591.044;  559.075; 3189.802
886.105; 2366.853;  525.073; 3160.360
886.666; 2186.012;  513.072; 3093.059
887.227; 2038.221;  450.070; 2941.957
887.788; 2094.581;  528.068; 2974.836
888.349; 1975.090;  437.067; 2721.214
888.910; 2049.149;  596.065; 2696.493
889.471; 2006.208;  546.063; 2560.172
890.032; 2014.768;  541.061; 2558.190
890.593; 2066.677;  574.060; 2567.669
891.153; 2013.686;  504.058; 2460.307
891.714; 1886.845;  434.056; 2372.046
892.275; 1813.204;  417.055; 2309.505
892.835; 1890.264;  590.053; 2382.543
893.396; 1831.523;  565.051; 2295.502
893.956; 1711.782;  484.049; 2162.420
894.517; 1673.042;  533.048; 2125.439
895.077; 1641.201;  534.046; 2086.978
895.638; 1666.460;  637.044; 2126.316
896.198; 1443.269;  486.043; 1838.275
896.758; 1520.528;  580.041; 1892.813
897.319; 1436.788;  512.039; 1792.232
897.879; 1422.897;  535.038; 1762.751
898.439; 1306.106;  418.036; 1661.149
898.999; 1386.265;  543.034; 1781.468
899.559; 1330.275;  534.032; 1703.347
900.119; 1198.484;  450.031; 1537.525
900.679; 1297.493;  647.029; 1638.384
901.239; 1212.002;  565.027; 1527.902
901.799; 1143.062;  493.026; 1456.441
902.359; 1070.371;  463.024; 1357.140
902.919; 1049.780;  481.022; 1331.118
903.479; 1034.689;  501.020; 1317.257
904.038;  995.048;  436.019; 1262.595
904.598;  903.858;  380.017; 1152.034
905.158;  982.767;  497.015; 1240.893
905.717;  999.626;  492.014; 1233.691
906.277; 1003.385;  518.012; 1217.330
906.836;  999.845;  544.010; 1222.408
907.396;  974.304;  552.009; 1193.047
907.955;  963.163;  574.007; 1182.526
908.515;  897.672;  476.005; 1099.364
909.074;  879.732;  497.003; 1092.863
909.633;  870.691;  514.002; 1069.121
910.192;  985.150;  642.000; 1196.460
910.752;  854.800;  493.000; 1029.960
911.311;  830.000;  464.000; 1009.780
911.870;  808.100;  506.000;  971.460
912.429;  913.900;  575.000; 1094.080
912.988;  905.150;  599.000; 1081.060
913.547;  791.050;  460.000;  940.380
914.106;  836.600;  552.000;  999.420
914.665;  826.300;  519.000;  984.020
915.224;  878.400;  619.000; 1035.760
915.782;  781.350;  487.000;  922.560
916.341;  880.500;  600.000; 1049.840
916.900;  780.300;  510.000;  925.260
917.458;  752.000;  455.000;  884.220
918.017;  804.000;  535.000;  942.600
918.576;  770.650;  513.000;  904.440
919.134;  709.500;  450.000;  837.980
919.693;  760.600;  491.000;  893.060
920.251;  749.000;  503.000;  876.500
920.809;  721.950;  471.000;  839.580
921.368;  751.250;  478.000;  885.360
921.926;  725.450;  443.000;  842.940
922.484;  768.100;  529.000;  903.360
923.042;  748.550;  491.000;  880.340
923.601;  856.750;  585.000;  998.680
924.159;  802.750;  547.000;  935.560
924.717;  720.700;  485.000;  841.080
925.275;  766.950;  524.000;  903.240
925.833;  668.950;  377.000;  779.320
926.391;  800.000;  520.000;  938.380
926.949;  741.950;  479.000;  857.680
927.506;  780.450;  552.000;  903.500
928.064;  757.450;  504.000;  877.580
928.622;  751.100;  500.000;  880.100
929.180;  703.100;  446.000;  814.180
929.737;  687.350;  435.000;  808.540
930.295;  799.300;  532.000;  928.480
930.853;  726.550;  448.000;  849.100
931.410;  709.700;  426.000;  821.120
931.968;  805.300;  539.000;  940.660
932.525;  783.950;  517.000;  909.380
933.082;  693.050;  406.000;  811.440
933.640;  802.450;  538.000;  925.900
934.197;  761.950;  503.000;  886.360
934.754;  772.950;  461.000;  897.780
935.312;  753.200;  466.000;  863.340
935.869;  879.200;  577.000; 1012.980
936.426;  751.350;  497.000;  872.800
936.983;  766.550;  465.000;  889.020
937.540;  720.300;  422.000;  838.280
938.097;  813.700;  529.000;  940.120
938.654;  778.200;  502.000;  898.860
939.211;  816.400;  512.000;  952.480
939.768;  786.100;  478.000;  915.420
940.324;  775.250;  467.000;  904.200
940.881;  760.350;  476.000;  878.500
941.438;  875.550;  581.000; 1021.200
941.995;  858.800;  560.000;  992.560
942.551;  747.300;  439.000;  875.620
943.108;  802.350;  529.000;  937.920
943.664;  753.050;  450.000;  869.340
944.221;  946.200;  628.000; 1088.140
944.777;  750.900;  418.000;  869.680
945.334;  763.250;  471.000;  884.840
945.890;  815.350;  486.000;  946.480
946.446;  819.000;  505.000;  947.020
947.003;  832.700;  508.000;  964.940
947.559;  910.850;  643.000; 1063.040
948.115;  875.750;  581.000; 1026.540
948.671;  836.300;  511.000;  967.300
949.227;  741.450;  412.000;  859.560
949.783;  722.200;  428.000;  858.900
950.339;  835.150;  531.000;  991.000
950.895;  868.850;  552.000; 1023.840
951.451;  788.000;  501.000;  925.280
952.007;  845.400;  544.000;  998.540
952.563;  791.550;  498.000;  937.780
953.118;  778.550;  475.000;  904.940
953.674;  796.950;  504.000;  935.780
954.230;  803.050;  500.000;  949.640
954.785;  788.850;  484.000;  936.640
955.341;  842.000;  535.000;  998.160
955.897;  691.850;  393.000;  834.660
956.452;  803.800;  524.000;  953.840
957.008;  921.950;  616.000; 1083.640
957.563;  868.000;  554.000; 1009.540
958.118;  736.650;  473.000;  877.700
958.674;  797.400;  524.000;  946.780
959.229;  853.750;  572.000; 1013.980
959.784;  704.900;  402.000;  832.400
960.339;  847.850;  563.000; 1001.280
960.894;  817.400;  532.000;  963.760
961.449;  720.000;  452.000;  859.960
962.004; 1028.050;  790.000; 1212.840
962.559;  729.150;  455.000;  860.140
963.114;  619.300;  347.000;  742.480
963.669;  772.600;  502.000;  915.500
964.224;  746.450;  452.000;  874.340
964.779;  692.200;  409.000;  828.420
965.334;  856.050;  609.000; 1017.860
965.888;  723.450;  475.000;  875.360
966.443;  821.500;  549.000;  972.380
966.998;  667.900;  396.000;  819.460
967.552;  760.750;  480.000;  908.380
968.107;  722.100;  482.000;  868.300
968.661;  768.850;  539.000;  922.440
969.216;  716.150;  484.000;  856.280
969.770;  760.650;  516.000;  917.200
970.324;  775.350;  530.000;  923.140
970.879;  792.250;  579.000;  947.180
971.433;  802.450;  549.000;  952.720
971.987;  752.650;  520.000;  895.340
972.541;  766.450;  520.000;  917.100
973.095;  843.950;  583.000; 1009.460
973.649;  660.100;  449.000;  809.480
974.203;  681.300;  446.000;  829.040
974.757;  715.050;  492.000;  855.220
975.311;  734.700;  480.000;  872.600
975.865;  739.750;  511.000;  881.820
976.419;  718.400;  504.000;  857.400
976.973;  713.400;  461.000;  849.620
977.526;  790.050;  556.000;  949.920
978.080;  659.000;  424.000;  796.780
978.634;  772.400;  567.000;  921.320
979.187;  756.450;  526.000;  905.400
979.741;  861.300;  608.000; 1018.380
980.294;  664.900;  412.000;  789.160
980.848;  598.850;  396.000;  717.220
981.401;  686.800;  475.000;  816.540
981.955;  716.650;  513.000;  844.300
982.508;  627.900;  410.000;  746.340
983.061;  774.200;  556.000;  915.260
983.615;  670.000;  454.000;  798.800
984.168;  645.500;  425.000;  770.080
984.721;  732.900;  508.000;  880.760
985.274;  719.200;  533.000;  867.500
985.827;  695.350;  518.000;  834.220
986.380;  599.950;  385.000;  721.340
986.933;  727.500;  524.000;  864.800
987.486;  712.400;  522.000;  861.920
988.039;  721.650;  558.000;  863.100
988.591;  747.650;  575.000;  893.260
989.144;  609.500;  434.000;  737.260
989.697;  627.600;  452.000;  758.740
990.250;  715.400;  543.000;  858.100
990.802;  627.300;  437.000;  755.860
991.355;  816.200;  669.000;  974.880
991.907;  721.600;  572.500;  864.320
992.460;  627.000;  476.000;  753.760
993.012;  624.300;  481.000;  749.540
993.565;  594.600;  436.000;  711.360
994.117;  791.650;  670.000;  950.780
994.669;  582.550;  441.000;  701.320
995.221;  660.300;  512.000;  791.920
995.774;  656.950;  512.000;  787.580
996.326;  619.600;  496.000;  740.220
996.878;  701.300;  571.000;  838.420
997.430;  586.600;  464.000;  699.860
997.982;  624.550;  508.000;  750.140
998.534;  617.750;  486.000;  739.060
999.086;  616.700;  486.000;  738.220
999.638;  551.650;  423.000;  661.380
1000.190;  589.800;  492.000;  699.320
1000.741;  624.650;  536.000;  742.700
1001.293;  573.500;  431.000;  686.020
1001.845;  572.050;  465.000;  676.640
1002.396;  621.550;  539.000;  743.400
1002.948;  609.700;  528.000;  737.400
1003.500;  600.300;  494.000;  723.780
1004.051;  765.700;  675.000;  907.580
1004.603;  672.400;  574.000;  791.820
1005.154;  501.100;  419.000;  608.980
1005.705;  603.500;  524.000;  723.960
1006.257;  595.050;  501.000;  707.220
1006.808;  576.550;  507.000;  685.460
1007.359;  648.800;  575.000;  763.240
1007.910;  539.000;  453.000;  646.640
1008.461;  622.450;  542.000;  732.940
1009.013;  491.200;  412.000;  588.340
1009.564;  668.350;  619.000;  793.520
1010.115;  500.350;  427.000;  597.040
1010.665;  508.550;  434.000;  602.160
1011.216;  558.000;  497.000;  667.920
1011.767;  580.900;  512.000;  697.920
1012.318;  620.050;  549.000;  736.980
1012.869;  573.250;  497.000;  679.000
1013.419;  506.150;  411.000;  603.120
1013.970;  560.750;  490.000;  666.640
1014.521;  521.400;  456.000;  620.620
1015.071;  571.300;  476.000;  670.380
1015.622;  529.750;  496.000;  635.460
1016.172;  496.850;  455.000;  596.820
1016.723;  514.000;  473.000;  614.380
1017.273;  509.800;  454.000;  604.160
1017.823;  539.000;  496.000;  650.340
1018.374;  514.950;  440.000;  611.760
1018.924;  598.750;  559.000;  716.880
1019.474;  600.500;  544.000;  718.880
1020.024;  549.450;  487.000;  657.580
1020.574;  604.000;  570.000;  726.160
1021.124;  566.600;  528.000;  673.580
1021.674;  471.450;  401.000;  559.120
1022.224;  595.900;  522.000;  708.940
1022.774;  555.950;  489.000;  668.820
1023.324;  635.650;  593.000;  753.520
1023.874;  747.750;  660.000;  875.760
1024.423;  517.500;  456.000;  613.700
1024.973;  505.350;  487.000;  610.760
1025.523;  516.750;  452.000;  620.960
1026.072;  508.700;  448.000;  606.420
1026.622;  558.950;  518.000;  675.740
1027.172;  601.950;  580.000;  715.660
1027.721;  496.000;  437.000;  601.220
1028.270;  569.850;  500.000;  663.400
1028.820;  535.500;  494.000;  638.080
1029.369;  515.950;  477.000;  612.700
1029.918;  544.350;  464.000;  649.840
1030.468;  471.550;  402.000;  564.780
1031.017;  538.750;  494.000;  634.800
1031.566;  508.900;  491.000;  608.900
1032.115;  579.400;  536.000;  694.500
1032.664;  505.150;  418.000;  596.480
1033.213;  615.100;  567.000;  735.420
1033.762;  530.600;  497.000;  635.620
1034.311;  566.600;  507.000;  677.220
1034.860;  585.650;  534.000;  691.000
1035.408;  607.900;  543.000;  722.720
1035.957;  603.750;  537.000;  719.540
1036.506;  444.650;  374.000;  530.800
1037.055;  717.000;  665.000;  844.320
1037.603;  559.400;  507.000;  664.000
1038.152;  439.900;  395.000;  534.760
1038.700;  489.900;  410.000;  585.740
1039.249;  574.600;  531.000;  681.220
1039.797;  531.800;  482.000;  633.360
1040.345;  590.500;  545.000;  705.420
1040.894;  520.150;  461.000;  625.300
1041.442;  533.950;  503.000;  632.200
1041.990;  466.400;  399.000;  559.160
1042.538;  444.550;  399.000;  536.180
1043.087;  480.300;  464.000;  570.860
1043.635;  565.750;  524.000;  670.500
1044.183;  493.650;  453.000;  586.400
1044.731;  475.500;  427.000;  576.000
1045.279;  555.000;  519.000;  674.920
1045.827;  765.500;  714.000;  892.400
1046.374;  431.650;  398.000;  515.420
1046.922;  495.650;  474.000;  590.580
1047.470;  576.200;  541.000;  691.300
1048.018;  545.550;  509.000;  647.960
1048.565;  597.400;  575.000;  708.600
1049.113;  458.300;  401.000;  557.000
1049.660;  524.950;  485.000;  629.660
1050.208;  570.250;  554.000;  675.640
1050.755;  505.100;  468.000;  606.580
1051.303;  578.700;  547.000;  686.820
1051.850;  537.700;  494.000;  635.120
1052.397;  393.000;  340.000;  473.960
1052.945;  515.350;  513.000;  617.760
1053.492;  625.250;  618.000;  741.840
1054.039;  607.400;  561.000;  720.180
1054.586;  470.200;  397.000;  557.240
1055.133;  578.450;  528.000;  693.140
1055.680;  539.550;  508.000;  646.620
1056.227;  451.600;  385.000;  542.780
1056.774;  674.700;  624.000;  794.980
1057.321;  429.250;  400.000;  523.260
1057.868;  541.150;  536.000;  651.320
1058.415;  546.750;  502.000;  651.980
1058.961;  570.150;  510.000;  678.940
1059.508;  531.700;  472.000;  643.820
1060.055;  483.700;  456.000;  581.780
1060.601;  519.650;  470.000;  624.300
1061.148;  517.500;  495.000;  616.820
1061.694;  496.100;  463.000;  592.580
1062.241;  496.150;  498.000;  596.320
1062.787;  551.200;  554.000;  663.140
1063.334;  680.650;  665.000;  808.560
1063.880;  560.650;  531.000;  668.360
1064.426;  587.800;  583.000;  706.820
1064.972;  498.950;  461.000;  601.340
1065.518;  469.050;  415.000;  566.640
1066.065;  521.800;  502.000;  624.460
1066.611;  495.450;  483.000;  598.800
1067.157;  534.900;  509.000;  641.860
1067.703;  564.050;  514.000;  668.480
1068.249;  510.600;  475.000;  605.220
1068.794;  521.650;  499.000;  626.880
1069.340;  476.300;  447.000;  578.960
1069.886;  500.650;  470.000;  590.700
1070.432;  446.050;  405.000;  541.720
1070.977;  505.100;  477.000;  601.080
1071.523;  481.850;  431.000;  573.060
1072.068;  487.450;  441.000;  582.000
1072.614;  429.000;  387.000;  527.760
1073.160;  569.200;  556.000;  687.040
1073.705;  479.300;  488.000;  572.520
1074.250;  465.400;  479.000;  559.900
1074.796;  549.300;  502.000;  655.160
1075.341;  562.150;  525.000;  664.100
1075.886;  494.600;  470.000;  594.240
1076.431;  549.800;  514.000;  649.880
1076.976;  534.400;  491.000;  639.220
1077.521;  482.200;  463.000;  583.080
1078.067;  486.400;  450.000;  579.400
1078.612;  554.400;  537.000;  661.620
1079.156;  509.450;  481.000;  601.540
1079.701;  577.450;  543.000;  693.260
1080.246;  579.050;  599.000;  696.300
1080.791;  536.650;  485.000;  625.020
1081.336;  555.450;  502.000;  659.320
1081.880;  546.050;  526.000;  649.680
1082.425;  476.400;  421.000;  573.480
1082.970;  600.900;  577.000;  717.040
1083.514;  495.100;  482.000;  597.000
1084.059;  486.200;  455.000;  586.720
1084.603;  469.700;  437.000;  565.840
1085.147;  546.850;  496.000;  645.220
1085.692;  599.450;  566.000;  716.800
1086.236;  412.100;  419.000;  503.140
1086.780;  630.000;  621.000;  751.440
1087.325;  547.650;  518.000;  654.620
1087.869;  513.500;  482.000;  610.700
1088.413;  595.300;  567.000;  705.040
1088.957;  451.850;  457.000;  543.400
1089.501;  647.100;  634.000;  766.640
1090.045;  608.900;  611.000;  726.480
1090.589;  476.300;  453.000;  569.920
1091.133;  566.150;  513.000;  673.340
1091.676;  503.250;  450.000;  591.940
1092.220;  501.350;  481.000;  600.920
1092.764;  599.100;  579.000;  706.960
1093.307;  559.300;  526.000;  673.780
1093.851;  459.700;  442.000;  556.540
1094.395;  571.150;  571.000;  683.140
1094.938;  532.650;  516.000;  632.520
1095.482;  464.550;  455.000;  559.800
1096.025;  592.800;  565.000;  710.880
1096.568;  654.700;  631.000;  779.280
1097.112;  418.550;  405.000;  508.180
1097.655;  503.450;  518.000;  603.000
1098.198;  500.300;  473.000;  600.180
1098.741;  523.150;  490.000;  612.860
1099.285;  542.000;  531.000;  657.300
1099.828;  364.000;  330.000;  439.400
1100.371;  504.800;  497.000;  608.160
1100.914;  577.800;  552.000;  682.660
1101.457;  565.900;  555.000;  679.900
1101.999;  478.200;  447.000;  584.680
1102.542;  535.650;  491.000;  641.440
1103.085;  539.650;  548.000;  658.500
1103.628;  641.050;  642.000;  762.060
1104.170;  494.750;  463.000;  588.280
1104.713;  540.150;  529.000;  646.700
1105.256;  466.950;  403.000;  557.440
1105.798;  415.450;  400.000;  499.980
1106.341;  612.650;  603.000;  728.900
1106.883;  434.650;  393.000;  521.340
1107.425;  561.050;  534.000;  668.180
1107.968;  512.750;  517.000;  612.380
1108.510;  577.150;  572.000;  684.960
1109.052;  521.000;  473.000;  612.620
1109.594;  464.850;  408.000;  554.440
1110.136;  535.400;  509.000;  643.220
1110.679;  526.200;  552.000;  633.080
1111.221;  507.050;  462.000;  604.460
1111.763;  460.300;  444.000;  559.220
1112.304;  453.950;  428.000;  547.140
1112.846;  563.800;  564.000;  666.240
1113.388;  807.600;  770.000;  942.180
1113.930;  582.900;  589.000;  694.200
1114.472;  507.850;  488.000;  606.540
1115.013;  461.350;  424.000;  551.280
1115.555;  497.150;  486.000;  587.100
1116.097;  477.400;  459.000;  579.480
1116.638;  575.900;  582.000;  684.600
1117.180;  556.600;  526.000;  667.740
1117.721;  478.200;  456.000;  568.580
1118.262;  564.300;  521.000;  677.960
1118.804;  535.000;  529.000;  637.340
1119.345;  482.600;  461.000;  578.400
1119.886;  595.900;  601.000;  704.040
1120.427;  490.900;  478.000;  589.020
1120.969;  496.950;  480.000;  597.920
1121.510;  471.800;  442.000;  563.060
1122.051;  611.350;  598.000;  723.580
1122.592;  549.300;  514.000;  655.420
1123.133;  457.300;  473.000;  547.940
1123.673;  590.800;  586.000;  706.480
1124.214;  512.550;  511.000;  612.460
1124.755;  537.050;  537.000;  639.460
1125.296;  509.600;  505.000;  627.320
1125.836;  579.350;  570.000;  691.500
1126.377;  505.050;  467.000;  599.660
1126.918;  513.750;  505.000;  614.980
1127.458;  519.250;  528.000;  622.220
1127.999;  549.250;  548.000;  656.980
1128.539;  581.450;  545.000;  694.240
1129.079;  534.650;  527.000;  632.720
1129.620;  456.200;  440.000;  558.100
1130.160;  448.200;  456.000;  539.480
1130.700;  533.900;  512.000;  640.840
1131.240;  538.700;  546.000;  643.700
1131.781;  521.900;  535.000;  619.680
1132.321;  496.900;  504.000;  599.120
1132.861;  477.950;  446.000;  564.200
1133.401;  493.600;  484.000;  593.940
1133.941;  522.950;  551.000;  626.280
1134.481;  507.250;  505.000;  597.580
1135.020;  512.300;  488.000;  609.160
1135.560;  568.350;  567.000;  674.940
1136.100;  412.950;  398.000;  501.160
1136.640;  421.850;  411.000;  510.480
1137.179;  452.000;  428.000;  537.960
1137.719;  502.800;  486.000;  605.400
1138.258;  489.800;  501.000;  587.360
1138.798;  559.550;  547.000;  663.780
1139.337;  398.200;  369.000;  482.840
1139.877;  537.900;  524.000;  642.360
1140.416;  737.500;  763.000;  878.060
1140.955;  438.400;  404.000;  535.380
1141.494;  565.750;  559.000;  669.280
1142.034;  482.350;  482.000;  583.520
1142.573;  545.850;  560.000;  646.280
1143.112;  456.200;  469.000;  553.480
1143.651;  452.300;  452.000;  536.480
1144.190;  581.100;  551.000;  691.640
1144.729;  507.950;  479.000;  607.420
1145.267;  479.300;  500.000;  584.900
1145.806;  538.450;  544.000;  637.040
1146.345;  536.300;  528.000;  635.020
1146.884;  525.900;  499.000;  622.500
1147.422;  434.500;  443.000;  533.060
1147.961;  595.900;  580.000;  708.460
1148.500;  562.450;  556.000;  669.720
1149.038;  529.550;  532.000;  632.500
1149.577;  580.650;  607.000;  698.640
1150.115;  374.850;  325.000;  452.280
1150.653;  510.950;  512.000;  607.340
1151.192;  459.900;  456.000;  552.920
1151.730;  549.300;  562.000;  652.560
1152.268;  492.550;  471.000;  589.520
1152.806;  482.800;  494.000;  571.180
1153.344;  479.450;  484.000;  577.640
1153.882;  495.650;  494.000;  600.060
1154.421;  389.850;  363.000;  470.620
1154.958;  501.750;  501.000;  595.240
1155.496;  541.250;  553.000;  645.280
1156.034;  609.350;  600.000;  721.880
1156.572;  561.450;  537.000;  667.060
1157.110;  386.300;  367.000;  473.940
1157.647;  567.350;  576.000;  676.960
1158.185;  470.450;  484.000;  564.320
1158.723;  430.200;  412.000;  509.200
1159.260;  588.050;  588.000;  701.700
1159.798;  548.800;  555.000;  658.160
1160.335;  521.650;  536.000;  631.820

