gmr_right
Integration time [ms]: 384.568
Averaging Nr. [scans]: 20
Smoothing Nr. [pixels]: 0
Data measured with spectrometer [name]: 7414430SP
Wave   ;Sample   ;Dark     ;Reference
[nm]   ;[counts] ;[counts] ;[counts] 

288.544;  635.659;  568.515;  793.890
289.143;  542.974;  409.561;  681.602
289.742;  661.539;  554.563;  828.814
290.341;  638.039;  505.621;  789.841
290.940;  594.616;  470.651;  730.702
291.538;  713.643;  638.612;  881.108
292.137;  640.064;  534.599;  792.581
292.736;  807.089;  681.621;  975.101
293.335;  602.938;  510.669;  735.086
293.934;  636.301;  495.663;  781.677
294.532;  854.939;  741.656; 1031.958
295.131;  689.403;  595.746;  834.394
295.730;  664.055;  598.740;  809.588
296.328;  656.289;  543.748;  783.442
296.927;  646.177;  597.761;  779.652
297.525;  645.842;  550.746;  781.236
298.124;  538.934;  421.822;  654.009
298.722;  633.759;  559.769;  761.933
299.321;  595.181;  487.787;  708.597
299.919;  633.045;  498.805;  751.918
300.518;  584.371;  469.828;  689.338
301.116;  573.609;  504.786;  691.381
301.715;  612.952;  511.760;  730.222
302.313;  597.134;  453.771;  704.943
302.911;  626.448;  513.844;  733.830
303.509;  797.512;  690.770;  925.627
304.108;  649.753;  544.767;  760.383
304.706;  691.122;  555.763;  801.664
305.304;  692.895;  584.826;  796.707
305.902;  676.091;  580.759;  784.484
306.500;  629.971;  507.790;  728.200
307.098;  651.052;  522.797;  746.560
307.696;  682.560;  583.814;  780.432
308.294;  642.783;  558.798;  731.359
308.892;  668.200;  546.766;  759.769
309.490;  626.934;  509.809;  712.161
310.088;  692.868;  605.831;  788.444
310.686;  731.313;  599.777;  821.749
311.284;  682.116;  545.812;  766.040
311.882;  646.538;  537.830;  731.225
312.480;  621.622;  498.852;  697.167
313.078;  720.554;  628.829;  808.331
313.675;  607.620;  501.790;  691.600
314.273;  707.578;  596.854;  797.837
314.871;  533.028;  410.841;  589.829
315.468;  582.348;  515.844;  652.090
316.066;  616.438;  490.792;  694.427
316.664;  596.180;  490.855;  656.351
317.261;  809.964;  738.822;  910.128
317.859;  686.395;  589.840;  768.735
318.456;  743.106;  653.806;  830.096
319.054;  699.147;  615.833;  787.828
319.651;  687.733;  575.818;  759.928
320.249;  726.383;  657.818;  810.188
320.846;  635.931;  532.804;  714.286
321.443;  739.350;  658.817;  832.135
322.041;  719.832;  623.828;  812.315
322.638;  618.820;  561.821;  701.456
323.235;  585.634;  516.771;  665.683
323.833;  670.123;  582.791;  740.354
324.430;  550.434;  431.805;  615.900
325.027;  786.793;  719.791;  876.855
325.624;  590.564;  430.747;  644.532
326.221;  627.155;  470.764;  689.717
326.818;  748.334;  639.788;  818.332
327.415;  682.742;  529.732;  748.828
328.012;  634.552;  477.725;  690.585
328.609;  678.474;  521.743;  731.389
329.206;  720.633;  601.760;  778.621
329.803;  686.464;  539.767;  737.841
330.400;  658.019;  498.741;  704.260
330.997;  755.780;  568.762;  817.147
331.594;  745.044;  600.815;  788.185
332.191;  681.084;  534.767;  728.722
332.787;  782.748;  605.786;  844.463
333.384;  711.706;  523.840;  763.093
333.981;  756.423;  572.897;  815.687
334.578;  656.692;  498.876;  708.378
335.174;  677.417;  497.878;  731.469
335.771;  773.373;  594.918;  836.456
336.367;  660.034;  505.953;  710.631
336.964;  722.480;  578.927;  793.266
337.561;  665.541;  529.941;  731.112
338.157;  819.933;  709.000;  911.916
338.754;  723.461;  608.020;  796.589
339.350;  661.707;  535.012;  722.493
339.946;  698.138;  575.978;  773.135
340.543;  753.867;  657.060;  846.136
341.139;  646.956;  529.094;  720.836
341.735;  691.779;  610.102;  772.593
342.332;  617.016;  532.087;  691.472
342.928;  703.222;  574.076;  795.394
343.524;  676.655;  581.108;  761.684
344.120;  659.048;  531.115;  738.562
344.716;  633.887;  541.060;  723.717
345.313;  706.465;  584.063;  795.342
345.909;  549.680;  435.072;  627.336
346.505;  648.348;  573.043;  740.247
347.101;  726.896;  594.029;  827.864
347.697;  684.754;  585.008;  785.398
348.293;  543.227;  442.033;  627.244
348.889;  652.689;  578.023;  745.914
349.485;  591.221;  517.010;  688.205
350.081;  670.106;  577.005;  772.592
350.676;  599.147;  521.040;  691.606
351.272;  690.773;  594.987;  809.530
351.868;  659.795;  566.970;  780.497
352.464;  622.043;  564.990;  723.932
353.059;  556.666;  473.015;  646.017
353.655;  660.925;  584.980;  777.063
354.251;  649.118;  553.958;  759.845
354.846;  633.290;  534.006;  740.646
355.442;  638.695;  561.039;  753.071
356.038;  633.847;  554.998;  751.708
356.633;  613.213;  546.993;  728.594
357.229;  614.184;  547.008;  724.757
357.824;  587.686;  515.022;  703.600
358.420;  563.602;  529.017;  679.726
359.015;  573.584;  508.004;  695.357
359.610;  641.579;  579.992;  763.920
360.206;  504.581;  418.041;  603.240
360.801;  531.800;  482.003;  646.503
361.396;  606.838;  522.978;  725.975
361.992;  553.886;  504.022;  668.220
362.587;  546.013;  512.048;  670.160
363.182;  565.181;  531.024;  689.631
363.777;  610.512;  559.010;  738.242
364.372;  606.358;  578.016;  737.314
364.967;  562.940;  518.048;  680.744
365.563;  669.596;  623.995;  815.567
366.158;  569.762;  502.007;  685.161
366.753;  530.987;  489.992;  649.263
367.348;  607.028;  579.023;  746.056
367.942;  565.504;  519.008;  697.298
368.537;  612.815;  552.029;  754.245
369.132;  563.891;  517.017;  703.428
369.727;  517.644;  477.052;  638.079
370.322;  465.866;  430.032;  580.186
370.917;  567.597;  528.040;  710.646
371.511;  706.289;  666.020;  861.834
372.106;  635.840;  615.048;  776.964
372.701;  468.112;  439.062;  585.988
373.296;  696.677;  671.012;  863.135
373.890;  513.813;  486.048;  647.840
374.485;  568.838;  535.071;  691.199
375.079;  602.134;  582.021;  738.685
375.674;  656.080;  650.017;  812.970
376.268;  552.243;  528.049;  691.759
376.863;  454.432;  451.103;  580.327
377.457;  532.143;  514.031;  662.490
378.052;  611.453;  601.059;  764.884
378.646;  605.711;  571.058;  741.167
379.240;  572.648;  552.064;  721.176
379.835;  512.911;  532.037;  636.978
380.429;  436.073;  427.045;  562.557
381.023;  623.435;  597.070;  779.205
381.617;  538.768;  514.081;  680.106
382.212;  535.958;  518.036;  685.303
382.806;  607.593;  610.031;  760.690
383.400;  538.927;  550.067;  672.281
383.994;  532.264;  557.073;  664.870
384.588;  559.638;  535.029;  697.701
385.182;  586.638;  584.999;  726.624
385.776;  572.558;  539.019;  706.875
386.370;  551.180;  545.054;  681.968
386.964;  549.071;  553.031;  684.155
387.558;  467.942;  448.003;  598.360
388.152;  543.512;  545.045;  681.959
388.745;  660.467;  664.039;  814.707
389.339;  602.944;  623.014;  747.642
389.933;  550.486;  552.998;  695.370
390.527;  702.842;  720.024;  859.029
391.120;  468.519;  481.071;  595.318
391.714;  569.614;  588.039;  711.633
392.308;  632.307;  622.008;  780.253
392.901;  516.800;  497.037;  642.460
393.495;  473.678;  508.057;  595.414
394.089;  621.876;  649.046;  760.452
394.682;  559.318;  534.047;  697.188
395.275;  580.699;  577.047;  719.927
395.869;  536.878;  567.061;  667.314
396.462;  489.006;  512.039;  616.609
397.056;  625.861;  631.003;  776.621
397.649;  595.547;  601.057;  731.575
398.242;  580.315;  583.025;  712.645
398.836;  621.160;  630.013;  766.408
399.429;  506.824;  486.015;  631.041
400.022;  536.764;  536.059;  665.902
400.615;  659.187;  675.043;  805.609
401.208;  566.318;  580.009;  691.451
401.802;  574.005;  569.036;  699.329
402.395;  564.714;  535.059;  683.502
402.988;  567.924;  588.070;  696.627
403.581;  524.598;  560.023;  646.878
404.174;  555.566;  573.994;  686.568
404.767;  517.439;  529.040;  638.583
405.360;  506.404;  506.062;  621.445
405.953;  618.276;  648.008;  759.034
406.545;  590.449;  583.996;  725.342
407.138;  502.325;  507.039;  618.350
407.731;  505.826;  507.029;  613.303
408.324;  532.968;  560.975;  660.554
408.917;  553.088;  577.999;  681.864
409.509;  613.859;  618.027;  740.396
410.102;  521.449;  542.051;  643.948
410.695;  549.265;  557.970;  665.758
411.287;  485.586;  482.981;  599.821
411.880;  477.267;  456.988;  585.421
412.472;  491.032;  511.027;  613.092
413.065;  523.178;  563.006;  629.408
413.657;  468.283;  484.963;  576.678
414.250;  531.422;  525.966;  646.681
414.842;  553.294;  576.997;  676.353
415.434;  470.942;  475.969;  570.463
416.027;  530.574;  535.922;  652.196
416.619;  597.672;  592.962;  713.400
417.211;  493.066;  500.964;  599.352
417.804;  512.701;  540.914;  628.499
418.396;  502.961;  513.965;  607.643
418.988;  545.738;  525.944;  659.238
419.580;  474.007;  484.978;  568.276
420.172;  444.700;  456.944;  536.196
420.764;  557.289;  578.913;  672.482
421.356;  537.994;  544.925;  636.898
421.948;  560.378;  552.947;  677.661
422.540;  565.311;  580.890;  680.027
423.132;  496.463;  498.887;  600.641
423.724;  468.231;  455.931;  561.267
424.316;  509.348;  504.916;  621.345
424.908;  499.191;  498.869;  591.517
425.500;  534.110;  548.869;  647.978
426.092;  540.285;  551.867;  648.268
426.683;  575.098;  583.896;  684.836
427.275;  540.899;  540.848;  641.471
427.867;  559.209;  557.841;  668.948
428.458;  616.951;  592.842;  732.344
429.050;  576.604;  569.867;  680.749
429.642;  626.582;  615.845;  743.124
430.233;  474.382;  460.832;  569.356
430.825;  613.247;  584.837;  724.809
431.416;  589.169;  594.868;  698.241
432.008;  546.287;  538.823;  651.723
432.599;  544.930;  555.814;  656.073
433.190;  538.442;  534.859;  637.670
433.782;  490.039;  480.858;  590.395
434.373;  748.830;  771.800;  884.765
434.964;  499.052;  467.798;  602.920
435.556;  528.883;  533.836;  634.537
436.147;  633.253;  617.822;  758.490
436.738;  588.977;  584.816;  701.099
437.329;  608.003;  599.763;  721.723
437.920;  558.941;  563.852;  666.688
438.511;  468.821;  440.845;  564.526
439.103;  522.887;  524.772;  623.998
439.694;  571.521;  546.759;  681.583
440.285;  641.340;  607.773;  764.432
440.876;  714.563;  709.798;  845.738
441.466;  480.478;  436.786;  575.162
442.057;  552.639;  554.731;  665.814
442.648;  628.048;  617.772;  746.255
443.239;  521.762;  531.791;  620.477
443.830;  597.730;  578.742;  704.958
444.421;  543.745;  482.716;  655.474
445.011;  582.038;  529.779;  693.619
445.602;  624.036;  592.785;  743.126
446.193;  403.379;  379.734;  488.117
446.783;  529.940;  497.697;  640.397
447.374;  578.707;  563.772;  692.759
447.964;  602.401;  602.773;  713.770
448.555;  696.106;  654.692;  822.742
449.145;  553.839;  533.728;  662.853
449.736;  671.049;  656.742;  803.179
450.326;  605.785;  545.740;  713.626
450.917;  563.113;  549.684;  675.324
451.507;  506.836;  455.692;  600.661
452.097;  627.628;  600.710;  746.267
452.688;  625.348;  534.700;  742.160
453.278;  468.667;  444.693;  566.840
453.868;  666.115;  618.665;  793.550
454.458;  541.767;  473.696;  651.141
455.048;  596.088;  546.703;  711.783
455.639;  468.332;  439.663;  567.096
456.229;  584.680;  544.649;  710.694
456.819;  627.607;  579.648;  751.158
457.409;  651.692;  604.657;  773.993
457.999;  613.199;  557.628;  737.505
458.589;  568.299;  525.632;  686.606
459.179;  599.125;  550.641;  717.658
459.769;  524.190;  487.663;  627.099
460.358;  665.659;  644.621;  797.262
460.948;  571.009;  522.625;  689.503
461.538;  552.680;  488.618;  660.677
462.128;  552.630;  481.649;  664.934
462.717;  591.165;  569.572;  710.326
463.307;  588.770;  556.553;  705.846
463.897;  547.627;  479.614;  656.942
464.486;  706.664;  640.657;  837.128
465.076;  614.535;  582.592;  733.776
465.666;  535.542;  516.547;  652.900
466.255;  656.370;  592.604;  785.651
466.845;  552.563;  481.612;  666.749
467.434;  606.445;  576.589;  725.873
468.023;  540.860;  457.573;  658.357
468.613;  593.399;  526.632;  713.946
469.202;  535.516;  470.579;  646.507
469.791;  623.436;  542.548;  737.811
470.381;  617.325;  556.544;  742.813
470.970;  588.703;  486.551;  711.099
471.559;  613.262;  565.571;  733.291
472.148;  565.121;  481.536;  675.737
472.738;  624.964;  569.527;  765.466
473.327;  523.884;  430.534;  637.529
473.916;  615.153;  547.564;  737.446
474.505;  628.174;  552.520;  751.703
475.094;  682.646;  578.500;  806.570
475.683;  662.246;  568.521;  797.699
476.272;  606.311;  507.526;  730.632
476.861;  588.942;  481.495;  706.754
477.449;  605.973;  502.441;  728.487
478.038;  576.280;  477.526;  692.513
478.627;  602.542;  504.533;  714.852
479.216;  632.582;  583.468;  769.441
479.805;  650.341;  548.450;  783.375
480.393;  849.236;  759.493; 1008.945
480.982;  732.953;  614.513;  874.501
481.571;  717.021;  628.447;  858.333
482.159;  575.154;  453.444;  705.386
482.748;  675.323;  548.478;  821.385
483.336;  717.556;  621.459;  858.209
483.925;  647.028;  539.473;  774.373
484.513;  623.587;  520.408;  758.962
485.102;  667.523;  554.482;  810.965
485.690;  853.136;  716.421; 1011.050
486.278;  824.517;  684.421;  979.329
486.867;  668.863;  541.430;  809.662
487.455;  759.093;  578.448;  898.229
488.043;  624.788;  447.449;  748.361
488.631;  842.498;  712.404; 1005.079
489.220;  754.233;  584.396;  908.626
489.808;  617.578;  424.435;  741.415
490.396;  769.589;  593.422;  914.645
490.984;  689.581;  505.423;  830.161
491.572;  778.670;  618.405;  940.315
492.160;  762.338;  526.449;  919.081
492.748;  743.239;  526.453;  884.341
493.336;  860.231;  620.406; 1019.693
493.924;  805.914;  534.383;  958.077
494.512;  912.354;  599.427; 1066.638
495.100;  949.569;  569.449; 1103.280
495.687; 1043.237;  637.387; 1206.373
496.275; 1006.558;  490.398; 1150.796
496.863; 1117.550;  517.440; 1281.171
497.451; 1227.484;  507.445; 1386.805
498.038; 1369.096;  560.377; 1556.729
498.626; 1544.739;  520.384; 1741.407
499.214; 1844.117;  543.421; 2016.609
499.801; 2057.739;  548.436; 2220.633
500.389; 2213.637;  465.391; 2312.494
500.976; 2631.341;  564.395; 2744.849
501.564; 2859.903;  530.437; 3148.565
502.151; 3006.868;  369.446; 3515.999
502.738; 3551.851;  520.406; 3971.274
503.326; 4136.632;  490.375; 4403.796
503.913; 4712.004;  530.410; 5161.749
504.500; 5222.494;  553.430; 5986.420
505.088; 5790.612;  476.427; 6381.201
505.675; 6704.308;  520.377; 6925.547
506.262; 7546.337;  513.446; 7619.060
506.849; 8314.936;  535.414; 8733.969
507.436; 8959.393;  590.385; 9790.121
508.023; 9057.549;  518.391; 9985.472
508.610; 9634.610;  592.412;10434.618
509.197;10717.616;  546.469;11198.435
509.784;11853.783;  543.417;12391.194
510.371;12667.393;  433.368;13603.713
510.958;13204.372;  505.437;14426.586
511.545;13313.564;  634.424;15243.775
512.132;13976.463;  547.379;15945.876
512.719;14991.904;  475.410;16340.369
513.305;16627.371;  478.430;18011.766
513.892;18301.145;  600.455;19754.971
514.479;19360.133;  549.396;20967.805
515.066;20134.580;  615.402;22299.793
515.652;21261.117;  523.404;22908.660
516.239;22700.834;  603.420;23798.875
516.825;24289.551;  464.409;25567.275
517.412;25594.035;  686.393;28154.959
517.998;24170.869;  501.432;28344.111
518.585;22892.518;  509.446;27134.219
519.171;23452.514;  535.383;27268.576
519.758;24016.211;  440.395;28964.129
520.344;25366.033;  573.417;30664.494
520.930;27445.549;  456.459;32550.605
521.516;30229.676;  596.383;35422.895
522.103;31765.588;  639.408;38280.004
522.689;31897.930;  498.450;37835.117
523.275;32197.209;  614.439;37288.613
523.861;33273.371;  552.413;37281.395
524.447;34549.098;  614.384;37846.949
525.033;34561.551;  601.436;38321.949
525.619;32868.047;  461.452;38579.285
526.205;32930.359;  483.435;40622.875
526.791;34633.238;  528.398;42258.836
527.377;35776.297;  509.449;42966.902
527.963;37086.238;  570.470;42018.949
528.549;38842.637;  580.452;42476.828
529.135;38281.078;  481.428;41854.852
529.721;36906.289;  524.432;41237.711
530.306;36636.285;  714.452;41259.445
530.892;37017.543;  517.433;41506.047
531.478;39566.195;  526.417;43559.613
532.063;41921.008;  462.445;47695.563
532.649;44099.785;  662.479;50808.324
533.235;45418.105;  487.442;51787.500
533.820;45421.957;  612.394;52145.035
534.406;43611.969;  511.477;51133.488
534.991;42691.965;  497.448;49996.805
535.576;41071.609;  517.432;48882.852
536.162;39733.508;  729.426;46942.285
536.747;40554.355;  444.482;45711.746
537.333;42420.516;  487.479;48510.180
537.918;44429.227;  520.466;50439.891
538.503;43676.586;  498.421;50863.711
539.088;43112.711;  570.460;50906.922
539.673;45404.242;  530.467;52621.965
540.259;47240.371;  483.443;52368.094
540.844;47497.352;  434.436;50879.109
541.429;47374.898;  655.487;52077.777
542.014;48356.363;  451.502;52716.695
542.599;46622.137;  569.453;52363.281
543.184;45722.336;  489.483;53187.137
543.769;47757.023;  467.486;54697.605
544.354;47273.566;  493.480;53913.914
544.938;44739.781;  571.467;49680.164
545.523;42313.730;  652.446;47386.277
546.108;44636.004;  518.488;49151.949
546.693;47779.094;  533.513;51384.637
547.278;45164.164;  570.458;51853.254
547.862;43207.848;  517.429;51173.750
548.447;43128.660;  574.495;51691.395
549.031;42719.473;  497.523;52456.703
549.616;43158.273;  562.461;52714.516
550.201;44801.586;  489.473;52414.598
550.785;48000.891;  590.491;52355.059
551.370;50715.453;  465.503;54589.453
551.954;51838.227;  594.493;58267.348
552.538;50320.465;  577.473;59062.176
553.123;50217.039;  462.501;58115.285
553.707;51428.559;  511.538;56556.285
554.291;50588.133;  614.485;56201.668
554.876;49091.488;  623.498;55335.762
555.460;48229.074;  508.520;54155.703
556.044;48852.684;  493.553;53721.484
556.628;48523.703;  527.507;53731.016
557.212;46946.477;  603.462;54312.531
557.796;45327.586;  537.507;53797.773
558.380;45070.020;  548.549;56145.984
558.964;45922.070;  560.481;57277.930
559.548;48204.207;  445.483;56459.641
560.132;49201.906;  485.524;54434.543
560.716;49806.555;  460.547;54800.617
561.300;51178.824;  460.475;57606.945
561.884;49855.031;  560.512;58972.445
562.467;49401.117;  560.545;57327.570
563.051;49753.414;  540.544;54962.434
563.635;48545.441;  540.533;52594.473
564.219;45319.789;  504.511;50610.410
564.802;45356.023;  572.550;49551.180
565.386;45907.105;  516.541;48370.953
565.969;45595.273;  604.488;48178.871
566.553;46031.613;  698.527;49957.305
567.136;45214.297;  608.551;50369.594
567.720;46121.777;  542.569;49492.004
568.303;47722.555;  564.544;50616.352
568.887;49512.047;  548.534;50727.148
569.470;50045.699;  555.580;51698.379
570.053;47002.480;  572.573;52122.078
570.637;44956.574;  491.514;52536.438
571.220;44497.094;  588.510;51186.098
571.803;44388.699;  680.584;51032.762
572.386;44896.102;  495.561;49609.887
572.969;45763.348;  526.538;48285.926
573.552;46549.508;  531.549;47624.285
574.135;44826.281;  458.591;45498.641
574.718;40824.488;  474.559;41970.434
575.301;39646.648;  487.068;41447.137
575.884;38468.809;  499.577;40923.836
576.467;40202.324;  559.569;45267.723
577.050;40615.156;  575.580;48175.543
577.633;40241.715;  663.538;47729.328
578.216;40757.313;  503.574;47579.793
578.799;44354.496;  523.600;47820.996
579.381;45261.012;  669.567;48115.551
579.964;41541.207;  503.538;47333.766
580.547;39321.918;  537.579;46668.969
581.129;39662.207;  621.610;44466.141
581.712;40358.430;  551.621;44164.922
582.294;42274.930;  522.570;46477.855
582.877;40722.820;  703.563;48244.254
583.459;39366.492;  544.619;47437.895
584.042;41191.520;  520.618;46943.219
584.624;41276.207;  507.624;46792.227
585.206;41237.105;  407.575;46557.250
585.789;40280.809;  477.611;45793.773
586.371;38624.207;  552.638;43836.391
586.953;36660.820;  598.608;42972.492
587.536;33943.613;  635.574;42487.211
588.118;32744.676;  543.679;42086.414
588.700;32823.809;  662.631;43389.930
589.282;34542.875;  586.599;43646.039
589.864;36503.883;  523.612;43438.109
590.446;38904.461;  407.647;43151.926
591.028;39694.332;  543.639;42781.867
591.610;40478.051;  439.615;42839.098
592.192;40364.512;  565.599;42820.402
592.774;37900.832;  475.629;40724.277
593.356;37250.965;  501.668;39874.789
593.937;36827.113;  523.605;39980.648
594.519;37314.422;  611.612;42069.633
595.101;37834.773;  460.657;42976.031
595.683;38963.391;  509.666;44084.441
596.264;40700.750;  540.611;43478.797
596.846;42128.465;  517.630;43803.672
597.427;40996.266;  487.679;42986.934
598.009;39896.805;  472.681;42832.219
598.591;38186.230;  598.632;42580.086
599.172;37183.422;  500.640;43061.805
599.753;36790.188;  454.676;41691.469
600.335;37013.668;  637.693;40692.520
600.916;36889.348;  552.666;39982.422
601.498;37379.117;  559.652;40318.617
602.079;38435.199;  534.676;40670.609
602.660;37079.637;  531.685;41450.898
603.241;36300.426;  434.637;41137.738
603.823;36897.707;  514.648;38868.797
604.404;38400.063;  451.688;38182.785
604.985;40183.734;  509.695;38078.047
605.566;40928.234;  595.634;38056.633
606.147;39303.242;  537.708;37020.418
606.728;37648.203;  457.716;37883.359
607.309;36694.852;  483.697;38748.273
607.890;36543.684;  526.661;38850.230
608.471;36752.016;  469.685;37457.918
609.051;36645.711;  536.742;36066.457
609.632;36401.789;  458.735;35991.074
610.213;37904.715;  541.693;37402.641
610.794;39564.625;  503.699;38383.363
611.374;38287.656;  568.707;40562.387
611.955;37718.004;  444.725;38533.727
612.536;39540.473;  573.691;36951.789
613.116;39147.652;  524.698;37197.891
613.697;38803.918;  515.744;38411.125
614.277;38605.910;  494.753;38673.938
614.858;35385.027;  516.696;37075.863
615.438;33207.402;  536.691;35092.906
616.019;32772.270;  622.756;33666.301
616.599;34007.086;  423.733;34189.023
617.179;37497.828;  475.710;36952.047
617.760;37572.117;  708.686;39582.574
618.340;35119.316;  498.765;38943.977
618.920;34421.281;  653.742;37594.156
619.500;34571.586;  495.768;37866.938
620.080;34615.926;  479.741;37869.043
620.660;34853.375;  468.802;36868.617
621.241;35484.781;  491.762;36352.309
621.821;35108.633;  592.749;35459.520
622.401;35340.473;  587.742;35207.414
622.980;36722.926;  463.779;35980.422
623.560;35763.270;  460.758;37351.328
624.140;33035.289;  557.741;34388.582
624.720;33247.109;  554.748;32368.764
625.300;35410.074;  485.743;32638.629
625.880;36499.992;  503.780;34599.035
626.459;35166.773;  556.753;36831.738
627.039;34236.867;  444.772;38299.098
627.619;35792.336;  703.802;38289.574
628.198;37103.023;  572.791;37220.695
628.778;38107.410;  551.748;37632.563
629.357;38807.574;  448.751;38003.012
629.937;38108.352;  496.798;38402.039
630.516;35451.820;  605.794;37868.801
631.096;34096.805;  498.751;35760.410
631.675;33331.758;  625.817;35225.219
632.254;33595.797;  508.833;35130.289
632.834;35218.055;  534.822;35794.570
633.413;35489.945;  638.771;35788.922
633.992;34895.617;  587.820;34532.863
634.571;35434.758;  576.844;33590.113
635.151;35127.770;  476.831;34943.863
635.730;34739.414;  511.775;35352.523
636.309;34838.098;  583.793;35366.605
636.888;34401.590;  593.820;36165.637
637.467;34798.660;  450.842;37515.902
638.046;35887.191;  646.791;39288.695
638.625;36025.160;  649.820;38279.699
639.204;36315.645;  541.850;37741.598
639.782;36910.988;  526.878;38364.551
640.361;36458.016;  639.809;36740.621
640.940;35835.383;  503.807;34950.082
641.519;35533.695;  532.805;34137.398
642.097;34221.660;  556.804;35654.258
642.676;34502.727;  571.802;35637.957
643.255;34584.738;  489.800;36567.074
643.833;36063.254;  569.799;37809.434
644.412;37294.320;  490.797;37337.293
644.990;37638.434;  534.795;37018.531
645.569;37897.898;  555.793;36518.469
646.147;36528.164;  588.792;36186.430
646.726;34882.426;  552.790;36267.688
647.304;34162.492;  509.788;36647.625
647.882;34096.207;  425.787;39286.742
648.461;33981.969;  559.785;39157.703
649.039;34348.234;  588.783;35412.883
649.617;33518.398;  570.781;34744.918
650.195;33102.164;  570.780;35403.098
650.773;33436.578;  470.778;35053.797
651.352;33611.793;  391.776;33756.816
651.930;32775.707;  420.775;31868.773
652.508;32436.271;  603.773;33121.551
653.086;32064.387;  545.771;33564.793
653.663;33193.250;  497.770;34054.668
654.241;33547.766;  453.768;35693.309
654.819;34463.082;  476.766;36422.906
655.397;36895.945;  443.764;38213.484
655.975;38919.508;  530.763;39507.625
656.553;40578.922;  618.761;39498.223
657.130;38920.887;  478.759;40395.480
657.708;38761.852;  552.758;39242.020
658.286;37247.367;  525.756;38920.020
658.863;36267.031;  545.754;40202.898
659.441;36352.645;  541.752;39677.938
660.018;37584.410;  509.751;40413.355
660.596;38956.625;  406.749;39931.414
661.173;39545.789;  500.747;39604.531
661.750;39402.355;  486.746;39700.070
662.328;39401.070;  564.744;39292.809
662.905;37505.434;  510.742;38235.648
663.482;34941.246;  513.741;36212.305
664.060;34381.664;  514.739;35944.945
664.637;34141.879;  585.737;35170.785
665.214;34244.793;  550.735;34197.523
665.791;35924.457;  529.734;34549.520
666.368;36812.469;  530.732;35118.578
666.945;34942.184;  585.730;36019.418
667.522;34508.648;  470.729;36048.438
668.099;35883.715;  505.727;36243.914
668.676;35828.328;  532.725;35958.875
669.253;35729.594;  629.723;37384.730
669.830;34344.156;  578.722;36779.629
670.407;32862.820;  537.720;35231.289
670.984;31991.586;  544.718;35544.270
671.560;32497.852;  560.717;35466.867
672.137;31784.566;  498.715;34280.863
672.714;32140.381;  579.713;34632.863
673.290;33277.293;  548.711;35135.422
673.867;32357.410;  482.710;36114.480
674.443;32677.975;  428.708;36152.859
675.020;34344.938;  541.706;35327.238
675.596;35297.602;  521.705;35795.176
676.173;34706.719;  436.703;35430.355
676.749;34685.582;  385.701;33549.516
677.326;34022.496;  432.700;32210.012
677.902;35167.762;  468.698;32068.871
678.478;34432.676;  424.696;32583.891
679.054;33128.840;  772.694;32088.928
679.631;32964.203;  548.693;30978.848
680.207;33751.969;  660.691;33160.887
680.783;34140.285;  412.689;35570.363
681.359;34299.449;  522.688;36125.184
681.935;33799.813;  540.686;35240.922
682.511;33401.277;  540.684;34429.961
683.087;32854.793;  558.682;34463.680
683.663;32001.457;  498.681;34648.898
684.239;32033.221;  433.679;34546.457
684.815;32135.135;  576.677;35586.375
685.390;32494.549;  664.676;35821.895
685.966;32591.764;  527.674;35085.871
686.542;31728.529;  491.672;34198.230
687.118;31978.143;  520.671;32847.707
687.693;32104.059;  578.669;32794.027
688.269;30400.973;  516.667;33072.367
688.844;29348.486;  567.665;33141.664
689.420;30291.852;  519.664;33965.742
689.995;30893.166;  626.662;34655.523
690.571;30743.881;  615.660;33576.742
691.146;31643.596;  510.659;32657.219
691.722;30936.709;  535.657;32526.979
692.297;29782.373;  459.655;33014.617
692.872;29462.488;  475.654;34012.254
693.448;29019.203;  459.652;34237.434
694.023;29399.168;  537.650;34142.672
694.598;30173.133;  531.648;34132.031
695.173;30462.146;  519.647;34205.250
695.748;29084.561;  415.645;32882.488
696.323;29979.727;  537.643;32864.906
696.898;30676.990;  566.642;33170.004
697.473;29884.654;  437.640;32432.984
698.048;29730.068;  517.638;31649.303
698.623;30960.883;  453.636;30778.141
699.198;31769.998;  536.635;31140.119
699.773;32308.363;  455.633;31764.299
700.348;31490.428;  474.631;31780.816
700.922;31497.541;  520.630;32046.375
701.497;31503.006;  512.628;32603.574
702.072;31641.521;  594.626;34799.871
702.646;31913.984;  601.625;35793.172
703.221;32214.150;  531.623;35201.590
703.795;31789.164;  466.621;34764.527
704.370;32200.229;  386.619;34307.367
704.944;31852.443;  523.618;33509.887
705.519;31654.707;  558.616;31388.584
706.093;32552.273;  467.614;31340.104
706.668;32746.438;  533.613;32630.281
707.242;32502.951;  587.611;32728.779
707.816;31424.816;  511.609;32947.238
708.390;30835.930;  521.607;33277.855
708.965;31759.295;  565.606;33834.336
709.539;31891.609;  518.604;33709.273
710.113;31179.023;  525.602;33044.313
710.687;31720.139;  551.601;31953.992
711.261;31955.953;  468.599;30505.949
711.835;31420.268;  462.597;30262.369
712.409;31040.082;  413.595;31254.447
712.983;32681.598;  424.594;32754.986
713.557;34986.262;  423.592;34018.824
714.131;35048.125;  500.590;34579.625
714.704;34029.539;  495.589;33890.262
715.278;33019.156;  530.587;33531.102
715.852;32730.318;  564.585;33601.660
716.425;32165.783;  663.584;33515.117
716.999;31752.148;  432.582;33185.555
717.573;32827.363;  567.580;33905.996
718.146;33670.676;  615.578;35199.293
718.720;33459.742;  518.577;35060.551
719.293;33258.457;  565.575;34973.230
719.867;33071.070;  470.573;36394.449
720.440;33565.035;  603.572;36663.008
721.013;33915.949;  519.570;35102.426
721.587;32865.766;  405.568;33985.266
722.160;32586.680;  562.566;33524.965
722.733;32430.645;  547.565;32987.043
723.306;33799.059;  513.563;33066.301
723.880;34867.223;  565.561;33399.500
724.453;34906.586;  640.560;33468.297
725.026;34013.051;  497.558;33816.637
725.599;33082.715;  539.556;32797.996
726.172;33195.629;  558.555;33187.434
726.745;34519.547;  538.553;35136.613
727.318;34084.008;  584.551;35751.730
727.891;32959.023;  534.549;35890.430
728.463;31927.689;  535.548;34822.090
729.036;31315.803;  447.546;32895.086
729.609;30396.518;  473.544;31823.225
730.182;30472.832;  580.543;31445.283
730.754;31416.947;  407.541;32373.223
731.327;33418.813;  545.539;33676.820
731.900;33180.375;  421.537;33417.000
732.472;32240.840;  542.536;31978.498
733.045;31951.705;  502.534;30368.777
733.617;30967.770;  437.532;30574.215
734.190;30415.135;  572.531;31280.975
734.762;30041.648;  534.529;31674.412
735.334;29881.363;  527.527;31247.291
735.907;29457.127;  547.526;29876.211
736.479;29086.441;  576.524;29808.488
737.051;30304.207;  544.522;30233.547
737.623;32613.721;  559.520;31469.086
738.195;34125.688;  477.519;31784.225
738.768;34416.199;  389.517;32120.523
739.340;34467.516;  500.515;32094.342
739.912;34463.777;  596.514;31312.680
740.484;33051.645;  543.512;31946.238
741.056;32735.357;  498.510;32984.059
741.628;34527.871;  476.508;33897.715
742.199;33646.738;  596.507;33213.016
742.771;31888.852;  444.505;31369.113
743.343;32309.117;  475.503;31865.473
743.915;32677.531;  503.502;32388.631
744.487;32018.045;  586.500;31079.568
745.058;30167.660;  562.498;30570.107
745.630;28630.525;  564.497;29970.127
746.201;28438.189;  475.495;29186.766
746.773;28172.053;  553.493;28805.723
747.344;27494.668;  515.491;29591.223
747.916;27120.682;  541.490;31412.201
748.487;27341.646;  572.488;32194.898
749.059;28057.813;  453.486;32533.719
749.630;28675.525;  480.485;32158.518
750.201;28050.840;  523.483;30855.395
750.773;27201.154;  478.481;28622.555
751.344;26348.570;  514.479;28405.732
751.915;25621.934;  512.478;28461.551
752.486;25974.600;  462.476;27842.850
753.057;27024.414;  533.474;27845.008
753.628;26550.078;  485.473;27728.107
754.199;25669.092;  483.471;27381.086
754.770;25078.057;  560.469;25882.203
755.341;24617.221;  609.468;25886.184
755.912;24672.035;  508.466;26050.861
756.483;24917.451;  564.464;26798.779
757.054;23981.715;  533.462;27048.238
757.625;23732.830;  470.461;26294.838
758.195;24395.645;  436.459;26142.076
758.766;24117.258;  534.457;26392.234
759.337;23964.873;  432.456;26334.594
759.907;24368.287;  436.454;27579.652
760.478;24537.002;  497.452;28352.770
761.048;24801.666;  566.450;27325.088
761.619;24896.381;  553.449;26460.428
762.189;24468.445;  490.447;26029.826
762.760;23437.561;  588.445;26430.145
763.330;21863.475;  548.444;26670.902
763.900;21590.439;  537.442;26603.021
764.471;21835.553;  468.440;25542.740
765.041;22094.867;  599.438;24358.459
765.611;22264.434;  540.437;23991.297
766.181;23048.297;  538.435;24470.236
766.751;23064.912;  542.433;24845.975
767.321;21846.627;  474.432;24533.633
767.891;21095.291;  499.430;24916.492
768.461;21003.855;  532.428;24776.771
769.031;20055.471;  503.427;24757.988
769.601;18838.035;  591.425;24181.088
770.171;18064.299;  421.423;23670.387
770.741;18242.164;  467.421;22960.045
771.311;19001.277;  568.420;22917.523
771.880;19060.643;  445.418;23562.941
772.450;18543.008;  487.416;24216.500
773.020;18228.271;  424.415;24140.398
773.589;18048.986;  493.413;24414.857
774.159;18193.850;  462.411;23858.717
774.729;17894.664;  480.409;22942.135
775.298;16341.079;  485.408;22324.033
775.867;15461.344;  494.406;21140.313
776.437;15773.309;  512.404;20838.092
777.006;15876.973;  443.403;20599.510
777.576;15744.138;  528.401;20508.809
778.145;16160.603;  558.399;20732.947
778.714;16743.617;  529.398;21062.465
779.283;16390.381;  558.396;20949.664
779.853;16255.195;  481.394;20508.623
780.422;16669.561;  526.392;20649.082
780.991;16591.475;  553.391;21527.520
781.560;15843.539;  606.389;22632.658
782.129;15326.304;  543.387;23048.277
782.698;15572.668;  606.386;23438.555
783.267;15648.583;  519.384;23267.734
783.836;16173.697;  536.382;22415.133
784.404;15548.062;  443.380;20443.152
784.973;14907.927;  387.379;19699.150
785.542;14515.241;  495.377;19763.828
786.111;15205.655;  591.375;20341.408
786.679;15506.520;  534.374;20207.967
787.248;14951.935;  423.372;19516.465
787.817;15085.999;  503.370;18900.363
788.385;15250.464;  571.369;17879.121
788.954;14310.278;  423.367;17658.301
789.522;14120.293;  605.365;17788.879
790.090;14776.957;  433.363;18118.277
790.659;15078.621;  493.362;18338.736
791.227;15386.236;  505.360;18508.615
791.795;15061.900;  533.358;17898.254
792.364;13882.815;  476.357;17295.133
792.932;13605.430;  532.355;16822.051
793.500;13888.444;  508.353;17040.148
794.068;14237.159;  416.352;17179.787
794.636;13993.523;  478.350;16664.246
795.204;12997.338;  432.348;16524.545
795.772;12952.652;  462.346;17274.564
796.340;13446.867;  484.345;17891.002
796.908;13483.131;  442.343;17648.561
797.476;13281.546;  447.341;17064.080
798.044;13294.011;  400.340;16672.777
798.612;13311.325;  499.338;17023.996
799.180;13002.989;  534.336;16561.615
799.747;12790.854;  503.334;15962.773
800.315;13301.068;  439.333;15296.992
800.883;13542.033;  398.331;14801.771
801.450;12927.497;  515.329;14534.430
802.018;12449.612;  525.328;14173.248
802.585;12512.877;  497.326;14029.547
803.153;12574.091;  497.324;13836.846
803.720;12473.455;  507.322;13567.324
804.287;12616.220;  479.321;13360.622
804.855;12416.734;  582.319;13681.981
805.422;12202.699;  490.317;13536.560
805.989;12367.313;  482.316;13355.958
806.556;12689.979;  479.314;13747.896
807.124;13015.192;  525.312;13987.376
807.691;12632.857;  443.311;14038.674
808.258;12431.521;  505.309;14120.152
808.825;12752.437;  541.307;13860.111
809.392;12790.051;  625.305;13268.790
809.959;12648.215;  562.304;12680.389
810.526;12515.830;  651.302;12427.308
811.093;11912.345;  582.300;12030.105
811.659;11832.059;  502.299;11653.664
812.226;12142.123;  500.297;11637.183
812.793;12027.088;  539.295;11611.521
813.360;11810.252;  467.293;11885.181
813.926;11835.117;  535.292;12770.539
814.493;11913.981;  441.290;12677.638
815.060;11588.346;  420.288;11974.336
815.626;11219.261;  421.287;11594.715
816.193;11131.075;  517.285;11579.474
816.759;11207.239;  453.283;11666.972
817.325;11483.004;  404.282;11325.530
817.892;11652.769;  526.280;11105.369
818.458;11408.283;  534.278;10843.928
819.024;11170.897;  578.276;10714.406
819.591;10547.612;  528.275;10469.165
820.157;10145.727;  434.273;10235.523
820.723;10944.791;  525.271;10847.563
821.289;11572.256;  791.270;11040.980
821.855;10884.370;  537.268;10357.100
822.421;10720.135;  444.266; 9978.918
822.987;10764.199;  433.264; 9754.177
823.553;10550.364;  512.263;10065.755
824.119;10549.679;  543.261;10036.294
824.685;10487.692;  600.259;10029.192
825.251;10139.207;  542.258;10199.230
825.816; 9917.122;  622.256; 9820.189
826.382; 9539.387;  556.254; 9297.248
826.948; 9202.551;  585.253; 9381.347
827.513; 9272.315;  504.251; 9450.726
828.079; 9221.330;  469.249; 9472.444
828.645; 9373.345;  543.247; 9292.643
829.210; 9410.909;  434.246; 9065.341
829.776; 9087.323;  570.244; 9132.620
830.341; 8623.138;  564.242; 9092.878
830.906; 8729.452;  584.241; 9078.557
831.472; 8496.767;  449.239; 8534.535
832.037; 8494.981;  581.237; 8677.874
832.602; 8239.346;  467.235; 8628.692
833.167; 8161.261;  540.234; 8879.031
833.733; 8020.175;  556.232; 9189.790
834.298; 7924.939;  412.230; 9052.608
834.863; 8017.104;  522.229; 8895.087
835.428; 7972.269;  565.227; 8824.266
835.993; 8141.483;  546.225; 8845.385
836.558; 7958.898;  548.224; 8888.563
837.123; 7892.512;  686.222; 8966.582
837.688; 7474.927;  521.220; 8617.860
838.253; 7267.191;  510.218; 8590.699
838.817; 7126.206;  487.217; 8443.797
839.382; 7619.320;  608.215; 8799.356
839.947; 7908.335;  537.213; 8810.595
840.511; 7874.149;  610.212; 8796.394
841.076; 7210.964;  413.210; 8347.231
841.641; 7032.028;  549.208; 8224.330
842.205; 7086.793;  548.206; 8223.349
842.770; 7253.558;  632.205; 8622.107
843.334; 7160.172;  493.203; 8410.386
843.898; 7183.137;  500.201; 8337.465
844.463; 7289.001;  598.200; 8506.283
845.027; 7077.616;  512.198; 8280.962
845.591; 6890.180;  562.196; 8231.141
846.156; 6736.544;  490.195; 7969.179
846.720; 6856.809;  592.193; 7768.278
847.284; 6778.624;  497.191; 7630.957
847.848; 6768.938;  570.189; 7472.395
848.412; 6641.853;  553.188; 7437.394
848.976; 6716.567;  637.186; 7674.592
849.540; 6739.482;  660.184; 7836.011
850.104; 6775.146;  600.183; 7913.669
850.668; 6721.561;  405.181; 7694.508
851.232; 6612.925;  426.179; 7756.887
851.796; 6454.190;  506.177; 7926.545
852.359; 6303.604;  596.176; 7827.844
852.923; 6246.369;  574.174; 7641.163
853.487; 6377.233;  578.172; 7342.501
854.050; 6013.548;  371.171; 7042.820
854.614; 5867.063;  501.169; 7151.338
855.177; 5763.177;  542.167; 7105.077
855.741; 5799.691;  555.166; 6989.675
856.304; 5693.556;  575.164; 6596.634
856.868; 5415.320;  453.162; 6356.272
857.431; 5330.285;  522.160; 6468.571
857.995; 5419.850;  497.159; 6373.210
858.558; 5620.514;  551.157; 6324.448
859.121; 5648.128;  567.155; 6408.327
859.684; 5419.243;  516.154; 6347.886
860.247; 5326.158;  519.152; 6321.264
860.810; 5233.372;  486.150; 6301.903
861.374; 5558.537;  667.148; 6607.881
861.937; 5600.101;  465.147; 6408.200
862.500; 5713.816;  506.145; 6572.639
863.062; 5495.580;  431.143; 6387.297
863.625; 5377.995;  541.142; 6190.836
864.188; 5239.459;  497.140; 5807.254
864.751; 5146.924;  498.138; 5682.413
865.314; 5028.288;  535.136; 5547.492
865.876; 5073.853;  555.135; 5500.150
866.439; 5118.317;  556.133; 5415.909
867.002; 5146.632;  688.131; 5501.567
867.564; 4988.346;  595.130; 5413.946
868.127; 4844.811;  527.128; 5160.325
868.689; 4611.326;  549.126; 5133.183
869.252; 4636.640;  596.125; 5252.382
869.814; 4655.854;  474.123; 5297.141
870.377; 4748.719;  533.121; 5390.919
870.939; 5051.383;  773.119; 5599.898
871.501; 4861.198;  550.118; 5248.336
872.063; 4525.413;  398.116; 4854.235
872.626; 4472.327;  419.114; 4817.074
873.188; 4648.292;  534.113; 4987.732
873.750; 4577.006;  532.111; 4868.651
874.312; 4616.021;  525.109; 4779.330
874.874; 4733.085;  635.107; 4866.348
875.436; 4531.450;  571.106; 4718.887
875.998; 4387.064;  631.104; 4660.005
876.560; 4152.879;  552.102; 4462.964
877.122; 3870.843;  466.101; 4145.042
877.683; 3818.258;  609.099; 4056.481
878.245; 3663.022;  493.097; 3950.740
878.807; 3627.687;  561.096; 4058.958
879.369; 3555.201;  448.094; 3954.677
879.930; 3622.516;  447.092; 3941.495
880.492; 3752.780;  620.090; 4067.014
881.053; 3633.245;  462.089; 3859.633
881.615; 3575.809;  468.087; 3776.071
882.176; 3570.324;  518.085; 3734.750
882.738; 3573.838;  603.084; 3678.489
883.299; 3257.253;  378.082; 3405.407
883.860; 3112.417;  423.080; 3351.106
884.422; 3142.732;  552.078; 3394.044
884.983; 2997.047;  481.077; 3166.443
885.544; 2980.661;  559.075; 3189.802
886.105; 2932.326;  525.073; 3160.360
886.666; 2890.790;  513.072; 3093.059
887.227; 2775.655;  450.070; 2941.957
887.788; 2715.869;  528.068; 2974.836
888.349; 2506.734;  437.067; 2721.214
888.910; 2514.748;  596.065; 2696.493
889.471; 2380.113;  546.063; 2560.172
890.032; 2372.377;  541.061; 2558.190
890.593; 2412.992;  574.060; 2567.669
891.153; 2263.456;  504.058; 2460.307
891.714; 2108.121;  434.056; 2372.046
892.275; 2040.935;  417.055; 2309.505
892.835; 2097.300;  590.053; 2382.543
893.396; 2025.214;  565.051; 2295.502
893.956; 1858.629;  484.049; 2162.420
894.517; 1846.443;  533.048; 2125.439
895.077; 1790.058;  534.046; 2086.978
895.638; 1814.872;  637.044; 2126.316
896.198; 1562.787;  486.043; 1838.275
896.758; 1637.952;  580.041; 1892.813
897.319; 1527.516;  512.039; 1792.232
897.879; 1499.831;  535.038; 1762.751
898.439; 1378.045;  418.036; 1661.149
898.999; 1475.160;  543.034; 1781.468
899.559; 1408.374;  534.032; 1703.347
900.119; 1269.589;  450.031; 1537.525
900.679; 1369.853;  647.029; 1638.384
901.239; 1270.168;  565.027; 1527.902
901.799; 1218.182;  493.026; 1456.441
902.359; 1138.047;  463.024; 1357.140
902.919; 1122.311;  481.022; 1331.118
903.479; 1096.876;  501.020; 1317.257
904.038; 1048.140;  436.019; 1262.595
904.598;  956.105;  380.017; 1152.034
905.158; 1038.969;  497.015; 1240.893
905.717; 1030.084;  492.014; 1233.691
906.277; 1036.348;  518.012; 1217.330
906.836; 1030.663;  544.010; 1222.408
907.396; 1009.727;  552.009; 1193.047
907.955;  995.692;  574.007; 1182.526
908.515;  936.756;  476.005; 1099.364
909.074;  924.671;  497.003; 1092.863
909.633;  899.385;  514.002; 1069.121
910.192; 1022.550;  642.000; 1196.460
910.752;  894.000;  493.000; 1029.960
911.311;  861.350;  464.000; 1009.780
911.870;  845.550;  506.000;  971.460
912.429;  942.350;  575.000; 1094.080
912.988;  929.500;  599.000; 1081.060
913.547;  804.200;  460.000;  940.380
914.106;  861.800;  552.000;  999.420
914.665;  847.000;  519.000;  984.020
915.224;  896.150;  619.000; 1035.760
915.782;  797.200;  487.000;  922.560
916.341;  894.900;  600.000; 1049.840
916.900;  802.200;  510.000;  925.260
917.458;  763.300;  455.000;  884.220
918.017;  822.450;  535.000;  942.600
918.576;  782.950;  513.000;  904.440
919.134;  728.300;  450.000;  837.980
919.693;  780.650;  491.000;  893.060
920.251;  764.650;  503.000;  876.500
920.809;  729.200;  471.000;  839.580
921.368;  767.350;  478.000;  885.360
921.926;  739.300;  443.000;  842.940
922.484;  791.200;  529.000;  903.360
923.042;  767.500;  491.000;  880.340
923.601;  868.700;  585.000;  998.680
924.159;  821.500;  547.000;  935.560
924.717;  731.350;  485.000;  841.080
925.275;  785.250;  524.000;  903.240
925.833;  683.550;  377.000;  779.320
926.391;  813.350;  520.000;  938.380
926.949;  753.800;  479.000;  857.680
927.506;  795.750;  552.000;  903.500
928.064;  761.900;  504.000;  877.580
928.622;  769.500;  500.000;  880.100
929.180;  712.450;  446.000;  814.180
929.737;  707.500;  435.000;  808.540
930.295;  820.450;  532.000;  928.480
930.853;  743.850;  448.000;  849.100
931.410;  724.800;  426.000;  821.120
931.968;  827.900;  539.000;  940.660
932.525;  797.400;  517.000;  909.380
933.082;  714.700;  406.000;  811.440
933.640;  814.100;  538.000;  925.900
934.197;  776.550;  503.000;  886.360
934.754;  781.800;  461.000;  897.780
935.312;  764.950;  466.000;  863.340
935.869;  894.500;  577.000; 1012.980
936.426;  768.400;  497.000;  872.800
936.983;  788.450;  465.000;  889.020
937.540;  741.250;  422.000;  838.280
938.097;  829.750;  529.000;  940.120
938.654;  798.900;  502.000;  898.860
939.211;  843.050;  512.000;  952.480
939.768;  814.200;  478.000;  915.420
940.324;  789.750;  467.000;  904.200
940.881;  777.000;  476.000;  878.500
941.438;  889.200;  581.000; 1021.200
941.995;  873.900;  560.000;  992.560
942.551;  762.650;  439.000;  875.620
943.108;  820.400;  529.000;  937.920
943.664;  773.000;  450.000;  869.340
944.221;  958.450;  628.000; 1088.140
944.777;  765.150;  418.000;  869.680
945.334;  785.800;  471.000;  884.840
945.890;  834.200;  486.000;  946.480
946.446;  831.450;  505.000;  947.020
947.003;  847.800;  508.000;  964.940
947.559;  936.950;  643.000; 1063.040
948.115;  902.850;  581.000; 1026.540
948.671;  850.300;  511.000;  967.300
949.227;  760.600;  412.000;  859.560
949.783;  740.550;  428.000;  858.900
950.339;  865.350;  531.000;  991.000
950.895;  893.450;  552.000; 1023.840
951.451;  804.100;  501.000;  925.280
952.007;  870.850;  544.000;  998.540
952.563;  810.150;  498.000;  937.780
953.118;  799.750;  475.000;  904.940
953.674;  820.700;  504.000;  935.780
954.230;  820.450;  500.000;  949.640
954.785;  822.850;  484.000;  936.640
955.341;  865.100;  535.000;  998.160
955.897;  726.200;  393.000;  834.660
956.452;  824.100;  524.000;  953.840
957.008;  945.550;  616.000; 1083.640
957.563;  877.100;  554.000; 1009.540
958.118;  761.350;  473.000;  877.700
958.674;  817.800;  524.000;  946.780
959.229;  869.200;  572.000; 1013.980
959.784;  726.250;  402.000;  832.400
960.339;  868.200;  563.000; 1001.280
960.894;  836.200;  532.000;  963.760
961.449;  740.150;  452.000;  859.960
962.004; 1048.000;  790.000; 1212.840
962.559;  744.550;  455.000;  860.140
963.114;  637.450;  347.000;  742.480
963.669;  790.450;  502.000;  915.500
964.224;  756.400;  452.000;  874.340
964.779;  714.100;  409.000;  828.420
965.334;  873.750;  609.000; 1017.860
965.888;  750.650;  475.000;  875.360
966.443;  837.400;  549.000;  972.380
966.998;  690.500;  396.000;  819.460
967.552;  781.300;  480.000;  908.380
968.107;  749.650;  482.000;  868.300
968.661;  795.750;  539.000;  922.440
969.216;  737.050;  484.000;  856.280
969.770;  793.300;  516.000;  917.200
970.324;  790.350;  530.000;  923.140
970.879;  819.350;  579.000;  947.180
971.433;  818.200;  549.000;  952.720
971.987;  771.200;  520.000;  895.340
972.541;  790.400;  520.000;  917.100
973.095;  872.000;  583.000; 1009.460
973.649;  686.400;  449.000;  809.480
974.203;  702.900;  446.000;  829.040
974.757;  719.050;  492.000;  855.220
975.311;  736.300;  480.000;  872.600
975.865;  731.450;  511.000;  881.820
976.419;  707.550;  504.000;  857.400
976.973;  692.450;  461.000;  849.620
977.526;  781.300;  556.000;  949.920
978.080;  660.550;  424.000;  796.780
978.634;  763.100;  567.000;  921.320
979.187;  746.750;  526.000;  905.400
979.741;  861.450;  608.000; 1018.380
980.294;  663.250;  412.000;  789.160
980.848;  594.650;  396.000;  717.220
981.401;  677.850;  475.000;  816.540
981.955;  713.050;  513.000;  844.300
982.508;  628.800;  410.000;  746.340
983.061;  784.500;  556.000;  915.260
983.615;  678.600;  454.000;  798.800
984.168;  644.150;  425.000;  770.080
984.721;  738.750;  508.000;  880.760
985.274;  730.300;  533.000;  867.500
985.827;  706.500;  518.000;  834.220
986.380;  603.100;  385.000;  721.340
986.933;  729.950;  524.000;  864.800
987.486;  723.900;  522.000;  861.920
988.039;  724.350;  558.000;  863.100
988.591;  749.100;  575.000;  893.260
989.144;  616.050;  434.000;  737.260
989.697;  645.250;  452.000;  758.740
990.250;  724.400;  543.000;  858.100
990.802;  635.250;  437.000;  755.860
991.355;  830.150;  669.000;  974.880
991.907;  732.900;  572.500;  864.320
992.460;  635.650;  476.000;  753.760
993.012;  629.400;  481.000;  749.540
993.565;  600.100;  436.000;  711.360
994.117;  798.000;  670.000;  950.780
994.669;  594.850;  441.000;  701.320
995.221;  670.650;  512.000;  791.920
995.774;  662.850;  512.000;  787.580
996.326;  625.250;  496.000;  740.220
996.878;  705.150;  571.000;  838.420
997.430;  587.500;  464.000;  699.860
997.982;  630.250;  508.000;  750.140
998.534;  623.150;  486.000;  739.060
999.086;  620.550;  486.000;  738.220
999.638;  555.600;  423.000;  661.380
1000.190;  594.450;  492.000;  699.320
1000.741;  622.950;  536.000;  742.700
1001.293;  575.750;  431.000;  686.020
1001.845;  571.400;  465.000;  676.640
1002.396;  631.000;  539.000;  743.400
1002.948;  625.400;  528.000;  737.400
1003.500;  605.900;  494.000;  723.780
1004.051;  769.600;  675.000;  907.580
1004.603;  668.600;  574.000;  791.820
1005.154;  510.450;  419.000;  608.980
1005.705;  605.400;  524.000;  723.960
1006.257;  604.450;  501.000;  707.220
1006.808;  581.850;  507.000;  685.460
1007.359;  645.550;  575.000;  763.240
1007.910;  544.650;  453.000;  646.640
1008.461;  616.900;  542.000;  732.940
1009.013;  498.200;  412.000;  588.340
1009.564;  669.450;  619.000;  793.520
1010.115;  502.200;  427.000;  597.040
1010.665;  511.300;  434.000;  602.160
1011.216;  567.450;  497.000;  667.920
1011.767;  577.950;  512.000;  697.920
1012.318;  618.900;  549.000;  736.980
1012.869;  574.800;  497.000;  679.000
1013.419;  505.250;  411.000;  603.120
1013.970;  571.050;  490.000;  666.640
1014.521;  522.150;  456.000;  620.620
1015.071;  568.750;  476.000;  670.380
1015.622;  532.100;  496.000;  635.460
1016.172;  503.500;  455.000;  596.820
1016.723;  520.900;  473.000;  614.380
1017.273;  515.650;  454.000;  604.160
1017.823;  541.600;  496.000;  650.340
1018.374;  513.950;  440.000;  611.760
1018.924;  603.800;  559.000;  716.880
1019.474;  592.450;  544.000;  718.880
1020.024;  553.500;  487.000;  657.580
1020.574;  610.950;  570.000;  726.160
1021.124;  570.350;  528.000;  673.580
1021.674;  468.000;  401.000;  559.120
1022.224;  602.500;  522.000;  708.940
1022.774;  557.200;  489.000;  668.820
1023.324;  632.400;  593.000;  753.520
1023.874;  741.550;  660.000;  875.760
1024.423;  511.900;  456.000;  613.700
1024.973;  510.350;  487.000;  610.760
1025.523;  518.200;  452.000;  620.960
1026.072;  515.950;  448.000;  606.420
1026.622;  569.450;  518.000;  675.740
1027.172;  598.100;  580.000;  715.660
1027.721;  509.750;  437.000;  601.220
1028.270;  564.750;  500.000;  663.400
1028.820;  531.650;  494.000;  638.080
1029.369;  514.250;  477.000;  612.700
1029.918;  542.100;  464.000;  649.840
1030.468;  472.150;  402.000;  564.780
1031.017;  533.250;  494.000;  634.800
1031.566;  511.350;  491.000;  608.900
1032.115;  582.150;  536.000;  694.500
1032.664;  511.550;  418.000;  596.480
1033.213;  617.100;  567.000;  735.420
1033.762;  538.300;  497.000;  635.620
1034.311;  571.250;  507.000;  677.220
1034.860;  586.150;  534.000;  691.000
1035.408;  615.400;  543.000;  722.720
1035.957;  603.950;  537.000;  719.540
1036.506;  445.800;  374.000;  530.800
1037.055;  715.250;  665.000;  844.320
1037.603;  560.350;  507.000;  664.000
1038.152;  444.650;  395.000;  534.760
1038.700;  484.000;  410.000;  585.740
1039.249;  571.400;  531.000;  681.220
1039.797;  533.300;  482.000;  633.360
1040.345;  591.600;  545.000;  705.420
1040.894;  532.850;  461.000;  625.300
1041.442;  544.300;  503.000;  632.200
1041.990;  470.150;  399.000;  559.160
1042.538;  451.300;  399.000;  536.180
1043.087;  476.700;  464.000;  570.860
1043.635;  568.850;  524.000;  670.500
1044.183;  493.200;  453.000;  586.400
1044.731;  478.600;  427.000;  576.000
1045.279;  569.350;  519.000;  674.920
1045.827;  760.450;  714.000;  892.400
1046.374;  429.700;  398.000;  515.420
1046.922;  490.450;  474.000;  590.580
1047.470;  579.600;  541.000;  691.300
1048.018;  548.300;  509.000;  647.960
1048.565;  603.550;  575.000;  708.600
1049.113;  459.750;  401.000;  557.000
1049.660;  520.900;  485.000;  629.660
1050.208;  572.250;  554.000;  675.640
1050.755;  507.950;  468.000;  606.580
1051.303;  573.550;  547.000;  686.820
1051.850;  538.350;  494.000;  635.120
1052.397;  391.900;  340.000;  473.960
1052.945;  515.950;  513.000;  617.760
1053.492;  623.000;  618.000;  741.840
1054.039;  607.050;  561.000;  720.180
1054.586;  464.750;  397.000;  557.240
1055.133;  583.100;  528.000;  693.140
1055.680;  539.100;  508.000;  646.620
1056.227;  451.500;  385.000;  542.780
1056.774;  671.500;  624.000;  794.980
1057.321;  431.900;  400.000;  523.260
1057.868;  544.150;  536.000;  651.320
1058.415;  541.000;  502.000;  651.980
1058.961;  568.400;  510.000;  678.940
1059.508;  535.950;  472.000;  643.820
1060.055;  488.300;  456.000;  581.780
1060.601;  520.300;  470.000;  624.300
1061.148;  520.750;  495.000;  616.820
1061.694;  495.200;  463.000;  592.580
1062.241;  499.100;  498.000;  596.320
1062.787;  558.300;  554.000;  663.140
1063.334;  681.950;  665.000;  808.560
1063.880;  565.000;  531.000;  668.360
1064.426;  596.850;  583.000;  706.820
1064.972;  502.800;  461.000;  601.340
1065.518;  468.050;  415.000;  566.640
1066.065;  527.050;  502.000;  624.460
1066.611;  496.000;  483.000;  598.800
1067.157;  538.100;  509.000;  641.860
1067.703;  566.450;  514.000;  668.480
1068.249;  517.350;  475.000;  605.220
1068.794;  524.500;  499.000;  626.880
1069.340;  478.600;  447.000;  578.960
1069.886;  497.650;  470.000;  590.700
1070.432;  448.700;  405.000;  541.720
1070.977;  497.900;  477.000;  601.080
1071.523;  479.300;  431.000;  573.060
1072.068;  487.200;  441.000;  582.000
1072.614;  431.000;  387.000;  527.760
1073.160;  575.300;  556.000;  687.040
1073.705;  480.900;  488.000;  572.520
1074.250;  464.200;  479.000;  559.900
1074.796;  554.050;  502.000;  655.160
1075.341;  560.450;  525.000;  664.100
1075.886;  490.800;  470.000;  594.240
1076.431;  549.050;  514.000;  649.880
1076.976;  537.750;  491.000;  639.220
1077.521;  485.250;  463.000;  583.080
1078.067;  491.100;  450.000;  579.400
1078.612;  552.800;  537.000;  661.620
1079.156;  499.150;  481.000;  601.540
1079.701;  583.100;  543.000;  693.260
1080.246;  587.350;  599.000;  696.300
1080.791;  538.500;  485.000;  625.020
1081.336;  550.250;  502.000;  659.320
1081.880;  547.800;  526.000;  649.680
1082.425;  476.700;  421.000;  573.480
1082.970;  601.500;  577.000;  717.040
1083.514;  497.050;  482.000;  597.000
1084.059;  488.100;  455.000;  586.720
1084.603;  472.200;  437.000;  565.840
1085.147;  545.000;  496.000;  645.220
1085.692;  600.600;  566.000;  716.800
1086.236;  413.900;  419.000;  503.140
1086.780;  628.850;  621.000;  751.440
1087.325;  552.850;  518.000;  654.620
1087.869;  515.600;  482.000;  610.700
1088.413;  593.400;  567.000;  705.040
1088.957;  454.200;  457.000;  543.400
1089.501;  641.650;  634.000;  766.640
1090.045;  611.550;  611.000;  726.480
1090.589;  474.650;  453.000;  569.920
1091.133;  564.900;  513.000;  673.340
1091.676;  496.400;  450.000;  591.940
1092.220;  505.950;  481.000;  600.920
1092.764;  592.750;  579.000;  706.960
1093.307;  559.650;  526.000;  673.780
1093.851;  465.150;  442.000;  556.540
1094.395;  575.400;  571.000;  683.140
1094.938;  528.850;  516.000;  632.520
1095.482;  470.950;  455.000;  559.800
1096.025;  594.000;  565.000;  710.880
1096.568;  660.300;  631.000;  779.280
1097.112;  421.250;  405.000;  508.180
1097.655;  496.600;  518.000;  603.000
1098.198;  503.300;  473.000;  600.180
1098.741;  513.550;  490.000;  612.860
1099.285;  551.450;  531.000;  657.300
1099.828;  362.300;  330.000;  439.400
1100.371;  515.250;  497.000;  608.160
1100.914;  573.650;  552.000;  682.660
1101.457;  570.450;  555.000;  679.900
1101.999;  474.950;  447.000;  584.680
1102.542;  543.850;  491.000;  641.440
1103.085;  549.550;  548.000;  658.500
1103.628;  637.750;  642.000;  762.060
1104.170;  493.200;  463.000;  588.280
1104.713;  546.150;  529.000;  646.700
1105.256;  467.450;  403.000;  557.440
1105.798;  411.600;  400.000;  499.980
1106.341;  613.850;  603.000;  728.900
1106.883;  431.500;  393.000;  521.340
1107.425;  566.500;  534.000;  668.180
1107.968;  517.700;  517.000;  612.380
1108.510;  580.850;  572.000;  684.960
1109.052;  511.300;  473.000;  612.620
1109.594;  463.700;  408.000;  554.440
1110.136;  533.300;  509.000;  643.220
1110.679;  527.600;  552.000;  633.080
1111.221;  502.550;  462.000;  604.460
1111.763;  464.700;  444.000;  559.220
1112.304;  458.400;  428.000;  547.140
1112.846;  558.700;  564.000;  666.240
1113.388;  801.650;  770.000;  942.180
1113.930;  582.700;  589.000;  694.200
1114.472;  505.700;  488.000;  606.540
1115.013;  451.100;  424.000;  551.280
1115.555;  491.000;  486.000;  587.100
1116.097;  480.150;  459.000;  579.480
1116.638;  574.000;  582.000;  684.600
1117.180;  555.800;  526.000;  667.740
1117.721;  480.200;  456.000;  568.580
1118.262;  569.100;  521.000;  677.960
1118.804;  530.650;  529.000;  637.340
1119.345;  480.700;  461.000;  578.400
1119.886;  588.850;  601.000;  704.040
1120.427;  485.250;  478.000;  589.020
1120.969;  501.300;  480.000;  597.920
1121.510;  468.400;  442.000;  563.060
1122.051;  609.650;  598.000;  723.580
1122.592;  554.800;  514.000;  655.420
1123.133;  455.150;  473.000;  547.940
1123.673;  589.900;  586.000;  706.480
1124.214;  515.400;  511.000;  612.460
1124.755;  539.850;  537.000;  639.460
1125.296;  514.650;  505.000;  627.320
1125.836;  576.400;  570.000;  691.500
1126.377;  501.600;  467.000;  599.660
1126.918;  514.150;  505.000;  614.980
1127.458;  522.300;  528.000;  622.220
1127.999;  548.550;  548.000;  656.980
1128.539;  588.500;  545.000;  694.240
1129.079;  533.000;  527.000;  632.720
1129.620;  464.050;  440.000;  558.100
1130.160;  446.700;  456.000;  539.480
1130.700;  537.650;  512.000;  640.840
1131.240;  536.600;  546.000;  643.700
1131.781;  520.450;  535.000;  619.680
1132.321;  503.900;  504.000;  599.120
1132.861;  473.100;  446.000;  564.200
1133.401;  499.650;  484.000;  593.940
1133.941;  523.300;  551.000;  626.280
1134.481;  504.000;  505.000;  597.580
1135.020;  509.450;  488.000;  609.160
1135.560;  561.950;  567.000;  674.940
1136.100;  403.700;  398.000;  501.160
1136.640;  425.800;  411.000;  510.480
1137.179;  449.050;  428.000;  537.960
1137.719;  499.600;  486.000;  605.400
1138.258;  486.750;  501.000;  587.360
1138.798;  557.500;  547.000;  663.780
1139.337;  393.400;  369.000;  482.840
1139.877;  540.950;  524.000;  642.360
1140.416;  738.850;  763.000;  878.060
1140.955;  445.000;  404.000;  535.380
1141.494;  572.100;  559.000;  669.280
1142.034;  485.100;  482.000;  583.520
1142.573;  544.150;  560.000;  646.280
1143.112;  455.750;  469.000;  553.480
1143.651;  446.050;  452.000;  536.480
1144.190;  575.650;  551.000;  691.640
1144.729;  502.100;  479.000;  607.420
1145.267;  487.300;  500.000;  584.900
1145.806;  539.500;  544.000;  637.040
1146.345;  530.000;  528.000;  635.020
1146.884;  525.700;  499.000;  622.500
1147.422;  442.750;  443.000;  533.060
1147.961;  598.900;  580.000;  708.460
1148.500;  565.850;  556.000;  669.720
1149.038;  530.100;  532.000;  632.500
1149.577;  589.100;  607.000;  698.640
1150.115;  364.750;  325.000;  452.280
1150.653;  499.850;  512.000;  607.340
1151.192;  455.200;  456.000;  552.920
1151.730;  550.800;  562.000;  652.560
1152.268;  488.150;  471.000;  589.520
1152.806;  483.900;  494.000;  571.180
1153.344;  478.250;  484.000;  577.640
1153.882;  502.050;  494.000;  600.060
1154.421;  387.050;  363.000;  470.620
1154.958;  496.250;  501.000;  595.240
1155.496;  541.050;  553.000;  645.280
1156.034;  602.200;  600.000;  721.880
1156.572;  563.750;  537.000;  667.060
1157.110;  388.150;  367.000;  473.940
1157.647;  569.650;  576.000;  676.960
1158.185;  474.300;  484.000;  564.320
1158.723;  420.300;  412.000;  509.200
1159.260;  576.350;  588.000;  701.700
1159.798;  549.000;  555.000;  658.160
1160.335;  519.450;  536.000;  631.820

