membrane
Integration time [ms]: 384.568
Averaging Nr. [scans]: 20
Smoothing Nr. [pixels]: 0
Data measured with spectrometer [name]: 7414430SP
Wave   ;Sample   ;Dark     ;Reference
[nm]   ;[counts] ;[counts] ;[counts] 

288.544;  648.872;  568.515;  793.890
289.143;  547.815;  409.561;  681.602
289.742;  676.032;  554.563;  828.814
290.341;  653.681;  505.621;  789.841
290.940;  597.657;  470.651;  730.702
291.538;  725.270;  638.612;  881.108
292.137;  649.117;  534.599;  792.581
292.736;  807.331;  681.621;  975.101
293.335;  606.560;  510.669;  735.086
293.934;  647.313;  495.663;  781.677
294.532;  859.688;  741.656; 1031.958
295.131;  702.903;  595.746;  834.394
295.730;  677.495;  598.740;  809.588
296.328;  658.043;  543.748;  783.442
296.927;  648.954;  597.761;  779.652
297.525;  648.491;  550.746;  781.236
298.124;  544.612;  421.822;  654.009
298.722;  639.648;  559.769;  761.933
299.321;  605.900;  487.787;  708.597
299.919;  636.545;  498.805;  751.918
300.518;  583.508;  469.828;  689.338
301.116;  586.326;  504.786;  691.381
301.715;  619.275;  511.760;  730.222
302.313;  610.826;  453.771;  704.943
302.911;  628.913;  513.844;  733.830
303.509;  802.552;  690.770;  925.627
304.108;  650.788;  544.767;  760.383
304.706;  691.851;  555.763;  801.664
305.304;  697.130;  584.826;  796.707
305.902;  684.513;  580.759;  784.484
306.500;  641.195;  507.790;  728.200
307.098;  663.639;  522.797;  746.560
307.696;  693.575;  583.814;  780.432
308.294;  648.270;  558.798;  731.359
308.892;  680.284;  546.766;  759.769
309.490;  628.840;  509.809;  712.161
310.088;  702.410;  605.831;  788.444
310.686;  732.016;  599.777;  821.749
311.284;  682.077;  545.812;  766.040
311.882;  653.129;  537.830;  731.225
312.480;  625.650;  498.852;  697.167
313.078;  723.794;  628.829;  808.331
313.675;  628.695;  501.790;  691.600
314.273;  718.209;  596.854;  797.837
314.871;  544.037;  410.841;  589.829
315.468;  592.913;  515.844;  652.090
316.066;  630.316;  490.792;  694.427
316.664;  590.314;  490.855;  656.351
317.261;  814.292;  738.822;  910.128
317.859;  692.902;  589.840;  768.735
318.456;  744.757;  653.806;  830.096
319.054;  701.943;  615.833;  787.828
319.651;  685.255;  575.818;  759.928
320.249;  729.955;  657.818;  810.188
320.846;  638.378;  532.804;  714.286
321.443;  743.169;  658.817;  832.135
322.041;  730.470;  623.828;  812.315
322.638;  632.195;  561.821;  701.456
323.235;  601.726;  516.771;  665.683
323.833;  677.549;  582.791;  740.354
324.430;  566.433;  431.805;  615.900
325.027;  804.168;  719.791;  876.855
325.624;  598.615;  430.747;  644.532
326.221;  638.286;  470.764;  689.717
326.818;  758.005;  639.788;  818.332
327.415;  689.270;  529.732;  748.828
328.012;  641.918;  477.725;  690.585
328.609;  681.120;  521.743;  731.389
329.206;  725.156;  601.760;  778.621
329.803;  696.450;  539.767;  737.841
330.400;  662.761;  498.741;  704.260
330.997;  754.408;  568.762;  817.147
331.594;  740.910;  600.815;  788.185
332.191;  691.619;  534.767;  728.722
332.787;  788.414;  605.786;  844.463
333.384;  715.714;  523.840;  763.093
333.981;  757.527;  572.897;  815.687
334.578;  664.961;  498.876;  708.378
335.174;  677.039;  497.878;  731.469
335.771;  773.412;  594.918;  836.456
336.367;  656.981;  505.953;  710.631
336.964;  736.085;  578.927;  793.266
337.561;  679.268;  529.941;  731.112
338.157;  830.360;  709.000;  911.916
338.754;  727.271;  608.020;  796.589
339.350;  665.604;  535.012;  722.493
339.946;  702.977;  575.978;  773.135
340.543;  761.444;  657.060;  846.136
341.139;  653.589;  529.094;  720.836
341.735;  694.476;  610.102;  772.593
342.332;  623.288;  532.087;  691.472
342.928;  717.275;  574.076;  795.394
343.524;  686.711;  581.108;  761.684
344.120;  659.617;  531.115;  738.562
344.716;  635.863;  541.060;  723.717
345.313;  710.596;  584.063;  795.342
345.909;  554.076;  435.072;  627.336
346.505;  659.297;  573.043;  740.247
347.101;  728.770;  594.029;  827.864
347.697;  685.892;  585.008;  785.398
348.293;  542.408;  442.033;  627.244
348.889;  651.704;  578.023;  745.914
349.485;  595.863;  517.010;  688.205
350.081;  674.490;  577.005;  772.592
350.676;  601.540;  521.040;  691.606
351.272;  705.326;  594.987;  809.530
351.868;  671.471;  566.970;  780.497
352.464;  626.152;  564.990;  723.932
353.059;  564.617;  473.015;  646.017
353.655;  680.068;  584.980;  777.063
354.251;  657.223;  553.958;  759.845
354.846;  631.426;  534.006;  740.646
355.442;  638.285;  561.039;  753.071
356.038;  634.770;  554.998;  751.708
356.633;  618.328;  546.993;  728.594
357.229;  615.423;  547.008;  724.757
357.824;  598.350;  515.022;  703.600
358.420;  570.558;  529.017;  679.726
359.015;  582.067;  508.004;  695.357
359.610;  649.742;  579.992;  763.920
360.206;  506.626;  418.041;  603.240
360.801;  537.431;  482.003;  646.503
361.396;  613.327;  522.978;  725.975
361.992;  559.550;  504.022;  668.220
362.587;  553.470;  512.048;  670.160
363.182;  577.147;  531.024;  689.631
363.777;  612.956;  559.010;  738.242
364.372;  615.210;  578.016;  737.314
364.967;  566.746;  518.048;  680.744
365.563;  670.963;  623.995;  815.567
366.158;  562.400;  502.007;  685.161
366.753;  537.799;  489.992;  649.263
367.348;  615.193;  579.023;  746.056
367.942;  566.692;  519.008;  697.298
368.537;  616.189;  552.029;  754.245
369.132;  578.946;  517.017;  703.428
369.727;  525.807;  477.052;  638.079
370.322;  477.796;  430.032;  580.186
370.917;  576.840;  528.040;  710.646
371.511;  711.498;  666.020;  861.834
372.106;  636.146;  615.048;  776.964
372.701;  477.142;  439.062;  585.988
373.296;  707.523;  671.012;  863.135
373.890;  524.620;  486.048;  647.840
374.485;  570.283;  535.071;  691.199
375.079;  602.495;  582.021;  738.685
375.674;  665.034;  650.017;  812.970
376.268;  555.401;  528.049;  691.759
376.863;  458.781;  451.103;  580.327
377.457;  543.522;  514.031;  662.490
378.052;  615.128;  601.059;  764.884
378.646;  600.935;  571.058;  741.167
379.240;  587.132;  552.064;  721.176
379.835;  514.550;  532.037;  636.978
380.429;  443.275;  427.045;  562.557
381.023;  637.479;  597.070;  779.205
381.617;  546.079;  514.081;  680.106
382.212;  552.895;  518.036;  685.303
382.806;  608.622;  610.031;  760.690
383.400;  540.465;  550.067;  672.281
383.994;  538.212;  557.073;  664.870
384.588;  566.363;  535.029;  697.701
385.182;  594.963;  584.999;  726.624
385.776;  581.017;  539.019;  706.875
386.370;  544.798;  545.054;  681.968
386.964;  550.499;  553.031;  684.155
387.558;  484.224;  448.003;  598.360
388.152;  548.163;  545.045;  681.959
388.745;  657.209;  664.039;  814.707
389.339;  609.894;  623.014;  747.642
389.933;  556.308;  552.998;  695.370
390.527;  703.159;  720.024;  859.029
391.120;  474.514;  481.071;  595.318
391.714;  583.105;  588.039;  711.633
392.308;  643.447;  622.008;  780.253
392.901;  520.938;  497.037;  642.460
393.495;  480.250;  508.057;  595.414
394.089;  625.780;  649.046;  760.452
394.682;  574.972;  534.047;  697.188
395.275;  587.603;  577.047;  719.927
395.869;  543.606;  567.061;  667.314
396.462;  500.497;  512.039;  616.609
397.056;  638.493;  631.003;  776.621
397.649;  600.119;  601.057;  731.575
398.242;  584.733;  583.025;  712.645
398.836;  628.958;  630.013;  766.408
399.429;  509.275;  486.015;  631.041
400.022;  543.490;  536.059;  665.902
400.615;  670.285;  675.043;  805.609
401.208;  570.059;  580.009;  691.451
401.802;  575.841;  569.036;  699.329
402.395;  565.140;  535.059;  683.502
402.988;  570.367;  588.070;  696.627
403.581;  530.512;  560.023;  646.878
404.174;  559.582;  573.994;  686.568
404.767;  524.583;  529.040;  638.583
405.360;  516.834;  506.062;  621.445
405.953;  625.066;  648.008;  759.034
406.545;  610.268;  583.996;  725.342
407.138;  511.966;  507.039;  618.350
407.731;  513.651;  507.029;  613.303
408.324;  543.052;  560.975;  660.554
408.917;  567.463;  577.999;  681.864
409.509;  618.630;  618.027;  740.396
410.102;  533.310;  542.051;  643.948
410.695;  549.341;  557.970;  665.758
411.287;  497.179;  482.981;  599.821
411.880;  483.074;  456.988;  585.421
412.472;  508.104;  511.027;  613.092
413.065;  525.414;  563.006;  629.408
413.657;  477.646;  484.963;  576.678
414.250;  545.541;  525.966;  646.681
414.842;  566.515;  576.997;  676.353
415.434;  473.067;  475.969;  570.463
416.027;  540.119;  535.922;  652.196
416.619;  601.584;  592.962;  713.400
417.211;  495.082;  500.964;  599.352
417.804;  522.282;  540.914;  628.499
418.396;  508.629;  513.965;  607.643
418.988;  553.370;  525.944;  659.238
419.580;  472.697;  484.978;  568.276
420.172;  456.532;  456.944;  536.196
420.764;  562.020;  578.913;  672.482
421.356;  540.544;  544.925;  636.898
421.948;  570.965;  552.947;  677.661
422.540;  574.652;  580.890;  680.027
423.132;  508.700;  498.887;  600.641
423.724;  472.341;  455.931;  561.267
424.316;  523.584;  504.916;  621.345
424.908;  500.998;  498.869;  591.517
425.500;  550.167;  548.869;  647.978
426.092;  546.339;  551.867;  648.268
426.683;  589.699;  583.896;  684.836
427.275;  542.770;  540.848;  641.471
427.867;  569.418;  557.841;  668.948
428.458;  633.211;  592.842;  732.344
429.050;  585.058;  569.867;  680.749
429.642;  632.549;  615.845;  743.124
430.233;  474.077;  460.832;  569.356
430.825;  625.000;  584.837;  724.809
431.416;  589.374;  594.868;  698.241
432.008;  547.216;  538.823;  651.723
432.599;  545.294;  555.814;  656.073
433.190;  552.082;  534.859;  637.670
433.782;  500.028;  480.858;  590.395
434.373;  756.122;  771.800;  884.765
434.964;  502.039;  467.798;  602.920
435.556;  545.133;  533.836;  634.537
436.147;  641.381;  617.822;  758.490
436.738;  598.496;  584.816;  701.099
437.329;  612.932;  599.763;  721.723
437.920;  561.369;  563.852;  666.688
438.511;  482.787;  440.845;  564.526
439.103;  533.281;  524.772;  623.998
439.694;  580.444;  546.759;  681.583
440.285;  644.385;  607.773;  764.432
440.876;  723.301;  709.798;  845.738
441.466;  490.545;  436.786;  575.162
442.057;  565.615;  554.731;  665.814
442.648;  641.092;  617.772;  746.255
443.239;  528.937;  531.791;  620.477
443.830;  607.323;  578.742;  704.958
444.421;  559.046;  482.716;  655.474
445.011;  586.394;  529.779;  693.619
445.602;  641.303;  592.785;  743.126
446.193;  411.260;  379.734;  488.117
446.783;  542.808;  497.697;  640.397
447.374;  587.350;  563.772;  692.759
447.964;  612.547;  602.773;  713.770
448.555;  696.566;  654.692;  822.742
449.145;  563.958;  533.728;  662.853
449.736;  683.292;  656.742;  803.179
450.326;  615.026;  545.740;  713.626
450.917;  577.910;  549.684;  675.324
451.507;  520.997;  455.692;  600.661
452.097;  643.268;  600.710;  746.267
452.688;  626.572;  534.700;  742.160
453.278;  481.828;  444.693;  566.840
453.868;  683.229;  618.665;  793.550
454.458;  550.634;  473.696;  651.141
455.048;  608.567;  546.703;  711.783
455.639;  484.594;  439.663;  567.096
456.229;  606.267;  544.649;  710.694
456.819;  645.593;  579.648;  751.158
457.409;  654.142;  604.657;  773.993
457.999;  622.351;  557.628;  737.505
458.589;  579.458;  525.632;  686.606
459.179;  620.449;  550.641;  717.658
459.769;  527.451;  487.663;  627.099
460.358;  678.300;  644.621;  797.262
460.948;  587.656;  522.625;  689.503
461.538;  562.917;  488.618;  660.677
462.128;  565.267;  481.649;  664.934
462.717;  600.273;  569.572;  710.326
463.307;  600.897;  556.553;  705.846
463.897;  557.505;  479.614;  656.942
464.486;  718.966;  640.657;  837.128
465.076;  633.878;  582.592;  733.776
465.666;  553.458;  516.547;  652.900
466.255;  674.583;  592.604;  785.651
466.845;  568.739;  481.612;  666.749
467.434;  618.383;  576.589;  725.873
468.023;  563.121;  457.573;  658.357
468.613;  602.808;  526.632;  713.946
469.202;  549.487;  470.579;  646.507
469.791;  620.255;  542.548;  737.811
470.381;  630.637;  556.544;  742.813
470.970;  602.626;  486.551;  711.099
471.559;  629.019;  565.571;  733.291
472.148;  573.919;  481.536;  675.737
472.738;  650.196;  569.527;  765.466
473.327;  546.279;  430.534;  637.529
473.916;  631.048;  547.564;  737.446
474.505;  638.095;  552.520;  751.703
475.094;  683.734;  578.500;  806.570
475.683;  676.669;  568.521;  797.699
476.272;  621.892;  507.526;  730.632
476.861;  601.972;  481.495;  706.754
477.449;  614.661;  502.441;  728.487
478.038;  583.611;  477.526;  692.513
478.627;  605.686;  504.533;  714.852
479.216;  648.767;  583.468;  769.441
479.805;  667.695;  548.450;  783.375
480.393;  853.013;  759.493; 1008.945
480.982;  741.713;  614.513;  874.501
481.571;  733.570;  628.447;  858.333
482.159;  593.649;  453.444;  705.386
482.748;  707.125;  548.478;  821.385
483.336;  730.875;  621.459;  858.209
483.925;  667.221;  539.473;  774.373
484.513;  649.971;  520.408;  758.962
485.102;  686.131;  554.482;  810.965
485.690;  863.992;  716.421; 1011.050
486.278;  834.923;  684.421;  979.329
486.867;  689.434;  541.430;  809.662
487.455;  778.843;  578.448;  898.229
488.043;  644.891;  447.449;  748.361
488.631;  861.676;  712.404; 1005.079
489.220;  788.446;  584.396;  908.626
489.808;  645.557;  424.435;  741.415
490.396;  786.497;  593.422;  914.645
490.984;  710.840;  505.423;  830.161
491.572;  814.799;  618.405;  940.315
492.160;  794.541;  526.449;  919.081
492.748;  771.947;  526.453;  884.341
493.336;  888.211;  620.406; 1019.693
493.924;  851.755;  534.383;  958.077
494.512;  972.070;  599.427; 1066.638
495.100; 1011.822;  569.449; 1103.280
495.687; 1116.285;  637.387; 1206.373
496.275; 1090.974;  490.398; 1150.796
496.863; 1227.237;  517.440; 1281.171
497.451; 1353.730;  507.445; 1386.805
498.038; 1504.877;  560.377; 1556.729
498.626; 1708.233;  520.384; 1741.407
499.214; 2058.623;  543.421; 2016.609
499.801; 2309.319;  548.436; 2220.633
500.389; 2519.642;  465.391; 2312.494
500.976; 2993.353;  564.395; 2744.849
501.564; 3257.385;  530.437; 3148.565
502.151; 3424.165;  369.446; 3515.999
502.738; 4050.430;  520.406; 3971.274
503.326; 4694.461;  490.375; 4403.796
503.913; 5285.191;  530.410; 5161.749
504.500; 5881.815;  553.430; 5986.420
505.088; 6585.978;  476.427; 6381.201
505.675; 7627.139;  520.377; 6925.547
506.262; 8623.034;  513.446; 7619.060
506.849; 9518.279;  535.414; 8733.969
507.436;10249.888;  590.385; 9790.121
508.023;10384.404;  518.391; 9985.472
508.610;11029.201;  592.412;10434.618
509.197;12292.353;  546.469;11198.435
509.784;13535.231;  543.417;12391.194
510.371;14458.810;  433.368;13603.713
510.958;15046.805;  505.437;14426.586
511.545;15113.775;  634.424;15243.775
512.132;15898.398;  547.379;15945.876
512.719;17119.592;  475.410;16340.369
513.305;18893.891;  478.430;18011.766
513.892;20739.857;  600.455;19754.971
514.479;22005.896;  549.396;20967.805
515.066;22958.754;  615.402;22299.793
515.652;24220.744;  523.404;22908.660
516.239;25858.688;  603.420;23798.875
516.825;27631.688;  464.409;25567.275
517.412;29060.295;  686.393;28154.959
517.998;27527.443;  501.432;28344.111
518.585;26098.465;  509.446;27134.219
519.171;26613.404;  535.383;27268.576
519.758;27224.973;  440.395;28964.129
520.344;28698.781;  573.417;30664.494
520.930;31035.668;  456.459;32550.605
521.516;34142.668;  596.383;35422.895
522.103;35736.371;  639.408;38280.004
522.689;35971.633;  498.450;37835.117
523.275;36339.844;  614.439;37288.613
523.861;37500.012;  552.413;37281.395
524.447;38949.789;  614.384;37846.949
525.033;38990.281;  601.436;38321.949
525.619;36993.504;  461.452;38579.285
526.205;37042.289;  483.435;40622.875
526.791;38979.457;  528.398;42258.836
527.377;40143.148;  509.449;42966.902
527.963;41427.426;  570.470;42018.949
528.549;43264.992;  580.452;42476.828
529.135;42628.945;  481.428;41854.852
529.721;40979.262;  524.432;41237.711
530.306;40726.293;  714.452;41259.445
530.892;41280.266;  517.433;41506.047
531.478;44090.344;  526.417;43559.613
532.063;46639.504;  462.445;47695.563
532.649;48832.637;  662.479;50808.324
533.235;50124.195;  487.442;51787.500
533.820;50107.316;  612.394;52145.035
534.406;48180.121;  511.477;51133.488
534.991;47312.266;  497.448;49996.805
535.576;45552.430;  517.432;48882.852
536.162;44073.371;  729.426;46942.285
536.747;45035.711;  444.482;45711.746
537.333;47175.219;  487.479;48510.180
537.918;49243.609;  520.466;50439.891
538.503;48355.941;  498.421;50863.711
539.088;47637.430;  570.460;50906.922
539.673;50235.375;  530.467;52621.965
540.259;52226.613;  483.443;52368.094
540.844;52529.980;  434.436;50879.109
541.429;52244.867;  655.487;52077.777
542.014;53132.754;  451.502;52716.695
542.599;51254.848;  569.453;52363.281
543.184;50324.699;  489.483;53187.137
543.769;52473.387;  467.486;54697.605
544.354;51921.570;  493.480;53913.914
544.938;49131.961;  571.467;49680.164
545.523;46451.828;  652.446;47386.277
546.108;48966.723;  518.488;49151.949
546.693;52289.707;  533.513;51384.637
547.278;49408.031;  570.458;51853.254
547.862;47399.766;  517.429;51173.750
548.447;47387.492;  574.495;51691.395
549.031;46883.051;  497.523;52456.703
549.616;47286.445;  562.461;52714.516
550.201;49009.680;  489.473;52414.598
550.785;52568.563;  590.491;52355.059
551.370;55492.496;  465.503;54589.453
551.954;56700.402;  594.493;58267.348
552.538;55059.207;  577.473;59062.176
553.123;54885.625;  462.501;58115.285
553.707;56166.211;  511.538;56556.285
554.291;55269.344;  614.485;56201.668
554.876;53660.875;  623.498;55335.762
555.460;52858.094;  508.520;54155.703
556.044;53381.609;  493.553;53721.484
556.628;52807.754;  527.507;53731.016
557.212;51080.301;  603.462;54312.531
557.796;49358.684;  537.507;53797.773
558.380;49021.539;  548.549;56145.984
558.964;50009.977;  560.481;57277.930
559.548;52539.066;  445.483;56459.641
560.132;53627.133;  485.524;54434.543
560.716;54330.168;  460.547;54800.617
561.300;55580.270;  460.475;57606.945
561.884;54091.590;  560.512;58972.445
562.467;53657.531;  560.545;57327.570
563.051;53900.727;  540.544;54962.434
563.635;52534.984;  540.533;52594.473
564.219;49017.246;  504.511;50610.410
564.802;49108.297;  572.550;49551.180
565.386;49796.512;  516.541;48370.953
565.969;49449.039;  604.488;48178.871
566.553;49747.695;  698.527;49957.305
567.136;48835.570;  608.551;50369.594
567.720;49856.328;  542.569;49492.004
568.303;51578.566;  564.544;50616.352
568.887;53547.539;  548.534;50727.148
569.470;54006.723;  555.580;51698.379
570.053;50848.840;  572.573;52122.078
570.637;48637.688;  491.514;52536.438
571.220;48183.750;  588.510;51186.098
571.803;47993.430;  680.584;51032.762
572.386;48464.742;  495.561;49609.887
572.969;49507.598;  526.538;48285.926
573.552;50340.629;  531.549;47624.285
574.135;48404.473;  458.591;45498.641
574.718;44060.574;  474.559;41970.434
575.301;42858.203;  487.068;41447.137
575.884;41655.828;  499.577;40923.836
576.467;43551.230;  559.569;45267.723
577.050;44101.031;  575.580;48175.543
577.633;43859.965;  663.538;47729.328
578.216;44894.227;  503.574;47579.793
578.799;49509.254;  523.600;47820.996
579.381;50557.414;  669.567;48115.551
579.964;46114.461;  503.538;47333.766
580.547;43156.938;  537.579;46668.969
581.129;43059.629;  621.610;44466.141
581.712;43464.719;  551.621;44164.922
582.294;45313.434;  522.570;46477.855
582.877;43569.961;  703.563;48244.254
583.459;42212.777;  544.619;47437.895
584.042;44266.605;  520.618;46943.219
584.624;44454.902;  507.624;46792.227
585.206;44734.520;  407.575;46557.250
585.789;43953.484;  477.611;45793.773
586.371;42486.527;  552.638;43836.391
586.953;40884.641;  598.608;42972.492
587.536;39310.574;  635.574;42487.211
588.118;39898.715;  543.679;42086.414
588.700;41119.215;  662.631;43389.930
589.282;42526.379;  586.599;43646.039
589.864;42353.406;  523.612;43438.109
590.446;42680.848;  407.647;43151.926
591.028;41874.500;  543.639;42781.867
591.610;42137.129;  439.615;42839.098
592.192;41773.219;  565.599;42820.402
592.774;39351.086;  475.629;40724.277
593.356;38624.484;  501.668;39874.789
593.937;38129.977;  523.605;39980.648
594.519;38764.746;  611.612;42069.633
595.101;39535.074;  460.657;42976.031
595.683;40630.609;  509.666;44084.441
596.264;42552.371;  540.611;43478.797
596.846;44114.820;  517.630;43803.672
597.427;43087.156;  487.679;42986.934
598.009;42065.547;  472.681;42832.219
598.591;40223.789;  598.632;42580.086
599.172;39059.793;  500.640;43061.805
599.753;38804.871;  454.676;41691.469
600.335;39086.379;  637.693;40692.520
600.916;38961.316;  552.666;39982.422
601.498;39420.762;  559.652;40318.617
602.079;40585.129;  534.676;40670.609
602.660;39173.785;  531.685;41450.898
603.241;38368.145;  434.637;41137.738
603.823;38933.094;  514.648;38868.797
604.404;40448.566;  451.688;38182.785
604.985;42394.098;  509.695;38078.047
605.566;43275.199;  595.634;38056.633
606.147;41479.977;  537.708;37020.418
606.728;39785.852;  457.716;37883.359
607.309;38813.219;  483.697;38748.273
607.890;38513.191;  526.661;38850.230
608.471;38701.516;  469.685;37457.918
609.051;38567.254;  536.742;36066.457
609.632;38297.820;  458.735;35991.074
610.213;39749.027;  541.693;37402.641
610.794;41614.398;  503.699;38383.363
611.374;40231.043;  568.707;40562.387
611.955;39703.668;  444.725;38533.727
612.536;41787.082;  573.691;36951.789
613.116;41406.875;  524.698;37197.891
613.697;40959.813;  515.744;38411.125
614.277;40571.973;  494.753;38673.938
614.858;37319.141;  516.696;37075.863
615.438;35143.711;  536.691;35092.906
616.019;34747.539;  622.756;33666.301
616.599;36126.211;  423.733;34189.023
617.179;39635.066;  475.710;36952.047
617.760;39759.020;  708.686;39582.574
618.340;37238.199;  498.765;38943.977
618.920;36622.223;  653.742;37594.156
619.500;36772.223;  495.768;37866.938
620.080;36783.570;  479.741;37869.043
620.660;37032.371;  468.802;36868.617
621.241;37642.957;  491.762;36352.309
621.821;37415.785;  592.749;35459.520
622.401;37624.316;  587.742;35207.414
622.980;39204.230;  463.779;35980.422
623.560;38105.941;  460.758;37351.328
624.140;35185.832;  557.741;34388.582
624.720;35544.461;  554.748;32368.764
625.300;37843.371;  485.743;32638.629
625.880;38889.949;  503.780;34599.035
626.459;37422.438;  556.753;36831.738
627.039;36425.512;  444.772;38299.098
627.619;38111.281;  703.802;38289.574
628.198;39472.848;  572.791;37220.695
628.778;40521.961;  551.748;37632.563
629.357;41298.984;  448.751;38003.012
629.937;40439.789;  496.798;38402.039
630.516;37638.402;  605.794;37868.801
631.096;36204.965;  498.751;35760.410
631.675;35321.875;  625.817;35225.219
632.254;35546.691;  508.833;35130.289
632.834;37107.930;  534.822;35794.570
633.413;37439.488;  638.771;35788.922
633.992;36756.742;  587.820;34532.863
634.571;37460.371;  576.844;33590.113
635.151;37133.910;  476.831;34943.863
635.730;36611.813;  511.775;35352.523
636.309;36762.629;  583.793;35366.605
636.888;36406.863;  593.820;36165.637
637.467;36837.574;  450.842;37515.902
638.046;37913.668;  646.791;39288.695
638.625;38018.684;  649.820;38279.699
639.204;38287.570;  541.850;37741.598
639.782;38908.859;  526.878;38364.551
640.361;38574.723;  639.809;36740.621
640.940;37811.336;  503.807;34950.082
641.519;37424.195;  532.805;34137.398
642.097;35991.258;  556.804;35654.258
642.676;36194.871;  571.802;35637.957
643.255;36280.430;  489.800;36567.074
643.833;37805.844;  569.799;37809.434
644.412;39058.305;  490.797;37337.293
644.990;39389.816;  534.795;37018.531
645.569;39683.727;  555.793;36518.469
646.147;38132.391;  588.792;36186.430
646.726;36485.801;  552.790;36267.688
647.304;35844.512;  509.788;36647.625
647.882;35846.023;  425.787;39286.742
648.461;35675.438;  559.785;39157.703
649.039;35891.746;  588.783;35412.883
649.617;35093.160;  570.781;34744.918
650.195;34678.473;  570.780;35403.098
650.773;34946.133;  470.778;35053.797
651.352;35053.246;  391.776;33756.816
651.930;34276.906;  420.775;31868.773
652.508;33923.316;  603.773;33121.551
653.086;33546.980;  545.771;33564.793
653.663;34706.941;  497.770;34054.668
654.241;35115.504;  453.768;35693.309
654.819;35976.563;  476.766;36422.906
655.397;38402.426;  443.764;38213.484
655.975;40395.289;  530.763;39507.625
656.553;42167.000;  618.761;39498.223
657.130;40530.012;  478.759;40395.480
657.708;40463.824;  552.758;39242.020
658.286;38996.086;  525.756;38920.020
658.863;37845.945;  545.754;40202.898
659.441;37572.508;  541.752;39677.938
660.018;38742.070;  509.751;40413.355
660.596;40066.879;  406.749;39931.414
661.173;40689.543;  500.747;39604.531
661.750;40502.703;  486.746;39700.070
662.328;40543.367;  564.744;39292.809
662.905;38705.027;  510.742;38235.648
663.482;36132.938;  513.741;36212.305
664.060;35656.500;  514.739;35944.945
664.637;35249.512;  585.737;35170.785
665.214;35335.824;  550.735;34197.523
665.791;37150.637;  529.734;34549.520
666.368;38080.398;  530.732;35118.578
666.945;36216.711;  585.730;36019.418
667.522;35589.871;  470.729;36048.438
668.099;37135.832;  505.727;36243.914
668.676;37143.695;  532.725;35958.875
669.253;36948.406;  629.723;37384.730
669.830;35440.316;  578.722;36779.629
670.407;33833.828;  537.720;35231.289
670.984;32896.941;  544.718;35544.270
671.560;33308.953;  560.717;35466.867
672.137;32570.164;  498.715;34280.863
672.714;32981.824;  579.713;34632.863
673.290;34128.238;  548.711;35135.422
673.867;33102.598;  482.710;36114.480
674.443;33391.961;  428.708;36152.859
675.020;35121.672;  541.706;35327.238
675.596;36083.633;  521.705;35795.176
676.173;35368.844;  436.703;35430.355
676.749;35462.406;  385.701;33549.516
677.326;34711.320;  432.700;32210.012
677.902;35870.281;  468.698;32068.871
678.478;35156.691;  424.696;32583.891
679.054;33908.504;  772.694;32088.928
679.631;33669.465;  548.693;30978.848
680.207;34449.379;  660.691;33160.887
680.783;34836.938;  412.689;35570.363
681.359;35089.051;  522.688;36125.184
681.935;34570.664;  540.686;35240.922
682.511;34150.176;  540.684;34429.961
683.087;33520.586;  558.682;34463.680
683.663;32591.248;  498.681;34648.898
684.239;32692.209;  433.679;34546.457
684.815;32768.770;  576.677;35586.375
685.390;33147.383;  664.676;35821.895
685.966;33249.945;  527.674;35085.871
686.542;32496.055;  491.672;34198.230
687.118;32737.816;  520.671;32847.707
687.693;32773.777;  578.669;32794.027
688.269;31048.941;  516.667;33072.367
688.844;30088.453;  567.665;33141.664
689.420;31128.064;  519.664;33965.742
689.995;31756.176;  626.662;34655.523
690.571;31525.986;  615.660;33576.742
691.146;32380.799;  510.659;32657.219
691.722;31713.160;  535.657;32526.979
692.297;30426.623;  459.655;33014.617
692.872;30177.584;  475.654;34012.254
693.448;29677.496;  459.652;34237.434
694.023;30112.508;  537.650;34142.672
694.598;30803.270;  531.648;34132.031
695.173;31162.180;  519.647;34205.250
695.748;29823.941;  415.645;32882.488
696.323;30679.453;  537.643;32864.906
696.898;31305.666;  566.642;33170.004
697.473;30513.277;  437.640;32432.984
698.048;30355.088;  517.638;31649.303
698.623;31552.850;  453.636;30778.141
699.198;32416.662;  536.635;31140.119
699.773;32939.375;  455.633;31764.299
700.348;31918.135;  474.631;31780.816
700.922;32002.447;  520.630;32046.375
701.497;32060.359;  512.628;32603.574
702.072;32100.471;  594.626;34799.871
702.646;32369.482;  601.625;35793.172
703.221;32656.344;  531.623;35201.590
703.795;32388.006;  466.621;34764.527
704.370;32761.018;  386.619;34307.367
704.944;32451.328;  523.618;33509.887
705.519;32206.740;  558.616;31388.584
706.093;33043.453;  467.614;31340.104
706.668;33292.965;  533.613;32630.281
707.242;33018.227;  587.611;32728.779
707.816;31942.688;  511.609;32947.238
708.390;31319.998;  521.607;33277.855
708.965;32248.311;  565.606;33834.336
709.539;32425.672;  518.604;33709.273
710.113;31562.484;  525.602;33044.313
710.687;32062.246;  551.601;31953.992
711.261;32339.758;  468.599;30505.949
711.835;31681.918;  462.597;30262.369
712.409;31152.180;  413.595;31254.447
712.983;32851.242;  424.594;32754.986
713.557;35242.902;  423.592;34018.824
714.131;35070.465;  500.590;34579.625
714.704;33921.078;  495.589;33890.262
715.278;33103.840;  530.587;33531.102
715.852;32846.852;  564.585;33601.660
716.425;32325.563;  663.584;33515.117
716.999;31985.523;  432.582;33185.555
717.573;32934.637;  567.580;33905.996
718.146;33808.648;  615.578;35199.293
718.720;33648.109;  518.577;35060.551
719.293;33606.672;  565.575;34973.230
719.867;33275.781;  470.573;36394.449
720.440;33602.594;  603.572;36663.008
721.013;34095.355;  519.570;35102.426
721.587;32994.266;  405.568;33985.266
722.160;32628.129;  562.566;33524.965
722.733;32383.391;  547.565;32987.043
723.306;33746.102;  513.563;33066.301
723.880;34901.512;  565.561;33399.500
724.453;34946.426;  640.560;33468.297
725.026;34029.586;  497.558;33816.637
725.599;33009.297;  539.556;32797.996
726.172;33105.461;  558.555;33187.434
726.745;34394.422;  538.553;35136.613
727.318;33893.332;  584.551;35751.730
727.891;32799.797;  534.549;35890.430
728.463;31937.307;  535.548;34822.090
729.036;31392.568;  447.546;32895.086
729.609;30295.330;  473.544;31823.225
730.182;30425.592;  580.543;31445.283
730.754;31325.754;  407.541;32373.223
731.327;33465.215;  545.539;33676.820
731.900;33045.125;  421.537;33417.000
732.472;32061.889;  542.536;31978.498
733.045;31787.100;  502.534;30368.777
733.617;30602.662;  437.532;30574.215
734.190;30027.324;  572.531;31280.975
734.762;29804.936;  534.529;31674.412
735.334;29703.297;  527.527;31247.291
735.907;29255.258;  547.526;29876.211
736.479;28931.869;  576.524;29808.488
737.051;30202.182;  544.522;30233.547
737.623;32104.293;  559.520;31469.086
738.195;33629.355;  477.519;31784.225
738.768;34021.867;  389.517;32120.523
739.340;33904.629;  500.515;32094.342
739.912;33858.488;  596.514;31312.680
740.484;32654.051;  543.512;31946.238
741.056;32447.563;  498.510;32984.059
741.628;34190.477;  476.508;33897.715
742.199;33464.637;  596.507;33213.016
742.771;31659.049;  444.505;31369.113
743.343;31907.811;  475.503;31865.473
743.915;32196.172;  503.502;32388.631
744.487;31557.283;  586.500;31079.568
745.058;29642.244;  562.498;30570.107
745.630;28059.156;  564.497;29970.127
746.201;27790.668;  475.495;29186.766
746.773;27436.430;  553.493;28805.723
747.344;26896.291;  515.491;29591.223
747.916;26407.254;  541.490;31412.201
748.487;26647.914;  572.488;32194.898
749.059;27460.877;  453.486;32533.719
749.630;28060.889;  480.485;32158.518
750.201;27462.600;  523.483;30855.395
750.773;26733.313;  478.481;28622.555
751.344;25795.473;  514.479;28405.732
751.915;24591.285;  512.478;28461.551
752.486;25033.746;  462.476;27842.850
753.057;26265.357;  533.474;27845.008
753.628;26088.369;  485.473;27728.107
754.199;24819.381;  483.471;27381.086
754.770;24503.844;  560.469;25882.203
755.341;24165.805;  609.468;25886.184
755.912;24013.217;  508.466;26050.861
756.483;24116.979;  564.464;26798.779
757.054;23004.939;  533.462;27048.238
757.625;22785.102;  470.461;26294.838
758.195;23441.813;  436.459;26142.076
758.766;23112.574;  534.457;26392.234
759.337;23119.137;  432.456;26334.594
759.907;23557.447;  436.454;27579.652
760.478;23957.959;  497.452;28352.770
761.048;24048.121;  566.450;27325.088
761.619;24018.684;  553.449;26460.428
762.189;23392.795;  490.447;26029.826
762.760;22526.605;  588.445;26430.145
763.330;21341.918;  548.444;26670.902
763.900;20805.629;  537.442;26603.021
764.471;20832.391;  468.440;25542.740
765.041;21204.402;  599.438;24358.459
765.611;21549.115;  540.437;23991.297
766.181;22218.877;  538.435;24470.236
766.751;22305.389;  542.433;24845.975
767.321;21151.199;  474.432;24533.633
767.891;20123.912;  499.430;24916.492
768.461;20065.572;  532.428;24776.771
769.031;19083.936;  503.427;24757.988
769.601;17885.596;  591.425;24181.088
770.171;17280.508;  421.423;23670.387
770.741;17662.320;  467.421;22960.045
771.311;18442.582;  568.420;22917.523
771.880;18292.344;  445.418;23562.941
772.450;17787.504;  487.416;24216.500
773.020;17637.117;  424.415;24140.398
773.589;17685.178;  493.413;24414.857
774.159;17511.289;  462.411;23858.717
774.729;17142.252;  480.409;22942.135
775.298;15630.863;  485.408;22324.033
775.867;14875.975;  494.406;21140.313
776.437;15194.036;  512.404;20838.092
777.006;15259.448;  443.403;20599.510
777.576;15142.210;  528.401;20508.809
778.145;15471.571;  558.399;20732.947
778.714;15952.133;  529.398;21062.465
779.283;15582.095;  558.396;20949.664
779.853;15538.656;  481.394;20508.623
780.422;15938.068;  526.392;20649.082
780.991;15748.080;  553.391;21527.520
781.560;15253.191;  606.389;22632.658
782.129;14818.303;  543.387;23048.277
782.698;14817.114;  606.386;23438.555
783.267;15173.426;  519.384;23267.734
783.836;15482.988;  536.382;22415.133
784.404;15093.899;  443.380;20443.152
784.973;14468.011;  387.379;19699.150
785.542;14053.423;  495.377;19763.828
786.111;14389.984;  591.375;20341.408
786.679;14776.496;  534.374;20207.967
787.248;14227.208;  423.372;19516.465
787.817;14275.119;  503.370;18900.363
788.385;14420.281;  571.369;17879.121
788.954;13558.143;  423.367;17658.301
789.522;13719.404;  605.365;17788.879
790.090;14423.916;  433.363;18118.277
790.659;14981.078;  493.362;18338.736
791.227;15265.789;  505.360;18508.615
791.795;14789.451;  533.358;17898.254
792.364;13457.913;  476.357;17295.133
792.932;13239.624;  532.355;16822.051
793.500;13735.636;  508.353;17040.148
794.068;13861.048;  416.352;17179.787
794.636;13672.709;  478.350;16664.246
795.204;12688.171;  432.348;16524.545
795.772;12380.633;  462.346;17274.564
796.340;12804.444;  484.345;17891.002
796.908;12913.306;  442.343;17648.561
797.476;13058.168;  447.341;17064.080
798.044;13051.479;  400.340;16672.777
798.612;12744.991;  499.338;17023.996
799.180;12362.053;  534.336;16561.615
799.747;12414.914;  503.334;15962.773
800.315;13028.227;  439.333;15296.992
800.883;13502.638;  398.331;14801.771
801.450;12784.050;  515.329;14534.430
802.018;12133.261;  525.328;14173.248
802.585;12129.572;  497.326;14029.547
803.153;12212.234;  497.324;13836.846
803.720;12319.146;  507.322;13567.324
804.287;12432.558;  479.321;13360.622
804.855;12288.220;  582.319;13681.981
805.422;12029.081;  490.317;13536.560
805.989;11878.893;  482.316;13355.958
806.556;12210.604;  479.314;13747.896
807.124;12624.416;  525.312;13987.376
807.691;12339.828;  443.311;14038.674
808.258;12220.640;  505.309;14120.152
808.825;12487.351;  541.307;13860.111
809.392;12603.313;  625.305;13268.790
809.959;12395.574;  562.304;12680.389
810.526;12231.736;  651.302;12427.308
811.093;11818.447;  582.300;12030.105
811.659;11605.909;  502.299;11653.664
812.226;11700.121;  500.297;11637.183
812.793;11698.183;  539.295;11611.521
813.360;11323.494;  467.293;11885.181
813.926;11535.706;  535.292;12770.539
814.493;11404.668;  441.290;12677.638
815.060;11250.529;  420.288;11974.336
815.626;10826.341;  421.287;11594.715
816.193;10747.902;  517.285;11579.474
816.759;10870.864;  453.283;11666.972
817.325;10962.226;  404.282;11325.530
817.892;11185.737;  526.280;11105.369
818.458;11220.100;  534.278;10843.928
819.024;11048.511;  578.276;10714.406
819.591;10322.622;  528.275;10469.165
820.157; 9983.784;  434.273;10235.523
820.723;10681.846;  525.271;10847.563
821.289;11181.107;  791.270;11040.980
821.855;10406.520;  537.268;10357.100
822.421;10259.631;  444.266; 9978.918
822.987;10256.942;  433.264; 9754.177
823.553;10155.254;  512.263;10065.755
824.119;10187.916;  543.261;10036.294
824.685;10124.327;  600.259;10029.192
825.251; 9830.739;  542.258;10199.230
825.816; 9502.150;  622.256; 9820.189
826.382; 9067.612;  556.254; 9297.248
826.948; 8864.874;  585.253; 9381.347
827.513; 8844.786;  504.251; 9450.726
828.079; 8907.548;  469.249; 9472.444
828.645; 9101.509;  543.247; 9292.643
829.210; 8969.671;  434.246; 9065.341
829.776; 8514.683;  570.244; 9132.620
830.341; 8149.094;  564.242; 9092.878
830.906; 8340.956;  584.241; 9078.557
831.472; 8143.368;  449.239; 8534.535
832.037; 8010.429;  581.237; 8677.874
832.602; 7677.391;  467.235; 8628.692
833.167; 7656.302;  540.234; 8879.031
833.733; 7695.614;  556.232; 9189.790
834.298; 7439.526;  412.230; 9052.608
834.863; 7588.637;  522.229; 8895.087
835.428; 7784.749;  565.227; 8824.266
835.993; 7854.411;  546.225; 8845.385
836.558; 7618.022;  548.224; 8888.563
837.123; 7585.484;  686.222; 8966.582
837.688; 7236.946;  521.220; 8617.860
838.253; 7074.058;  510.218; 8590.699
838.817; 7017.469;  487.217; 8443.797
839.382; 7445.681;  608.215; 8799.356
839.947; 7603.643;  537.213; 8810.595
840.511; 7557.204;  610.212; 8796.394
841.076; 6924.466;  413.210; 8347.231
841.641; 6801.777;  549.208; 8224.330
842.205; 6798.589;  548.206; 8223.349
842.770; 6838.801;  632.205; 8622.107
843.334; 6858.762;  493.203; 8410.386
843.898; 6915.424;  500.201; 8337.465
844.463; 6986.835;  598.200; 8506.283
845.027; 6776.497;  512.198; 8280.962
845.591; 6572.159;  562.196; 8231.141
846.156; 6539.670;  490.195; 7969.179
846.720; 6502.682;  592.193; 7768.278
847.284; 6334.844;  497.191; 7630.957
847.848; 6312.605;  570.189; 7472.395
848.412; 6313.817;  553.188; 7437.394
848.976; 6416.179;  637.186; 7674.592
849.540; 6428.891;  660.184; 7836.011
850.104; 6291.452;  600.183; 7913.669
850.668; 6199.914;  405.181; 7694.508
851.232; 6255.525;  426.179; 7756.887
851.796; 6228.437;  506.177; 7926.545
852.359; 5976.149;  596.176; 7827.844
852.923; 5881.661;  574.174; 7641.163
853.487; 5891.872;  578.172; 7342.501
854.050; 5660.184;  371.171; 7042.820
854.614; 5594.795;  501.169; 7151.338
855.177; 5565.307;  542.167; 7105.077
855.741; 5521.319;  555.166; 6989.675
856.304; 5389.130;  575.164; 6596.634
856.868; 5104.192;  453.162; 6356.272
857.431; 5095.954;  522.160; 6468.571
857.995; 5167.016;  497.159; 6373.210
858.558; 5330.577;  551.157; 6324.448
859.121; 5308.889;  567.155; 6408.327
859.684; 5160.451;  516.154; 6347.886
860.247; 5099.162;  519.152; 6321.264
860.810; 4974.024;  486.150; 6301.903
861.374; 5274.286;  667.148; 6607.881
861.937; 5373.697;  465.147; 6408.200
862.500; 5499.509;  506.145; 6572.639
863.062; 5352.670;  431.143; 6387.297
863.625; 5257.432;  541.142; 6190.836
864.188; 5009.444;  497.140; 5807.254
864.751; 4910.755;  498.138; 5682.413
865.314; 4809.317;  535.136; 5547.492
865.876; 4831.579;  555.135; 5500.150
866.439; 4930.440;  556.133; 5415.909
867.002; 4880.902;  688.131; 5501.567
867.564; 4754.364;  595.130; 5413.946
868.127; 4548.325;  527.128; 5160.325
868.689; 4425.087;  549.126; 5133.183
869.252; 4428.799;  596.125; 5252.382
869.814; 4473.811;  474.123; 5297.141
870.377; 4637.022;  533.121; 5390.919
870.939; 4853.884;  773.119; 5599.898
871.501; 4689.795;  550.118; 5248.336
872.063; 4456.557;  398.116; 4854.235
872.626; 4276.569;  419.114; 4817.074
873.188; 4368.380;  534.113; 4987.732
873.750; 4365.042;  532.111; 4868.651
874.312; 4411.504;  525.109; 4779.330
874.874; 4491.315;  635.107; 4866.348
875.436; 4304.277;  571.106; 4718.887
875.998; 4196.789;  631.104; 4660.005
876.560; 3978.450;  552.102; 4462.964
877.122; 3622.562;  466.101; 4145.042
877.683; 3569.624;  609.099; 4056.481
878.245; 3403.335;  493.097; 3950.740
878.807; 3422.747;  561.096; 4058.958
879.369; 3422.909;  448.094; 3954.677
879.930; 3457.470;  447.092; 3941.495
880.492; 3571.532;  620.090; 4067.014
881.053; 3513.794;  462.089; 3859.633
881.615; 3463.405;  468.087; 3776.071
882.176; 3334.617;  518.085; 3734.750
882.738; 3336.829;  603.084; 3678.489
883.299; 3118.740;  378.082; 3405.407
883.860; 2999.702;  423.080; 3351.106
884.422; 2966.214;  552.078; 3394.044
884.983; 2815.325;  481.077; 3166.443
885.544; 2858.987;  559.075; 3189.802
886.105; 2760.849;  525.073; 3160.360
886.666; 2651.860;  513.072; 3093.059
887.227; 2554.922;  450.070; 2941.957
887.788; 2574.283;  528.068; 2974.836
888.349; 2365.495;  437.067; 2721.214
888.910; 2407.107;  596.065; 2696.493
889.471; 2312.819;  546.063; 2560.172
890.032; 2274.630;  541.061; 2558.190
890.593; 2268.742;  574.060; 2567.669
891.153; 2162.104;  504.058; 2460.307
891.714; 2014.265;  434.056; 2372.046
892.275; 1947.677;  417.055; 2309.505
892.835; 2019.188;  590.053; 2382.543
893.396; 1967.750;  565.051; 2295.502
893.956; 1828.362;  484.049; 2162.420
894.517; 1763.974;  533.048; 2125.439
895.077; 1719.885;  534.046; 2086.978
895.638; 1745.447;  637.044; 2126.316
896.198; 1511.958;  486.043; 1838.275
896.758; 1578.320;  580.041; 1892.813
897.319; 1486.282;  512.039; 1792.232
897.879; 1461.344;  535.038; 1762.751
898.439; 1326.455;  418.036; 1661.149
898.999; 1412.217;  543.034; 1781.468
899.559; 1363.478;  534.032; 1703.347
900.119; 1238.340;  450.031; 1537.525
900.679; 1332.902;  647.029; 1638.384
901.239; 1247.813;  565.027; 1527.902
901.799; 1176.825;  493.026; 1456.441
902.359; 1098.887;  463.024; 1357.140
902.919; 1092.448;  481.022; 1331.118
903.479; 1073.760;  501.020; 1317.257
904.038; 1024.972;  436.019; 1262.595
904.598;  928.733;  380.017; 1152.034
905.158; 1007.145;  497.015; 1240.893
905.717; 1016.007;  492.014; 1233.691
906.277; 1001.168;  518.012; 1217.330
906.836; 1001.530;  544.010; 1222.408
907.396;  985.042;  552.009; 1193.047
907.955;  972.453;  574.007; 1182.526
908.515;  909.815;  476.005; 1099.364
909.074;  904.627;  497.003; 1092.863
909.633;  897.288;  514.002; 1069.121
910.192; 1001.600;  642.000; 1196.460
910.752;  869.450;  493.000; 1029.960
911.311;  845.150;  464.000; 1009.780
911.870;  829.550;  506.000;  971.460
912.429;  926.200;  575.000; 1094.080
912.988;  911.800;  599.000; 1081.060
913.547;  799.550;  460.000;  940.380
914.106;  847.400;  552.000;  999.420
914.665;  838.100;  519.000;  984.020
915.224;  885.050;  619.000; 1035.760
915.782;  786.850;  487.000;  922.560
916.341;  892.700;  600.000; 1049.840
916.900;  787.000;  510.000;  925.260
917.458;  759.600;  455.000;  884.220
918.017;  803.350;  535.000;  942.600
918.576;  778.750;  513.000;  904.440
919.134;  716.300;  450.000;  837.980
919.693;  772.250;  491.000;  893.060
920.251;  754.200;  503.000;  876.500
920.809;  719.300;  471.000;  839.580
921.368;  764.100;  478.000;  885.360
921.926;  734.050;  443.000;  842.940
922.484;  784.000;  529.000;  903.360
923.042;  770.600;  491.000;  880.340
923.601;  858.500;  585.000;  998.680
924.159;  810.450;  547.000;  935.560
924.717;  725.750;  485.000;  841.080
925.275;  773.650;  524.000;  903.240
925.833;  681.900;  377.000;  779.320
926.391;  812.700;  520.000;  938.380
926.949;  744.000;  479.000;  857.680
927.506;  784.100;  552.000;  903.500
928.064;  760.050;  504.000;  877.580
928.622;  761.900;  500.000;  880.100
929.180;  711.550;  446.000;  814.180
929.737;  702.850;  435.000;  808.540
930.295;  809.350;  532.000;  928.480
930.853;  731.250;  448.000;  849.100
931.410;  710.900;  426.000;  821.120
931.968;  825.900;  539.000;  940.660
932.525;  791.250;  517.000;  909.380
933.082;  704.800;  406.000;  811.440
933.640;  813.150;  538.000;  925.900
934.197;  776.450;  503.000;  886.360
934.754;  784.000;  461.000;  897.780
935.312;  753.600;  466.000;  863.340
935.869;  884.850;  577.000; 1012.980
936.426;  753.550;  497.000;  872.800
936.983;  776.950;  465.000;  889.020
937.540;  729.050;  422.000;  838.280
938.097;  818.750;  529.000;  940.120
938.654;  784.950;  502.000;  898.860
939.211;  830.250;  512.000;  952.480
939.768;  802.900;  478.000;  915.420
940.324;  786.450;  467.000;  904.200
940.881;  766.300;  476.000;  878.500
941.438;  883.150;  581.000; 1021.200
941.995;  868.600;  560.000;  992.560
942.551;  766.050;  439.000;  875.620
943.108;  810.100;  529.000;  937.920
943.664;  759.050;  450.000;  869.340
944.221;  948.450;  628.000; 1088.140
944.777;  747.200;  418.000;  869.680
945.334;  768.300;  471.000;  884.840
945.890;  819.750;  486.000;  946.480
946.446;  820.000;  505.000;  947.020
947.003;  833.200;  508.000;  964.940
947.559;  921.850;  643.000; 1063.040
948.115;  887.100;  581.000; 1026.540
948.671;  838.150;  511.000;  967.300
949.227;  751.550;  412.000;  859.560
949.783;  738.500;  428.000;  858.900
950.339;  850.400;  531.000;  991.000
950.895;  868.200;  552.000; 1023.840
951.451;  792.800;  501.000;  925.280
952.007;  845.650;  544.000;  998.540
952.563;  797.700;  498.000;  937.780
953.118;  780.450;  475.000;  904.940
953.674;  816.250;  504.000;  935.780
954.230;  811.450;  500.000;  949.640
954.785;  794.450;  484.000;  936.640
955.341;  848.750;  535.000;  998.160
955.897;  712.450;  393.000;  834.660
956.452;  811.900;  524.000;  953.840
957.008;  919.000;  616.000; 1083.640
957.563;  865.350;  554.000; 1009.540
958.118;  754.100;  473.000;  877.700
958.674;  807.100;  524.000;  946.780
959.229;  863.900;  572.000; 1013.980
959.784;  715.200;  402.000;  832.400
960.339;  860.100;  563.000; 1001.280
960.894;  831.150;  532.000;  963.760
961.449;  725.000;  452.000;  859.960
962.004; 1039.900;  790.000; 1212.840
962.559;  736.950;  455.000;  860.140
963.114;  632.950;  347.000;  742.480
963.669;  774.500;  502.000;  915.500
964.224;  741.850;  452.000;  874.340
964.779;  704.800;  409.000;  828.420
965.334;  857.950;  609.000; 1017.860
965.888;  734.700;  475.000;  875.360
966.443;  816.650;  549.000;  972.380
966.998;  677.700;  396.000;  819.460
967.552;  764.900;  480.000;  908.380
968.107;  732.300;  482.000;  868.300
968.661;  776.550;  539.000;  922.440
969.216;  727.550;  484.000;  856.280
969.770;  782.900;  516.000;  917.200
970.324;  784.200;  530.000;  923.140
970.879;  803.700;  579.000;  947.180
971.433;  808.250;  549.000;  952.720
971.987;  759.900;  520.000;  895.340
972.541;  774.600;  520.000;  917.100
973.095;  850.850;  583.000; 1009.460
973.649;  672.600;  449.000;  809.480
974.203;  695.000;  446.000;  829.040
974.757;  718.300;  492.000;  855.220
975.311;  735.250;  480.000;  872.600
975.865;  747.300;  511.000;  881.820
976.419;  720.800;  504.000;  857.400
976.973;  721.850;  461.000;  849.620
977.526;  806.550;  556.000;  949.920
978.080;  670.250;  424.000;  796.780
978.634;  778.350;  567.000;  921.320
979.187;  763.350;  526.000;  905.400
979.741;  864.000;  608.000; 1018.380
980.294;  661.650;  412.000;  789.160
980.848;  598.850;  396.000;  717.220
981.401;  700.650;  475.000;  816.540
981.955;  722.000;  513.000;  844.300
982.508;  630.950;  410.000;  746.340
983.061;  779.550;  556.000;  915.260
983.615;  678.250;  454.000;  798.800
984.168;  650.200;  425.000;  770.080
984.721;  743.600;  508.000;  880.760
985.274;  726.200;  533.000;  867.500
985.827;  702.100;  518.000;  834.220
986.380;  603.700;  385.000;  721.340
986.933;  733.050;  524.000;  864.800
987.486;  718.750;  522.000;  861.920
988.039;  727.800;  558.000;  863.100
988.591;  756.100;  575.000;  893.260
989.144;  617.500;  434.000;  737.260
989.697;  634.150;  452.000;  758.740
990.250;  718.350;  543.000;  858.100
990.802;  634.400;  437.000;  755.860
991.355;  821.600;  669.000;  974.880
991.907;  725.950;  572.500;  864.320
992.460;  630.300;  476.000;  753.760
993.012;  637.100;  481.000;  749.540
993.565;  595.050;  436.000;  711.360
994.117;  803.050;  670.000;  950.780
994.669;  582.200;  441.000;  701.320
995.221;  672.200;  512.000;  791.920
995.774;  668.950;  512.000;  787.580
996.326;  624.150;  496.000;  740.220
996.878;  702.950;  571.000;  838.420
997.430;  592.750;  464.000;  699.860
997.982;  632.000;  508.000;  750.140
998.534;  626.400;  486.000;  739.060
999.086;  621.250;  486.000;  738.220
999.638;  558.850;  423.000;  661.380
1000.190;  585.100;  492.000;  699.320
1000.741;  621.450;  536.000;  742.700
1001.293;  572.150;  431.000;  686.020
1001.845;  561.450;  465.000;  676.640
1002.396;  633.450;  539.000;  743.400
1002.948;  621.100;  528.000;  737.400
1003.500;  600.650;  494.000;  723.780
1004.051;  772.600;  675.000;  907.580
1004.603;  675.900;  574.000;  791.820
1005.154;  513.000;  419.000;  608.980
1005.705;  606.400;  524.000;  723.960
1006.257;  586.650;  501.000;  707.220
1006.808;  581.800;  507.000;  685.460
1007.359;  649.350;  575.000;  763.240
1007.910;  541.000;  453.000;  646.640
1008.461;  626.550;  542.000;  732.940
1009.013;  497.050;  412.000;  588.340
1009.564;  669.100;  619.000;  793.520
1010.115;  500.850;  427.000;  597.040
1010.665;  509.150;  434.000;  602.160
1011.216;  561.500;  497.000;  667.920
1011.767;  591.350;  512.000;  697.920
1012.318;  617.600;  549.000;  736.980
1012.869;  572.600;  497.000;  679.000
1013.419;  508.100;  411.000;  603.120
1013.970;  566.350;  490.000;  666.640
1014.521;  513.200;  456.000;  620.620
1015.071;  567.650;  476.000;  670.380
1015.622;  539.300;  496.000;  635.460
1016.172;  503.250;  455.000;  596.820
1016.723;  516.600;  473.000;  614.380
1017.273;  511.250;  454.000;  604.160
1017.823;  547.600;  496.000;  650.340
1018.374;  516.250;  440.000;  611.760
1018.924;  603.000;  559.000;  716.880
1019.474;  601.250;  544.000;  718.880
1020.024;  551.350;  487.000;  657.580
1020.574;  606.050;  570.000;  726.160
1021.124;  569.000;  528.000;  673.580
1021.674;  468.700;  401.000;  559.120
1022.224;  598.500;  522.000;  708.940
1022.774;  565.500;  489.000;  668.820
1023.324;  636.900;  593.000;  753.520
1023.874;  739.600;  660.000;  875.760
1024.423;  506.550;  456.000;  613.700
1024.973;  508.000;  487.000;  610.760
1025.523;  513.950;  452.000;  620.960
1026.072;  510.050;  448.000;  606.420
1026.622;  566.100;  518.000;  675.740
1027.172;  609.250;  580.000;  715.660
1027.721;  499.250;  437.000;  601.220
1028.270;  558.450;  500.000;  663.400
1028.820;  534.850;  494.000;  638.080
1029.369;  513.250;  477.000;  612.700
1029.918;  545.850;  464.000;  649.840
1030.468;  468.250;  402.000;  564.780
1031.017;  530.450;  494.000;  634.800
1031.566;  513.950;  491.000;  608.900
1032.115;  582.200;  536.000;  694.500
1032.664;  500.850;  418.000;  596.480
1033.213;  620.350;  567.000;  735.420
1033.762;  535.350;  497.000;  635.620
1034.311;  572.250;  507.000;  677.220
1034.860;  582.800;  534.000;  691.000
1035.408;  612.800;  543.000;  722.720
1035.957;  613.600;  537.000;  719.540
1036.506;  436.450;  374.000;  530.800
1037.055;  714.400;  665.000;  844.320
1037.603;  563.450;  507.000;  664.000
1038.152;  454.800;  395.000;  534.760
1038.700;  490.900;  410.000;  585.740
1039.249;  577.300;  531.000;  681.220
1039.797;  529.900;  482.000;  633.360
1040.345;  596.350;  545.000;  705.420
1040.894;  528.700;  461.000;  625.300
1041.442;  534.600;  503.000;  632.200
1041.990;  475.500;  399.000;  559.160
1042.538;  447.100;  399.000;  536.180
1043.087;  471.800;  464.000;  570.860
1043.635;  573.300;  524.000;  670.500
1044.183;  501.850;  453.000;  586.400
1044.731;  476.800;  427.000;  576.000
1045.279;  564.300;  519.000;  674.920
1045.827;  758.650;  714.000;  892.400
1046.374;  427.000;  398.000;  515.420
1046.922;  500.550;  474.000;  590.580
1047.470;  585.550;  541.000;  691.300
1048.018;  550.950;  509.000;  647.960
1048.565;  608.550;  575.000;  708.600
1049.113;  460.800;  401.000;  557.000
1049.660;  525.650;  485.000;  629.660
1050.208;  573.550;  554.000;  675.640
1050.755;  518.400;  468.000;  606.580
1051.303;  581.050;  547.000;  686.820
1051.850;  529.800;  494.000;  635.120
1052.397;  388.050;  340.000;  473.960
1052.945;  515.100;  513.000;  617.760
1053.492;  629.100;  618.000;  741.840
1054.039;  605.750;  561.000;  720.180
1054.586;  464.500;  397.000;  557.240
1055.133;  582.200;  528.000;  693.140
1055.680;  544.500;  508.000;  646.620
1056.227;  452.550;  385.000;  542.780
1056.774;  669.700;  624.000;  794.980
1057.321;  438.000;  400.000;  523.260
1057.868;  543.700;  536.000;  651.320
1058.415;  546.000;  502.000;  651.980
1058.961;  569.850;  510.000;  678.940
1059.508;  539.900;  472.000;  643.820
1060.055;  491.550;  456.000;  581.780
1060.601;  521.900;  470.000;  624.300
1061.148;  520.350;  495.000;  616.820
1061.694;  503.400;  463.000;  592.580
1062.241;  503.800;  498.000;  596.320
1062.787;  553.900;  554.000;  663.140
1063.334;  688.500;  665.000;  808.560
1063.880;  564.250;  531.000;  668.360
1064.426;  602.750;  583.000;  706.820
1064.972;  503.850;  461.000;  601.340
1065.518;  470.400;  415.000;  566.640
1066.065;  527.700;  502.000;  624.460
1066.611;  508.000;  483.000;  598.800
1067.157;  538.500;  509.000;  641.860
1067.703;  563.950;  514.000;  668.480
1068.249;  513.250;  475.000;  605.220
1068.794;  528.500;  499.000;  626.880
1069.340;  484.400;  447.000;  578.960
1069.886;  496.850;  470.000;  590.700
1070.432;  447.100;  405.000;  541.720
1070.977;  501.250;  477.000;  601.080
1071.523;  473.600;  431.000;  573.060
1072.068;  488.850;  441.000;  582.000
1072.614;  437.650;  387.000;  527.760
1073.160;  575.750;  556.000;  687.040
1073.705;  481.450;  488.000;  572.520
1074.250;  471.200;  479.000;  559.900
1074.796;  553.350;  502.000;  655.160
1075.341;  564.000;  525.000;  664.100
1075.886;  498.550;  470.000;  594.240
1076.431;  544.350;  514.000;  649.880
1076.976;  536.650;  491.000;  639.220
1077.521;  486.250;  463.000;  583.080
1078.067;  484.750;  450.000;  579.400
1078.612;  559.750;  537.000;  661.620
1079.156;  504.900;  481.000;  601.540
1079.701;  582.650;  543.000;  693.260
1080.246;  586.950;  599.000;  696.300
1080.791;  529.500;  485.000;  625.020
1081.336;  554.950;  502.000;  659.320
1081.880;  550.000;  526.000;  649.680
1082.425;  487.000;  421.000;  573.480
1082.970;  601.850;  577.000;  717.040
1083.514;  501.250;  482.000;  597.000
1084.059;  490.250;  455.000;  586.720
1084.603;  481.500;  437.000;  565.840
1085.147;  545.550;  496.000;  645.220
1085.692;  608.600;  566.000;  716.800
1086.236;  416.950;  419.000;  503.140
1086.780;  634.200;  621.000;  751.440
1087.325;  552.350;  518.000;  654.620
1087.869;  514.250;  482.000;  610.700
1088.413;  594.200;  567.000;  705.040
1088.957;  449.950;  457.000;  543.400
1089.501;  649.400;  634.000;  766.640
1090.045;  610.300;  611.000;  726.480
1090.589;  479.900;  453.000;  569.920
1091.133;  566.850;  513.000;  673.340
1091.676;  499.200;  450.000;  591.940
1092.220;  506.300;  481.000;  600.920
1092.764;  599.900;  579.000;  706.960
1093.307;  562.400;  526.000;  673.780
1093.851;  468.650;  442.000;  556.540
1094.395;  574.500;  571.000;  683.140
1094.938;  531.800;  516.000;  632.520
1095.482;  462.950;  455.000;  559.800
1096.025;  603.350;  565.000;  710.880
1096.568;  661.850;  631.000;  779.280
1097.112;  421.300;  405.000;  508.180
1097.655;  496.550;  518.000;  603.000
1098.198;  500.850;  473.000;  600.180
1098.741;  515.850;  490.000;  612.860
1099.285;  548.050;  531.000;  657.300
1099.828;  363.100;  330.000;  439.400
1100.371;  510.600;  497.000;  608.160
1100.914;  569.400;  552.000;  682.660
1101.457;  574.150;  555.000;  679.900
1101.999;  479.600;  447.000;  584.680
1102.542;  538.650;  491.000;  641.440
1103.085;  553.050;  548.000;  658.500
1103.628;  637.200;  642.000;  762.060
1104.170;  484.600;  463.000;  588.280
1104.713;  542.850;  529.000;  646.700
1105.256;  468.600;  403.000;  557.440
1105.798;  414.350;  400.000;  499.980
1106.341;  613.700;  603.000;  728.900
1106.883;  435.900;  393.000;  521.340
1107.425;  557.900;  534.000;  668.180
1107.968;  514.850;  517.000;  612.380
1108.510;  577.050;  572.000;  684.960
1109.052;  514.550;  473.000;  612.620
1109.594;  461.600;  408.000;  554.440
1110.136;  538.400;  509.000;  643.220
1110.679;  522.550;  552.000;  633.080
1111.221;  507.100;  462.000;  604.460
1111.763;  463.250;  444.000;  559.220
1112.304;  455.350;  428.000;  547.140
1112.846;  560.650;  564.000;  666.240
1113.388;  800.150;  770.000;  942.180
1113.930;  584.800;  589.000;  694.200
1114.472;  509.350;  488.000;  606.540
1115.013;  456.600;  424.000;  551.280
1115.555;  494.000;  486.000;  587.100
1116.097;  477.050;  459.000;  579.480
1116.638;  567.200;  582.000;  684.600
1117.180;  556.400;  526.000;  667.740
1117.721;  480.750;  456.000;  568.580
1118.262;  568.850;  521.000;  677.960
1118.804;  529.800;  529.000;  637.340
1119.345;  484.950;  461.000;  578.400
1119.886;  591.550;  601.000;  704.040
1120.427;  492.450;  478.000;  589.020
1120.969;  496.050;  480.000;  597.920
1121.510;  464.050;  442.000;  563.060
1122.051;  605.750;  598.000;  723.580
1122.592;  555.100;  514.000;  655.420
1123.133;  457.600;  473.000;  547.940
1123.673;  587.150;  586.000;  706.480
1124.214;  509.200;  511.000;  612.460
1124.755;  545.950;  537.000;  639.460
1125.296;  520.400;  505.000;  627.320
1125.836;  581.550;  570.000;  691.500
1126.377;  504.200;  467.000;  599.660
1126.918;  521.150;  505.000;  614.980
1127.458;  514.700;  528.000;  622.220
1127.999;  546.700;  548.000;  656.980
1128.539;  582.200;  545.000;  694.240
1129.079;  530.400;  527.000;  632.720
1129.620;  465.400;  440.000;  558.100
1130.160;  446.350;  456.000;  539.480
1130.700;  535.800;  512.000;  640.840
1131.240;  537.800;  546.000;  643.700
1131.781;  522.200;  535.000;  619.680
1132.321;  505.350;  504.000;  599.120
1132.861;  470.800;  446.000;  564.200
1133.401;  493.500;  484.000;  593.940
1133.941;  532.400;  551.000;  626.280
1134.481;  504.150;  505.000;  597.580
1135.020;  505.350;  488.000;  609.160
1135.560;  567.500;  567.000;  674.940
1136.100;  417.000;  398.000;  501.160
1136.640;  426.650;  411.000;  510.480
1137.179;  447.050;  428.000;  537.960
1137.719;  509.550;  486.000;  605.400
1138.258;  494.350;  501.000;  587.360
1138.798;  556.050;  547.000;  663.780
1139.337;  400.650;  369.000;  482.840
1139.877;  546.000;  524.000;  642.360
1140.416;  733.950;  763.000;  878.060
1140.955;  438.800;  404.000;  535.380
1141.494;  565.400;  559.000;  669.280
1142.034;  487.150;  482.000;  583.520
1142.573;  539.500;  560.000;  646.280
1143.112;  459.100;  469.000;  553.480
1143.651;  449.150;  452.000;  536.480
1144.190;  581.350;  551.000;  691.640
1144.729;  512.400;  479.000;  607.420
1145.267;  484.000;  500.000;  584.900
1145.806;  532.450;  544.000;  637.040
1146.345;  536.650;  528.000;  635.020
1146.884;  525.850;  499.000;  622.500
1147.422;  445.100;  443.000;  533.060
1147.961;  592.350;  580.000;  708.460
1148.500;  563.000;  556.000;  669.720
1149.038;  539.450;  532.000;  632.500
1149.577;  584.650;  607.000;  698.640
1150.115;  371.300;  325.000;  452.280
1150.653;  512.000;  512.000;  607.340
1151.192;  460.400;  456.000;  552.920
1151.730;  549.350;  562.000;  652.560
1152.268;  493.300;  471.000;  589.520
1152.806;  485.250;  494.000;  571.180
1153.344;  481.500;  484.000;  577.640
1153.882;  497.600;  494.000;  600.060
1154.421;  384.200;  363.000;  470.620
1154.958;  497.900;  501.000;  595.240
1155.496;  539.700;  553.000;  645.280
1156.034;  606.050;  600.000;  721.880
1156.572;  560.100;  537.000;  667.060
1157.110;  399.650;  367.000;  473.940
1157.647;  574.500;  576.000;  676.960
1158.185;  475.950;  484.000;  564.320
1158.723;  420.650;  412.000;  509.200
1159.260;  589.950;  588.000;  701.700
1159.798;  554.600;  555.000;  658.160
1160.335;  520.950;  536.000;  631.820

