gmr_left
Integration time [ms]: 384.568
Averaging Nr. [scans]: 20
Smoothing Nr. [pixels]: 0
Data measured with spectrometer [name]: 7414430SP
Wave   ;Sample   ;Dark     ;Reference
[nm]   ;[counts] ;[counts] ;[counts] 

288.544;  616.595;  568.515;  793.890
289.143;  526.926;  409.561;  681.602
289.742;  664.196;  554.563;  828.814
290.341;  628.268;  505.621;  789.841
290.940;  576.983;  470.651;  730.702
291.538;  707.732;  638.612;  881.108
292.137;  635.238;  534.599;  792.581
292.736;  793.618;  681.621;  975.101
293.335;  575.288;  510.669;  735.086
293.934;  618.224;  495.663;  781.677
294.532;  850.827;  741.656; 1031.958
295.131;  673.160;  595.746;  834.394
295.730;  654.483;  598.740;  809.588
296.328;  635.707;  543.748;  783.442
296.927;  632.356;  597.761;  779.652
297.525;  638.497;  550.746;  781.236
298.124;  522.543;  421.822;  654.009
298.722;  627.422;  559.769;  761.933
299.321;  576.577;  487.787;  708.597
299.919;  614.727;  498.805;  751.918
300.518;  563.007;  469.828;  689.338
301.116;  572.251;  504.786;  691.381
301.715;  601.772;  511.760;  730.222
302.313;  592.006;  453.771;  704.943
302.911;  611.210;  513.844;  733.830
303.509;  783.930;  690.770;  925.627
304.108;  642.457;  544.767;  760.383
304.706;  675.208;  555.763;  801.664
305.304;  675.123;  584.826;  796.707
305.902;  662.259;  580.759;  784.484
306.500;  617.281;  507.790;  728.200
307.098;  640.548;  522.797;  746.560
307.696;  662.882;  583.814;  780.432
308.294;  630.579;  558.798;  731.359
308.892;  652.549;  546.766;  759.769
309.490;  610.431;  509.809;  712.161
310.088;  675.617;  605.831;  788.444
310.686;  702.864;  599.777;  821.749
311.284;  665.380;  545.812;  766.040
311.882;  630.485;  537.830;  731.225
312.480;  599.471;  498.852;  697.167
313.078;  707.096;  628.829;  808.331
313.675;  606.131;  501.790;  691.600
314.273;  701.336;  596.854;  797.837
314.871;  516.624;  410.841;  589.829
315.468;  571.110;  515.844;  652.090
316.066;  605.510;  490.792;  694.427
316.664;  573.344;  490.855;  656.351
317.261;  787.575;  738.822;  910.128
317.859;  683.535;  589.840;  768.735
318.456;  729.840;  653.806;  830.096
319.054;  679.958;  615.833;  787.828
319.651;  667.176;  575.818;  759.928
320.249;  703.326;  657.818;  810.188
320.846;  629.606;  532.804;  714.286
321.443;  728.037;  658.817;  832.135
322.041;  702.520;  623.828;  812.315
322.638;  610.872;  561.821;  701.456
323.235;  583.456;  516.771;  665.683
323.833;  654.389;  582.791;  740.354
324.430;  533.764;  431.805;  615.900
325.027;  773.408;  719.791;  876.855
325.624;  577.023;  430.747;  644.532
326.221;  616.047;  470.764;  689.717
326.818;  727.885;  639.788;  818.332
327.415;  659.885;  529.732;  748.828
328.012;  618.264;  477.725;  690.585
328.609;  652.369;  521.743;  731.389
329.206;  701.404;  601.760;  778.621
329.803;  659.570;  539.767;  737.841
330.400;  635.354;  498.741;  704.260
330.997;  728.213;  568.762;  817.147
331.594;  706.871;  600.815;  788.185
332.191;  661.038;  534.767;  728.722
332.787;  754.038;  605.786;  844.463
333.384;  679.398;  523.840;  763.093
333.981;  725.931;  572.897;  815.687
334.578;  635.053;  498.876;  708.378
335.174;  647.437;  497.878;  731.469
335.771;  742.078;  594.918;  836.456
336.367;  637.549;  505.953;  710.631
336.964;  713.978;  578.927;  793.266
337.561;  650.402;  529.941;  731.112
338.157;  799.219;  709.000;  911.916
338.754;  701.539;  608.020;  796.589
339.350;  640.597;  535.012;  722.493
339.946;  672.970;  575.978;  773.135
340.543;  733.880;  657.060;  846.136
341.139;  627.876;  529.094;  720.836
341.735;  683.486;  610.102;  772.593
342.332;  600.804;  532.087;  691.472
342.928;  692.557;  574.076;  795.394
343.524;  661.087;  581.108;  761.684
344.120;  645.217;  531.115;  738.562
344.716;  614.749;  541.060;  723.717
345.313;  687.840;  584.063;  795.342
345.909;  534.945;  435.072;  627.336
346.505;  639.383;  573.043;  740.247
347.101;  702.963;  594.029;  827.864
347.697;  668.922;  585.008;  785.398
348.293;  526.712;  442.033;  627.244
348.889;  625.581;  578.023;  745.914
349.485;  576.550;  517.010;  688.205
350.081;  660.162;  577.005;  772.592
350.676;  586.365;  521.040;  691.606
351.272;  680.944;  594.987;  809.530
351.868;  654.391;  566.970;  780.497
352.464;  606.180;  564.990;  723.932
353.059;  550.870;  473.015;  646.017
353.655;  652.367;  584.980;  777.063
354.251;  640.355;  553.958;  759.845
354.846;  617.302;  534.006;  740.646
355.442;  624.308;  561.039;  753.071
356.038;  621.322;  554.998;  751.708
356.633;  599.966;  546.993;  728.594
357.229;  602.854;  547.008;  724.757
357.824;  580.473;  515.022;  703.600
358.420;  562.117;  529.017;  679.726
359.015;  563.486;  508.004;  695.357
359.610;  631.077;  579.992;  763.920
360.206;  491.704;  418.041;  603.240
360.801;  526.097;  482.003;  646.503
361.396;  601.520;  522.978;  725.975
361.992;  530.423;  504.022;  668.220
362.587;  533.171;  512.048;  670.160
363.182;  553.175;  531.024;  689.631
363.777;  605.095;  559.010;  738.242
364.372;  594.065;  578.016;  737.314
364.967;  547.245;  518.048;  680.744
365.563;  657.205;  623.995;  815.567
366.158;  551.978;  502.007;  685.161
366.753;  518.232;  489.992;  649.263
367.348;  595.268;  579.023;  746.056
367.942;  553.972;  519.008;  697.298
368.537;  603.032;  552.029;  754.245
369.132;  561.004;  517.017;  703.428
369.727;  502.670;  477.052;  638.079
370.322;  457.399;  430.032;  580.186
370.917;  573.265;  528.040;  710.646
371.511;  691.213;  666.020;  861.834
372.106;  623.095;  615.048;  776.964
372.701;  454.732;  439.062;  585.988
373.296;  692.816;  671.012;  863.135
373.890;  509.021;  486.048;  647.840
374.485;  546.201;  535.071;  691.199
375.079;  594.616;  582.021;  738.685
375.674;  651.491;  650.017;  812.970
376.268;  541.152;  528.049;  691.759
376.863;  453.594;  451.103;  580.327
377.457;  518.673;  514.031;  662.490
378.052;  603.210;  601.059;  764.884
378.646;  586.465;  571.058;  741.167
379.240;  572.779;  552.064;  721.176
379.835;  499.669;  532.037;  636.978
380.429;  434.666;  427.045;  562.557
381.023;  618.093;  597.070;  779.205
381.617;  533.027;  514.081;  680.106
382.212;  543.811;  518.036;  685.303
382.806;  605.373;  610.031;  760.690
383.400;  531.920;  550.067;  672.281
383.994;  520.034;  557.073;  664.870
384.588;  553.608;  535.029;  697.701
385.182;  581.867;  584.999;  726.624
385.776;  564.982;  539.019;  706.875
386.370;  537.666;  545.054;  681.968
386.964;  539.547;  553.031;  684.155
387.558;  478.942;  448.003;  598.360
388.152;  544.103;  545.045;  681.959
388.745;  657.484;  664.039;  814.707
389.339;  602.444;  623.014;  747.642
389.933;  554.659;  552.998;  695.370
390.527;  691.288;  720.024;  859.029
391.120;  457.932;  481.071;  595.318
391.714;  566.876;  588.039;  711.633
392.308;  631.680;  622.008;  780.253
392.901;  497.856;  497.037;  642.460
393.495;  465.126;  508.057;  595.414
394.089;  610.174;  649.046;  760.452
394.682;  561.619;  534.047;  697.188
395.275;  577.000;  577.047;  719.927
395.869;  533.343;  567.061;  667.314
396.462;  499.671;  512.039;  616.609
397.056;  628.410;  631.003;  776.621
397.649;  590.394;  601.057;  731.575
398.242;  569.964;  583.025;  712.645
398.836;  615.905;  630.013;  766.408
399.429;  502.075;  486.015;  631.041
400.022;  536.323;  536.059;  665.902
400.615;  661.020;  675.043;  805.609
401.208;  551.193;  580.009;  691.451
401.802;  568.253;  569.036;  699.329
402.395;  558.223;  535.059;  683.502
402.988;  562.230;  588.070;  696.627
403.581;  519.886;  560.023;  646.878
404.174;  558.974;  573.994;  686.568
404.767;  514.310;  529.040;  638.583
405.360;  504.677;  506.062;  621.445
405.953;  617.898;  648.008;  759.034
406.545;  586.613;  583.996;  725.342
407.138;  495.439;  507.039;  618.350
407.731;  489.745;  507.029;  613.303
408.324;  539.435;  560.975;  660.554
408.917;  558.467;  577.999;  681.864
409.509;  615.467;  618.027;  740.396
410.102;  519.917;  542.051;  643.948
410.695;  540.910;  557.970;  665.758
411.287;  482.930;  482.981;  599.821
411.880;  472.146;  456.988;  585.421
412.472;  487.443;  511.027;  613.092
413.065;  524.939;  563.006;  629.408
413.657;  472.543;  484.963;  576.678
414.250;  532.898;  525.966;  646.681
414.842;  553.365;  576.997;  676.353
415.434;  468.084;  475.969;  570.463
416.027;  528.045;  535.922;  652.196
416.619;  584.980;  592.962;  713.400
417.211;  478.883;  500.964;  599.352
417.804;  511.684;  540.914;  628.499
418.396;  506.785;  513.965;  607.643
418.988;  540.712;  525.944;  659.238
419.580;  456.889;  484.978;  568.276
420.172;  446.875;  456.944;  536.196
420.764;  557.371;  578.913;  672.482
421.356;  529.631;  544.925;  636.898
421.948;  550.066;  552.947;  677.661
422.540;  570.284;  580.890;  680.027
423.132;  503.574;  498.887;  600.641
423.724;  458.895;  455.931;  561.267
424.316;  507.894;  504.916;  621.345
424.908;  494.969;  498.869;  591.517
425.500;  533.587;  548.869;  647.978
426.092;  530.353;  551.867;  648.268
426.683;  569.498;  583.896;  684.836
427.275;  536.427;  540.848;  641.471
427.867;  558.506;  557.841;  668.948
428.458;  609.350;  592.842;  732.344
429.050;  571.072;  569.867;  680.749
429.642;  621.049;  615.845;  743.124
430.233;  468.887;  460.832;  569.356
430.825;  611.125;  584.837;  724.809
431.416;  574.842;  594.868;  698.241
432.008;  540.801;  538.823;  651.723
432.599;  540.151;  555.814;  656.073
433.190;  537.524;  534.859;  637.670
433.782;  490.316;  480.858;  590.395
434.373;  739.989;  771.800;  884.765
434.964;  498.398;  467.798;  602.920
435.556;  531.205;  533.836;  634.537
436.147;  627.962;  617.822;  758.490
436.738;  572.260;  584.816;  701.099
437.329;  600.239;  599.763;  721.723
437.920;  553.489;  563.852;  666.688
438.511;  458.286;  440.845;  564.526
439.103;  511.563;  524.772;  623.998
439.694;  566.191;  546.759;  681.583
440.285;  627.621;  607.773;  764.432
440.876;  706.461;  709.798;  845.738
441.466;  472.420;  436.786;  575.162
442.057;  553.728;  554.731;  665.814
442.648;  627.526;  617.772;  746.255
443.239;  513.326;  531.791;  620.477
443.830;  587.067;  578.742;  704.958
444.421;  543.714;  482.716;  655.474
445.011;  572.148;  529.779;  693.619
445.602;  609.675;  592.785;  743.126
446.193;  403.882;  379.734;  488.117
446.783;  524.320;  497.697;  640.397
447.374;  569.232;  563.772;  692.759
447.964;  588.284;  602.773;  713.770
448.555;  681.313;  654.692;  822.742
449.145;  549.711;  533.728;  662.853
449.736;  670.285;  656.742;  803.179
450.326;  589.115;  545.740;  713.626
450.917;  555.834;  549.684;  675.324
451.507;  500.345;  455.692;  600.661
452.097;  614.568;  600.710;  746.267
452.688;  608.892;  534.700;  742.160
453.278;  459.076;  444.693;  566.840
453.868;  663.045;  618.665;  793.550
454.458;  535.594;  473.696;  651.141
455.048;  585.097;  546.703;  711.783
455.639;  463.956;  439.663;  567.096
456.229;  582.136;  544.649;  710.694
456.819;  617.260;  579.648;  751.158
457.409;  639.434;  604.657;  773.993
457.999;  609.558;  557.628;  737.505
458.589;  563.276;  525.632;  686.606
459.179;  598.194;  550.641;  717.658
459.769;  507.661;  487.663;  627.099
460.358;  664.537;  644.621;  797.262
460.948;  570.654;  522.625;  689.503
461.538;  542.446;  488.618;  660.677
462.128;  540.536;  481.649;  664.934
462.717;  585.965;  569.572;  710.326
463.307;  583.183;  556.553;  705.846
463.897;  540.371;  479.614;  656.942
464.486;  694.060;  640.657;  837.128
465.076;  607.180;  582.592;  733.776
465.666;  537.875;  516.547;  652.900
466.255;  651.521;  592.604;  785.651
466.845;  549.650;  481.612;  666.749
467.434;  600.625;  576.589;  725.873
468.023;  546.917;  457.573;  658.357
468.613;  587.276;  526.632;  713.946
469.202;  528.899;  470.579;  646.507
469.791;  607.427;  542.548;  737.811
470.381;  608.946;  556.544;  742.813
470.970;  585.605;  486.551;  711.099
471.559;  600.857;  565.571;  733.291
472.148;  549.554;  481.536;  675.737
472.738;  636.004;  569.527;  765.466
473.327;  511.758;  430.534;  637.529
473.916;  610.967;  547.564;  737.446
474.505;  617.233;  552.520;  751.703
475.094;  668.712;  578.500;  806.570
475.683;  656.709;  568.521;  797.699
476.272;  600.647;  507.526;  730.632
476.861;  576.487;  481.495;  706.754
477.449;  596.064;  502.441;  728.487
478.038;  566.815;  477.526;  692.513
478.627;  588.363;  504.533;  714.852
479.216;  625.301;  583.468;  769.441
479.805;  646.027;  548.450;  783.375
480.393;  835.722;  759.493; 1008.945
480.982;  721.430;  614.513;  874.501
481.571;  705.041;  628.447;  858.333
482.159;  578.713;  453.444;  705.386
482.748;  678.540;  548.478;  821.385
483.336;  709.282;  621.459;  858.209
483.925;  633.120;  539.473;  774.373
484.513;  626.426;  520.408;  758.962
485.102;  659.257;  554.482;  810.965
485.690;  829.288;  716.421; 1011.050
486.278;  815.670;  684.421;  979.329
486.867;  670.657;  541.430;  809.662
487.455;  749.167;  578.448;  898.229
488.043;  613.869;  447.449;  748.361
488.631;  830.472;  712.404; 1005.079
489.220;  753.567;  584.396;  908.626
489.808;  619.045;  424.435;  741.415
490.396;  765.296;  593.422;  914.645
490.984;  685.590;  505.423;  830.161
491.572;  795.398;  618.405;  940.315
492.160;  780.569;  526.449;  919.081
492.748;  756.787;  526.453;  884.341
493.336;  882.211;  620.406; 1019.693
493.924;  841.087;  534.383;  958.077
494.512;  975.434;  599.427; 1066.638
495.100; 1031.301;  569.449; 1103.280
495.687; 1148.380;  637.387; 1206.373
496.275; 1156.500;  490.398; 1150.796
496.863; 1306.238;  517.440; 1281.171
497.451; 1421.645;  507.445; 1386.805
498.038; 1590.991;  560.377; 1556.729
498.626; 1847.070;  520.384; 1741.407
499.214; 2227.170;  543.421; 2016.609
499.801; 2518.908;  548.436; 2220.633
500.389; 2748.197;  465.391; 2312.494
500.976; 3271.722;  564.395; 2744.849
501.564; 3559.278;  530.437; 3148.565
502.151; 3705.484;  369.446; 3515.999
502.738; 4282.930;  520.406; 3971.274
503.326; 4993.771;  490.375; 4403.796
503.913; 5641.405;  530.410; 5161.749
504.500; 6227.238;  553.430; 5986.420
505.088; 6870.939;  476.427; 6381.201
505.675; 7834.104;  520.377; 6925.547
506.262; 8732.002;  513.446; 7619.060
506.849; 9586.453;  535.414; 8733.969
507.436;10202.777;  590.385; 9790.121
508.023;10204.561;  518.391; 9985.472
508.610;10786.020;  592.412;10434.618
509.197;12040.340;  546.469;11198.435
509.784;13234.463;  543.417;12391.194
510.371;14169.999;  433.368;13603.713
510.958;14707.497;  505.437;14426.586
511.545;14681.079;  634.424;15243.775
512.132;15165.270;  547.379;15945.876
512.719;16064.854;  475.410;16340.369
513.305;17790.012;  478.430;18011.766
513.892;19322.752;  600.455;19754.971
514.479;20083.117;  549.396;20967.805
515.066;20138.895;  615.402;22299.793
515.652;20045.990;  523.404;22908.660
516.239;20692.781;  603.420;23798.875
516.825;22245.348;  464.409;25567.275
517.412;24414.057;  686.393;28154.959
517.998;24573.572;  501.432;28344.111
518.585;24700.584;  509.446;27134.219
519.171;25755.188;  535.383;27268.576
519.758;26580.840;  440.395;28964.129
520.344;27793.963;  573.417;30664.494
520.930;29642.127;  456.459;32550.605
521.516;32725.600;  596.383;35422.895
522.103;34482.277;  639.408;38280.004
522.689;34234.516;  498.450;37835.117
523.275;33876.895;  614.439;37288.613
523.861;34465.383;  552.413;37281.395
524.447;35734.324;  614.384;37846.949
525.033;35505.172;  601.436;38321.949
525.619;33667.641;  461.452;38579.285
526.205;33200.527;  483.435;40622.875
526.791;34498.781;  528.398;42258.836
527.377;35870.023;  509.449;42966.902
527.963;37188.367;  570.470;42018.949
528.549;38751.180;  580.452;42476.828
529.135;38526.461;  481.428;41854.852
529.721;36963.691;  524.432;41237.711
530.306;36404.730;  714.452;41259.445
530.892;36791.898;  517.433;41506.047
531.478;39382.676;  526.417;43559.613
532.063;41167.020;  462.445;47695.563
532.649;43175.453;  662.479;50808.324
533.235;44091.902;  487.442;51787.500
533.820;44639.184;  612.394;52145.035
534.406;42928.980;  511.477;51133.488
534.991;41491.492;  497.448;49996.805
535.576;39791.809;  517.432;48882.852
536.162;38535.633;  729.426;46942.285
536.747;39108.738;  444.482;45711.746
537.333;40728.934;  487.479;48510.180
537.918;43078.484;  520.466;50439.891
538.503;42715.387;  498.421;50863.711
539.088;41665.691;  570.460;50906.922
539.673;43544.555;  530.467;52621.965
540.259;44825.223;  483.443;52368.094
540.844;44347.820;  434.436;50879.109
541.429;44570.957;  655.487;52077.777
542.014;45374.590;  451.502;52716.695
542.599;43784.836;  569.453;52363.281
543.184;42820.527;  489.483;53187.137
543.769;44214.375;  467.486;54697.605
544.354;43812.094;  493.480;53913.914
544.938;41785.094;  571.467;49680.164
545.523;39626.648;  652.446;47386.277
546.108;41515.117;  518.488;49151.949
546.693;43656.773;  533.513;51384.637
547.278;41374.387;  570.458;51853.254
547.862;39496.586;  517.429;51173.750
548.447;39051.906;  574.495;51691.395
549.031;37890.000;  497.523;52456.703
549.616;36433.762;  562.461;52714.516
550.201;35498.824;  489.473;52414.598
550.785;37086.363;  590.491;52355.059
551.370;39950.035;  465.503;54589.453
551.954;43613.609;  594.493;58267.348
552.538;45061.355;  577.473;59062.176
553.123;46391.156;  462.501;58115.285
553.707;48099.699;  511.538;56556.285
554.291;47800.379;  614.485;56201.668
554.876;46231.848;  623.498;55335.762
555.460;45276.984;  508.520;54155.703
556.044;46087.645;  493.553;53721.484
556.628;46618.102;  527.507;53731.016
557.212;45626.668;  603.462;54312.531
557.796;43990.082;  537.507;53797.773
558.380;43717.367;  548.549;56145.984
558.964;44762.699;  560.481;57277.930
559.548;46993.547;  445.483;56459.641
560.132;47525.633;  485.524;54434.543
560.716;47518.238;  460.547;54800.617
561.300;48766.824;  460.475;57606.945
561.884;47532.352;  560.512;58972.445
562.467;47193.293;  560.545;57327.570
563.051;47358.785;  540.544;54962.434
563.635;45840.664;  540.533;52594.473
564.219;42702.609;  504.511;50610.410
564.802;42904.773;  572.550;49551.180
565.386;43869.359;  516.541;48370.953
565.969;43861.535;  604.488;48178.871
566.553;44627.355;  698.527;49957.305
567.136;43573.000;  608.551;50369.594
567.720;44126.410;  542.569;49492.004
568.303;45674.777;  564.544;50616.352
568.887;47388.172;  548.534;50727.148
569.470;47758.137;  555.580;51698.379
570.053;45209.336;  572.573;52122.078
570.637;42921.754;  491.514;52536.438
571.220;42742.059;  588.510;51186.098
571.803;43297.906;  680.584;51032.762
572.386;44007.199;  495.561;49609.887
572.969;44104.688;  526.538;48285.926
573.552;44612.953;  531.549;47624.285
574.135;43340.570;  458.591;45498.641
574.718;40133.480;  474.559;41970.434
575.301;38925.430;  487.068;41447.137
575.884;37717.383;  499.577;40923.836
576.467;39435.609;  559.569;45267.723
577.050;39495.695;  575.580;48175.543
577.633;39106.805;  663.538;47729.328
578.216;40014.824;  503.574;47579.793
578.799;44488.777;  523.600;47820.996
579.381;45505.289;  669.567;48115.551
579.964;41683.152;  503.538;47333.766
580.547;39190.148;  537.579;46668.969
581.129;38818.785;  621.610;44466.141
581.712;39271.355;  551.621;44164.922
582.294;41123.969;  522.570;46477.855
582.877;39805.879;  703.563;48244.254
583.459;38448.660;  544.619;47437.895
584.042;40774.484;  520.618;46943.219
584.624;40943.445;  507.624;46792.227
585.206;40922.320;  407.575;46557.250
585.789;39750.543;  477.611;45793.773
586.371;38402.816;  552.638;43836.391
586.953;37037.039;  598.608;42972.492
587.536;35360.273;  635.574;42487.211
588.118;35690.418;  543.679;42086.414
588.700;36688.133;  662.631;43389.930
589.282;38144.852;  586.599;43646.039
589.864;37819.168;  523.612;43438.109
590.446;38175.207;  407.647;43151.926
591.028;37529.543;  543.639;42781.867
591.610;37639.398;  439.615;42839.098
592.192;37406.289;  565.599;42820.402
592.774;35289.297;  475.629;40724.277
593.356;35043.461;  501.668;39874.789
593.937;35147.965;  523.605;39980.648
594.519;36001.906;  611.612;42069.633
595.101;36714.316;  460.657;42976.031
595.683;36970.230;  509.666;44084.441
596.264;38056.781;  540.611;43478.797
596.846;39518.035;  517.630;43803.672
597.427;38250.863;  487.679;42986.934
598.009;37159.063;  472.681;42832.219
598.591;36151.008;  598.632;42580.086
599.172;35561.738;  500.640;43061.805
599.753;35172.723;  454.676;41691.469
600.335;35219.828;  637.693;40692.520
600.916;34678.133;  552.666;39982.422
601.498;35088.891;  559.652;40318.617
602.079;35942.480;  534.676;40670.609
602.660;34692.309;  531.685;41450.898
603.241;33638.777;  434.637;41137.738
603.823;33888.012;  514.648;38868.797
604.404;35478.352;  451.688;38182.785
604.985;37327.355;  509.695;38078.047
605.566;38073.824;  595.634;38056.633
606.147;36697.473;  537.708;37020.418
606.728;35087.219;  457.716;37883.359
607.309;34424.234;  483.697;38748.273
607.890;34492.797;  526.661;38850.230
608.471;34677.340;  469.685;37457.918
609.051;34488.949;  536.742;36066.457
609.632;33812.594;  458.735;35991.074
610.213;34798.078;  541.693;37402.641
610.794;36332.016;  503.699;38383.363
611.374;34973.684;  568.707;40562.387
611.955;34438.016;  444.725;38533.727
612.536;35887.324;  573.691;36951.789
613.116;35371.941;  524.698;37197.891
613.697;35318.063;  515.744;38411.125
614.277;35756.902;  494.753;38673.938
614.858;32687.799;  516.696;37075.863
615.438;30389.656;  536.691;35092.906
616.019;30026.973;  622.756;33666.301
616.599;30862.680;  423.733;34189.023
617.179;33932.270;  475.710;36952.047
617.760;34339.250;  708.686;39582.574
618.340;32398.561;  498.765;38943.977
618.920;31701.717;  653.742;37594.156
619.500;31774.396;  495.768;37866.938
620.080;31743.309;  479.741;37869.043
620.660;31702.842;  468.802;36868.617
621.241;31868.613;  491.762;36352.309
621.821;31567.701;  592.749;35459.520
622.401;31713.111;  587.742;35207.414
622.980;32902.387;  463.779;35980.422
623.560;32479.184;  460.758;37351.328
624.140;29958.623;  557.741;34388.582
624.720;30019.725;  554.748;32368.764
625.300;32009.469;  485.743;32638.629
625.880;33570.656;  503.780;34599.035
626.459;32532.563;  556.753;36831.738
627.039;31368.145;  444.772;38299.098
627.619;32505.904;  703.802;38289.574
628.198;34282.188;  572.791;37220.695
628.778;35463.426;  551.748;37632.563
629.357;35752.953;  448.751;38003.012
629.937;34800.598;  496.798;38402.039
630.516;31894.898;  605.794;37868.801
631.096;30603.635;  498.751;35760.410
631.675;29885.043;  625.817;35225.219
632.254;29887.508;  508.833;35130.289
632.834;31621.461;  534.822;35794.570
633.413;32567.119;  638.771;35788.922
633.992;31893.016;  587.820;34532.863
634.571;31748.666;  576.844;33590.113
635.151;31620.316;  476.831;34943.863
635.730;31260.504;  511.775;35352.523
636.309;31465.623;  583.793;35366.605
636.888;30892.740;  593.820;36165.637
637.467;31198.313;  450.842;37515.902
638.046;32269.857;  646.791;39288.695
638.625;32619.760;  649.820;38279.699
639.204;32776.488;  541.850;37741.598
639.782;33362.656;  526.878;38364.551
640.361;32676.914;  639.809;36740.621
640.940;32029.672;  503.807;34950.082
641.519;31550.729;  532.805;34137.398
642.097;30741.584;  556.804;35654.258
642.676;31253.041;  571.802;35637.957
643.255;31499.748;  489.800;36567.074
643.833;32890.355;  569.799;37809.434
644.412;34373.512;  490.797;37337.293
644.990;34811.719;  534.795;37018.531
645.569;34369.875;  555.793;36518.469
646.147;33212.781;  588.792;36186.430
646.726;31684.488;  552.790;36267.688
647.304;30732.494;  509.788;36647.625
647.882;30423.000;  425.787;39286.742
648.461;30217.658;  559.785;39157.703
649.039;30538.664;  588.783;35412.883
649.617;29843.121;  570.781;34744.918
650.195;29515.777;  570.780;35403.098
650.773;29813.584;  470.778;35053.797
651.352;29603.490;  391.776;33756.816
651.930;28813.197;  420.775;31868.773
652.508;28183.504;  603.773;33121.551
653.086;27894.660;  545.771;33564.793
653.663;29428.316;  497.770;34054.668
654.241;30371.174;  453.768;35693.309
654.819;31412.029;  476.766;36422.906
655.397;33002.785;  443.764;38213.484
655.975;34069.992;  530.763;39507.625
656.553;35416.699;  618.761;39498.223
657.130;34051.457;  478.759;40395.480
657.708;34227.012;  552.758;39242.020
658.286;33102.121;  525.756;38920.020
658.863;32673.227;  545.754;40202.898
659.441;33366.781;  541.752;39677.938
660.018;34330.289;  509.751;40413.355
660.596;34560.645;  406.749;39931.414
661.173;34646.754;  500.747;39604.531
661.750;34488.508;  486.746;39700.070
662.328;34138.117;  564.744;39292.809
662.905;32494.072;  510.742;38235.648
663.482;30386.029;  513.741;36212.305
664.060;29717.236;  514.739;35944.945
664.637;29956.543;  585.737;35170.785
665.214;30433.500;  550.735;34197.523
665.791;31763.705;  529.734;34549.520
666.368;32119.012;  530.732;35118.578
666.945;30465.818;  585.730;36019.418
667.522;30185.375;  470.729;36048.438
668.099;31176.232;  505.727;36243.914
668.676;31055.338;  532.725;35958.875
669.253;31065.846;  629.723;37384.730
669.830;29959.602;  578.722;36779.629
670.407;28901.008;  537.720;35231.289
670.984;28642.766;  544.718;35544.270
671.560;29623.271;  560.717;35466.867
672.137;29172.729;  498.715;34280.863
672.714;29376.586;  579.713;34632.863
673.290;30011.291;  548.711;35135.422
673.867;28885.498;  482.710;36114.480
674.443;29154.805;  428.708;36152.859
675.020;30645.711;  541.706;35327.238
675.596;31475.619;  521.705;35795.176
676.173;30541.574;  436.703;35430.355
676.749;30589.932;  385.701;33549.516
677.326;30134.139;  432.700;32210.012
677.902;31009.795;  468.698;32068.871
678.478;30116.051;  424.696;32583.891
679.054;28844.908;  772.694;32088.928
679.631;28759.715;  548.693;30978.848
680.207;29753.922;  660.691;33160.887
680.783;29962.828;  412.689;35570.363
681.359;30002.885;  522.688;36125.184
681.935;29560.490;  540.686;35240.922
682.511;29251.148;  540.684;34429.961
683.087;28821.805;  558.682;34463.680
683.663;28492.012;  498.681;34648.898
684.239;28134.918;  433.679;34546.457
684.815;27919.424;  576.677;35586.375
685.390;28600.881;  664.676;35821.895
685.966;29157.537;  527.674;35085.871
686.542;28427.244;  491.672;34198.230
687.118;28530.551;  520.671;32847.707
687.693;29008.906;  578.669;32794.027
688.269;27919.764;  516.667;33072.367
688.844;27100.971;  567.665;33141.664
689.420;27523.477;  519.664;33965.742
689.995;27606.434;  626.662;34655.523
690.571;27747.689;  615.660;33576.742
691.146;29142.146;  510.659;32657.219
691.722;28457.154;  535.657;32526.979
692.297;27185.160;  459.655;33014.617
692.872;26839.268;  475.654;34012.254
693.448;26080.773;  459.652;34237.434
694.023;26058.980;  537.650;34142.672
694.598;26635.236;  531.648;34132.031
695.173;26718.143;  519.647;34205.250
695.748;25512.900;  415.645;32882.488
696.323;26422.957;  537.643;32864.906
696.898;27331.764;  566.642;33170.004
697.473;26743.670;  437.640;32432.984
698.048;26730.275;  517.638;31649.303
698.623;27838.684;  453.636;30778.141
699.198;28623.539;  536.635;31140.119
699.773;29545.146;  455.633;31764.299
700.348;29302.104;  474.631;31780.816
700.922;29061.410;  520.630;32046.375
701.497;28771.865;  512.628;32603.574
702.072;28966.773;  594.626;34799.871
702.646;29423.930;  601.625;35793.172
703.221;29469.236;  531.623;35201.590
703.795;28868.441;  466.621;34764.527
704.370;29273.748;  386.619;34307.367
704.944;29338.955;  523.618;33509.887
705.519;29403.762;  558.616;31388.584
706.093;29696.119;  467.614;31340.104
706.668;29507.775;  533.613;32630.281
707.242;29421.883;  587.611;32728.779
707.816;28472.838;  511.609;32947.238
708.390;28052.145;  521.607;33277.855
708.965;28741.803;  565.606;33834.336
709.539;28744.959;  518.604;33709.273
710.113;27801.465;  525.602;33044.313
710.687;28208.371;  551.601;31953.992
711.261;28327.828;  468.599;30505.949
711.835;27806.135;  462.597;30262.369
712.409;27601.791;  413.595;31254.447
712.983;29187.299;  424.594;32754.986
713.557;31218.105;  423.592;34018.824
714.131;31439.111;  500.590;34579.625
714.704;30538.518;  495.589;33890.262
715.278;29634.824;  530.587;33531.102
715.852;29719.531;  564.585;33601.660
716.425;29486.188;  663.584;33515.117
716.999;28971.895;  432.582;33185.555
717.573;29683.451;  567.580;33905.996
718.146;30382.607;  615.578;35199.293
718.720;30181.514;  518.577;35060.551
719.293;30422.121;  565.575;34973.230
719.867;30412.477;  470.573;36394.449
720.440;30321.635;  603.572;36663.008
721.013;30430.541;  519.570;35102.426
721.587;29111.047;  405.568;33985.266
722.160;28703.004;  562.566;33524.965
722.733;28299.961;  547.565;32987.043
723.306;29685.967;  513.563;33066.301
723.880;30718.924;  565.561;33399.500
724.453;30627.180;  640.560;33468.297
725.026;29668.688;  497.558;33816.637
725.599;28736.895;  539.556;32797.996
726.172;28805.451;  558.555;33187.434
726.745;30348.557;  538.553;35136.613
727.318;30077.914;  584.551;35751.730
727.891;28910.170;  534.549;35890.430
728.463;27996.027;  535.548;34822.090
729.036;27453.834;  447.546;32895.086
729.609;26740.391;  473.544;31823.225
730.182;26973.096;  580.543;31445.283
730.754;27886.354;  407.541;32373.223
731.327;29366.910;  545.539;33676.820
731.900;29335.916;  421.537;33417.000
732.472;28846.773;  542.536;31978.498
733.045;28591.879;  502.534;30368.777
733.617;27355.637;  437.532;30574.215
734.190;26975.043;  572.531;31280.975
734.762;27178.699;  534.529;31674.412
735.334;27638.105;  527.527;31247.291
735.907;27167.863;  547.526;29876.211
736.479;26210.020;  576.524;29808.488
737.051;26845.576;  544.522;30233.547
737.623;28791.832;  559.520;31469.086
738.195;29781.639;  477.519;31784.225
738.768;30159.496;  389.517;32120.523
739.340;29875.652;  500.515;32094.342
739.912;29925.059;  596.514;31312.680
740.484;29494.016;  543.512;31946.238
741.056;29574.123;  498.510;32984.059
741.628;30772.229;  476.508;33897.715
742.199;29806.586;  596.507;33213.016
742.771;28333.492;  444.505;31369.113
743.343;28651.600;  475.503;31865.473
743.915;29003.656;  503.502;32388.631
744.487;28484.213;  586.500;31079.568
745.058;27317.369;  562.498;30570.107
745.630;26398.275;  564.497;29970.127
746.201;25930.182;  475.495;29186.766
746.773;25995.789;  553.493;28805.723
747.344;25374.494;  515.491;29591.223
747.916;25158.801;  541.490;31412.201
748.487;25620.209;  572.488;32194.898
749.059;26369.465;  453.486;32533.719
749.630;26671.172;  480.485;32158.518
750.201;26074.928;  523.483;30855.395
750.773;25603.936;  478.481;28622.555
751.344;24684.791;  514.479;28405.732
751.915;23603.248;  512.478;28461.551
752.486;24097.004;  462.476;27842.850
753.057;25029.961;  533.474;27845.008
753.628;24671.367;  485.473;27728.107
754.199;23549.023;  483.471;27381.086
754.770;23160.182;  560.469;25882.203
755.341;22766.637;  609.468;25886.184
755.912;22873.594;  508.466;26050.861
756.483;23030.051;  564.464;26798.779
757.054;22305.357;  533.462;27048.238
757.625;22178.564;  470.461;26294.838
758.195;22701.271;  436.459;26142.076
758.766;22652.977;  534.457;26392.234
759.337;22419.084;  432.456;26334.594
759.907;23311.740;  436.454;27579.652
760.478;23564.396;  497.452;28352.770
761.048;23761.754;  566.450;27325.088
761.619;24084.760;  553.449;26460.428
762.189;23469.418;  490.447;26029.826
762.760;22748.924;  588.445;26430.145
763.330;21870.029;  548.444;26670.902
763.900;21005.836;  537.442;26603.021
764.471;21119.393;  468.440;25542.740
765.041;21604.500;  599.438;24358.459
765.611;22353.256;  540.437;23991.297
766.181;22955.764;  538.435;24470.236
766.751;23008.820;  542.433;24845.975
767.321;22141.777;  474.432;24533.633
767.891;21607.184;  499.430;24916.492
768.461;21541.641;  532.428;24776.771
769.031;20415.596;  503.427;24757.988
769.601;19369.604;  591.425;24181.088
770.171;18508.010;  421.423;23670.387
770.741;18589.516;  467.421;22960.045
771.311;19155.373;  568.420;22917.523
771.880;19320.529;  445.418;23562.941
772.450;19397.137;  487.416;24216.500
773.020;19801.443;  424.415;24140.398
773.589;19820.850;  493.413;24414.857
774.159;19405.656;  462.411;23858.717
774.729;19225.912;  480.409;22942.135
775.298;17561.420;  485.408;22324.033
775.867;16848.676;  494.406;21140.313
776.437;17618.883;  512.404;20838.092
777.006;17761.988;  443.403;20599.510
777.576;17296.346;  528.401;20508.809
778.145;17586.352;  558.399;20732.947
778.714;18189.059;  529.398;21062.465
779.283;18432.266;  558.396;20949.664
779.853;18973.521;  481.394;20508.623
780.422;19737.979;  526.392;20649.082
780.991;19043.035;  553.391;21527.520
781.560;17774.291;  606.389;22632.658
782.129;17354.648;  543.387;23048.277
782.698;17887.855;  606.386;23438.555
783.267;18100.563;  519.384;23267.734
783.836;18306.469;  536.382;22415.133
784.404;17700.475;  443.380;20443.152
784.973;16943.932;  387.379;19699.150
785.542;16726.039;  495.377;19763.828
786.111;17254.445;  591.375;20341.408
786.679;17162.402;  534.374;20207.967
787.248;16587.607;  423.372;19516.465
787.817;16937.266;  503.370;18900.363
788.385;17034.471;  571.369;17879.121
788.954;16035.778;  423.367;17658.301
789.522;16161.135;  605.365;17788.879
790.090;17185.490;  433.363;18118.277
790.659;17714.547;  493.362;18338.736
791.227;17749.004;  505.360;18508.615
791.795;17013.012;  533.358;17898.254
792.364;15953.117;  476.357;17295.133
792.932;15763.124;  532.355;16822.051
793.500;16280.531;  508.353;17040.148
794.068;16986.287;  416.352;17179.787
794.636;16865.844;  478.350;16664.246
795.204;15570.751;  432.348;16524.545
795.772;15325.957;  462.346;17274.564
796.340;15632.764;  484.345;17891.002
796.908;15651.120;  442.343;17648.561
797.476;15747.327;  447.341;17064.080
798.044;15671.684;  400.340;16672.777
798.612;15207.641;  499.338;17023.996
799.180;14897.997;  534.336;16561.615
799.747;14620.453;  503.334;15962.773
800.315;14779.360;  439.333;15296.992
800.883;14727.066;  398.331;14801.771
801.450;14214.724;  515.329;14534.430
802.018;13600.780;  525.328;14173.248
802.585;13783.287;  497.326;14029.547
803.153;13837.993;  497.324;13836.846
803.720;13848.450;  507.322;13567.324
804.287;13853.557;  479.321;13360.622
804.855;13367.163;  582.319;13681.981
805.422;13064.470;  490.317;13536.560
805.989;13011.026;  482.316;13355.958
806.556;13481.633;  479.314;13747.896
807.124;13845.640;  525.312;13987.376
807.691;13732.196;  443.311;14038.674
808.258;13410.003;  505.309;14120.152
808.825;13354.109;  541.307;13860.111
809.392;13262.316;  625.305;13268.790
809.959;13144.272;  562.304;12680.389
810.526;12950.379;  651.302;12427.308
811.093;12485.936;  582.300;12030.105
811.659;11926.442;  502.299;11653.664
812.226;12077.699;  500.297;11637.183
812.793;11972.506;  539.295;11611.521
813.360;11778.313;  467.293;11885.181
813.926;11606.069;  535.292;12770.539
814.493;11540.075;  441.290;12677.638
815.060;11447.832;  420.288;11974.336
815.626;11364.839;  421.287;11594.715
816.193;11167.195;  517.285;11579.474
816.759;11224.852;  453.283;11666.972
817.325;11283.908;  404.282;11325.530
817.892;11371.615;  526.280;11105.369
818.458;11177.422;  534.278;10843.928
819.024;10947.278;  578.276;10714.406
819.591; 9968.535;  528.275;10469.165
820.157; 9801.892;  434.273;10235.523
820.723;10556.349;  525.271;10847.563
821.289;10845.005;  791.270;11040.980
821.855;10174.312;  537.268;10357.100
822.421; 9958.818;  444.266; 9978.918
822.987; 9919.774;  433.264; 9754.177
823.553; 9888.182;  512.263;10065.755
824.119; 9995.588;  543.261;10036.294
824.685; 9842.494;  600.259;10029.192
825.251; 9634.102;  542.258;10199.230
825.816; 9206.357;  622.256; 9820.189
826.382; 8658.215;  556.254; 9297.248
826.948; 8458.371;  585.253; 9381.347
827.513; 8529.678;  504.251; 9450.726
828.079; 8464.185;  469.249; 9472.444
828.645; 8507.190;  543.247; 9292.643
829.210; 8473.848;  434.246; 9065.341
829.776; 8461.354;  570.244; 9132.620
830.341; 8164.161;  564.242; 9092.878
830.906; 8233.167;  584.241; 9078.557
831.472; 8166.424;  449.239; 8534.535
832.037; 8096.230;  581.237; 8677.874
832.602; 7805.937;  467.235; 8628.692
833.167; 7820.594;  540.234; 8879.031
833.733; 7691.851;  556.232; 9189.790
834.298; 7510.257;  412.230; 9052.608
834.863; 7594.664;  522.229; 8895.087
835.428; 7645.420;  565.227; 8824.266
835.993; 7613.277;  546.225; 8845.385
836.558; 7447.034;  548.224; 8888.563
837.123; 7504.740;  686.222; 8966.582
837.688; 7189.997;  521.220; 8617.860
838.253; 7140.903;  510.218; 8590.699
838.817; 7258.910;  487.217; 8443.797
839.382; 7634.816;  608.215; 8799.356
839.947; 7883.023;  537.213; 8810.595
840.511; 7674.630;  610.212; 8796.394
841.076; 6973.636;  413.210; 8347.231
841.641; 6833.243;  549.208; 8224.330
842.205; 6976.000;  548.206; 8223.349
842.770; 7035.756;  632.205; 8622.107
843.334; 7051.463;  493.203; 8410.386
843.898; 7123.669;  500.201; 8337.465
844.463; 7228.526;  598.200; 8506.283
845.027; 7111.283;  512.198; 8280.962
845.591; 6944.540;  562.196; 8231.141
846.156; 6802.946;  490.195; 7969.179
846.720; 6974.502;  592.193; 7768.278
847.284; 6749.409;  497.191; 7630.957
847.848; 6570.866;  570.189; 7472.395
848.412; 6561.072;  553.188; 7437.394
848.976; 6524.379;  637.186; 7674.592
849.540; 6514.585;  660.184; 7836.011
850.104; 6506.842;  600.183; 7913.669
850.668; 6382.849;  405.181; 7694.508
851.232; 6380.505;  426.179; 7756.887
851.796; 6374.212;  506.177; 7926.545
852.359; 6304.069;  596.176; 7827.844
852.923; 6242.725;  574.174; 7641.163
853.487; 6181.782;  578.172; 7342.501
854.050; 5900.539;  371.171; 7042.820
854.614; 5812.945;  501.169; 7151.338
855.177; 5785.152;  542.167; 7105.077
855.741; 5844.908;  555.166; 6989.675
856.304; 5758.715;  575.164; 6596.634
856.868; 5333.171;  453.162; 6356.272
857.431; 5305.778;  522.160; 6468.571
857.995; 5477.785;  497.159; 6373.210
858.558; 5800.992;  551.157; 6324.448
859.121; 5739.348;  567.155; 6408.327
859.684; 5451.455;  516.154; 6347.886
860.247; 5062.761;  519.152; 6321.264
860.810; 4640.668;  486.150; 6301.903
861.374; 4514.024;  667.148; 6607.881
861.937; 4234.031;  465.147; 6408.200
862.500; 4296.238;  506.145; 6572.639
863.062; 4272.494;  431.143; 6387.297
863.625; 4336.101;  541.142; 6190.836
864.188; 4314.708;  497.140; 5807.254
864.751; 4332.414;  498.138; 5682.413
865.314; 4423.371;  535.136; 5547.492
865.876; 4576.877;  555.135; 5500.150
866.439; 4518.934;  556.133; 5415.909
867.002; 4551.341;  688.131; 5501.567
867.564; 4462.247;  595.130; 5413.946
868.127; 4376.804;  527.128; 5160.325
868.689; 4248.360;  549.126; 5133.183
869.252; 4189.867;  596.125; 5252.382
869.814; 4195.574;  474.123; 5297.141
870.377; 4448.630;  533.121; 5390.919
870.939; 4749.837;  773.119; 5599.898
871.501; 4500.943;  550.118; 5248.336
872.063; 4246.000;  398.116; 4854.235
872.626; 4234.757;  419.114; 4817.074
873.188; 4313.063;  534.113; 4987.732
873.750; 4347.370;  532.111; 4868.651
874.312; 4414.727;  525.109; 4779.330
874.874; 4578.683;  635.107; 4866.348
875.436; 4306.040;  571.106; 4718.887
875.998; 4128.196;  631.104; 4660.005
876.560; 3868.253;  552.102; 4462.964
877.122; 3521.360;  466.101; 4145.042
877.683; 3524.066;  609.099; 4056.481
878.245; 3382.723;  493.097; 3950.740
878.807; 3404.630;  561.096; 4058.958
879.369; 3283.236;  448.094; 3954.677
879.930; 3277.493;  447.092; 3941.495
880.492; 3478.949;  620.090; 4067.014
881.053; 3470.556;  462.089; 3859.633
881.615; 3431.013;  468.087; 3776.071
882.176; 3342.519;  518.085; 3734.750
882.738; 3343.776;  603.084; 3678.489
883.299; 3092.933;  378.082; 3405.407
883.860; 3046.989;  423.080; 3351.106
884.422; 3052.946;  552.078; 3394.044
884.983; 2842.752;  481.077; 3166.443
885.544; 2848.409;  559.075; 3189.802
886.105; 2798.716;  525.073; 3160.360
886.666; 2751.472;  513.072; 3093.059
887.227; 2589.979;  450.070; 2941.957
887.788; 2625.885;  528.068; 2974.836
888.349; 2432.042;  437.067; 2721.214
888.910; 2435.899;  596.065; 2696.493
889.471; 2315.905;  546.063; 2560.172
890.032; 2266.712;  541.061; 2558.190
890.593; 2295.769;  574.060; 2567.669
891.153; 2236.425;  504.058; 2460.307
891.714; 2116.982;  434.056; 2372.046
892.275; 1982.838;  417.055; 2309.505
892.835; 2033.545;  590.053; 2382.543
893.396; 1996.602;  565.051; 2295.502
893.956; 1884.958;  484.049; 2162.420
894.517; 1812.965;  533.048; 2125.439
895.077; 1747.071;  534.046; 2086.978
895.638; 1779.528;  637.044; 2126.316
896.198; 1544.235;  486.043; 1838.275
896.758; 1586.291;  580.041; 1892.813
897.319; 1488.898;  512.039; 1792.232
897.879; 1455.354;  535.038; 1762.751
898.439; 1349.461;  418.036; 1661.149
898.999; 1424.168;  543.034; 1781.468
899.559; 1356.674;  534.032; 1703.347
900.119; 1236.131;  450.031; 1537.525
900.679; 1332.988;  647.029; 1638.384
901.239; 1232.094;  565.027; 1527.902
901.799; 1177.951;  493.026; 1456.441
902.359; 1117.657;  463.024; 1357.140
902.919; 1105.814;  481.022; 1331.118
903.479; 1080.821;  501.020; 1317.257
904.038; 1024.727;  436.019; 1262.595
904.598;  936.684;  380.017; 1152.034
905.158; 1010.390;  497.015; 1240.893
905.717; 1018.347;  492.014; 1233.691
906.277; 1000.904;  518.012; 1217.330
906.836; 1008.160;  544.010; 1222.408
907.396;  991.467;  552.009; 1193.047
907.955;  981.524;  574.007; 1182.526
908.515;  923.180;  476.005; 1099.364
909.074;  900.387;  497.003; 1092.863
909.633;  890.893;  514.002; 1069.121
910.192; 1004.200;  642.000; 1196.460
910.752;  860.350;  493.000; 1029.960
911.311;  840.950;  464.000; 1009.780
911.870;  820.400;  506.000;  971.460
912.429;  918.450;  575.000; 1094.080
912.988;  907.500;  599.000; 1081.060
913.547;  786.600;  460.000;  940.380
914.106;  841.700;  552.000;  999.420
914.665;  825.050;  519.000;  984.020
915.224;  878.000;  619.000; 1035.760
915.782;  784.450;  487.000;  922.560
916.341;  883.450;  600.000; 1049.840
916.900;  780.650;  510.000;  925.260
917.458;  744.750;  455.000;  884.220
918.017;  797.000;  535.000;  942.600
918.576;  769.200;  513.000;  904.440
919.134;  713.450;  450.000;  837.980
919.693;  757.800;  491.000;  893.060
920.251;  743.300;  503.000;  876.500
920.809;  724.500;  471.000;  839.580
921.368;  756.600;  478.000;  885.360
921.926;  728.050;  443.000;  842.940
922.484;  762.400;  529.000;  903.360
923.042;  746.400;  491.000;  880.340
923.601;  862.950;  585.000;  998.680
924.159;  796.350;  547.000;  935.560
924.717;  720.150;  485.000;  841.080
925.275;  766.500;  524.000;  903.240
925.833;  665.550;  377.000;  779.320
926.391;  793.400;  520.000;  938.380
926.949;  734.900;  479.000;  857.680
927.506;  782.350;  552.000;  903.500
928.064;  751.600;  504.000;  877.580
928.622;  760.250;  500.000;  880.100
929.180;  697.800;  446.000;  814.180
929.737;  694.750;  435.000;  808.540
930.295;  803.700;  532.000;  928.480
930.853;  734.600;  448.000;  849.100
931.410;  701.750;  426.000;  821.120
931.968;  819.950;  539.000;  940.660
932.525;  789.550;  517.000;  909.380
933.082;  696.800;  406.000;  811.440
933.640;  787.650;  538.000;  925.900
934.197;  757.400;  503.000;  886.360
934.754;  765.150;  461.000;  897.780
935.312;  737.750;  466.000;  863.340
935.869;  862.150;  577.000; 1012.980
936.426;  748.300;  497.000;  872.800
936.983;  761.200;  465.000;  889.020
937.540;  714.900;  422.000;  838.280
938.097;  809.050;  529.000;  940.120
938.654;  782.600;  502.000;  898.860
939.211;  830.150;  512.000;  952.480
939.768;  788.550;  478.000;  915.420
940.324;  780.350;  467.000;  904.200
940.881;  763.400;  476.000;  878.500
941.438;  874.500;  581.000; 1021.200
941.995;  849.300;  560.000;  992.560
942.551;  751.200;  439.000;  875.620
943.108;  804.650;  529.000;  937.920
943.664;  761.150;  450.000;  869.340
944.221;  946.100;  628.000; 1088.140
944.777;  751.200;  418.000;  869.680
945.334;  768.800;  471.000;  884.840
945.890;  825.250;  486.000;  946.480
946.446;  823.000;  505.000;  947.020
947.003;  833.000;  508.000;  964.940
947.559;  921.150;  643.000; 1063.040
948.115;  882.300;  581.000; 1026.540
948.671;  840.700;  511.000;  967.300
949.227;  738.500;  412.000;  859.560
949.783;  738.800;  428.000;  858.900
950.339;  844.000;  531.000;  991.000
950.895;  868.050;  552.000; 1023.840
951.451;  778.100;  501.000;  925.280
952.007;  847.750;  544.000;  998.540
952.563;  792.700;  498.000;  937.780
953.118;  772.500;  475.000;  904.940
953.674;  797.500;  504.000;  935.780
954.230;  807.300;  500.000;  949.640
954.785;  802.150;  484.000;  936.640
955.341;  837.200;  535.000;  998.160
955.897;  704.500;  393.000;  834.660
956.452;  807.750;  524.000;  953.840
957.008;  924.800;  616.000; 1083.640
957.563;  865.600;  554.000; 1009.540
958.118;  748.600;  473.000;  877.700
958.674;  800.350;  524.000;  946.780
959.229;  865.250;  572.000; 1013.980
959.784;  712.150;  402.000;  832.400
960.339;  854.550;  563.000; 1001.280
960.894;  829.150;  532.000;  963.760
961.449;  732.600;  452.000;  859.960
962.004; 1034.950;  790.000; 1212.840
962.559;  728.550;  455.000;  860.140
963.114;  633.800;  347.000;  742.480
963.669;  773.550;  502.000;  915.500
964.224;  749.300;  452.000;  874.340
964.779;  702.800;  409.000;  828.420
965.334;  867.150;  609.000; 1017.860
965.888;  736.700;  475.000;  875.360
966.443;  825.550;  549.000;  972.380
966.998;  678.400;  396.000;  819.460
967.552;  763.350;  480.000;  908.380
968.107;  729.050;  482.000;  868.300
968.661;  781.950;  539.000;  922.440
969.216;  720.350;  484.000;  856.280
969.770;  776.550;  516.000;  917.200
970.324;  779.100;  530.000;  923.140
970.879;  801.000;  579.000;  947.180
971.433;  803.800;  549.000;  952.720
971.987;  760.600;  520.000;  895.340
972.541;  776.550;  520.000;  917.100
973.095;  855.450;  583.000; 1009.460
973.649;  673.200;  449.000;  809.480
974.203;  698.850;  446.000;  829.040
974.757;  725.450;  492.000;  855.220
975.311;  732.950;  480.000;  872.600
975.865;  746.050;  511.000;  881.820
976.419;  725.400;  504.000;  857.400
976.973;  718.650;  461.000;  849.620
977.526;  803.850;  556.000;  949.920
978.080;  672.550;  424.000;  796.780
978.634;  777.300;  567.000;  921.320
979.187;  774.000;  526.000;  905.400
979.741;  863.400;  608.000; 1018.380
980.294;  664.150;  412.000;  789.160
980.848;  605.900;  396.000;  717.220
981.401;  692.050;  475.000;  816.540
981.955;  713.350;  513.000;  844.300
982.508;  632.900;  410.000;  746.340
983.061;  777.200;  556.000;  915.260
983.615;  679.800;  454.000;  798.800
984.168;  640.350;  425.000;  770.080
984.721;  741.400;  508.000;  880.760
985.274;  732.000;  533.000;  867.500
985.827;  708.050;  518.000;  834.220
986.380;  606.150;  385.000;  721.340
986.933;  724.550;  524.000;  864.800
987.486;  719.300;  522.000;  861.920
988.039;  724.950;  558.000;  863.100
988.591;  749.200;  575.000;  893.260
989.144;  609.450;  434.000;  737.260
989.697;  629.550;  452.000;  758.740
990.250;  719.000;  543.000;  858.100
990.802;  635.400;  437.000;  755.860
991.355;  815.200;  669.000;  974.880
991.907;  724.700;  572.500;  864.320
992.460;  634.200;  476.000;  753.760
993.012;  621.050;  481.000;  749.540
993.565;  590.400;  436.000;  711.360
994.117;  797.350;  670.000;  950.780
994.669;  580.350;  441.000;  701.320
995.221;  662.800;  512.000;  791.920
995.774;  660.200;  512.000;  787.580
996.326;  621.700;  496.000;  740.220
996.878;  696.850;  571.000;  838.420
997.430;  583.050;  464.000;  699.860
997.982;  618.450;  508.000;  750.140
998.534;  617.900;  486.000;  739.060
999.086;  614.300;  486.000;  738.220
999.638;  545.400;  423.000;  661.380
1000.190;  576.250;  492.000;  699.320
1000.741;  620.200;  536.000;  742.700
1001.293;  571.100;  431.000;  686.020
1001.845;  562.350;  465.000;  676.640
1002.396;  616.650;  539.000;  743.400
1002.948;  615.400;  528.000;  737.400
1003.500;  599.900;  494.000;  723.780
1004.051;  762.250;  675.000;  907.580
1004.603;  664.750;  574.000;  791.820
1005.154;  509.300;  419.000;  608.980
1005.705;  602.050;  524.000;  723.960
1006.257;  594.000;  501.000;  707.220
1006.808;  561.150;  507.000;  685.460
1007.359;  636.050;  575.000;  763.240
1007.910;  544.000;  453.000;  646.640
1008.461;  613.800;  542.000;  732.940
1009.013;  488.500;  412.000;  588.340
1009.564;  666.600;  619.000;  793.520
1010.115;  498.300;  427.000;  597.040
1010.665;  498.900;  434.000;  602.160
1011.216;  551.800;  497.000;  667.920
1011.767;  581.000;  512.000;  697.920
1012.318;  610.800;  549.000;  736.980
1012.869;  558.150;  497.000;  679.000
1013.419;  500.050;  411.000;  603.120
1013.970;  558.450;  490.000;  666.640
1014.521;  517.300;  456.000;  620.620
1015.071;  560.050;  476.000;  670.380
1015.622;  526.500;  496.000;  635.460
1016.172;  498.750;  455.000;  596.820
1016.723;  504.100;  473.000;  614.380
1017.273;  506.250;  454.000;  604.160
1017.823;  537.050;  496.000;  650.340
1018.374;  505.200;  440.000;  611.760
1018.924;  597.200;  559.000;  716.880
1019.474;  594.650;  544.000;  718.880
1020.024;  541.950;  487.000;  657.580
1020.574;  602.700;  570.000;  726.160
1021.124;  565.600;  528.000;  673.580
1021.674;  462.750;  401.000;  559.120
1022.224;  591.250;  522.000;  708.940
1022.774;  561.550;  489.000;  668.820
1023.324;  635.250;  593.000;  753.520
1023.874;  726.450;  660.000;  875.760
1024.423;  510.050;  456.000;  613.700
1024.973;  508.000;  487.000;  610.760
1025.523;  513.800;  452.000;  620.960
1026.072;  507.800;  448.000;  606.420
1026.622;  551.800;  518.000;  675.740
1027.172;  591.750;  580.000;  715.660
1027.721;  498.600;  437.000;  601.220
1028.270;  549.300;  500.000;  663.400
1028.820;  532.300;  494.000;  638.080
1029.369;  513.700;  477.000;  612.700
1029.918;  533.750;  464.000;  649.840
1030.468;  463.650;  402.000;  564.780
1031.017;  521.500;  494.000;  634.800
1031.566;  504.250;  491.000;  608.900
1032.115;  575.200;  536.000;  694.500
1032.664;  503.550;  418.000;  596.480
1033.213;  603.100;  567.000;  735.420
1033.762;  529.150;  497.000;  635.620
1034.311;  570.400;  507.000;  677.220
1034.860;  568.100;  534.000;  691.000
1035.408;  602.450;  543.000;  722.720
1035.957;  603.050;  537.000;  719.540
1036.506;  440.150;  374.000;  530.800
1037.055;  709.800;  665.000;  844.320
1037.603;  554.300;  507.000;  664.000
1038.152;  439.600;  395.000;  534.760
1038.700;  483.050;  410.000;  585.740
1039.249;  566.000;  531.000;  681.220
1039.797;  521.450;  482.000;  633.360
1040.345;  588.650;  545.000;  705.420
1040.894;  521.300;  461.000;  625.300
1041.442;  525.650;  503.000;  632.200
1041.990;  463.100;  399.000;  559.160
1042.538;  442.900;  399.000;  536.180
1043.087;  471.350;  464.000;  570.860
1043.635;  559.050;  524.000;  670.500
1044.183;  484.900;  453.000;  586.400
1044.731;  471.700;  427.000;  576.000
1045.279;  562.200;  519.000;  674.920
1045.827;  752.000;  714.000;  892.400
1046.374;  420.500;  398.000;  515.420
1046.922;  489.650;  474.000;  590.580
1047.470;  575.650;  541.000;  691.300
1048.018;  535.400;  509.000;  647.960
1048.565;  592.700;  575.000;  708.600
1049.113;  456.100;  401.000;  557.000
1049.660;  514.900;  485.000;  629.660
1050.208;  556.600;  554.000;  675.640
1050.755;  502.300;  468.000;  606.580
1051.303;  567.850;  547.000;  686.820
1051.850;  527.600;  494.000;  635.120
1052.397;  384.250;  340.000;  473.960
1052.945;  511.350;  513.000;  617.760
1053.492;  620.450;  618.000;  741.840
1054.039;  594.200;  561.000;  720.180
1054.586;  459.350;  397.000;  557.240
1055.133;  572.850;  528.000;  693.140
1055.680;  540.300;  508.000;  646.620
1056.227;  439.550;  385.000;  542.780
1056.774;  660.500;  624.000;  794.980
1057.321;  426.200;  400.000;  523.260
1057.868;  537.250;  536.000;  651.320
1058.415;  546.550;  502.000;  651.980
1058.961;  561.900;  510.000;  678.940
1059.508;  520.100;  472.000;  643.820
1060.055;  480.250;  456.000;  581.780
1060.601;  511.600;  470.000;  624.300
1061.148;  513.100;  495.000;  616.820
1061.694;  488.350;  463.000;  592.580
1062.241;  494.050;  498.000;  596.320
1062.787;  553.250;  554.000;  663.140
1063.334;  674.600;  665.000;  808.560
1063.880;  554.750;  531.000;  668.360
1064.426;  584.500;  583.000;  706.820
1064.972;  492.350;  461.000;  601.340
1065.518;  466.300;  415.000;  566.640
1066.065;  514.400;  502.000;  624.460
1066.611;  502.350;  483.000;  598.800
1067.157;  531.850;  509.000;  641.860
1067.703;  547.650;  514.000;  668.480
1068.249;  495.150;  475.000;  605.220
1068.794;  519.000;  499.000;  626.880
1069.340;  478.650;  447.000;  578.960
1069.886;  493.750;  470.000;  590.700
1070.432;  438.200;  405.000;  541.720
1070.977;  498.050;  477.000;  601.080
1071.523;  471.700;  431.000;  573.060
1072.068;  477.850;  441.000;  582.000
1072.614;  429.950;  387.000;  527.760
1073.160;  571.750;  556.000;  687.040
1073.705;  476.850;  488.000;  572.520
1074.250;  461.200;  479.000;  559.900
1074.796;  537.400;  502.000;  655.160
1075.341;  558.300;  525.000;  664.100
1075.886;  491.550;  470.000;  594.240
1076.431;  539.700;  514.000;  649.880
1076.976;  534.900;  491.000;  639.220
1077.521;  476.000;  463.000;  583.080
1078.067;  479.550;  450.000;  579.400
1078.612;  556.150;  537.000;  661.620
1079.156;  490.600;  481.000;  601.540
1079.701;  572.700;  543.000;  693.260
1080.246;  578.250;  599.000;  696.300
1080.791;  528.300;  485.000;  625.020
1081.336;  545.450;  502.000;  659.320
1081.880;  547.250;  526.000;  649.680
1082.425;  470.350;  421.000;  573.480
1082.970;  596.350;  577.000;  717.040
1083.514;  491.500;  482.000;  597.000
1084.059;  485.000;  455.000;  586.720
1084.603;  465.250;  437.000;  565.840
1085.147;  538.400;  496.000;  645.220
1085.692;  590.150;  566.000;  716.800
1086.236;  410.500;  419.000;  503.140
1086.780;  628.400;  621.000;  751.440
1087.325;  541.600;  518.000;  654.620
1087.869;  504.500;  482.000;  610.700
1088.413;  583.750;  567.000;  705.040
1088.957;  442.450;  457.000;  543.400
1089.501;  632.800;  634.000;  766.640
1090.045;  599.900;  611.000;  726.480
1090.589;  466.900;  453.000;  569.920
1091.133;  562.450;  513.000;  673.340
1091.676;  489.500;  450.000;  591.940
1092.220;  491.650;  481.000;  600.920
1092.764;  581.550;  579.000;  706.960
1093.307;  554.400;  526.000;  673.780
1093.851;  454.450;  442.000;  556.540
1094.395;  560.200;  571.000;  683.140
1094.938;  522.350;  516.000;  632.520
1095.482;  462.200;  455.000;  559.800
1096.025;  585.200;  565.000;  710.880
1096.568;  648.050;  631.000;  779.280
1097.112;  412.950;  405.000;  508.180
1097.655;  504.200;  518.000;  603.000
1098.198;  488.300;  473.000;  600.180
1098.741;  505.150;  490.000;  612.860
1099.285;  548.900;  531.000;  657.300
1099.828;  355.950;  330.000;  439.400
1100.371;  507.200;  497.000;  608.160
1100.914;  567.400;  552.000;  682.660
1101.457;  568.650;  555.000;  679.900
1101.999;  475.500;  447.000;  584.680
1102.542;  530.500;  491.000;  641.440
1103.085;  544.200;  548.000;  658.500
1103.628;  634.150;  642.000;  762.060
1104.170;  486.800;  463.000;  588.280
1104.713;  529.350;  529.000;  646.700
1105.256;  453.550;  403.000;  557.440
1105.798;  407.250;  400.000;  499.980
1106.341;  605.300;  603.000;  728.900
1106.883;  423.700;  393.000;  521.340
1107.425;  547.600;  534.000;  668.180
1107.968;  508.950;  517.000;  612.380
1108.510;  568.150;  572.000;  684.960
1109.052;  507.800;  473.000;  612.620
1109.594;  457.550;  408.000;  554.440
1110.136;  534.400;  509.000;  643.220
1110.679;  522.550;  552.000;  633.080
1111.221;  501.350;  462.000;  604.460
1111.763;  449.300;  444.000;  559.220
1112.304;  451.300;  428.000;  547.140
1112.846;  551.750;  564.000;  666.240
1113.388;  791.750;  770.000;  942.180
1113.930;  574.550;  589.000;  694.200
1114.472;  501.050;  488.000;  606.540
1115.013;  457.400;  424.000;  551.280
1115.555;  482.900;  486.000;  587.100
1116.097;  468.350;  459.000;  579.480
1116.638;  574.100;  582.000;  684.600
1117.180;  560.750;  526.000;  667.740
1117.721;  466.100;  456.000;  568.580
1118.262;  555.400;  521.000;  677.960
1118.804;  530.600;  529.000;  637.340
1119.345;  475.300;  461.000;  578.400
1119.886;  581.700;  601.000;  704.040
1120.427;  480.300;  478.000;  589.020
1120.969;  501.750;  480.000;  597.920
1121.510;  468.150;  442.000;  563.060
1122.051;  597.700;  598.000;  723.580
1122.592;  540.900;  514.000;  655.420
1123.133;  451.350;  473.000;  547.940
1123.673;  589.150;  586.000;  706.480
1124.214;  494.800;  511.000;  612.460
1124.755;  526.450;  537.000;  639.460
1125.296;  517.100;  505.000;  627.320
1125.836;  579.400;  570.000;  691.500
1126.377;  494.150;  467.000;  599.660
1126.918;  507.600;  505.000;  614.980
1127.458;  513.900;  528.000;  622.220
1127.999;  544.050;  548.000;  656.980
1128.539;  569.050;  545.000;  694.240
1129.079;  520.100;  527.000;  632.720
1129.620;  455.300;  440.000;  558.100
1130.160;  446.750;  456.000;  539.480
1130.700;  524.900;  512.000;  640.840
1131.240;  528.150;  546.000;  643.700
1131.781;  510.450;  535.000;  619.680
1132.321;  495.550;  504.000;  599.120
1132.861;  465.400;  446.000;  564.200
1133.401;  486.400;  484.000;  593.940
1133.941;  516.850;  551.000;  626.280
1134.481;  498.200;  505.000;  597.580
1135.020;  502.050;  488.000;  609.160
1135.560;  552.200;  567.000;  674.940
1136.100;  412.650;  398.000;  501.160
1136.640;  416.550;  411.000;  510.480
1137.179;  441.800;  428.000;  537.960
1137.719;  504.150;  486.000;  605.400
1138.258;  482.050;  501.000;  587.360
1138.798;  547.150;  547.000;  663.780
1139.337;  388.550;  369.000;  482.840
1139.877;  521.650;  524.000;  642.360
1140.416;  732.000;  763.000;  878.060
1140.955;  438.950;  404.000;  535.380
1141.494;  556.600;  559.000;  669.280
1142.034;  480.050;  482.000;  583.520
1142.573;  535.750;  560.000;  646.280
1143.112;  457.800;  469.000;  553.480
1143.651;  443.950;  452.000;  536.480
1144.190;  566.500;  551.000;  691.640
1144.729;  498.200;  479.000;  607.420
1145.267;  473.700;  500.000;  584.900
1145.806;  521.850;  544.000;  637.040
1146.345;  524.250;  528.000;  635.020
1146.884;  520.700;  499.000;  622.500
1147.422;  438.700;  443.000;  533.060
1147.961;  584.200;  580.000;  708.460
1148.500;  548.750;  556.000;  669.720
1149.038;  525.050;  532.000;  632.500
1149.577;  579.950;  607.000;  698.640
1150.115;  363.650;  325.000;  452.280
1150.653;  495.300;  512.000;  607.340
1151.192;  452.750;  456.000;  552.920
1151.730;  540.950;  562.000;  652.560
1152.268;  483.200;  471.000;  589.520
1152.806;  473.250;  494.000;  571.180
1153.344;  466.700;  484.000;  577.640
1153.882;  496.600;  494.000;  600.060
1154.421;  382.350;  363.000;  470.620
1154.958;  490.850;  501.000;  595.240
1155.496;  533.650;  553.000;  645.280
1156.034;  597.400;  600.000;  721.880
1156.572;  554.250;  537.000;  667.060
1157.110;  378.200;  367.000;  473.940
1157.647;  558.400;  576.000;  676.960
1158.185;  468.900;  484.000;  564.320
1158.723;  416.150;  412.000;  509.200
1159.260;  573.700;  588.000;  701.700
1159.798;  539.600;  555.000;  658.160
1160.335;  516.900;  536.000;  631.820

