gmr_right
Integration time [ms]: 384.568
Averaging Nr. [scans]: 20
Smoothing Nr. [pixels]: 0
Data measured with spectrometer [name]: 7414430SP
Wave   ;Sample   ;Dark     ;Reference
[nm]   ;[counts] ;[counts] ;[counts] 

288.544;  634.747;  568.515;  793.890
289.143;  536.294;  409.561;  681.602
289.742;  671.954;  554.563;  828.814
290.341;  634.105;  505.621;  789.841
290.940;  594.306;  470.651;  730.702
291.538;  718.182;  638.612;  881.108
292.137;  639.787;  534.599;  792.581
292.736;  802.355;  681.621;  975.101
293.335;  590.633;  510.669;  735.086
293.934;  641.160;  495.663;  781.677
294.532;  855.318;  741.656; 1031.958
295.131;  678.851;  595.746;  834.394
295.730;  676.168;  598.740;  809.588
296.328;  648.131;  543.748;  783.442
296.927;  640.586;  597.761;  779.652
297.525;  643.390;  550.746;  781.236
298.124;  537.088;  421.822;  654.009
298.722;  635.449;  559.769;  761.933
299.321;  590.525;  487.787;  708.597
299.919;  626.342;  498.805;  751.918
300.518;  575.160;  469.828;  689.338
301.116;  580.505;  504.786;  691.381
301.715;  608.865;  511.760;  730.222
302.313;  594.169;  453.771;  704.943
302.911;  627.146;  513.844;  733.830
303.509;  801.299;  690.770;  925.627
304.108;  651.798;  544.767;  760.383
304.706;  683.827;  555.763;  801.664
305.304;  694.089;  584.826;  796.707
305.902;  680.655;  580.759;  784.484
306.500;  637.356;  507.790;  728.200
307.098;  655.319;  522.797;  746.560
307.696;  684.685;  583.814;  780.432
308.294;  644.999;  558.798;  731.359
308.892;  661.598;  546.766;  759.769
309.490;  620.873;  509.809;  712.161
310.088;  685.751;  605.831;  788.444
310.686;  731.282;  599.777;  821.749
311.284;  679.945;  545.812;  766.040
311.882;  643.421;  537.830;  731.225
312.480;  627.249;  498.852;  697.167
313.078;  715.041;  628.829;  808.331
313.675;  613.256;  501.790;  691.600
314.273;  702.450;  596.854;  797.837
314.871;  537.885;  410.841;  589.829
315.468;  590.396;  515.844;  652.090
316.066;  625.767;  490.792;  694.427
316.664;  589.700;  490.855;  656.351
317.261;  806.768;  738.822;  910.128
317.859;  681.454;  589.840;  768.735
318.456;  734.302;  653.806;  830.096
319.054;  681.222;  615.833;  787.828
319.651;  680.597;  575.818;  759.928
320.249;  713.697;  657.818;  810.188
320.846;  634.881;  532.804;  714.286
321.443;  736.216;  658.817;  832.135
322.041;  715.170;  623.828;  812.315
322.638;  618.628;  561.821;  701.456
323.235;  595.719;  516.771;  665.683
323.833;  653.407;  582.791;  740.354
324.430;  558.782;  431.805;  615.900
325.027;  783.377;  719.791;  876.855
325.624;  581.911;  430.747;  644.532
326.221;  633.607;  470.764;  689.717
326.818;  744.676;  639.788;  818.332
327.415;  678.125;  529.732;  748.828
328.012;  627.903;  477.725;  690.585
328.609;  669.329;  521.743;  731.389
329.206;  721.095;  601.760;  778.621
329.803;  684.308;  539.767;  737.841
330.400;  659.529;  498.741;  704.260
330.997;  752.086;  568.762;  817.147
331.594;  734.316;  600.815;  788.185
332.191;  677.428;  534.767;  728.722
332.787;  773.295;  605.786;  844.463
333.384;  695.914;  523.840;  763.093
333.981;  751.535;  572.897;  815.687
334.578;  653.558;  498.876;  708.378
335.174;  678.028;  497.878;  731.469
335.771;  757.633;  594.918;  836.456
336.367;  654.705;  505.953;  710.631
336.964;  722.966;  578.927;  793.266
337.561;  666.641;  529.941;  731.112
338.157;  810.133;  709.000;  911.916
338.754;  722.810;  608.020;  796.589
339.350;  648.927;  535.012;  722.493
339.946;  692.095;  575.978;  773.135
340.543;  743.364;  657.060;  846.136
341.139;  648.867;  529.094;  720.836
341.735;  695.770;  610.102;  772.593
342.332;  617.494;  532.087;  691.472
342.928;  705.280;  574.076;  795.394
343.524;  682.682;  581.108;  761.684
344.120;  651.354;  531.115;  738.562
344.716;  633.934;  541.060;  723.717
345.313;  694.155;  584.063;  795.342
345.909;  543.448;  435.072;  627.336
346.505;  647.588;  573.043;  740.247
347.101;  710.873;  594.029;  827.864
347.697;  685.035;  585.008;  785.398
348.293;  536.894;  442.033;  627.244
348.889;  641.881;  578.023;  745.914
349.485;  585.646;  517.010;  688.205
350.081;  656.044;  577.005;  772.592
350.676;  597.497;  521.040;  691.606
351.272;  692.108;  594.987;  809.530
351.868;  659.422;  566.970;  780.497
352.464;  615.419;  564.990;  723.932
353.059;  562.878;  473.015;  646.017
353.655;  664.975;  584.980;  777.063
354.251;  641.277;  553.958;  759.845
354.846;  628.675;  534.006;  740.646
355.442;  630.297;  561.039;  753.071
356.038;  636.602;  554.998;  751.708
356.633;  613.530;  546.993;  728.594
357.229;  605.215;  547.008;  724.757
357.824;  589.731;  515.022;  703.600
358.420;  564.859;  529.017;  679.726
359.015;  566.774;  508.004;  695.357
359.610;  633.700;  579.992;  763.920
360.206;  506.427;  418.041;  603.240
360.801;  538.494;  482.003;  646.503
361.396;  603.645;  522.978;  725.975
361.992;  546.981;  504.022;  668.220
362.587;  548.590;  512.048;  670.160
363.182;  562.171;  531.024;  689.631
363.777;  609.936;  559.010;  738.242
364.372;  611.418;  578.016;  737.314
364.967;  557.170;  518.048;  680.744
365.563;  665.261;  623.995;  815.567
366.158;  556.545;  502.007;  685.161
366.753;  516.709;  489.992;  649.263
367.348;  608.121;  579.023;  746.056
367.942;  563.285;  519.008;  697.298
368.537;  606.893;  552.029;  754.245
369.132;  564.699;  517.017;  703.428
369.727;  512.561;  477.052;  638.079
370.322;  474.384;  430.032;  580.186
370.917;  569.897;  528.040;  710.646
371.511;  693.190;  666.020;  861.834
372.106;  632.520;  615.048;  776.964
372.701;  463.405;  439.062;  585.988
373.296;  695.047;  671.012;  863.135
373.890;  507.240;  486.048;  647.840
374.485;  556.258;  535.071;  691.199
375.079;  599.830;  582.021;  738.685
375.674;  655.589;  650.017;  812.970
376.268;  552.870;  528.049;  691.759
376.863;  457.220;  451.103;  580.327
377.457;  525.814;  514.031;  662.490
378.052;  607.454;  601.059;  764.884
378.646;  588.814;  571.058;  741.167
379.240;  577.836;  552.064;  721.176
379.835;  504.616;  532.037;  636.978
380.429;  440.709;  427.045;  562.557
381.023;  613.908;  597.070;  779.205
381.617;  535.862;  514.081;  680.106
382.212;  542.616;  518.036;  685.303
382.806;  603.914;  610.031;  760.690
383.400;  533.657;  550.067;  672.281
383.994;  528.579;  557.073;  664.870
384.588;  552.413;  535.029;  697.701
385.182;  583.992;  584.999;  726.624
385.776;  566.410;  539.019;  706.875
386.370;  544.042;  545.054;  681.968
386.964;  544.894;  553.031;  684.155
387.558;  470.534;  448.003;  598.360
388.152;  545.399;  545.045;  681.959
388.745;  660.717;  664.039;  814.707
389.339;  602.508;  623.014;  747.642
389.933;  548.142;  552.998;  695.370
390.527;  692.731;  720.024;  859.029
391.120;  468.688;  481.071;  595.318
391.714;  569.366;  588.039;  711.633
392.308;  636.136;  622.008;  780.253
392.901;  511.806;  497.037;  642.460
393.495;  473.883;  508.057;  595.414
394.089;  615.309;  649.046;  760.452
394.682;  557.349;  534.047;  697.188
395.275;  580.730;  577.047;  719.927
395.869;  538.224;  567.061;  667.314
396.462;  490.457;  512.039;  616.609
397.056;  630.454;  631.003;  776.621
397.649;  589.303;  601.057;  731.575
398.242;  578.252;  583.025;  712.645
398.836;  625.277;  630.013;  766.408
399.429;  498.988;  486.015;  631.041
400.022;  527.814;  536.059;  665.902
400.615;  661.928;  675.043;  805.609
401.208;  558.446;  580.009;  691.451
401.802;  564.515;  569.036;  699.329
402.395;  561.614;  535.059;  683.502
402.988;  562.348;  588.070;  696.627
403.581;  521.291;  560.023;  646.878
404.174;  557.680;  573.994;  686.568
404.767;  512.487;  529.040;  638.583
405.360;  501.195;  506.062;  621.445
405.953;  612.356;  648.008;  759.034
406.545;  594.511;  583.996;  725.342
407.138;  495.177;  507.039;  618.350
407.731;  496.453;  507.029;  613.303
408.324;  538.383;  560.975;  660.554
408.917;  555.992;  577.999;  681.864
409.509;  601.442;  618.027;  740.396
410.102;  522.921;  542.051;  643.948
410.695;  541.092;  557.970;  665.758
411.287;  485.336;  482.981;  599.821
411.880;  468.198;  456.988;  585.421
412.472;  497.212;  511.027;  613.092
413.065;  518.115;  563.006;  629.408
413.657;  475.729;  484.963;  576.678
414.250;  531.810;  525.966;  646.681
414.842;  557.952;  576.997;  676.353
415.434;  472.771;  475.969;  570.463
416.027;  535.074;  535.922;  652.196
416.619;  591.369;  592.962;  713.400
417.211;  488.959;  500.964;  599.352
417.804;  511.721;  540.914;  628.499
418.396;  495.500;  513.965;  607.643
418.988;  548.732;  525.944;  659.238
419.580;  466.815;  484.978;  568.276
420.172;  445.092;  456.944;  536.196
420.764;  553.161;  578.913;  672.482
421.356;  525.335;  544.925;  636.898
421.948;  563.213;  552.947;  677.661
422.540;  564.393;  580.890;  680.027
423.132;  490.852;  498.887;  600.641
423.724;  460.208;  455.931;  561.267
424.316;  511.862;  504.916;  621.345
424.908;  491.075;  498.869;  591.517
425.500;  540.295;  548.869;  647.978
426.092;  532.024;  551.867;  648.268
426.683;  576.565;  583.896;  684.836
427.275;  539.387;  540.848;  641.471
427.867;  557.565;  557.841;  668.948
428.458;  607.805;  592.842;  732.344
429.050;  570.394;  569.867;  680.749
429.642;  626.376;  615.845;  743.124
430.233;  467.012;  460.832;  569.356
430.825;  610.713;  584.837;  724.809
431.416;  574.905;  594.868;  698.241
432.008;  537.738;  538.823;  651.723
432.599;  543.005;  555.814;  656.073
433.190;  528.652;  534.859;  637.670
433.782;  491.351;  480.858;  590.395
434.373;  744.090;  771.800;  884.765
434.964;  496.569;  467.798;  602.920
435.556;  526.403;  533.836;  634.537
436.147;  627.308;  617.822;  758.490
436.738;  584.396;  584.816;  701.099
437.329;  600.957;  599.763;  721.723
437.920;  553.519;  563.852;  666.688
438.511;  472.016;  440.845;  564.526
439.103;  515.720;  524.772;  623.998
439.694;  570.535;  546.759;  681.583
440.285;  631.320;  607.773;  764.432
440.876;  709.479;  709.798;  845.738
441.466;  477.325;  436.786;  575.162
442.057;  552.625;  554.731;  665.814
442.648;  631.730;  617.772;  746.255
443.239;  522.497;  531.791;  620.477
443.830;  587.839;  578.742;  704.958
444.421;  546.820;  482.716;  655.474
445.011;  571.552;  529.779;  693.619
445.602;  618.785;  592.785;  743.126
446.193;  401.156;  379.734;  488.117
446.783;  521.313;  497.697;  640.397
447.374;  576.590;  563.772;  692.759
447.964;  596.080;  602.773;  713.770
448.555;  682.191;  654.692;  822.742
449.145;  552.634;  533.728;  662.853
449.736;  670.209;  656.742;  803.179
450.326;  597.948;  545.740;  713.626
450.917;  566.068;  549.684;  675.324
451.507;  494.621;  455.692;  600.661
452.097;  626.417;  600.710;  746.267
452.688;  609.564;  534.700;  742.160
453.278;  469.101;  444.693;  566.840
453.868;  663.871;  618.665;  793.550
454.458;  535.492;  473.696;  651.141
455.048;  594.395;  546.703;  711.783
455.639;  468.841;  439.663;  567.096
456.229;  586.425;  544.649;  710.694
456.819;  622.205;  579.648;  751.158
457.409;  637.468;  604.657;  773.993
457.999;  614.448;  557.628;  737.505
458.589;  564.439;  525.632;  686.606
459.179;  605.142;  550.641;  717.658
459.769;  516.550;  487.663;  627.099
460.358;  655.775;  644.621;  797.262
460.948;  567.117;  522.625;  689.503
461.538;  553.004;  488.618;  660.677
462.128;  553.875;  481.649;  664.934
462.717;  588.607;  569.572;  710.326
463.307;  595.560;  556.553;  705.846
463.897;  549.012;  479.614;  656.942
464.486;  702.088;  640.657;  837.128
465.076;  611.775;  582.592;  733.776
465.666;  540.048;  516.547;  652.900
466.255;  654.679;  592.604;  785.651
466.845;  551.352;  481.612;  666.749
467.434;  598.644;  576.589;  725.873
468.023;  539.598;  457.573;  658.357
468.613;  589.839;  526.632;  713.946
469.202;  534.040;  470.579;  646.507
469.791;  609.389;  542.548;  737.811
470.381;  617.087;  556.544;  742.813
470.970;  583.250;  486.551;  711.099
471.559;  614.507;  565.571;  733.291
472.148;  562.654;  481.536;  675.737
472.738;  631.921;  569.527;  765.466
473.327;  522.474;  430.534;  637.529
473.916;  614.965;  547.564;  737.446
474.505;  624.698;  552.520;  751.703
475.094;  675.071;  578.500;  806.570
475.683;  658.519;  568.521;  797.699
476.272;  603.571;  507.526;  730.632
476.861;  585.530;  481.495;  706.754
477.449;  599.950;  502.441;  728.487
478.038;  566.291;  477.526;  692.513
478.627;  583.133;  504.533;  714.852
479.216;  640.740;  583.468;  769.441
479.805;  640.793;  548.450;  783.375
480.393;  839.179;  759.493; 1008.945
480.982;  730.096;  614.513;  874.501
481.571;  716.682;  628.447;  858.333
482.159;  576.621;  453.444;  705.386
482.748;  684.253;  548.478;  821.385
483.336;  723.786;  621.459;  858.209
483.925;  638.072;  539.473;  774.373
484.513;  630.498;  520.408;  758.962
485.102;  664.645;  554.482;  810.965
485.690;  843.113;  716.421; 1011.050
486.278;  817.693;  684.421;  979.329
486.867;  678.816;  541.430;  809.662
487.455;  751.902;  578.448;  898.229
488.043;  618.393;  447.449;  748.361
488.631;  841.617;  712.404; 1005.079
489.220;  765.674;  584.396;  908.626
489.808;  624.818;  424.435;  741.415
490.396;  767.413;  593.422;  914.645
490.984;  695.653;  505.423;  830.161
491.572;  791.537;  618.405;  940.315
492.160;  787.943;  526.449;  919.081
492.748;  765.534;  526.453;  884.341
493.336;  897.647;  620.406; 1019.693
493.924;  846.839;  534.383;  958.077
494.512;  979.065;  599.427; 1066.638
495.100; 1028.823;  569.449; 1103.280
495.687; 1152.450;  637.387; 1206.373
496.275; 1146.744;  490.398; 1150.796
496.863; 1288.279;  517.440; 1281.171
497.451; 1411.651;  507.445; 1386.805
498.038; 1589.386;  560.377; 1556.729
498.626; 1820.059;  520.384; 1741.407
499.214; 2210.043;  543.421; 2016.609
499.801; 2490.828;  548.436; 2220.633
500.389; 2714.542;  465.391; 2312.494
500.976; 3192.933;  564.395; 2744.849
501.564; 3464.989;  530.437; 3148.565
502.151; 3627.031;  369.446; 3515.999
502.738; 4226.817;  520.406; 3971.274
503.326; 4901.926;  490.375; 4403.796
503.913; 5563.259;  530.410; 5161.749
504.500; 6182.946;  553.430; 5986.420
505.088; 6873.575;  476.427; 6381.201
505.675; 7942.146;  520.377; 6925.547
506.262; 8902.852;  513.446; 7619.060
506.849; 9793.430;  535.414; 8733.969
507.436;10494.760;  590.385; 9790.121
508.023;10527.602;  518.391; 9985.472
508.610;11090.459;  592.412;10434.618
509.197;12380.521;  546.469;11198.435
509.784;13553.771;  543.417;12391.194
510.371;14470.153;  433.368;13603.713
510.958;15072.108;  505.437;14426.586
511.545;15019.834;  634.424;15243.775
512.132;15637.598;  547.379;15945.876
512.719;16704.109;  475.410;16340.369
513.305;18506.576;  478.430;18011.766
513.892;20289.984;  600.455;19754.971
514.479;21524.523;  549.396;20967.805
515.066;22412.756;  615.402;22299.793
515.652;23523.387;  523.404;22908.660
516.239;24898.713;  603.420;23798.875
516.825;26272.809;  464.409;25567.275
517.412;27423.883;  686.393;28154.959
517.998;26361.666;  501.432;28344.111
518.585;24958.182;  509.446;27134.219
519.171;25246.338;  535.383;27268.576
519.758;25919.703;  440.395;28964.129
520.344;27195.320;  573.417;30664.494
520.930;29046.977;  456.459;32550.605
521.516;32251.350;  596.383;35422.895
522.103;34095.699;  639.408;38280.004
522.689;34148.484;  498.450;37835.117
523.275;33928.289;  614.439;37288.613
523.861;34541.168;  552.413;37281.395
524.447;36005.418;  614.384;37846.949
525.033;35917.039;  601.436;38321.949
525.619;33936.695;  461.452;38579.285
526.205;33435.598;  483.435;40622.875
526.791;34658.723;  528.398;42258.836
527.377;35869.602;  509.449;42966.902
527.963;37129.441;  570.470;42018.949
528.549;38631.582;  580.452;42476.828
529.135;38257.637;  481.428;41854.852
529.721;36521.887;  524.432;41237.711
530.306;36420.684;  714.452;41259.445
530.892;37422.785;  517.433;41506.047
531.478;40055.031;  526.417;43559.613
532.063;41668.520;  462.445;47695.563
532.649;43794.164;  662.479;50808.324
533.235;44343.730;  487.442;51787.500
533.820;44559.055;  612.394;52145.035
534.406;43181.602;  511.477;51133.488
534.991;42236.621;  497.448;49996.805
535.576;40581.406;  517.432;48882.852
536.162;39331.375;  729.426;46942.285
536.747;39977.023;  444.482;45711.746
537.333;41813.594;  487.479;48510.180
537.918;43806.141;  520.466;50439.891
538.503;43224.563;  498.421;50863.711
539.088;42045.086;  570.460;50906.922
539.673;44086.250;  530.467;52621.965
540.259;45527.289;  483.443;52368.094
540.844;45193.590;  434.436;50879.109
541.429;45158.758;  655.487;52077.777
542.014;45842.883;  451.502;52716.695
542.599;44331.785;  569.453;52363.281
543.184;43777.957;  489.483;53187.137
543.769;45337.484;  467.486;54697.605
544.354;44807.543;  493.480;53913.914
544.938;42554.391;  571.467;49680.164
545.523;40363.141;  652.446;47386.277
546.108;42434.707;  518.488;49151.949
546.693;44845.234;  533.513;51384.637
547.278;42858.547;  570.458;51853.254
547.862;41282.805;  517.429;51173.750
548.447;41529.098;  574.495;51691.395
549.031;41525.441;  497.523;52456.703
549.616;41492.195;  562.461;52714.516
550.201;42414.680;  489.473;52414.598
550.785;45300.488;  590.491;52355.059
551.370;47786.223;  465.503;54589.453
551.954;49108.617;  594.493;58267.348
552.538;47919.660;  577.473;59062.176
553.123;47195.461;  462.501;58115.285
553.707;47815.086;  511.538;56556.285
554.291;47284.695;  614.485;56201.668
554.876;46081.070;  623.498;55335.762
555.460;45334.297;  508.520;54155.703
556.044;45754.922;  493.553;53721.484
556.628;45409.313;  527.507;53731.016
557.212;44256.297;  603.462;54312.531
557.796;42787.445;  537.507;53797.773
558.380;42272.168;  548.549;56145.984
558.964;43377.594;  560.481;57277.930
559.548;45416.523;  445.483;56459.641
560.132;46098.969;  485.524;54434.543
560.716;46164.457;  460.547;54800.617
561.300;47113.262;  460.475;57606.945
561.884;45888.375;  560.512;58972.445
562.467;45061.078;  560.545;57327.570
563.051;44385.227;  540.544;54962.434
563.635;42070.934;  540.533;52594.473
564.219;39045.934;  504.511;50610.410
564.802;39699.570;  572.550;49551.180
565.386;41828.676;  516.541;48370.953
565.969;43139.578;  604.488;48178.871
566.553;44551.422;  698.527;49957.305
567.136;43731.289;  608.551;50369.594
567.720;44548.977;  542.569;49492.004
568.303;46238.516;  564.544;50616.352
568.887;47793.332;  548.534;50727.148
569.470;48168.770;  555.580;51698.379
570.053;45582.566;  572.573;52122.078
570.637;43314.867;  491.514;52536.438
571.220;43172.145;  588.510;51186.098
571.803;43598.660;  680.584;51032.762
572.386;44155.172;  495.561;49609.887
572.969;44423.125;  526.538;48285.926
573.552;45077.059;  531.549;47624.285
574.135;43573.473;  458.591;45498.641
574.718;40039.414;  474.559;41970.434
575.301;39004.551;  487.068;41447.137
575.884;37969.688;  499.577;40923.836
576.467;39644.977;  559.569;45267.723
577.050;39804.680;  575.580;48175.543
577.633;39194.793;  663.538;47729.328
578.216;40438.949;  503.574;47579.793
578.799;45181.969;  523.600;47820.996
579.381;46226.566;  669.567;48115.551
579.964;42200.785;  503.538;47333.766
580.547;39978.641;  537.579;46668.969
581.129;39983.652;  621.610;44466.141
581.712;40304.195;  551.621;44164.922
582.294;42092.277;  522.570;46477.855
582.877;40710.383;  703.563;48244.254
583.459;39391.164;  544.619;47437.895
584.042;41354.543;  520.618;46943.219
584.624;41494.516;  507.624;46792.227
585.206;41614.539;  407.575;46557.250
585.789;40441.152;  477.611;45793.773
586.371;39181.781;  552.638;43836.391
586.953;37751.672;  598.608;42972.492
587.536;36306.547;  635.574;42487.211
588.118;36954.145;  543.679;42086.414
588.700;38215.949;  662.631;43389.930
589.282;39804.398;  586.599;43646.039
589.864;39215.473;  523.612;43438.109
590.446;39428.516;  407.647;43151.926
591.028;38898.301;  543.639;42781.867
591.610;38916.184;  439.615;42839.098
592.192;38759.137;  565.599;42820.402
592.774;36723.379;  475.629;40724.277
593.356;36235.164;  501.668;39874.789
593.937;35822.969;  523.605;39980.648
594.519;36706.961;  611.612;42069.633
595.101;37561.500;  460.657;42976.031
595.683;37775.891;  509.666;44084.441
596.264;38825.090;  540.611;43478.797
596.846;40457.859;  517.630;43803.672
597.427;39481.137;  487.679;42986.934
598.009;38679.117;  472.681;42832.219
598.591;37543.117;  598.632;42580.086
599.172;36697.492;  500.640;43061.805
599.753;36239.664;  454.676;41691.469
600.335;36094.801;  637.693;40692.520
600.916;35637.652;  552.666;39982.422
601.498;35991.305;  559.652;40318.617
602.079;36570.625;  534.676;40670.609
602.660;34615.039;  531.685;41450.898
603.241;32632.750;  434.637;41137.738
603.823;32204.205;  514.648;38868.797
604.404;33576.758;  451.688;38182.785
604.985;36621.410;  509.695;38078.047
605.566;38822.871;  595.634;38056.633
606.147;38607.836;  537.708;37020.418
606.728;37669.129;  457.716;37883.359
607.309;37278.922;  483.697;38748.273
607.890;37401.500;  526.661;38850.230
608.471;37543.969;  469.685;37457.918
609.051;37400.418;  536.742;36066.457
609.632;36792.816;  458.735;35991.074
610.213;37712.051;  541.693;37402.641
610.794;39429.094;  503.699;38383.363
611.374;37866.555;  568.707;40562.387
611.955;37218.453;  444.725;38533.727
612.536;39002.359;  573.691;36951.789
613.116;38421.074;  524.698;37197.891
613.697;38083.820;  515.744;38411.125
614.277;37934.145;  494.753;38673.938
614.858;34769.004;  516.696;37075.863
615.438;32558.391;  536.691;35092.906
616.019;32220.145;  622.756;33666.301
616.599;33240.117;  423.733;34189.023
617.179;36223.918;  475.710;36952.047
617.760;36598.969;  708.686;39582.574
618.340;34757.969;  498.765;38943.977
618.920;34268.238;  653.742;37594.156
619.500;34259.227;  495.768;37866.938
620.080;34190.637;  479.741;37869.043
620.660;34322.332;  468.802;36868.617
621.241;34422.785;  491.762;36352.309
621.821;34006.070;  592.749;35459.520
622.401;34231.180;  587.742;35207.414
622.980;35849.742;  463.779;35980.422
623.560;35344.785;  460.758;37351.328
624.140;32829.598;  557.741;34388.582
624.720;32844.301;  554.748;32368.764
625.300;34705.680;  485.743;32638.629
625.880;35849.805;  503.780;34599.035
626.459;34424.852;  556.753;36831.738
627.039;33063.898;  444.772;38299.098
627.619;34346.039;  703.802;38289.574
628.198;36184.855;  572.791;37220.695
628.778;37589.453;  551.748;37632.563
629.357;37967.914;  448.751;38003.012
629.937;36781.270;  496.798;38402.039
630.516;33837.898;  605.794;37868.801
631.096;32835.191;  498.751;35760.410
631.675;31973.926;  625.817;35225.219
632.254;31797.873;  508.833;35130.289
632.834;33160.758;  534.822;35794.570
633.413;34350.730;  638.771;35788.922
633.992;34137.777;  587.820;34532.863
634.571;34283.957;  576.844;33590.113
635.151;33889.352;  476.831;34943.863
635.730;33230.191;  511.775;35352.523
636.309;33442.977;  583.793;35366.605
636.888;33107.098;  593.820;36165.637
637.467;33513.816;  450.842;37515.902
638.046;34519.227;  646.791;39288.695
638.625;34984.469;  649.820;38279.699
639.204;34993.879;  541.850;37741.598
639.782;35877.949;  526.878;38364.551
640.361;35844.105;  639.809;36740.621
640.940;35289.176;  503.807;34950.082
641.519;34813.793;  532.805;34137.398
642.097;33588.313;  556.804;35654.258
642.676;33789.180;  571.802;35637.957
643.255;33886.352;  489.800;36567.074
643.833;35493.070;  569.799;37809.434
644.412;37044.988;  490.797;37337.293
644.990;37474.707;  534.795;37018.531
645.569;36973.176;  555.793;36518.469
646.147;35689.242;  588.792;36186.430
646.726;34443.063;  552.790;36267.688
647.304;34134.730;  509.788;36647.625
647.882;33908.949;  425.787;39286.742
648.461;33420.770;  559.785;39157.703
649.039;33786.988;  588.783;35412.883
649.617;33266.707;  570.781;34744.918
650.195;32978.727;  570.780;35403.098
650.773;33043.145;  470.778;35053.797
651.352;32829.715;  391.776;33756.816
651.930;32106.133;  420.775;31868.773
652.508;31535.551;  603.773;33121.551
653.086;31089.971;  545.771;33564.793
653.663;32780.738;  497.770;34054.668
654.241;33582.059;  453.768;35693.309
654.819;34727.379;  476.766;36422.906
655.397;36408.645;  443.764;38213.484
655.975;37557.863;  530.763;39507.625
656.553;38832.734;  618.761;39498.223
657.130;37871.352;  478.759;40395.480
657.708;38210.473;  552.758;39242.020
658.286;37014.090;  525.756;38920.020
658.863;36195.809;  545.754;40202.898
659.441;36287.277;  541.752;39677.938
660.018;37308.945;  509.751;40413.355
660.596;37951.066;  406.749;39931.414
661.173;38465.734;  500.747;39604.531
661.750;38202.355;  486.746;39700.070
662.328;37956.121;  564.744;39292.809
662.905;36618.090;  510.742;38235.648
663.482;34675.559;  513.741;36212.305
664.060;34142.879;  514.739;35944.945
664.637;34044.848;  585.737;35170.785
665.214;34176.715;  550.735;34197.523
665.791;35575.535;  529.734;34549.520
666.368;35869.453;  530.732;35118.578
666.945;34071.223;  585.730;36019.418
667.522;33763.594;  470.729;36048.438
668.099;35158.262;  505.727;36243.914
668.676;35334.328;  532.725;35958.875
669.253;35325.250;  629.723;37384.730
669.830;33910.168;  578.722;36779.629
670.407;32410.938;  537.720;35231.289
670.984;31747.656;  544.718;35544.270
671.560;32583.625;  560.717;35466.867
672.137;31997.443;  498.715;34280.863
672.714;32264.162;  579.713;34632.863
673.290;33178.730;  548.711;35135.422
673.867;31962.900;  482.710;36114.480
674.443;31977.020;  428.708;36152.859
675.020;33899.539;  541.706;35327.238
675.596;34871.707;  521.705;35795.176
676.173;33954.625;  436.703;35430.355
676.749;34095.445;  385.701;33549.516
677.326;33728.715;  432.700;32210.012
677.902;34676.582;  468.698;32068.871
678.478;33841.652;  424.696;32583.891
679.054;32472.170;  772.694;32088.928
679.631;32324.139;  548.693;30978.848
680.207;33189.855;  660.691;33160.887
680.783;33234.375;  412.689;35570.363
681.359;33529.246;  522.688;36125.184
681.935;33279.563;  540.686;35240.922
682.511;32920.883;  540.684;34429.961
683.087;32194.652;  558.682;34463.680
683.663;31557.621;  498.681;34648.898
684.239;31168.840;  433.679;34546.457
684.815;30862.559;  576.677;35586.375
685.390;31459.828;  664.676;35821.895
685.966;31839.195;  527.674;35085.871
686.542;31165.314;  491.672;34198.230
687.118;31292.984;  520.671;32847.707
687.693;31713.303;  578.669;32794.027
688.269;30715.971;  516.667;33072.367
688.844;29866.541;  567.665;33141.664
689.420;30297.609;  519.664;33965.742
689.995;30186.879;  626.662;34655.523
690.571;30264.297;  615.660;33576.742
691.146;31712.416;  510.659;32657.219
691.722;30897.436;  535.657;32526.979
692.297;29553.404;  459.655;33014.617
692.872;29499.922;  475.654;34012.254
693.448;29049.191;  459.652;34237.434
694.023;28974.461;  537.650;34142.672
694.598;29500.330;  531.648;34132.031
695.173;29663.697;  519.647;34205.250
695.748;28585.066;  415.645;32882.488
696.323;29633.686;  537.643;32864.906
696.898;30507.654;  566.642;33170.004
697.473;29907.473;  437.640;32432.984
698.048;29611.842;  517.638;31649.303
698.623;30644.561;  453.636;30778.141
699.198;31505.631;  536.635;31140.119
699.773;32221.998;  455.633;31764.299
700.348;31486.617;  474.631;31780.816
700.922;31204.537;  520.630;32046.375
701.497;30896.406;  512.628;32603.574
702.072;30901.125;  594.626;34799.871
702.646;31468.494;  601.625;35793.172
703.221;31513.813;  531.623;35201.590
703.795;31032.832;  466.621;34764.527
704.370;31593.449;  386.619;34307.367
704.944;31667.168;  523.618;33509.887
705.519;31860.537;  558.616;31388.584
706.093;32569.256;  467.614;31340.104
706.668;32628.225;  533.613;32630.281
707.242;32417.344;  587.611;32728.779
707.816;31254.713;  511.609;32947.238
708.390;30863.682;  521.607;33277.855
708.965;31850.602;  565.606;33834.336
709.539;31865.369;  518.604;33709.273
710.113;30826.389;  525.602;33044.313
710.687;31739.207;  551.601;31953.992
711.261;32138.627;  468.599;30505.949
711.835;31511.145;  462.597;30262.369
712.409;31294.215;  413.595;31254.447
712.983;32756.283;  424.594;32754.986
713.557;34735.703;  423.592;34018.824
714.131;34793.473;  500.590;34579.625
714.704;33536.641;  495.589;33890.262
715.278;32587.859;  530.587;33531.102
715.852;32659.977;  564.585;33601.660
716.425;32443.846;  663.584;33515.117
716.999;31820.465;  432.582;33185.555
717.573;32600.234;  567.580;33905.996
718.146;33325.453;  615.578;35199.293
718.720;33559.121;  518.577;35060.551
719.293;33779.340;  565.575;34973.230
719.867;33600.160;  470.573;36394.449
720.440;33619.078;  603.572;36663.008
721.013;33874.848;  519.570;35102.426
721.587;32625.217;  405.568;33985.266
722.160;32451.785;  562.566;33524.965
722.733;32110.305;  547.565;32987.043
723.306;33739.773;  513.563;33066.301
723.880;35093.293;  565.561;33399.500
724.453;34834.859;  640.560;33468.297
725.026;33592.480;  497.558;33816.637
725.599;32287.197;  539.556;32797.996
726.172;32362.268;  558.555;33187.434
726.745;34125.734;  538.553;35136.613
727.318;34352.004;  584.551;35751.730
727.891;33123.773;  534.549;35890.430
728.463;31964.693;  535.548;34822.090
729.036;31414.361;  447.546;32895.086
729.609;30487.029;  473.544;31823.225
730.182;30424.850;  580.543;31445.283
730.754;31423.768;  407.541;32373.223
731.327;33591.688;  545.539;33676.820
731.900;33262.105;  421.537;33417.000
732.472;32594.775;  542.536;31978.498
733.045;32345.594;  502.534;30368.777
733.617;30703.012;  437.532;30574.215
734.190;30129.230;  572.531;31280.975
734.762;29956.551;  534.529;31674.412
735.334;30001.670;  527.527;31247.291
735.907;30028.639;  547.526;29876.211
736.479;29662.057;  576.524;29808.488
737.051;30782.375;  544.522;30233.547
737.623;32645.195;  559.520;31469.086
738.195;33608.762;  477.519;31784.225
738.768;33947.434;  389.517;32120.523
739.340;33399.051;  500.515;32094.342
739.912;33773.070;  596.514;31312.680
740.484;33362.438;  543.512;31946.238
741.056;33450.457;  498.510;32984.059
741.628;34362.426;  476.508;33897.715
742.199;32972.496;  596.507;33213.016
742.771;31658.365;  444.505;31369.113
743.343;32130.383;  475.503;31865.473
743.915;32125.902;  503.502;32388.631
744.487;31640.172;  586.500;31079.568
745.058;30239.289;  562.498;30570.107
745.630;28868.959;  564.497;29970.127
746.201;28288.527;  475.495;29186.766
746.773;28035.746;  553.493;28805.723
747.344;27111.115;  515.491;29591.223
747.916;26677.184;  541.490;31412.201
748.487;27410.203;  572.488;32194.898
749.059;28470.771;  453.486;32533.719
749.630;28694.641;  480.485;32158.518
750.201;27917.260;  523.483;30855.395
750.773;27393.178;  478.481;28622.555
751.344;26899.098;  514.479;28405.732
751.915;25785.166;  512.478;28461.551
752.486;25695.885;  462.476;27842.850
753.057;26382.154;  533.474;27845.008
753.628;26089.422;  485.473;27728.107
754.199;25078.441;  483.471;27381.086
754.770;24336.211;  560.469;25882.203
755.341;24171.330;  609.468;25886.184
755.912;24203.648;  508.466;26050.861
756.483;24063.566;  564.464;26798.779
757.054;23376.137;  533.462;27048.238
757.625;23437.506;  470.461;26294.838
758.195;24103.324;  436.459;26142.076
758.766;24082.293;  534.457;26392.234
759.337;23872.361;  432.456;26334.594
759.907;24702.430;  436.454;27579.652
760.478;25091.500;  497.452;28352.770
761.048;25402.268;  566.450;27325.088
761.619;25528.438;  553.449;26460.428
762.189;24654.105;  490.447;26029.826
762.760;23593.275;  588.445;26430.145
763.330;22025.395;  548.444;26670.902
763.900;21186.813;  537.442;26603.021
764.471;21566.432;  468.440;25542.740
765.041;21972.201;  599.438;24358.459
765.611;22637.719;  540.437;23991.297
766.181;23952.287;  538.435;24470.236
766.751;24115.656;  542.433;24845.975
767.321;22981.125;  474.432;24533.633
767.891;22211.645;  499.430;24916.492
768.461;21932.813;  532.428;24776.771
769.031;21062.832;  503.427;24757.988
769.601;20167.951;  591.425;24181.088
770.171;19134.670;  421.423;23670.387
770.741;19238.139;  467.421;22960.045
771.311;19881.707;  568.420;22917.523
771.880;20122.877;  445.418;23562.941
772.450;20200.496;  487.416;24216.500
773.020;19942.865;  424.415;24140.398
773.589;19819.732;  493.413;24414.857
774.159;19713.102;  462.411;23858.717
774.729;18862.771;  480.409;22942.135
775.298;17134.539;  485.408;22324.033
775.867;16597.459;  494.406;21140.313
776.437;17335.178;  512.404;20838.092
777.006;17405.996;  443.403;20599.510
777.576;17080.416;  528.401;20508.809
778.145;17183.484;  558.399;20732.947
778.714;18006.604;  529.398;21062.465
779.283;17855.572;  558.396;20949.664
779.853;17635.092;  481.394;20508.623
780.422;18154.709;  526.392;20649.082
780.991;17837.279;  553.391;21527.520
781.560;17129.098;  606.389;22632.658
782.129;17212.566;  543.387;23048.277
782.698;17203.484;  606.386;23438.555
783.267;17684.305;  519.384;23267.734
783.836;18527.023;  536.382;22415.133
784.404;17843.143;  443.380;20443.152
784.973;17056.660;  387.379;19699.150
785.542;16460.230;  495.377;19763.828
786.111;16725.799;  591.375;20341.408
786.679;17064.316;  534.374;20207.967
787.248;16569.986;  423.372;19516.465
787.817;16770.555;  503.370;18900.363
788.385;16917.074;  571.369;17879.121
788.954;15970.993;  423.367;17658.301
789.522;16194.312;  605.365;17788.879
790.090;16896.381;  433.363;18118.277
790.659;17669.799;  493.362;18338.736
791.227;17836.969;  505.360;18508.615
791.795;17186.588;  533.358;17898.254
792.364;16049.606;  476.357;17295.133
792.932;15645.475;  532.355;16822.051
793.500;16143.644;  508.353;17040.148
794.068;17052.313;  416.352;17179.787
794.636;16618.832;  478.350;16664.246
795.204;14978.051;  432.348;16524.545
795.772;14792.720;  462.346;17274.564
796.340;15560.738;  484.345;17891.002
796.908;15894.207;  442.343;17648.561
797.476;15963.376;  447.341;17064.080
798.044;15880.995;  400.340;16672.777
798.612;15658.214;  499.338;17023.996
799.180;15112.982;  534.336;16561.615
799.747;14717.651;  503.334;15962.773
800.315;15165.920;  439.333;15296.992
800.883;15630.889;  398.331;14801.771
801.450;14673.708;  515.329;14534.430
802.018;14004.227;  525.328;14173.248
802.585;14316.246;  497.326;14029.547
803.153;14226.515;  497.324;13836.846
803.720;14079.333;  507.322;13567.324
804.287;14015.452;  479.321;13360.622
804.855;13897.121;  582.319;13681.981
805.422;13813.090;  490.317;13536.560
805.989;13761.209;  482.316;13355.958
806.556;14215.728;  479.314;13747.896
807.124;14576.047;  525.312;13987.376
807.691;14176.766;  443.311;14038.674
808.258;13854.234;  505.309;14120.152
808.825;13845.604;  541.307;13860.111
809.392;13867.722;  625.305;13268.790
809.959;13890.991;  562.304;12680.389
810.526;13800.060;  651.302;12427.308
811.093;13122.179;  582.300;12030.105
811.659;12966.748;  502.299;11653.664
812.226;13176.167;  500.297;11637.183
812.793;13104.085;  539.295;11611.521
813.360;12844.754;  467.293;11885.181
813.926;12721.773;  535.292;12770.539
814.493;12837.792;  441.290;12677.638
815.060;12595.411;  420.288;11974.336
815.626;12336.029;  421.287;11594.715
816.193;11997.499;  517.285;11579.474
816.759;12140.667;  453.283;11666.972
817.325;12297.937;  404.282;11325.530
817.892;12282.455;  526.280;11105.369
818.458;12043.024;  534.278;10843.928
819.024;11776.643;  578.276;10714.406
819.591;10951.862;  528.275;10469.165
820.157;10580.431;  434.273;10235.523
820.723;11277.449;  525.271;10847.563
821.289;11740.868;  791.270;11040.980
821.855;11020.938;  537.268;10357.100
822.421;10624.106;  444.266; 9978.918
822.987;10747.575;  433.264; 9754.177
823.553;10687.244;  512.263;10065.755
824.119;10731.413;  543.261;10036.294
824.685;10690.932;  600.259;10029.192
825.251;10358.700;  542.258;10199.230
825.816; 9929.169;  622.256; 9820.189
826.382; 9331.038;  556.254; 9297.248
826.948; 9175.607;  585.253; 9381.347
827.513; 9313.326;  504.251; 9450.726
828.079; 9382.495;  469.249; 9472.444
828.645; 9415.514;  543.247; 9292.643
829.210; 9184.133;  434.246; 9065.341
829.776; 8984.151;  570.244; 9132.620
830.341; 8766.771;  564.242; 9092.878
830.906; 8882.640;  584.241; 9078.557
831.472; 8791.458;  449.239; 8534.535
832.037; 8846.027;  581.237; 8677.874
832.602; 8503.796;  467.235; 8628.692
833.167; 8365.765;  540.234; 8879.031
833.733; 8300.533;  556.232; 9189.790
834.298; 8095.302;  412.230; 9052.608
834.863; 8152.421;  522.229; 8895.087
835.428; 8103.040;  565.227; 8824.266
835.993; 8214.409;  546.225; 8845.385
836.558; 7906.278;  548.224; 8888.563
837.123; 8043.097;  686.222; 8966.582
837.688; 7926.666;  521.220; 8617.860
838.253; 7547.135;  510.218; 8590.699
838.817; 7511.153;  487.217; 8443.797
839.382; 7900.822;  608.215; 8799.356
839.947; 8114.741;  537.213; 8810.595
840.511; 8033.910;  610.212; 8796.394
841.076; 7440.929;  413.210; 8347.231
841.641; 7328.898;  549.208; 8224.330
842.205; 7313.517;  548.206; 8223.349
842.770; 7430.786;  632.205; 8622.107
843.334; 7398.705;  493.203; 8410.386
843.898; 7424.073;  500.201; 8337.465
844.463; 7467.392;  598.200; 8506.283
845.027; 7193.061;  512.198; 8280.962
845.591; 7104.880;  562.196; 8231.141
846.156; 7077.249;  490.195; 7969.179
846.720; 7268.917;  592.193; 7768.278
847.284; 7102.137;  497.191; 7630.957
847.848; 6913.855;  570.189; 7472.395
848.412; 6744.024;  553.188; 7437.394
848.976; 6718.743;  637.186; 7674.592
849.540; 6963.412;  660.184; 7836.011
850.104; 7066.081;  600.183; 7913.669
850.668; 7009.950;  405.181; 7694.508
851.232; 6948.119;  426.179; 7756.887
851.796; 6777.688;  506.177; 7926.545
852.359; 6708.606;  596.176; 7827.844
852.923; 6465.225;  574.174; 7641.163
853.487; 6489.144;  578.172; 7342.501
854.050; 6279.063;  371.171; 7042.820
854.614; 6222.082;  501.169; 7151.338
855.177; 6065.000;  542.167; 7105.077
855.741; 5980.220;  555.166; 6989.675
856.304; 5907.138;  575.164; 6596.634
856.868; 5603.458;  453.162; 6356.272
857.431; 5495.076;  522.160; 6468.571
857.995; 5666.695;  497.159; 6373.210
858.558; 5815.714;  551.157; 6324.448
859.121; 5756.183;  567.155; 6408.327
859.684; 5548.751;  516.154; 6347.886
860.247; 5382.271;  519.152; 6321.264
860.810; 5391.540;  486.150; 6301.903
861.374; 5734.208;  667.148; 6607.881
861.937; 5816.427;  465.147; 6408.200
862.500; 5957.296;  506.145; 6572.639
863.062; 5707.615;  431.143; 6387.297
863.625; 5678.583;  541.142; 6190.836
864.188; 5377.953;  497.140; 5807.254
864.751; 5264.271;  498.138; 5682.413
865.314; 5207.791;  535.136; 5547.492
865.876; 5278.909;  555.135; 5500.150
866.439; 5205.678;  556.133; 5415.909
867.002; 5309.347;  688.131; 5501.567
867.564; 5092.116;  595.130; 5413.946
868.127; 4914.885;  527.128; 5160.325
868.689; 4871.554;  549.126; 5133.183
869.252; 4872.422;  596.125; 5252.382
869.814; 4823.691;  474.123; 5297.141
870.377; 5021.960;  533.121; 5390.919
870.939; 5320.429;  773.119; 5599.898
871.501; 4998.548;  550.118; 5248.336
872.063; 4691.767;  398.116; 4854.235
872.626; 4636.835;  419.114; 4817.074
873.188; 4837.404;  534.113; 4987.732
873.750; 4792.173;  532.111; 4868.651
874.312; 4828.142;  525.109; 4779.330
874.874; 5005.911;  635.107; 4866.348
875.436; 4723.930;  571.106; 4718.887
875.998; 4399.849;  631.104; 4660.005
876.560; 4185.318;  552.102; 4462.964
877.122; 3936.987;  466.101; 4145.042
877.683; 3930.206;  609.099; 4056.481
878.245; 3714.124;  493.097; 3950.740
878.807; 3685.243;  561.096; 4058.958
879.369; 3575.762;  448.094; 3954.677
879.930; 3612.281;  447.092; 3941.495
880.492; 3829.450;  620.090; 4067.014
881.053; 3795.419;  462.089; 3859.633
881.615; 3721.688;  468.087; 3776.071
882.176; 3605.656;  518.085; 3734.750
882.738; 3655.725;  603.084; 3678.489
883.299; 3420.794;  378.082; 3405.407
883.860; 3303.013;  423.080; 3351.106
884.422; 3278.832;  552.078; 3394.044
884.983; 3054.201;  481.077; 3166.443
885.544; 3004.720;  559.075; 3189.802
886.105; 3044.339;  525.073; 3160.360
886.666; 3018.708;  513.072; 3093.059
887.227; 2897.776;  450.070; 2941.957
887.788; 2853.995;  528.068; 2974.836
888.349; 2631.714;  437.067; 2721.214
888.910; 2636.183;  596.065; 2696.493
889.471; 2546.802;  546.063; 2560.172
890.032; 2498.471;  541.061; 2558.190
890.593; 2453.390;  574.060; 2567.669
891.153; 2310.708;  504.058; 2460.307
891.714; 2143.977;  434.056; 2372.046
892.275; 2090.846;  417.055; 2309.505
892.835; 2146.065;  590.053; 2382.543
893.396; 2068.984;  565.051; 2295.502
893.956; 1928.703;  484.049; 2162.420
894.517; 1902.272;  533.048; 2125.439
895.077; 1870.041;  534.046; 2086.978
895.638; 1883.109;  637.044; 2126.316
896.198; 1648.828;  486.043; 1838.275
896.758; 1682.347;  580.041; 1892.813
897.319; 1584.516;  512.039; 1792.232
897.879; 1563.885;  535.038; 1762.751
898.439; 1461.054;  418.036; 1661.149
898.999; 1515.423;  543.034; 1781.468
899.559; 1443.941;  534.032; 1703.347
900.119; 1307.910;  450.031; 1537.525
900.679; 1390.429;  647.029; 1638.384
901.239; 1297.898;  565.027; 1527.902
901.799; 1228.567;  493.026; 1456.441
902.359; 1166.486;  463.024; 1357.140
902.919; 1150.505;  481.022; 1331.118
903.479; 1121.174;  501.020; 1317.257
904.038; 1068.142;  436.019; 1262.595
904.598;  980.561;  380.017; 1152.034
905.158; 1056.230;  497.015; 1240.893
905.717; 1057.649;  492.014; 1233.691
906.277; 1046.268;  518.012; 1217.330
906.836; 1053.687;  544.010; 1222.408
907.396; 1022.106;  552.009; 1193.047
907.955; 1004.125;  574.007; 1182.526
908.515;  943.943;  476.005; 1099.364
909.074;  931.262;  497.003; 1092.863
909.633;  920.631;  514.002; 1069.121
910.192; 1030.850;  642.000; 1196.460
910.752;  892.800;  493.000; 1029.960
911.311;  868.600;  464.000; 1009.780
911.870;  843.550;  506.000;  971.460
912.429;  948.850;  575.000; 1094.080
912.988;  924.400;  599.000; 1081.060
913.547;  818.550;  460.000;  940.380
914.106;  861.950;  552.000;  999.420
914.665;  847.150;  519.000;  984.020
915.224;  888.400;  619.000; 1035.760
915.782;  810.500;  487.000;  922.560
916.341;  908.250;  600.000; 1049.840
916.900;  797.450;  510.000;  925.260
917.458;  766.650;  455.000;  884.220
918.017;  832.100;  535.000;  942.600
918.576;  801.100;  513.000;  904.440
919.134;  731.750;  450.000;  837.980
919.693;  780.450;  491.000;  893.060
920.251;  769.950;  503.000;  876.500
920.809;  745.250;  471.000;  839.580
921.368;  781.650;  478.000;  885.360
921.926;  740.000;  443.000;  842.940
922.484;  798.500;  529.000;  903.360
923.042;  769.800;  491.000;  880.340
923.601;  881.300;  585.000;  998.680
924.159;  827.500;  547.000;  935.560
924.717;  743.650;  485.000;  841.080
925.275;  795.200;  524.000;  903.240
925.833;  689.000;  377.000;  779.320
926.391;  817.000;  520.000;  938.380
926.949;  757.850;  479.000;  857.680
927.506;  803.250;  552.000;  903.500
928.064;  775.650;  504.000;  877.580
928.622;  783.500;  500.000;  880.100
929.180;  730.050;  446.000;  814.180
929.737;  717.050;  435.000;  808.540
930.295;  827.650;  532.000;  928.480
930.853;  755.650;  448.000;  849.100
931.410;  734.500;  426.000;  821.120
931.968;  840.650;  539.000;  940.660
932.525;  817.550;  517.000;  909.380
933.082;  726.900;  406.000;  811.440
933.640;  835.500;  538.000;  925.900
934.197;  801.950;  503.000;  886.360
934.754;  805.850;  461.000;  897.780
935.312;  779.450;  466.000;  863.340
935.869;  913.100;  577.000; 1012.980
936.426;  790.300;  497.000;  872.800
936.983;  789.450;  465.000;  889.020
937.540;  760.000;  422.000;  838.280
938.097;  846.500;  529.000;  940.120
938.654;  812.450;  502.000;  898.860
939.211;  858.550;  512.000;  952.480
939.768;  820.050;  478.000;  915.420
940.324;  814.850;  467.000;  904.200
940.881;  799.750;  476.000;  878.500
941.438;  915.700;  581.000; 1021.200
941.995;  908.200;  560.000;  992.560
942.551;  787.550;  439.000;  875.620
943.108;  843.300;  529.000;  937.920
943.664;  782.250;  450.000;  869.340
944.221;  949.300;  628.000; 1088.140
944.777;  747.600;  418.000;  869.680
945.334;  754.300;  471.000;  884.840
945.890;  802.750;  486.000;  946.480
946.446;  809.800;  505.000;  947.020
947.003;  836.950;  508.000;  964.940
947.559;  923.050;  643.000; 1063.040
948.115;  896.450;  581.000; 1026.540
948.671;  845.650;  511.000;  967.300
949.227;  749.700;  412.000;  859.560
949.783;  746.600;  428.000;  858.900
950.339;  859.000;  531.000;  991.000
950.895;  882.800;  552.000; 1023.840
951.451;  813.250;  501.000;  925.280
952.007;  873.050;  544.000;  998.540
952.563;  808.500;  498.000;  937.780
953.118;  803.600;  475.000;  904.940
953.674;  837.150;  504.000;  935.780
954.230;  843.150;  500.000;  949.640
954.785;  821.300;  484.000;  936.640
955.341;  874.300;  535.000;  998.160
955.897;  729.850;  393.000;  834.660
956.452;  833.850;  524.000;  953.840
957.008;  960.600;  616.000; 1083.640
957.563;  891.350;  554.000; 1009.540
958.118;  779.950;  473.000;  877.700
958.674;  826.200;  524.000;  946.780
959.229;  881.750;  572.000; 1013.980
959.784;  725.700;  402.000;  832.400
960.339;  887.750;  563.000; 1001.280
960.894;  846.500;  532.000;  963.760
961.449;  750.550;  452.000;  859.960
962.004; 1051.450;  790.000; 1212.840
962.559;  753.750;  455.000;  860.140
963.114;  649.500;  347.000;  742.480
963.669;  799.250;  502.000;  915.500
964.224;  763.950;  452.000;  874.340
964.779;  729.800;  409.000;  828.420
965.334;  886.150;  609.000; 1017.860
965.888;  759.800;  475.000;  875.360
966.443;  844.850;  549.000;  972.380
966.998;  707.200;  396.000;  819.460
967.552;  790.150;  480.000;  908.380
968.107;  751.500;  482.000;  868.300
968.661;  801.550;  539.000;  922.440
969.216;  744.400;  484.000;  856.280
969.770;  795.700;  516.000;  917.200
970.324;  797.900;  530.000;  923.140
970.879;  819.600;  579.000;  947.180
971.433;  824.900;  549.000;  952.720
971.987;  769.450;  520.000;  895.340
972.541;  798.550;  520.000;  917.100
973.095;  869.150;  583.000; 1009.460
973.649;  691.050;  449.000;  809.480
974.203;  715.100;  446.000;  829.040
974.757;  734.450;  492.000;  855.220
975.311;  752.950;  480.000;  872.600
975.865;  763.700;  511.000;  881.820
976.419;  740.700;  504.000;  857.400
976.973;  735.600;  461.000;  849.620
977.526;  816.800;  556.000;  949.920
978.080;  695.050;  424.000;  796.780
978.634;  796.450;  567.000;  921.320
979.187;  795.350;  526.000;  905.400
979.741;  888.350;  608.000; 1018.380
980.294;  682.450;  412.000;  789.160
980.848;  619.750;  396.000;  717.220
981.401;  696.850;  475.000;  816.540
981.955;  741.600;  513.000;  844.300
982.508;  650.450;  410.000;  746.340
983.061;  791.300;  556.000;  915.260
983.615;  690.600;  454.000;  798.800
984.168;  663.650;  425.000;  770.080
984.721;  757.450;  508.000;  880.760
985.274;  748.550;  533.000;  867.500
985.827;  722.800;  518.000;  834.220
986.380;  620.450;  385.000;  721.340
986.933;  748.600;  524.000;  864.800
987.486;  745.300;  522.000;  861.920
988.039;  743.700;  558.000;  863.100
988.591;  769.650;  575.000;  893.260
989.144;  630.550;  434.000;  737.260
989.697;  646.600;  452.000;  758.740
990.250;  733.950;  543.000;  858.100
990.802;  652.250;  437.000;  755.860
991.355;  834.350;  669.000;  974.880
991.907;  736.175;  572.500;  864.320
992.460;  638.000;  476.000;  753.760
993.012;  643.300;  481.000;  749.540
993.565;  610.900;  436.000;  711.360
994.117;  798.750;  670.000;  950.780
994.669;  599.500;  441.000;  701.320
995.221;  680.850;  512.000;  791.920
995.774;  668.300;  512.000;  787.580
996.326;  627.200;  496.000;  740.220
996.878;  714.250;  571.000;  838.420
997.430;  595.450;  464.000;  699.860
997.982;  635.450;  508.000;  750.140
998.534;  627.500;  486.000;  739.060
999.086;  628.150;  486.000;  738.220
999.638;  566.800;  423.000;  661.380
1000.190;  602.950;  492.000;  699.320
1000.741;  633.750;  536.000;  742.700
1001.293;  587.050;  431.000;  686.020
1001.845;  574.200;  465.000;  676.640
1002.396;  639.000;  539.000;  743.400
1002.948;  630.800;  528.000;  737.400
1003.500;  612.950;  494.000;  723.780
1004.051;  772.750;  675.000;  907.580
1004.603;  676.050;  574.000;  791.820
1005.154;  517.150;  419.000;  608.980
1005.705;  612.700;  524.000;  723.960
1006.257;  595.150;  501.000;  707.220
1006.808;  598.800;  507.000;  685.460
1007.359;  651.650;  575.000;  763.240
1007.910;  554.250;  453.000;  646.640
1008.461;  621.600;  542.000;  732.940
1009.013;  498.300;  412.000;  588.340
1009.564;  673.250;  619.000;  793.520
1010.115;  501.850;  427.000;  597.040
1010.665;  517.750;  434.000;  602.160
1011.216;  568.600;  497.000;  667.920
1011.767;  587.050;  512.000;  697.920
1012.318;  627.650;  549.000;  736.980
1012.869;  566.800;  497.000;  679.000
1013.419;  507.850;  411.000;  603.120
1013.970;  562.950;  490.000;  666.640
1014.521;  527.750;  456.000;  620.620
1015.071;  567.150;  476.000;  670.380
1015.622;  532.650;  496.000;  635.460
1016.172;  507.850;  455.000;  596.820
1016.723;  517.150;  473.000;  614.380
1017.273;  502.900;  454.000;  604.160
1017.823;  544.350;  496.000;  650.340
1018.374;  518.100;  440.000;  611.760
1018.924;  611.050;  559.000;  716.880
1019.474;  602.150;  544.000;  718.880
1020.024;  551.200;  487.000;  657.580
1020.574;  606.100;  570.000;  726.160
1021.124;  572.850;  528.000;  673.580
1021.674;  469.000;  401.000;  559.120
1022.224;  595.550;  522.000;  708.940
1022.774;  568.550;  489.000;  668.820
1023.324;  636.650;  593.000;  753.520
1023.874;  743.400;  660.000;  875.760
1024.423;  519.000;  456.000;  613.700
1024.973;  511.400;  487.000;  610.760
1025.523;  521.000;  452.000;  620.960
1026.072;  514.100;  448.000;  606.420
1026.622;  567.750;  518.000;  675.740
1027.172;  606.200;  580.000;  715.660
1027.721;  504.800;  437.000;  601.220
1028.270;  555.000;  500.000;  663.400
1028.820;  542.600;  494.000;  638.080
1029.369;  522.050;  477.000;  612.700
1029.918;  541.300;  464.000;  649.840
1030.468;  469.150;  402.000;  564.780
1031.017;  536.650;  494.000;  634.800
1031.566;  509.000;  491.000;  608.900
1032.115;  585.500;  536.000;  694.500
1032.664;  506.650;  418.000;  596.480
1033.213;  623.500;  567.000;  735.420
1033.762;  531.700;  497.000;  635.620
1034.311;  571.850;  507.000;  677.220
1034.860;  581.700;  534.000;  691.000
1035.408;  609.250;  543.000;  722.720
1035.957;  610.250;  537.000;  719.540
1036.506;  446.650;  374.000;  530.800
1037.055;  713.250;  665.000;  844.320
1037.603;  559.300;  507.000;  664.000
1038.152;  445.300;  395.000;  534.760
1038.700;  481.950;  410.000;  585.740
1039.249;  578.700;  531.000;  681.220
1039.797;  542.100;  482.000;  633.360
1040.345;  596.350;  545.000;  705.420
1040.894;  530.600;  461.000;  625.300
1041.442;  529.550;  503.000;  632.200
1041.990;  468.800;  399.000;  559.160
1042.538;  450.950;  399.000;  536.180
1043.087;  476.200;  464.000;  570.860
1043.635;  563.500;  524.000;  670.500
1044.183;  498.650;  453.000;  586.400
1044.731;  485.000;  427.000;  576.000
1045.279;  564.800;  519.000;  674.920
1045.827;  756.200;  714.000;  892.400
1046.374;  434.100;  398.000;  515.420
1046.922;  500.000;  474.000;  590.580
1047.470;  583.750;  541.000;  691.300
1048.018;  548.400;  509.000;  647.960
1048.565;  600.550;  575.000;  708.600
1049.113;  458.500;  401.000;  557.000
1049.660;  529.650;  485.000;  629.660
1050.208;  564.450;  554.000;  675.640
1050.755;  506.900;  468.000;  606.580
1051.303;  577.300;  547.000;  686.820
1051.850;  530.900;  494.000;  635.120
1052.397;  388.600;  340.000;  473.960
1052.945;  515.500;  513.000;  617.760
1053.492;  627.150;  618.000;  741.840
1054.039;  606.550;  561.000;  720.180
1054.586;  471.950;  397.000;  557.240
1055.133;  589.550;  528.000;  693.140
1055.680;  542.000;  508.000;  646.620
1056.227;  449.600;  385.000;  542.780
1056.774;  663.200;  624.000;  794.980
1057.321;  440.400;  400.000;  523.260
1057.868;  535.950;  536.000;  651.320
1058.415;  545.400;  502.000;  651.980
1058.961;  569.100;  510.000;  678.940
1059.508;  532.750;  472.000;  643.820
1060.055;  490.400;  456.000;  581.780
1060.601;  516.350;  470.000;  624.300
1061.148;  515.650;  495.000;  616.820
1061.694;  497.250;  463.000;  592.580
1062.241;  500.800;  498.000;  596.320
1062.787;  559.800;  554.000;  663.140
1063.334;  682.750;  665.000;  808.560
1063.880;  567.650;  531.000;  668.360
1064.426;  597.400;  583.000;  706.820
1064.972;  497.900;  461.000;  601.340
1065.518;  476.450;  415.000;  566.640
1066.065;  525.150;  502.000;  624.460
1066.611;  503.250;  483.000;  598.800
1067.157;  544.000;  509.000;  641.860
1067.703;  557.150;  514.000;  668.480
1068.249;  509.350;  475.000;  605.220
1068.794;  527.950;  499.000;  626.880
1069.340;  485.400;  447.000;  578.960
1069.886;  495.850;  470.000;  590.700
1070.432;  446.800;  405.000;  541.720
1070.977;  500.300;  477.000;  601.080
1071.523;  475.100;  431.000;  573.060
1072.068;  488.100;  441.000;  582.000
1072.614;  441.050;  387.000;  527.760
1073.160;  575.400;  556.000;  687.040
1073.705;  476.450;  488.000;  572.520
1074.250;  468.850;  479.000;  559.900
1074.796;  552.150;  502.000;  655.160
1075.341;  561.800;  525.000;  664.100
1075.886;  497.850;  470.000;  594.240
1076.431;  552.000;  514.000;  649.880
1076.976;  535.850;  491.000;  639.220
1077.521;  489.300;  463.000;  583.080
1078.067;  488.350;  450.000;  579.400
1078.612;  555.150;  537.000;  661.620
1079.156;  507.650;  481.000;  601.540
1079.701;  583.500;  543.000;  693.260
1080.246;  581.500;  599.000;  696.300
1080.791;  531.150;  485.000;  625.020
1081.336;  549.850;  502.000;  659.320
1081.880;  545.500;  526.000;  649.680
1082.425;  484.050;  421.000;  573.480
1082.970;  604.300;  577.000;  717.040
1083.514;  497.050;  482.000;  597.000
1084.059;  489.400;  455.000;  586.720
1084.603;  469.950;  437.000;  565.840
1085.147;  542.500;  496.000;  645.220
1085.692;  603.850;  566.000;  716.800
1086.236;  426.800;  419.000;  503.140
1086.780;  636.050;  621.000;  751.440
1087.325;  542.950;  518.000;  654.620
1087.869;  521.600;  482.000;  610.700
1088.413;  589.450;  567.000;  705.040
1088.957;  448.750;  457.000;  543.400
1089.501;  642.150;  634.000;  766.640
1090.045;  604.850;  611.000;  726.480
1090.589;  477.300;  453.000;  569.920
1091.133;  568.750;  513.000;  673.340
1091.676;  498.550;  450.000;  591.940
1092.220;  505.750;  481.000;  600.920
1092.764;  595.000;  579.000;  706.960
1093.307;  561.850;  526.000;  673.780
1093.851;  465.300;  442.000;  556.540
1094.395;  570.900;  571.000;  683.140
1094.938;  533.350;  516.000;  632.520
1095.482;  465.850;  455.000;  559.800
1096.025;  591.450;  565.000;  710.880
1096.568;  658.950;  631.000;  779.280
1097.112;  424.550;  405.000;  508.180
1097.655;  502.750;  518.000;  603.000
1098.198;  502.950;  473.000;  600.180
1098.741;  516.450;  490.000;  612.860
1099.285;  548.600;  531.000;  657.300
1099.828;  361.700;  330.000;  439.400
1100.371;  507.000;  497.000;  608.160
1100.914;  572.800;  552.000;  682.660
1101.457;  564.850;  555.000;  679.900
1101.999;  479.300;  447.000;  584.680
1102.542;  542.750;  491.000;  641.440
1103.085;  551.700;  548.000;  658.500
1103.628;  638.900;  642.000;  762.060
1104.170;  496.250;  463.000;  588.280
1104.713;  537.050;  529.000;  646.700
1105.256;  462.800;  403.000;  557.440
1105.798;  420.050;  400.000;  499.980
1106.341;  615.800;  603.000;  728.900
1106.883;  433.000;  393.000;  521.340
1107.425;  561.850;  534.000;  668.180
1107.968;  518.550;  517.000;  612.380
1108.510;  570.800;  572.000;  684.960
1109.052;  512.900;  473.000;  612.620
1109.594;  475.600;  408.000;  554.440
1110.136;  536.600;  509.000;  643.220
1110.679;  527.000;  552.000;  633.080
1111.221;  507.150;  462.000;  604.460
1111.763;  458.250;  444.000;  559.220
1112.304;  449.150;  428.000;  547.140
1112.846;  552.300;  564.000;  666.240
1113.388;  795.050;  770.000;  942.180
1113.930;  578.900;  589.000;  694.200
1114.472;  510.750;  488.000;  606.540
1115.013;  459.050;  424.000;  551.280
1115.555;  493.100;  486.000;  587.100
1116.097;  480.800;  459.000;  579.480
1116.638;  575.450;  582.000;  684.600
1117.180;  554.700;  526.000;  667.740
1117.721;  476.100;  456.000;  568.580
1118.262;  569.850;  521.000;  677.960
1118.804;  533.100;  529.000;  637.340
1119.345;  483.800;  461.000;  578.400
1119.886;  584.850;  601.000;  704.040
1120.427;  487.800;  478.000;  589.020
1120.969;  499.950;  480.000;  597.920
1121.510;  470.650;  442.000;  563.060
1122.051;  607.300;  598.000;  723.580
1122.592;  552.700;  514.000;  655.420
1123.133;  450.050;  473.000;  547.940
1123.673;  589.350;  586.000;  706.480
1124.214;  512.850;  511.000;  612.460
1124.755;  540.250;  537.000;  639.460
1125.296;  519.900;  505.000;  627.320
1125.836;  577.350;  570.000;  691.500
1126.377;  492.850;  467.000;  599.660
1126.918;  518.300;  505.000;  614.980
1127.458;  516.300;  528.000;  622.220
1127.999;  548.250;  548.000;  656.980
1128.539;  577.600;  545.000;  694.240
1129.079;  531.200;  527.000;  632.720
1129.620;  468.700;  440.000;  558.100
1130.160;  447.100;  456.000;  539.480
1130.700;  533.900;  512.000;  640.840
1131.240;  538.300;  546.000;  643.700
1131.781;  518.700;  535.000;  619.680
1132.321;  500.300;  504.000;  599.120
1132.861;  463.450;  446.000;  564.200
1133.401;  500.800;  484.000;  593.940
1133.941;  525.600;  551.000;  626.280
1134.481;  496.850;  505.000;  597.580
1135.020;  506.800;  488.000;  609.160
1135.560;  571.050;  567.000;  674.940
1136.100;  412.950;  398.000;  501.160
1136.640;  423.800;  411.000;  510.480
1137.179;  443.950;  428.000;  537.960
1137.719;  506.900;  486.000;  605.400
1138.258;  491.000;  501.000;  587.360
1138.798;  547.900;  547.000;  663.780
1139.337;  397.050;  369.000;  482.840
1139.877;  542.500;  524.000;  642.360
1140.416;  742.500;  763.000;  878.060
1140.955;  437.100;  404.000;  535.380
1141.494;  555.550;  559.000;  669.280
1142.034;  482.400;  482.000;  583.520
1142.573;  541.900;  560.000;  646.280
1143.112;  458.900;  469.000;  553.480
1143.651;  454.300;  452.000;  536.480
1144.190;  586.000;  551.000;  691.640
1144.729;  510.050;  479.000;  607.420
1145.267;  481.600;  500.000;  584.900
1145.806;  526.000;  544.000;  637.040
1146.345;  531.400;  528.000;  635.020
1146.884;  519.400;  499.000;  622.500
1147.422;  439.850;  443.000;  533.060
1147.961;  594.300;  580.000;  708.460
1148.500;  565.300;  556.000;  669.720
1149.038;  536.600;  532.000;  632.500
1149.577;  577.750;  607.000;  698.640
1150.115;  368.000;  325.000;  452.280
1150.653;  506.050;  512.000;  607.340
1151.192;  462.350;  456.000;  552.920
1151.730;  539.500;  562.000;  652.560
1152.268;  485.100;  471.000;  589.520
1152.806;  476.850;  494.000;  571.180
1153.344;  474.550;  484.000;  577.640
1153.882;  494.800;  494.000;  600.060
1154.421;  385.400;  363.000;  470.620
1154.958;  496.150;  501.000;  595.240
1155.496;  534.100;  553.000;  645.280
1156.034;  606.600;  600.000;  721.880
1156.572;  560.350;  537.000;  667.060
1157.110;  387.600;  367.000;  473.940
1157.647;  573.800;  576.000;  676.960
1158.185;  468.850;  484.000;  564.320
1158.723;  415.900;  412.000;  509.200
1159.260;  588.750;  588.000;  701.700
1159.798;  552.000;  555.000;  658.160
1160.335;  523.800;  536.000;  631.820

