membrane
Integration time [ms]: 384.568
Averaging Nr. [scans]: 20
Smoothing Nr. [pixels]: 0
Data measured with spectrometer [name]: 7414430SP
Wave   ;Sample   ;Dark     ;Reference
[nm]   ;[counts] ;[counts] ;[counts] 

288.544;  642.801;  568.515;  793.890
289.143;  549.807;  409.561;  681.602
289.742;  677.772;  554.563;  828.814
290.341;  642.873;  505.621;  789.841
290.940;  595.025;  470.651;  730.702
291.538;  721.020;  638.612;  881.108
292.137;  647.678;  534.599;  792.581
292.736;  795.773;  681.621;  975.101
293.335;  600.713;  510.669;  735.086
293.934;  634.471;  495.663;  781.677
294.532;  863.902;  741.656; 1031.958
295.131;  700.444;  595.746;  834.394
295.730;  680.740;  598.740;  809.588
296.328;  657.582;  543.748;  783.442
296.927;  650.931;  597.761;  779.652
297.525;  653.832;  550.746;  781.236
298.124;  546.040;  421.822;  654.009
298.722;  638.970;  559.769;  761.933
299.321;  591.757;  487.787;  708.597
299.919;  634.887;  498.805;  751.918
300.518;  581.832;  469.828;  689.338
301.116;  587.134;  504.786;  691.381
301.715;  615.305;  511.760;  730.222
302.313;  597.196;  453.771;  704.943
302.911;  631.874;  513.844;  733.830
303.509;  796.223;  690.770;  925.627
304.108;  655.062;  544.767;  760.383
304.706;  692.528;  555.763;  801.664
305.304;  696.555;  584.826;  796.707
305.902;  678.293;  580.759;  784.484
306.500;  631.949;  507.790;  728.200
307.098;  647.887;  522.797;  746.560
307.696;  690.860;  583.814;  780.432
308.294;  641.618;  558.798;  731.359
308.892;  674.358;  546.766;  759.769
309.490;  622.129;  509.809;  712.161
310.088;  705.332;  605.831;  788.444
310.686;  725.731;  599.777;  821.749
311.284;  679.314;  545.812;  766.040
311.882;  650.651;  537.830;  731.225
312.480;  629.154;  498.852;  697.167
313.078;  720.167;  628.829;  808.331
313.675;  621.349;  501.790;  691.600
314.273;  710.211;  596.854;  797.837
314.871;  537.251;  410.841;  589.829
315.468;  598.273;  515.844;  652.090
316.066;  623.118;  490.792;  694.427
316.664;  589.415;  490.855;  656.351
317.261;  807.571;  738.822;  910.128
317.859;  697.316;  589.840;  768.735
318.456;  733.148;  653.806;  830.096
319.054;  700.513;  615.833;  787.828
319.651;  674.736;  575.818;  759.928
320.249;  718.336;  657.818;  810.188
320.846;  634.922;  532.804;  714.286
321.443;  742.852;  658.817;  832.135
322.041;  726.144;  623.828;  812.315
322.638;  632.075;  561.821;  701.456
323.235;  596.346;  516.771;  665.683
323.833;  660.503;  582.791;  740.354
324.430;  562.175;  431.805;  615.900
325.027;  790.872;  719.791;  876.855
325.624;  586.205;  430.747;  644.532
326.221;  624.662;  470.764;  689.717
326.818;  754.111;  639.788;  818.332
327.415;  683.521;  529.732;  748.828
328.012;  636.026;  477.725;  690.585
328.609;  669.513;  521.743;  731.389
329.206;  721.335;  601.760;  778.621
329.803;  686.373;  539.767;  737.841
330.400;  656.006;  498.741;  704.260
330.997;  753.885;  568.762;  817.147
331.594;  739.544;  600.815;  788.185
332.191;  687.243;  534.767;  728.722
332.787;  780.373;  605.786;  844.463
333.384;  711.078;  523.840;  763.093
333.981;  747.594;  572.897;  815.687
334.578;  653.095;  498.876;  708.378
335.174;  674.872;  497.878;  731.469
335.771;  763.562;  594.918;  836.456
336.367;  660.153;  505.953;  710.631
336.964;  731.627;  578.927;  793.266
337.561;  676.699;  529.941;  731.112
338.157;  814.493;  709.000;  911.916
338.754;  722.788;  608.020;  796.589
339.350;  656.527;  535.012;  722.493
339.946;  694.328;  575.978;  773.135
340.543;  755.078;  657.060;  846.136
341.139;  644.646;  529.094;  720.836
341.735;  690.176;  610.102;  772.593
342.332;  626.300;  532.087;  691.472
342.928;  701.897;  574.076;  795.394
343.524;  683.107;  581.108;  761.684
344.120;  657.756;  531.115;  738.562
344.716;  632.997;  541.060;  723.717
345.313;  702.478;  584.063;  795.342
345.909;  552.151;  435.072;  627.336
346.505;  660.744;  573.043;  740.247
347.101;  714.830;  594.029;  827.864
347.697;  689.969;  585.008;  785.398
348.293;  545.714;  442.033;  627.244
348.889;  650.919;  578.023;  745.914
349.485;  592.088;  517.010;  688.205
350.081;  667.769;  577.005;  772.592
350.676;  599.341;  521.040;  691.606
351.272;  706.770;  594.987;  809.530
351.868;  662.979;  566.970;  780.497
352.464;  623.743;  564.990;  723.932
353.059;  562.438;  473.015;  646.017
353.655;  667.367;  584.980;  777.063
354.251;  648.991;  553.958;  759.845
354.846;  631.004;  534.006;  740.646
355.442;  637.887;  561.039;  753.071
356.038;  629.254;  554.998;  751.708
356.633;  615.966;  546.993;  728.594
357.229;  612.400;  547.008;  724.757
357.824;  600.465;  515.022;  703.600
358.420;  567.227;  529.017;  679.726
359.015;  574.196;  508.004;  695.357
359.610;  640.782;  579.992;  763.920
360.206;  502.875;  418.041;  603.240
360.801;  534.212;  482.003;  646.503
361.396;  604.328;  522.978;  725.975
361.992;  558.515;  504.022;  668.220
362.587;  554.913;  512.048;  670.160
363.182;  560.611;  531.024;  689.631
363.777;  606.681;  559.010;  738.242
364.372;  610.830;  578.016;  737.314
364.967;  562.840;  518.048;  680.744
365.563;  675.951;  623.995;  815.567
366.158;  564.427;  502.007;  685.161
366.753;  526.439;  489.992;  649.263
367.348;  616.357;  579.023;  746.056
367.942;  567.869;  519.008;  697.298
368.537;  610.949;  552.029;  754.245
369.132;  566.015;  517.017;  703.428
369.727;  525.548;  477.052;  638.079
370.322;  474.353;  430.032;  580.186
370.917;  577.391;  528.040;  710.646
371.511;  700.465;  666.020;  861.834
372.106;  637.590;  615.048;  776.964
372.701;  469.924;  439.062;  585.988
373.296;  696.946;  671.012;  863.135
373.890;  510.363;  486.048;  647.840
374.485;  562.408;  535.071;  691.199
375.079;  595.111;  582.021;  738.685
375.674;  658.453;  650.017;  812.970
376.268;  552.494;  528.049;  691.759
376.863;  466.980;  451.103;  580.327
377.457;  535.080;  514.031;  662.490
378.052;  611.263;  601.059;  764.884
378.646;  598.571;  571.058;  741.167
379.240;  576.213;  552.064;  721.176
379.835;  515.652;  532.037;  636.978
380.429;  443.371;  427.045;  562.557
381.023;  628.605;  597.070;  779.205
381.617;  546.096;  514.081;  680.106
382.212;  547.799;  518.036;  685.303
382.806;  608.530;  610.031;  760.690
383.400;  544.743;  550.067;  672.281
383.994;  533.185;  557.073;  664.870
384.588;  562.472;  535.029;  697.701
385.182;  587.597;  584.999;  726.624
385.776;  570.184;  539.019;  706.875
386.370;  548.436;  545.054;  681.968
386.964;  553.907;  553.031;  684.155
387.558;  479.904;  448.003;  598.360
388.152;  549.060;  545.045;  681.959
388.745;  658.660;  664.039;  814.707
389.339;  615.865;  623.014;  747.642
389.933;  561.293;  552.998;  695.370
390.527;  700.922;  720.024;  859.029
391.120;  479.439;  481.071;  595.318
391.714;  577.006;  588.039;  711.633
392.308;  638.423;  622.008;  780.253
392.901;  510.491;  497.037;  642.460
393.495;  483.886;  508.057;  595.414
394.089;  619.625;  649.046;  760.452
394.682;  567.517;  534.047;  697.188
395.275;  586.798;  577.047;  719.927
395.869;  545.140;  567.061;  667.314
396.462;  498.048;  512.039;  616.609
397.056;  634.123;  631.003;  776.621
397.649;  598.805;  601.057;  731.575
398.242;  586.645;  583.025;  712.645
398.836;  630.931;  630.013;  766.408
399.429;  505.346;  486.015;  631.041
400.022;  536.774;  536.059;  665.902
400.615;  669.583;  675.043;  805.609
401.208;  563.635;  580.009;  691.451
401.802;  570.895;  569.036;  699.329
402.395;  557.224;  535.059;  683.502
402.988;  570.893;  588.070;  696.627
403.581;  527.526;  560.023;  646.878
404.174;  560.320;  573.994;  686.568
404.767;  525.733;  529.040;  638.583
405.360;  506.217;  506.062;  621.445
405.953;  631.592;  648.008;  759.034
406.545;  603.154;  583.996;  725.342
407.138;  502.568;  507.039;  618.350
407.731;  507.161;  507.029;  613.303
408.324;  544.755;  560.975;  660.554
408.917;  562.697;  577.999;  681.864
409.509;  613.441;  618.027;  740.396
410.102;  534.202;  542.051;  643.948
410.695;  547.448;  557.970;  665.758
411.287;  494.878;  482.981;  599.821
411.880;  479.566;  456.988;  585.421
412.472;  504.264;  511.027;  613.092
413.065;  527.442;  563.006;  629.408
413.657;  479.360;  484.963;  576.678
414.250;  542.602;  525.966;  646.681
414.842;  560.801;  576.997;  676.353
415.434;  473.925;  475.969;  570.463
416.027;  540.216;  535.922;  652.196
416.619;  594.898;  592.962;  713.400
417.211;  498.245;  500.964;  599.352
417.804;  523.185;  540.914;  628.499
418.396;  503.391;  513.965;  607.643
418.988;  547.549;  525.944;  659.238
419.580;  473.548;  484.978;  568.276
420.172;  452.011;  456.944;  536.196
420.764;  561.424;  578.913;  672.482
421.356;  533.839;  544.925;  636.898
421.948;  562.641;  552.947;  677.661
422.540;  572.475;  580.890;  680.027
423.132;  501.175;  498.887;  600.641
423.724;  474.981;  455.931;  561.267
424.316;  520.035;  504.916;  621.345
424.908;  500.888;  498.869;  591.517
425.500;  548.807;  548.869;  647.978
426.092;  539.730;  551.867;  648.268
426.683;  580.717;  583.896;  684.836
427.275;  543.677;  540.848;  641.471
427.867;  568.431;  557.841;  668.948
428.458;  609.424;  592.842;  732.344
429.050;  574.899;  569.867;  680.749
429.642;  628.308;  615.845;  743.124
430.233;  478.747;  460.832;  569.356
430.825;  611.666;  584.837;  724.809
431.416;  587.265;  594.868;  698.241
432.008;  548.194;  538.823;  651.723
432.599;  559.079;  555.814;  656.073
433.190;  536.130;  534.859;  637.670
433.782;  499.377;  480.858;  590.395
434.373;  755.818;  771.800;  884.765
434.964;  513.137;  467.798;  602.920
435.556;  534.401;  533.836;  634.537
436.147;  646.109;  617.822;  758.490
436.738;  592.129;  584.816;  701.099
437.329;  607.808;  599.763;  721.723
437.920;  562.523;  563.852;  666.688
438.511;  476.997;  440.845;  564.526
439.103;  522.900;  524.772;  623.998
439.694;  575.924;  546.759;  681.583
440.285;  642.654;  607.773;  764.432
440.876;  719.799;  709.798;  845.738
441.466;  487.603;  436.786;  575.162
442.057;  556.818;  554.731;  665.814
442.648;  630.462;  617.772;  746.255
443.239;  530.292;  531.791;  620.477
443.830;  595.867;  578.742;  704.958
444.421;  553.861;  482.716;  655.474
445.011;  583.108;  529.779;  693.619
445.602;  629.411;  592.785;  743.126
446.193;  409.960;  379.734;  488.117
446.783;  538.089;  497.697;  640.397
447.374;  575.469;  563.772;  692.759
447.964;  600.365;  602.773;  713.770
448.555;  692.850;  654.692;  822.742
449.145;  557.864;  533.728;  662.853
449.736;  684.486;  656.742;  803.179
450.326;  607.921;  545.740;  713.626
450.917;  570.151;  549.684;  675.324
451.507;  508.281;  455.692;  600.661
452.097;  633.688;  600.710;  746.267
452.688;  620.400;  534.700;  742.160
453.278;  473.612;  444.693;  566.840
453.868;  674.236;  618.665;  793.550
454.458;  552.215;  473.696;  651.141
455.048;  595.942;  546.703;  711.783
455.639;  484.152;  439.663;  567.096
456.229;  606.587;  544.649;  710.694
456.819;  625.364;  579.648;  751.158
457.409;  657.256;  604.657;  773.993
457.999;  626.538;  557.628;  737.505
458.589;  573.592;  525.632;  686.606
459.179;  605.376;  550.641;  717.658
459.769;  530.259;  487.663;  627.099
460.358;  664.942;  644.621;  797.262
460.948;  586.346;  522.625;  689.503
461.538;  554.362;  488.618;  660.677
462.128;  563.137;  481.649;  664.934
462.717;  594.706;  569.572;  710.326
463.307;  599.446;  556.553;  705.846
463.897;  554.054;  479.614;  656.942
464.486;  710.429;  640.657;  837.128
465.076;  615.844;  582.592;  733.776
465.666;  547.261;  516.547;  652.900
466.255;  667.139;  592.604;  785.651
466.845;  555.339;  481.612;  666.749
467.434;  611.202;  576.589;  725.873
468.023;  554.002;  457.573;  658.357
468.613;  599.892;  526.632;  713.946
469.202;  553.464;  470.579;  646.507
469.791;  616.007;  542.548;  737.811
470.381;  625.192;  556.544;  742.813
470.970;  598.777;  486.551;  711.099
471.559;  621.052;  565.571;  733.291
472.148;  567.431;  481.536;  675.737
472.738;  642.866;  569.527;  765.466
473.327;  535.693;  430.534;  637.529
473.916;  621.787;  547.564;  737.446
474.505;  635.920;  552.520;  751.703
475.094;  682.725;  578.500;  806.570
475.683;  667.193;  568.521;  797.699
476.272;  630.462;  507.526;  730.632
476.861;  596.768;  481.495;  706.754
477.449;  619.051;  502.441;  728.487
478.038;  578.682;  477.526;  692.513
478.627;  601.401;  504.533;  714.852
479.216;  650.484;  583.468;  769.441
479.805;  658.828;  548.450;  783.375
480.393;  846.210;  759.493; 1008.945
480.982;  739.944;  614.513;  874.501
481.571;  727.955;  628.447;  858.333
482.159;  594.586;  453.444;  705.386
482.748;  699.834;  548.478;  821.385
483.336;  726.450;  621.459;  858.209
483.925;  663.234;  539.473;  774.373
484.513;  642.587;  520.408;  758.962
485.102;  683.938;  554.482;  810.965
485.690;  859.798;  716.421; 1011.050
486.278;  837.179;  684.421;  979.329
486.867;  686.583;  541.430;  809.662
487.455;  770.278;  578.448;  898.229
488.043;  637.124;  447.449;  748.361
488.631;  855.245;  712.404; 1005.079
489.220;  785.723;  584.396;  908.626
489.808;  637.451;  424.435;  741.415
490.396;  795.802;  593.422;  914.645
490.984;  714.244;  505.423;  830.161
491.572;  810.968;  618.405;  940.315
492.160;  802.174;  526.449;  919.081
492.748;  788.728;  526.453;  884.341
493.336;  924.180;  620.406; 1019.693
493.924;  876.143;  534.383;  958.077
494.512; 1002.921;  599.427; 1066.638
495.100; 1068.705;  569.449; 1103.280
495.687; 1185.469;  637.387; 1206.373
496.275; 1184.500;  490.398; 1150.796
496.863; 1347.828;  517.440; 1281.171
497.451; 1487.266;  507.445; 1386.805
498.038; 1654.170;  560.377; 1556.729
498.626; 1905.819;  520.384; 1741.407
499.214; 2329.779;  543.421; 2016.609
499.801; 2655.813;  548.436; 2220.633
500.389; 2889.923;  465.391; 2312.494
500.976; 3400.480;  564.395; 2744.849
501.564; 3724.978;  530.437; 3148.565
502.151; 3923.551;  369.446; 3515.999
502.738; 4536.999;  520.406; 3971.274
503.326; 5265.555;  490.375; 4403.796
503.913; 6001.256;  530.410; 5161.749
504.500; 6671.363;  553.430; 5986.420
505.088; 7484.829;  476.427; 6381.201
505.675; 8644.581;  520.377; 6925.547
506.262; 9718.420;  513.446; 7619.060
506.849;10714.191;  535.414; 8733.969
507.436;11441.873;  590.385; 9790.121
508.023;11441.284;  518.391; 9985.472
508.610;12051.614;  592.412;10434.618
509.197;13423.169;  546.469;11198.435
509.784;14710.940;  543.417;12391.194
510.371;15671.858;  433.368;13603.713
510.958;16254.548;  505.437;14426.586
511.545;16178.929;  634.424;15243.775
512.132;16928.840;  547.379;15945.876
512.719;18110.256;  475.410;16340.369
513.305;19995.291;  478.430;18011.766
513.892;21901.484;  600.455;19754.971
514.479;23196.822;  549.396;20967.805
515.066;24220.326;  615.402;22299.793
515.652;25453.914;  523.404;22908.660
516.239;26902.945;  603.420;23798.875
516.825;28397.354;  464.409;25567.275
517.412;29533.422;  686.393;28154.959
517.998;28508.240;  501.432;28344.111
518.585;26851.602;  509.446;27134.219
519.171;27111.893;  535.383;27268.576
519.758;27839.250;  440.395;28964.129
520.344;29292.842;  573.417;30664.494
520.930;31302.992;  456.459;32550.605
521.516;34613.805;  596.383;35422.895
522.103;36463.488;  639.408;38280.004
522.689;36530.465;  498.450;37835.117
523.275;36353.938;  614.439;37288.613
523.861;36941.527;  552.413;37281.395
524.447;38322.879;  614.384;37846.949
525.033;38345.176;  601.436;38321.949
525.619;36142.387;  461.452;38579.285
526.205;35655.633;  483.435;40622.875
526.791;36910.629;  528.398;42258.836
527.377;38107.082;  509.449;42966.902
527.963;39436.941;  570.470;42018.949
528.549;40912.875;  580.452;42476.828
529.135;40467.793;  481.428;41854.852
529.721;38630.859;  524.432;41237.711
530.306;38569.223;  714.452;41259.445
530.892;39743.215;  517.433;41506.047
531.478;42614.551;  526.417;43559.613
532.063;44444.840;  462.445;47695.563
532.649;46634.246;  662.479;50808.324
533.235;47060.086;  487.442;51787.500
533.820;47142.848;  612.394;52145.035
534.406;45770.531;  511.477;51133.488
534.991;44997.500;  497.448;49996.805
535.576;43296.527;  517.432;48882.852
536.162;41835.574;  729.426;46942.285
536.747;42703.770;  444.482;45711.746
537.333;44719.477;  487.479;48510.180
537.918;46855.477;  520.466;50439.891
538.503;46150.547;  498.421;50863.711
539.088;44886.504;  570.460;50906.922
539.673;47175.793;  530.467;52621.965
540.259;48705.051;  483.443;52368.094
540.844;48132.273;  434.436;50879.109
541.429;48035.066;  655.487;52077.777
542.014;48736.094;  451.502;52716.695
542.599;47092.379;  569.453;52363.281
543.184;46602.102;  489.483;53187.137
543.769;48231.742;  467.486;54697.605
544.354;47667.629;  493.480;53913.914
544.938;45157.629;  571.467;49680.164
545.523;42835.711;  652.446;47386.277
546.108;44974.973;  518.488;49151.949
546.693;47681.188;  533.513;51384.637
547.278;45628.707;  570.458;51853.254
547.862;43982.918;  517.429;51173.750
548.447;44408.137;  574.495;51691.395
549.031;44428.625;  497.523;52456.703
549.616;44405.270;  562.461;52714.516
550.201;45343.043;  489.473;52414.598
550.785;48524.109;  590.491;52355.059
551.370;51321.738;  465.503;54589.453
551.954;52730.949;  594.493;58267.348
552.538;51463.621;  577.473;59062.176
553.123;50650.516;  462.501;58115.285
553.707;51365.020;  511.538;56556.285
554.291;50798.699;  614.485;56201.668
554.876;49625.668;  623.498;55335.762
555.460;48895.672;  508.520;54155.703
556.044;49168.508;  493.553;53721.484
556.628;48769.492;  527.507;53731.016
557.212;47478.625;  603.462;54312.531
557.796;46081.070;  537.507;53797.773
558.380;45538.941;  548.549;56145.984
558.964;46723.332;  560.481;57277.930
559.548;48941.973;  445.483;56459.641
560.132;49888.355;  485.524;54434.543
560.716;50166.324;  460.547;54800.617
561.300;51363.281;  460.475;57606.945
561.884;50254.672;  560.512;58972.445
562.467;49913.734;  560.545;57327.570
563.051;50280.031;  540.544;54962.434
563.635;48751.551;  540.533;52594.473
564.219;45596.727;  504.511;50610.410
564.802;45944.695;  572.550;49551.180
565.386;46878.168;  516.541;48370.953
565.969;46989.543;  604.488;48178.871
566.553;47438.215;  698.527;49957.305
567.136;46312.918;  608.551;50369.594
567.720;47156.715;  542.569;49492.004
568.303;48894.324;  564.544;50616.352
568.887;50409.152;  548.534;50727.148
569.470;50809.449;  555.580;51698.379
570.053;47965.121;  572.573;52122.078
570.637;45688.066;  491.514;52536.438
571.220;45463.281;  588.510;51186.098
571.803;45849.750;  680.584;51032.762
572.386;46456.832;  495.561;49609.887
572.969;46880.707;  526.538;48285.926
573.552;47555.582;  531.549;47624.285
574.135;45822.539;  458.591;45498.641
574.718;42053.820;  474.559;41970.434
575.301;41057.387;  487.068;41447.137
575.884;40060.957;  499.577;40923.836
576.467;41790.715;  559.569;45267.723
577.050;41897.355;  575.580;48175.543
577.633;41266.277;  663.538;47729.328
578.216;42599.906;  503.574;47579.793
578.799;47695.914;  523.600;47820.996
579.381;48715.000;  669.567;48115.551
579.964;44402.168;  503.538;47333.766
580.547;42063.465;  537.579;46668.969
581.129;42167.332;  621.610;44466.141
581.712;42419.211;  551.621;44164.922
582.294;44161.066;  522.570;46477.855
582.877;42612.805;  703.563;48244.254
583.459;41305.473;  544.619;47437.895
584.042;43342.500;  520.618;46943.219
584.624;43361.293;  507.624;46792.227
585.206;43595.047;  407.575;46557.250
585.789;42374.637;  477.611;45793.773
586.371;41068.957;  552.638;43836.391
586.953;39481.594;  598.608;42972.492
587.536;37920.008;  635.574;42487.211
588.118;38505.410;  543.679;42086.414
588.700;40103.098;  662.631;43389.930
589.282;41830.289;  586.599;43646.039
589.864;41259.258;  523.612;43438.109
590.446;41372.219;  407.647;43151.926
591.028;40690.129;  543.639;42781.867
591.610;40733.828;  439.615;42839.098
592.192;40465.277;  565.599;42820.402
592.774;38313.723;  475.629;40724.277
593.356;37857.340;  501.668;39874.789
593.937;37347.883;  523.605;39980.648
594.519;38444.148;  611.612;42069.633
595.101;39323.785;  460.657;42976.031
595.683;39536.512;  509.666;44084.441
596.264;40620.922;  540.611;43478.797
596.846;42454.855;  517.630;43803.672
597.427;41474.949;  487.679;42986.934
598.009;40769.539;  472.681;42832.219
598.591;39571.074;  598.632;42580.086
599.172;38560.473;  500.640;43061.805
599.753;38198.922;  454.676;41691.469
600.335;38099.113;  637.693;40692.520
600.916;37933.621;  552.666;39982.422
601.498;38499.527;  559.652;40318.617
602.079;39417.328;  534.676;40670.609
602.660;38204.473;  531.685;41450.898
603.241;37167.273;  434.637;41137.738
603.823;37443.766;  514.648;38868.797
604.404;38928.406;  451.688;38182.785
604.985;41015.430;  509.695;38078.047
605.566;41873.332;  595.634;38056.633
606.147;40388.750;  537.708;37020.418
606.728;38814.570;  457.716;37883.359
607.309;38129.449;  483.697;38748.273
607.890;38257.852;  526.661;38850.230
608.471;38350.453;  469.685;37457.918
609.051;38085.047;  536.742;36066.457
609.632;37473.672;  458.735;35991.074
610.213;38420.711;  541.693;37402.641
610.794;40183.078;  503.699;38383.363
611.374;38557.965;  568.707;40562.387
611.955;37916.777;  444.725;38533.727
612.536;39830.414;  573.691;36951.789
613.116;39260.855;  524.698;37197.891
613.697;38919.605;  515.744;38411.125
614.277;38640.609;  494.753;38673.938
614.858;35415.773;  516.696;37075.863
615.438;33298.996;  536.691;35092.906
616.019;33018.520;  622.756;33666.301
616.599;33974.113;  423.733;34189.023
617.179;37027.188;  475.710;36952.047
617.760;37391.660;  708.686;39582.574
618.340;35407.773;  498.765;38943.977
618.920;35045.617;  653.742;37594.156
619.500;34969.148;  495.768;37866.938
620.080;34964.465;  479.741;37869.043
620.660;35135.016;  468.802;36868.617
621.241;35218.387;  491.762;36352.309
621.821;34735.625;  592.749;35459.520
622.401;35018.609;  587.742;35207.414
622.980;36735.797;  463.779;35980.422
623.560;36200.719;  460.758;37351.328
624.140;33652.023;  557.741;34388.582
624.720;33757.852;  554.748;32368.764
625.300;35592.164;  485.743;32638.629
625.880;36645.813;  503.780;34599.035
626.459;35289.770;  556.753;36831.738
627.039;33857.781;  444.772;38299.098
627.619;35249.324;  703.802;38289.574
628.198;37048.703;  572.791;37220.695
628.778;38482.051;  551.748;37632.563
629.357;38913.820;  448.751;38003.012
629.937;37532.238;  496.798;38402.039
630.516;34711.602;  605.794;37868.801
631.096;33681.402;  498.751;35760.410
631.675;32776.559;  625.817;35225.219
632.254;32512.313;  508.833;35130.289
632.834;33840.809;  534.822;35794.570
633.413;34947.207;  638.771;35788.922
633.992;34778.520;  587.820;34532.863
634.571;35115.180;  576.844;33590.113
635.151;34635.480;  476.831;34943.863
635.730;33825.980;  511.775;35352.523
636.309;34043.680;  583.793;35366.605
636.888;33992.645;  593.820;36165.637
637.467;34290.836;  450.842;37515.902
638.046;35418.371;  646.791;39288.695
638.625;35830.262;  649.820;38279.699
639.204;35755.379;  541.850;37741.598
639.782;36653.191;  526.878;38364.551
640.361;36702.313;  639.809;36740.621
640.940;36158.477;  503.807;34950.082
641.519;35709.688;  532.805;34137.398
642.097;34369.402;  556.804;35654.258
642.676;34442.266;  571.802;35637.957
643.255;34462.277;  489.800;36567.074
643.833;36086.340;  569.799;37809.434
644.412;37744.352;  490.797;37337.293
644.990;38069.965;  534.795;37018.531
645.569;37485.629;  555.793;36518.469
646.147;36160.094;  588.792;36186.430
646.726;34991.855;  552.790;36267.688
647.304;34699.070;  509.788;36647.625
647.882;34440.633;  425.787;39286.742
648.461;34004.195;  559.785;39157.703
649.039;34218.059;  588.783;35412.883
649.617;33777.973;  570.781;34744.918
650.195;33585.633;  570.780;35403.098
650.773;33673.695;  470.778;35053.797
651.352;33467.660;  391.776;33756.816
651.930;32713.072;  420.775;31868.773
652.508;32055.936;  603.773;33121.551
653.086;31571.299;  545.771;33564.793
653.663;33350.164;  497.770;34054.668
654.241;34170.926;  453.768;35693.309
654.819;35108.738;  476.766;36422.906
655.397;36763.102;  443.764;38213.484
655.975;37847.063;  530.763;39507.625
656.553;39114.578;  618.761;39498.223
657.130;38314.590;  478.759;40395.480
657.708;38718.555;  552.758;39242.020
658.286;37481.316;  525.756;38920.020
658.863;36581.230;  545.754;40202.898
659.441;36402.543;  541.752;39677.938
660.018;37340.855;  509.751;40413.355
660.596;38021.520;  406.749;39931.414
661.173;38512.281;  500.747;39604.531
661.750;38285.195;  486.746;39700.070
662.328;38083.609;  564.744;39292.809
662.905;36672.770;  510.742;38235.648
663.482;34797.535;  513.741;36212.305
664.060;34466.648;  514.739;35944.945
664.637;34231.059;  585.737;35170.785
665.214;34303.824;  550.735;34197.523
665.791;35803.785;  529.734;34549.520
666.368;36126.098;  530.732;35118.578
666.945;34259.863;  585.730;36019.418
667.522;33889.277;  470.729;36048.438
668.099;35339.238;  505.727;36243.914
668.676;35520.801;  532.725;35958.875
669.253;35466.465;  629.723;37384.730
669.830;34058.277;  578.722;36779.629
670.407;32529.840;  537.720;35231.289
670.984;31866.354;  544.718;35544.270
671.560;32590.217;  560.717;35466.867
672.137;31943.930;  498.715;34280.863
672.714;32267.543;  579.713;34632.863
673.290;33246.258;  548.711;35135.422
673.867;31917.170;  482.710;36114.480
674.443;31958.932;  428.708;36152.859
675.020;33905.047;  541.706;35327.238
675.596;34898.309;  521.705;35795.176
676.173;33945.922;  436.703;35430.355
676.749;34112.484;  385.701;33549.516
677.326;33739.598;  432.700;32210.012
677.902;34715.559;  468.698;32068.871
678.478;33867.375;  424.696;32583.891
679.054;32536.236;  772.694;32088.928
679.631;32218.100;  548.693;30978.848
680.207;33066.512;  660.691;33160.887
680.783;33149.125;  412.689;35570.363
681.359;33577.188;  522.688;36125.184
681.935;33350.102;  540.686;35240.922
682.511;32855.414;  540.684;34429.961
683.087;32086.078;  558.682;34463.680
683.663;31460.391;  498.681;34648.898
684.239;31069.004;  433.679;34546.457
684.815;30866.518;  576.677;35586.375
685.390;31353.580;  664.676;35821.895
685.966;31811.793;  527.674;35085.871
686.542;31157.256;  491.672;34198.230
687.118;31480.969;  520.671;32847.707
687.693;31723.633;  578.669;32794.027
688.269;30735.945;  516.667;33072.367
688.844;29882.559;  567.665;33141.664
689.420;30428.371;  519.664;33965.742
689.995;30370.686;  626.662;34655.523
690.571;30304.797;  615.660;33576.742
691.146;31688.410;  510.659;32657.219
691.722;31053.225;  535.657;32526.979
692.297;29743.086;  459.655;33014.617
692.872;29598.650;  475.654;34012.254
693.448;29001.463;  459.652;34237.434
694.023;28938.326;  537.650;34142.672
694.598;29603.389;  531.648;34132.031
695.173;29785.453;  519.647;34205.250
695.748;28736.916;  415.645;32882.488
696.323;29767.379;  537.643;32864.906
696.898;30612.342;  566.642;33170.004
697.473;29929.055;  437.640;32432.984
698.048;29571.568;  517.638;31649.303
698.623;30628.430;  453.636;30778.141
699.198;31612.443;  536.635;31140.119
699.773;32416.457;  455.633;31764.299
700.348;31575.670;  474.631;31780.816
700.922;31354.283;  520.630;32046.375
701.497;31145.846;  512.628;32603.574
702.072;31207.158;  594.626;34799.871
702.646;31755.121;  601.625;35793.172
703.221;31948.084;  531.623;35201.590
703.795;31275.049;  466.621;34764.527
704.370;31565.410;  386.619;34307.367
704.944;31592.523;  523.618;33509.887
705.519;31869.438;  558.616;31388.584
706.093;32776.301;  467.614;31340.104
706.668;32863.262;  533.613;32630.281
707.242;32398.426;  587.611;32728.779
707.816;31324.639;  511.609;32947.238
708.390;30947.703;  521.607;33277.855
708.965;31803.266;  565.606;33834.336
709.539;31771.729;  518.604;33709.273
710.113;30659.141;  525.602;33044.313
710.687;31552.855;  551.601;31953.992
711.261;31985.318;  468.599;30505.949
711.835;31409.580;  462.597;30262.369
712.409;31222.844;  413.595;31254.447
712.983;32601.457;  424.594;32754.986
713.557;34431.621;  423.592;34018.824
714.131;34473.633;  500.590;34579.625
714.704;33358.496;  495.589;33890.262
715.278;32535.408;  530.587;33531.102
715.852;32557.873;  564.585;33601.660
716.425;32316.285;  663.584;33515.117
716.999;31846.648;  432.582;33185.555
717.573;32390.361;  567.580;33905.996
718.146;33245.773;  615.578;35199.293
718.720;33197.039;  518.577;35060.551
719.293;33181.152;  565.575;34973.230
719.867;33061.762;  470.573;36394.449
720.440;33267.477;  603.572;36663.008
721.013;33449.539;  519.570;35102.426
721.587;32186.303;  405.568;33985.266
722.160;31776.016;  562.566;33524.965
722.733;31341.129;  547.565;32987.043
723.306;32990.441;  513.563;33066.301
723.880;34392.605;  565.561;33399.500
724.453;34333.816;  640.560;33468.297
725.026;33001.531;  497.558;33816.637
725.599;31536.545;  539.556;32797.996
726.172;31449.406;  558.555;33187.434
726.745;33058.922;  538.553;35136.613
727.318;33344.535;  584.551;35751.730
727.891;32230.547;  534.549;35890.430
728.463;31113.660;  535.548;34822.090
729.036;30420.271;  447.546;32895.086
729.609;29508.986;  473.544;31823.225
730.182;29300.598;  580.543;31445.283
730.754;30411.162;  407.541;32373.223
731.327;32432.525;  545.539;33676.820
731.900;32127.787;  421.537;33417.000
732.472;31504.150;  542.536;31978.498
733.045;31418.664;  502.534;30368.777
733.617;29521.777;  437.532;30574.215
734.190;28561.990;  572.531;31280.975
734.762;28635.254;  534.529;31674.412
735.334;28895.266;  527.527;31247.291
735.907;28926.379;  547.526;29876.211
736.479;28839.092;  576.524;29808.488
737.051;29608.154;  544.522;30233.547
737.623;31447.018;  559.520;31469.086
738.195;32174.332;  477.519;31784.225
738.768;32327.244;  389.517;32120.523
739.340;31809.207;  500.515;32094.342
739.912;32058.270;  596.514;31312.680
740.484;31239.383;  543.512;31946.238
741.056;31202.746;  498.510;32984.059
741.628;32446.709;  476.508;33897.715
742.199;31381.572;  596.507;33213.016
742.771;30148.936;  444.505;31369.113
743.343;30750.350;  475.503;31865.473
743.915;30692.461;  503.502;32388.631
744.487;30147.574;  586.500;31079.568
745.058;28759.738;  562.498;30570.107
745.630;27630.852;  564.497;29970.127
746.201;27115.764;  475.495;29186.766
746.773;26898.277;  553.493;28805.723
747.344;26054.689;  515.491;29591.223
747.916;25419.053;  541.490;31412.201
748.487;25932.916;  572.488;32194.898
749.059;27107.430;  453.486;32533.719
749.630;27654.943;  480.485;32158.518
750.201;27066.156;  523.483;30855.395
750.773;26434.418;  478.481;28622.555
751.344;25684.232;  514.479;28405.732
751.915;24530.395;  512.478;28461.551
752.486;24420.207;  462.476;27842.850
753.057;25459.570;  533.474;27845.008
753.628;25368.934;  485.473;27728.107
754.199;24118.896;  483.471;27381.086
754.770;23682.311;  560.469;25882.203
755.341;23251.873;  609.468;25886.184
755.912;23168.686;  508.466;26050.861
756.483;23226.299;  564.464;26798.779
757.054;22490.611;  533.462;27048.238
757.625;22998.625;  470.461;26294.838
758.195;23767.688;  436.459;26142.076
758.766;23133.051;  534.457;26392.234
759.337;22737.164;  432.456;26334.594
759.907;23595.527;  436.454;27579.652
760.478;23948.641;  497.452;28352.770
761.048;24180.553;  566.450;27325.088
761.619;24118.816;  553.449;26460.428
762.189;23282.330;  490.447;26029.826
762.760;22642.543;  588.445;26430.145
763.330;21343.156;  548.444;26670.902
763.900;20840.719;  537.442;26603.021
764.471;20956.332;  468.440;25542.740
765.041;21451.244;  599.438;24358.459
765.611;22303.758;  540.437;23991.297
766.181;22886.621;  538.435;24470.236
766.751;22871.434;  542.433;24845.975
767.321;21909.447;  474.432;24533.633
767.891;21252.510;  499.430;24916.492
768.461;21031.723;  532.428;24776.771
769.031;20061.986;  503.427;24757.988
769.601;19112.398;  591.425;24181.088
770.171;18204.262;  421.423;23670.387
770.741;18309.775;  467.421;22960.045
771.311;19054.988;  568.420;22917.523
771.880;18986.152;  445.418;23562.941
772.450;18765.314;  487.416;24216.500
773.020;18838.828;  424.415;24140.398
773.589;18488.391;  493.413;24414.857
774.159;18206.055;  462.411;23858.717
774.729;17839.217;  480.409;22942.135
775.298;16596.580;  485.408;22324.033
775.867;16044.193;  494.406;21140.313
776.437;16496.906;  512.404;20838.092
777.006;16623.869;  443.403;20599.510
777.576;16569.732;  528.401;20508.809
778.145;16551.145;  558.399;20732.947
778.714;16772.357;  529.398;21062.465
779.283;17023.121;  558.396;20949.664
779.853;17237.084;  481.394;20508.623
780.422;18112.547;  526.392;20649.082
780.991;17761.311;  553.391;21527.520
781.560;16971.623;  606.389;22632.658
782.129;16574.037;  543.387;23048.277
782.698;16541.750;  606.386;23438.555
783.267;16676.762;  519.384;23267.734
783.836;17162.326;  536.382;22415.133
784.404;16919.389;  443.380;20443.152
784.973;16406.602;  387.379;19699.150
785.542;15682.465;  495.377;19763.828
786.111;16191.528;  591.375;20341.408
786.679;16618.291;  534.374;20207.967
787.248;16299.504;  423.372;19516.465
787.817;16288.267;  503.370;18900.363
788.385;16524.381;  571.369;17879.121
788.954;15845.394;  423.367;17658.301
789.522;15600.956;  605.365;17788.879
790.090;16118.569;  433.363;18118.277
790.659;16996.332;  493.362;18338.736
791.227;17165.246;  505.360;18508.615
791.795;16638.609;  533.358;17898.254
792.364;15798.422;  476.357;17295.133
792.932;15331.734;  532.355;16822.051
793.500;15567.697;  508.353;17040.148
794.068;16103.811;  416.352;17179.787
794.636;15804.924;  478.350;16664.246
795.204;14790.736;  432.348;16524.545
795.772;14411.300;  462.346;17274.564
796.340;14895.513;  484.345;17891.002
796.908;14947.326;  442.343;17648.561
797.476;15149.189;  447.341;17064.080
798.044;14859.552;  400.340;16672.777
798.612;14537.815;  499.338;17023.996
799.180;14271.729;  534.336;16561.615
799.747;14157.841;  503.334;15962.773
800.315;14465.704;  439.333;15296.992
800.883;14655.518;  398.331;14801.771
801.450;13922.181;  515.329;14534.430
802.018;13575.943;  525.328;14173.248
802.585;13800.007;  497.326;14029.547
803.153;13849.920;  497.324;13836.846
803.720;13527.232;  507.322;13567.324
804.287;13636.046;  479.321;13360.622
804.855;13402.358;  582.319;13681.981
805.422;13107.122;  490.317;13536.560
805.989;12931.085;  482.316;13355.958
806.556;13215.848;  479.314;13747.896
807.124;13670.411;  525.312;13987.376
807.691;13509.824;  443.311;14038.674
808.258;13427.837;  505.309;14120.152
808.825;13513.601;  541.307;13860.111
809.392;13796.163;  625.305;13268.790
809.959;14183.826;  562.304;12680.389
810.526;13361.939;  651.302;12427.308
811.093;12581.152;  582.300;12030.105
811.659;12252.865;  502.299;11653.664
812.226;12393.278;  500.297;11637.183
812.793;12764.142;  539.295;11611.521
813.360;12418.104;  467.293;11885.181
813.926;12303.317;  535.292;12770.539
814.493;12076.280;  441.290;12677.638
815.060;11761.394;  420.288;11974.336
815.626;11534.007;  421.287;11594.715
816.193;11444.720;  517.285;11579.474
816.759;11584.333;  453.283;11666.972
817.325;11381.396;  404.282;11325.530
817.892;11339.009;  526.280;11105.369
818.458;11164.222;  534.278;10843.928
819.024;10986.436;  578.276;10714.406
819.591;10272.698;  528.275;10469.165
820.157; 9910.911;  434.273;10235.523
820.723;10445.824;  525.271;10847.563
821.289;10876.888;  791.270;11040.980
821.855;10246.700;  537.268;10357.100
822.421;10059.413;  444.266; 9978.918
822.987; 9986.826;  433.264; 9754.177
823.553; 9809.439;  512.263;10065.755
824.119;10026.853;  543.261;10036.294
824.685; 9942.516;  600.259;10029.192
825.251; 9703.929;  542.258;10199.230
825.816; 9478.142;  622.256; 9820.189
826.382; 8826.405;  556.254; 9297.248
826.948; 8477.968;  585.253; 9381.347
827.513; 8695.881;  504.251; 9450.726
828.079; 8894.044;  469.249; 9472.444
828.645; 8923.157;  543.247; 9292.643
829.210; 8626.521;  434.246; 9065.341
829.776; 8623.533;  570.244; 9132.620
830.341; 8370.597;  564.242; 9092.878
830.906; 8345.459;  584.241; 9078.557
831.472; 8116.472;  449.239; 8534.535
832.037; 8016.186;  581.237; 8677.874
832.602; 7944.148;  467.235; 8628.692
833.167; 7830.912;  540.234; 8879.031
833.733; 7765.875;  556.232; 9189.790
834.298; 7513.638;  412.230; 9052.608
834.863; 7588.400;  522.229; 8895.087
835.428; 7626.813;  565.227; 8824.266
835.993; 7715.877;  546.225; 8845.385
836.558; 7605.440;  548.224; 8888.563
837.123; 7592.953;  686.222; 8966.582
837.688; 7108.716;  521.220; 8617.860
838.253; 6968.679;  510.218; 8590.699
838.817; 7026.542;  487.217; 8443.797
839.382; 7688.655;  608.215; 8799.356
839.947; 7745.918;  537.213; 8810.595
840.511; 7533.481;  610.212; 8796.394
841.076; 6898.594;  413.210; 8347.231
841.641; 6770.708;  549.208; 8224.330
842.205; 6776.120;  548.206; 8223.349
842.770; 6943.934;  632.205; 8622.107
843.334; 6913.396;  493.203; 8410.386
843.898; 6815.560;  500.201; 8337.465
844.463; 6938.172;  598.200; 8506.283
845.027; 6833.835;  512.198; 8280.962
845.591; 6679.249;  562.196; 8231.141
846.156; 6545.462;  490.195; 7969.179
846.720; 6638.425;  592.193; 7768.278
847.284; 6499.188;  497.191; 7630.957
847.848; 6296.701;  570.189; 7472.395
848.412; 6143.764;  553.188; 7437.394
848.976; 6172.227;  637.186; 7674.592
849.540; 6430.690;  660.184; 7836.011
850.104; 6684.453;  600.183; 7913.669
850.668; 6483.916;  405.181; 7694.508
851.232; 6413.529;  426.179; 7756.887
851.796; 6282.042;  506.177; 7926.545
852.359; 6173.805;  596.176; 7827.844
852.923; 6086.668;  574.174; 7641.163
853.487; 6002.231;  578.172; 7342.501
854.050; 5682.944;  371.171; 7042.820
854.614; 5580.257;  501.169; 7151.338
855.177; 5757.021;  542.167; 7105.077
855.741; 5758.034;  555.166; 6989.675
856.304; 5665.847;  575.164; 6596.634
856.868; 5306.410;  453.162; 6356.272
857.431; 5303.973;  522.160; 6468.571
857.995; 5440.586;  497.159; 6373.210
858.558; 5441.349;  551.157; 6324.448
859.121; 5436.412;  567.155; 6408.327
859.684; 5427.925;  516.154; 6347.886
860.247; 5334.788;  519.152; 6321.264
860.810; 5268.451;  486.150; 6301.903
861.374; 5509.514;  667.148; 6607.881
861.937; 5423.227;  465.147; 6408.200
862.500; 5666.890;  506.145; 6572.639
863.062; 5462.954;  431.143; 6387.297
863.625; 5406.066;  541.142; 6190.836
864.188; 5136.979;  497.140; 5807.254
864.751; 4975.143;  498.138; 5682.413
865.314; 4875.556;  535.136; 5547.492
865.876; 4979.069;  555.135; 5500.150
866.439; 4999.782;  556.133; 5415.909
867.002; 5027.695;  688.131; 5501.567
867.564; 4900.858;  595.130; 5413.946
868.127; 4659.421;  527.128; 5160.325
868.689; 4437.984;  549.126; 5133.183
869.252; 4455.447;  596.125; 5252.382
869.814; 4489.360;  474.123; 5297.141
870.377; 4628.623;  533.121; 5390.919
870.939; 4986.186;  773.119; 5599.898
871.501; 4789.949;  550.118; 5248.336
872.063; 4533.912;  398.116; 4854.235
872.626; 4392.275;  419.114; 4817.074
873.188; 4405.338;  534.113; 4987.732
873.750; 4355.651;  532.111; 4868.651
874.312; 4342.765;  525.109; 4779.330
874.874; 4523.228;  635.107; 4866.348
875.436; 4379.991;  571.106; 4718.887
875.998; 4105.253;  631.104; 4660.005
876.560; 3880.767;  552.102; 4462.964
877.122; 3616.730;  466.101; 4145.042
877.683; 3563.593;  609.099; 4056.481
878.245; 3475.956;  493.097; 3950.740
878.807; 3502.269;  561.096; 4058.958
879.369; 3476.632;  448.094; 3954.677
879.930; 3587.145;  447.092; 3941.495
880.492; 3679.058;  620.090; 4067.014
881.053; 3476.971;  462.089; 3859.633
881.615; 3454.234;  468.087; 3776.071
882.176; 3413.747;  518.085; 3734.750
882.738; 3437.410;  603.084; 3678.489
883.299; 3166.473;  378.082; 3405.407
883.860; 3073.786;  423.080; 3351.106
884.422; 3136.949;  552.078; 3394.044
884.983; 2942.113;  481.077; 3166.443
885.544; 2925.276;  559.075; 3189.802
886.105; 2844.889;  525.073; 3160.360
886.666; 2842.002;  513.072; 3093.059
887.227; 2757.165;  450.070; 2941.957
887.788; 2710.778;  528.068; 2974.836
888.349; 2457.491;  437.067; 2721.214
888.910; 2440.904;  596.065; 2696.493
889.471; 2357.667;  546.063; 2560.172
890.032; 2334.030;  541.061; 2558.190
890.593; 2328.843;  574.060; 2567.669
891.153; 2246.156;  504.058; 2460.307
891.714; 2102.519;  434.056; 2372.046
892.275; 1999.832;  417.055; 2309.505
892.835; 2036.895;  590.053; 2382.543
893.396; 1970.708;  565.051; 2295.502
893.956; 1822.721;  484.049; 2162.420
894.517; 1773.684;  533.048; 2125.439
895.077; 1761.598;  534.046; 2086.978
895.638; 1801.361;  637.044; 2126.316
896.198; 1555.224;  486.043; 1838.275
896.758; 1599.287;  580.041; 1892.813
897.319; 1481.650;  512.039; 1792.232
897.879; 1475.163;  535.038; 1762.751
898.439; 1341.976;  418.036; 1661.149
898.999; 1440.289;  543.034; 1781.468
899.559; 1381.252;  534.032; 1703.347
900.119; 1250.915;  450.031; 1537.525
900.679; 1360.778;  647.029; 1638.384
901.239; 1259.491;  565.027; 1527.902
901.799; 1192.004;  493.026; 1456.441
902.359; 1128.117;  463.024; 1357.140
902.919; 1109.480;  481.022; 1331.118
903.479; 1080.293;  501.020; 1317.257
904.038; 1020.956;  436.019; 1262.595
904.598;  950.019;  380.017; 1152.034
905.158; 1025.132;  497.015; 1240.893
905.717; 1021.446;  492.014; 1233.691
906.277; 1015.809;  518.012; 1217.330
906.836; 1018.072;  544.010; 1222.408
907.396;  995.035;  552.009; 1193.047
907.955;  977.048;  574.007; 1182.526
908.515;  910.211;  476.005; 1099.364
909.074;  905.824;  497.003; 1092.863
909.633;  904.887;  514.002; 1069.121
910.192; 1008.900;  642.000; 1196.460
910.752;  861.750;  493.000; 1029.960
911.311;  850.700;  464.000; 1009.780
911.870;  834.550;  506.000;  971.460
912.429;  928.500;  575.000; 1094.080
912.988;  914.250;  599.000; 1081.060
913.547;  806.100;  460.000;  940.380
914.106;  847.250;  552.000;  999.420
914.665;  841.600;  519.000;  984.020
915.224;  890.750;  619.000; 1035.760
915.782;  792.250;  487.000;  922.560
916.341;  897.100;  600.000; 1049.840
916.900;  790.700;  510.000;  925.260
917.458;  753.600;  455.000;  884.220
918.017;  809.850;  535.000;  942.600
918.576;  788.550;  513.000;  904.440
919.134;  731.000;  450.000;  837.980
919.693;  773.850;  491.000;  893.060
920.251;  759.600;  503.000;  876.500
920.809;  728.200;  471.000;  839.580
921.368;  769.950;  478.000;  885.360
921.926;  734.700;  443.000;  842.940
922.484;  781.450;  529.000;  903.360
923.042;  760.250;  491.000;  880.340
923.601;  857.500;  585.000;  998.680
924.159;  812.800;  547.000;  935.560
924.717;  736.200;  485.000;  841.080
925.275;  791.700;  524.000;  903.240
925.833;  678.300;  377.000;  779.320
926.391;  809.300;  520.000;  938.380
926.949;  747.300;  479.000;  857.680
927.506;  788.200;  552.000;  903.500
928.064;  763.550;  504.000;  877.580
928.622;  765.650;  500.000;  880.100
929.180;  718.400;  446.000;  814.180
929.737;  704.600;  435.000;  808.540
930.295;  820.600;  532.000;  928.480
930.853;  744.200;  448.000;  849.100
931.410;  726.150;  426.000;  821.120
931.968;  827.650;  539.000;  940.660
932.525;  800.400;  517.000;  909.380
933.082;  715.550;  406.000;  811.440
933.640;  823.850;  538.000;  925.900
934.197;  786.650;  503.000;  886.360
934.754;  784.300;  461.000;  897.780
935.312;  758.450;  466.000;  863.340
935.869;  896.550;  577.000; 1012.980
936.426;  762.200;  497.000;  872.800
936.983;  783.000;  465.000;  889.020
937.540;  735.950;  422.000;  838.280
938.097;  836.950;  529.000;  940.120
938.654;  798.950;  502.000;  898.860
939.211;  834.550;  512.000;  952.480
939.768;  807.250;  478.000;  915.420
940.324;  785.500;  467.000;  904.200
940.881;  774.700;  476.000;  878.500
941.438;  881.550;  581.000; 1021.200
941.995;  873.700;  560.000;  992.560
942.551;  764.100;  439.000;  875.620
943.108;  827.250;  529.000;  937.920
943.664;  771.400;  450.000;  869.340
944.221;  954.400;  628.000; 1088.140
944.777;  765.050;  418.000;  869.680
945.334;  774.750;  471.000;  884.840
945.890;  821.750;  486.000;  946.480
946.446;  820.900;  505.000;  947.020
947.003;  846.100;  508.000;  964.940
947.559;  929.550;  643.000; 1063.040
948.115;  900.750;  581.000; 1026.540
948.671;  849.650;  511.000;  967.300
949.227;  760.400;  412.000;  859.560
949.783;  741.550;  428.000;  858.900
950.339;  858.400;  531.000;  991.000
950.895;  883.100;  552.000; 1023.840
951.451;  792.250;  501.000;  925.280
952.007;  869.150;  544.000;  998.540
952.563;  806.600;  498.000;  937.780
953.118;  788.500;  475.000;  904.940
953.674;  811.150;  504.000;  935.780
954.230;  811.650;  500.000;  949.640
954.785;  814.750;  484.000;  936.640
955.341;  864.050;  535.000;  998.160
955.897;  718.650;  393.000;  834.660
956.452;  829.050;  524.000;  953.840
957.008;  938.350;  616.000; 1083.640
957.563;  873.200;  554.000; 1009.540
958.118;  758.500;  473.000;  877.700
958.674;  802.200;  524.000;  946.780
959.229;  872.500;  572.000; 1013.980
959.784;  721.450;  402.000;  832.400
960.339;  866.400;  563.000; 1001.280
960.894;  829.700;  532.000;  963.760
961.449;  737.800;  452.000;  859.960
962.004; 1033.650;  790.000; 1212.840
962.559;  756.000;  455.000;  860.140
963.114;  648.850;  347.000;  742.480
963.669;  790.550;  502.000;  915.500
964.224;  753.900;  452.000;  874.340
964.779;  713.450;  409.000;  828.420
965.334;  869.600;  609.000; 1017.860
965.888;  739.750;  475.000;  875.360
966.443;  827.300;  549.000;  972.380
966.998;  690.700;  396.000;  819.460
967.552;  771.550;  480.000;  908.380
968.107;  726.350;  482.000;  868.300
968.661;  790.450;  539.000;  922.440
969.216;  727.850;  484.000;  856.280
969.770;  781.700;  516.000;  917.200
970.324;  788.000;  530.000;  923.140
970.879;  805.800;  579.000;  947.180
971.433;  818.550;  549.000;  952.720
971.987;  767.600;  520.000;  895.340
972.541;  783.050;  520.000;  917.100
973.095;  859.950;  583.000; 1009.460
973.649;  693.300;  449.000;  809.480
974.203;  707.400;  446.000;  829.040
974.757;  729.650;  492.000;  855.220
975.311;  737.700;  480.000;  872.600
975.865;  756.950;  511.000;  881.820
976.419;  734.150;  504.000;  857.400
976.973;  719.650;  461.000;  849.620
977.526;  807.900;  556.000;  949.920
978.080;  677.700;  424.000;  796.780
978.634;  787.500;  567.000;  921.320
979.187;  777.050;  526.000;  905.400
979.741;  866.750;  608.000; 1018.380
980.294;  678.800;  412.000;  789.160
980.848;  617.300;  396.000;  717.220
981.401;  696.350;  475.000;  816.540
981.955;  722.500;  513.000;  844.300
982.508;  639.500;  410.000;  746.340
983.061;  792.700;  556.000;  915.260
983.615;  676.400;  454.000;  798.800
984.168;  644.250;  425.000;  770.080
984.721;  751.200;  508.000;  880.760
985.274;  734.550;  533.000;  867.500
985.827;  705.750;  518.000;  834.220
986.380;  604.700;  385.000;  721.340
986.933;  730.750;  524.000;  864.800
987.486;  726.450;  522.000;  861.920
988.039;  720.100;  558.000;  863.100
988.591;  757.150;  575.000;  893.260
989.144;  633.300;  434.000;  737.260
989.697;  651.400;  452.000;  758.740
990.250;  728.600;  543.000;  858.100
990.802;  641.800;  437.000;  755.860
991.355;  827.000;  669.000;  974.880
991.907;  734.175;  572.500;  864.320
992.460;  641.350;  476.000;  753.760
993.012;  628.100;  481.000;  749.540
993.565;  600.950;  436.000;  711.360
994.117;  799.150;  670.000;  950.780
994.669;  590.350;  441.000;  701.320
995.221;  668.200;  512.000;  791.920
995.774;  658.350;  512.000;  787.580
996.326;  620.400;  496.000;  740.220
996.878;  707.850;  571.000;  838.420
997.430;  588.000;  464.000;  699.860
997.982;  632.850;  508.000;  750.140
998.534;  628.050;  486.000;  739.060
999.086;  623.350;  486.000;  738.220
999.638;  555.550;  423.000;  661.380
1000.190;  590.350;  492.000;  699.320
1000.741;  635.150;  536.000;  742.700
1001.293;  583.100;  431.000;  686.020
1001.845;  571.250;  465.000;  676.640
1002.396;  632.000;  539.000;  743.400
1002.948;  620.250;  528.000;  737.400
1003.500;  609.350;  494.000;  723.780
1004.051;  769.450;  675.000;  907.580
1004.603;  677.700;  574.000;  791.820
1005.154;  517.650;  419.000;  608.980
1005.705;  610.600;  524.000;  723.960
1006.257;  594.950;  501.000;  707.220
1006.808;  583.600;  507.000;  685.460
1007.359;  650.900;  575.000;  763.240
1007.910;  551.250;  453.000;  646.640
1008.461;  617.800;  542.000;  732.940
1009.013;  502.800;  412.000;  588.340
1009.564;  667.100;  619.000;  793.520
1010.115;  499.100;  427.000;  597.040
1010.665;  510.350;  434.000;  602.160
1011.216;  570.800;  497.000;  667.920
1011.767;  587.550;  512.000;  697.920
1012.318;  621.250;  549.000;  736.980
1012.869;  569.250;  497.000;  679.000
1013.419;  513.200;  411.000;  603.120
1013.970;  562.350;  490.000;  666.640
1014.521;  518.000;  456.000;  620.620
1015.071;  569.000;  476.000;  670.380
1015.622;  533.050;  496.000;  635.460
1016.172;  501.500;  455.000;  596.820
1016.723;  517.800;  473.000;  614.380
1017.273;  509.050;  454.000;  604.160
1017.823;  545.700;  496.000;  650.340
1018.374;  515.900;  440.000;  611.760
1018.924;  609.600;  559.000;  716.880
1019.474;  604.550;  544.000;  718.880
1020.024;  549.350;  487.000;  657.580
1020.574;  616.350;  570.000;  726.160
1021.124;  570.750;  528.000;  673.580
1021.674;  469.900;  401.000;  559.120
1022.224;  596.650;  522.000;  708.940
1022.774;  561.200;  489.000;  668.820
1023.324;  637.050;  593.000;  753.520
1023.874;  736.100;  660.000;  875.760
1024.423;  512.150;  456.000;  613.700
1024.973;  515.900;  487.000;  610.760
1025.523;  522.800;  452.000;  620.960
1026.072;  511.150;  448.000;  606.420
1026.622;  571.400;  518.000;  675.740
1027.172;  609.350;  580.000;  715.660
1027.721;  508.550;  437.000;  601.220
1028.270;  558.350;  500.000;  663.400
1028.820;  541.050;  494.000;  638.080
1029.369;  518.650;  477.000;  612.700
1029.918;  542.750;  464.000;  649.840
1030.468;  473.850;  402.000;  564.780
1031.017;  541.600;  494.000;  634.800
1031.566;  512.700;  491.000;  608.900
1032.115;  581.000;  536.000;  694.500
1032.664;  498.300;  418.000;  596.480
1033.213;  619.350;  567.000;  735.420
1033.762;  534.600;  497.000;  635.620
1034.311;  573.850;  507.000;  677.220
1034.860;  581.300;  534.000;  691.000
1035.408;  617.000;  543.000;  722.720
1035.957;  607.100;  537.000;  719.540
1036.506;  443.800;  374.000;  530.800
1037.055;  712.600;  665.000;  844.320
1037.603;  562.650;  507.000;  664.000
1038.152;  448.050;  395.000;  534.760
1038.700;  485.550;  410.000;  585.740
1039.249;  571.800;  531.000;  681.220
1039.797;  531.950;  482.000;  633.360
1040.345;  597.600;  545.000;  705.420
1040.894;  526.050;  461.000;  625.300
1041.442;  535.350;  503.000;  632.200
1041.990;  473.550;  399.000;  559.160
1042.538;  449.550;  399.000;  536.180
1043.087;  479.900;  464.000;  570.860
1043.635;  565.500;  524.000;  670.500
1044.183;  495.800;  453.000;  586.400
1044.731;  484.450;  427.000;  576.000
1045.279;  562.500;  519.000;  674.920
1045.827;  757.550;  714.000;  892.400
1046.374;  431.200;  398.000;  515.420
1046.922;  498.100;  474.000;  590.580
1047.470;  580.050;  541.000;  691.300
1048.018;  537.100;  509.000;  647.960
1048.565;  608.350;  575.000;  708.600
1049.113;  463.250;  401.000;  557.000
1049.660;  521.400;  485.000;  629.660
1050.208;  569.500;  554.000;  675.640
1050.755;  511.900;  468.000;  606.580
1051.303;  578.900;  547.000;  686.820
1051.850;  535.150;  494.000;  635.120
1052.397;  387.400;  340.000;  473.960
1052.945;  516.400;  513.000;  617.760
1053.492;  623.050;  618.000;  741.840
1054.039;  604.900;  561.000;  720.180
1054.586;  467.350;  397.000;  557.240
1055.133;  592.300;  528.000;  693.140
1055.680;  544.000;  508.000;  646.620
1056.227;  451.700;  385.000;  542.780
1056.774;  668.900;  624.000;  794.980
1057.321;  434.550;  400.000;  523.260
1057.868;  535.600;  536.000;  651.320
1058.415;  549.400;  502.000;  651.980
1058.961;  572.750;  510.000;  678.940
1059.508;  533.450;  472.000;  643.820
1060.055;  494.750;  456.000;  581.780
1060.601;  525.300;  470.000;  624.300
1061.148;  518.850;  495.000;  616.820
1061.694;  502.950;  463.000;  592.580
1062.241;  495.700;  498.000;  596.320
1062.787;  554.000;  554.000;  663.140
1063.334;  680.550;  665.000;  808.560
1063.880;  564.400;  531.000;  668.360
1064.426;  600.350;  583.000;  706.820
1064.972;  503.650;  461.000;  601.340
1065.518;  472.150;  415.000;  566.640
1066.065;  525.750;  502.000;  624.460
1066.611;  502.300;  483.000;  598.800
1067.157;  533.900;  509.000;  641.860
1067.703;  559.350;  514.000;  668.480
1068.249;  512.100;  475.000;  605.220
1068.794;  529.550;  499.000;  626.880
1069.340;  487.700;  447.000;  578.960
1069.886;  498.650;  470.000;  590.700
1070.432;  454.450;  405.000;  541.720
1070.977;  513.050;  477.000;  601.080
1071.523;  479.100;  431.000;  573.060
1072.068;  481.900;  441.000;  582.000
1072.614;  439.300;  387.000;  527.760
1073.160;  583.550;  556.000;  687.040
1073.705;  485.250;  488.000;  572.520
1074.250;  471.550;  479.000;  559.900
1074.796;  549.300;  502.000;  655.160
1075.341;  562.150;  525.000;  664.100
1075.886;  500.250;  470.000;  594.240
1076.431;  545.600;  514.000;  649.880
1076.976;  542.650;  491.000;  639.220
1077.521;  486.200;  463.000;  583.080
1078.067;  487.350;  450.000;  579.400
1078.612;  557.200;  537.000;  661.620
1079.156;  506.700;  481.000;  601.540
1079.701;  584.350;  543.000;  693.260
1080.246;  586.550;  599.000;  696.300
1080.791;  529.700;  485.000;  625.020
1081.336;  557.900;  502.000;  659.320
1081.880;  548.500;  526.000;  649.680
1082.425;  476.850;  421.000;  573.480
1082.970;  602.100;  577.000;  717.040
1083.514;  501.100;  482.000;  597.000
1084.059;  487.800;  455.000;  586.720
1084.603;  478.500;  437.000;  565.840
1085.147;  545.200;  496.000;  645.220
1085.692;  606.000;  566.000;  716.800
1086.236;  419.300;  419.000;  503.140
1086.780;  627.100;  621.000;  751.440
1087.325;  539.150;  518.000;  654.620
1087.869;  516.250;  482.000;  610.700
1088.413;  595.550;  567.000;  705.040
1088.957;  455.650;  457.000;  543.400
1089.501;  644.900;  634.000;  766.640
1090.045;  612.600;  611.000;  726.480
1090.589;  479.100;  453.000;  569.920
1091.133;  566.650;  513.000;  673.340
1091.676;  494.150;  450.000;  591.940
1092.220;  504.100;  481.000;  600.920
1092.764;  598.650;  579.000;  706.960
1093.307;  560.200;  526.000;  673.780
1093.851;  463.700;  442.000;  556.540
1094.395;  573.900;  571.000;  683.140
1094.938;  536.350;  516.000;  632.520
1095.482;  467.950;  455.000;  559.800
1096.025;  591.300;  565.000;  710.880
1096.568;  659.650;  631.000;  779.280
1097.112;  424.650;  405.000;  508.180
1097.655;  496.750;  518.000;  603.000
1098.198;  499.350;  473.000;  600.180
1098.741;  514.150;  490.000;  612.860
1099.285;  550.900;  531.000;  657.300
1099.828;  361.900;  330.000;  439.400
1100.371;  511.400;  497.000;  608.160
1100.914;  576.850;  552.000;  682.660
1101.457;  571.200;  555.000;  679.900
1101.999;  486.200;  447.000;  584.680
1102.542;  542.400;  491.000;  641.440
1103.085;  557.300;  548.000;  658.500
1103.628;  645.400;  642.000;  762.060
1104.170;  488.050;  463.000;  588.280
1104.713;  540.450;  529.000;  646.700
1105.256;  464.100;  403.000;  557.440
1105.798;  424.750;  400.000;  499.980
1106.341;  616.000;  603.000;  728.900
1106.883;  432.300;  393.000;  521.340
1107.425;  556.000;  534.000;  668.180
1107.968;  515.750;  517.000;  612.380
1108.510;  577.850;  572.000;  684.960
1109.052;  522.550;  473.000;  612.620
1109.594;  470.000;  408.000;  554.440
1110.136;  538.950;  509.000;  643.220
1110.679;  532.050;  552.000;  633.080
1111.221;  507.000;  462.000;  604.460
1111.763;  466.300;  444.000;  559.220
1112.304;  454.500;  428.000;  547.140
1112.846;  557.500;  564.000;  666.240
1113.388;  799.050;  770.000;  942.180
1113.930;  579.350;  589.000;  694.200
1114.472;  513.900;  488.000;  606.540
1115.013;  460.750;  424.000;  551.280
1115.555;  486.350;  486.000;  587.100
1116.097;  479.700;  459.000;  579.480
1116.638;  571.900;  582.000;  684.600
1117.180;  560.350;  526.000;  667.740
1117.721;  473.850;  456.000;  568.580
1118.262;  568.700;  521.000;  677.960
1118.804;  539.250;  529.000;  637.340
1119.345;  483.600;  461.000;  578.400
1119.886;  595.100;  601.000;  704.040
1120.427;  495.900;  478.000;  589.020
1120.969;  499.900;  480.000;  597.920
1121.510;  470.700;  442.000;  563.060
1122.051;  606.250;  598.000;  723.580
1122.592;  547.250;  514.000;  655.420
1123.133;  452.550;  473.000;  547.940
1123.673;  589.100;  586.000;  706.480
1124.214;  508.200;  511.000;  612.460
1124.755;  535.150;  537.000;  639.460
1125.296;  516.600;  505.000;  627.320
1125.836;  581.300;  570.000;  691.500
1126.377;  500.950;  467.000;  599.660
1126.918;  513.950;  505.000;  614.980
1127.458;  526.350;  528.000;  622.220
1127.999;  549.850;  548.000;  656.980
1128.539;  575.700;  545.000;  694.240
1129.079;  539.250;  527.000;  632.720
1129.620;  470.200;  440.000;  558.100
1130.160;  447.150;  456.000;  539.480
1130.700;  530.150;  512.000;  640.840
1131.240;  540.800;  546.000;  643.700
1131.781;  521.250;  535.000;  619.680
1132.321;  509.300;  504.000;  599.120
1132.861;  467.050;  446.000;  564.200
1133.401;  501.250;  484.000;  593.940
1133.941;  523.700;  551.000;  626.280
1134.481;  505.100;  505.000;  597.580
1135.020;  512.200;  488.000;  609.160
1135.560;  571.200;  567.000;  674.940
1136.100;  414.400;  398.000;  501.160
1136.640;  430.750;  411.000;  510.480
1137.179;  450.550;  428.000;  537.960
1137.719;  510.150;  486.000;  605.400
1138.258;  485.450;  501.000;  587.360
1138.798;  550.700;  547.000;  663.780
1139.337;  393.800;  369.000;  482.840
1139.877;  545.450;  524.000;  642.360
1140.416;  741.300;  763.000;  878.060
1140.955;  437.750;  404.000;  535.380
1141.494;  562.700;  559.000;  669.280
1142.034;  488.300;  482.000;  583.520
1142.573;  545.350;  560.000;  646.280
1143.112;  454.550;  469.000;  553.480
1143.651;  449.550;  452.000;  536.480
1144.190;  576.800;  551.000;  691.640
1144.729;  507.800;  479.000;  607.420
1145.267;  486.350;  500.000;  584.900
1145.806;  533.150;  544.000;  637.040
1146.345;  527.900;  528.000;  635.020
1146.884;  524.300;  499.000;  622.500
1147.422;  439.550;  443.000;  533.060
1147.961;  592.550;  580.000;  708.460
1148.500;  566.100;  556.000;  669.720
1149.038;  535.500;  532.000;  632.500
1149.577;  583.200;  607.000;  698.640
1150.115;  370.950;  325.000;  452.280
1150.653;  512.900;  512.000;  607.340
1151.192;  468.900;  456.000;  552.920
1151.730;  547.350;  562.000;  652.560
1152.268;  490.150;  471.000;  589.520
1152.806;  479.300;  494.000;  571.180
1153.344;  483.600;  484.000;  577.640
1153.882;  502.050;  494.000;  600.060
1154.421;  379.650;  363.000;  470.620
1154.958;  497.200;  501.000;  595.240
1155.496;  543.300;  553.000;  645.280
1156.034;  602.400;  600.000;  721.880
1156.572;  560.100;  537.000;  667.060
1157.110;  389.850;  367.000;  473.940
1157.647;  575.900;  576.000;  676.960
1158.185;  472.650;  484.000;  564.320
1158.723;  420.700;  412.000;  509.200
1159.260;  582.650;  588.000;  701.700
1159.798;  546.100;  555.000;  658.160
1160.335;  529.050;  536.000;  631.820

