
Integration time [ms]:   3.276
Averaging Nr. [scans]: 1000
Smoothing Nr. [pixels]: 0
Data measured with spectrometer [name]: 7414430SP
Wave   ;Sample   ;Dark     ;Reference
[nm]   ;[counts] ;[counts] ;[counts] 

288.544;  150.666;    7.793;  793.890
289.143;  154.526;    7.462;  681.602
289.742;  154.553;    8.602;  828.814
290.341;  140.023;    1.321;  789.841
290.940;  129.166;   -0.709;  730.702
291.538;  130.495;    0.881;  881.108
292.137;  130.691;    0.122;  792.581
292.736;  134.967;   -1.929;  975.101
293.335;  132.255;   -8.229;  735.086
293.934;  132.025;   -5.279;  781.677
294.532;  128.997;   -1.369; 1031.958
295.131;  116.263;   -7.641;  834.394
295.730;  116.505;   -8.420;  809.588
296.328;  114.531;   -5.611;  783.442
296.927;  116.015;   -5.781;  779.652
297.525;  116.500;   -6.361;  781.236
298.124;  107.011;  -11.382;  654.009
298.722;  111.191;   -7.641;  761.933
299.321;  108.706;   -6.811;  708.597
299.919;  106.442;   -6.991;  751.918
300.518;  103.890;  -10.362;  689.338
301.116;  105.847;   -9.581;  691.381
301.715;  104.975;   -4.891;  730.222
302.313;  104.171;   -8.801;  704.943
302.911;   99.714;   -8.522;  733.830
303.509;  104.874;   -6.171;  925.627
304.108;  102.942;   -7.311;  760.383
304.706;  101.281;   -8.321;  801.664
305.304;   95.677;  -10.222;  796.707
305.902;  101.581;   -6.021;  784.484
306.500;   97.694;   -4.971;  728.200
307.098;   95.740;   -7.061;  746.560
307.696;   94.421;   -8.801;  780.432
308.294;   94.326;   -6.411;  731.359
308.892;   96.362;   -2.901;  759.769
309.490;   93.139;   -5.041;  712.161
310.088;   90.658;   -5.002;  788.444
310.686;   95.381;   -2.041;  821.749
311.284;   90.330;   -2.351;  766.040
311.882;   88.287;   -4.422;  731.225
312.480;   85.623;   -4.192;  697.167
313.078;   86.713;   -1.172;  808.331
313.675;   87.412;   -2.601;  691.600
314.273;   82.619;   -1.312;  797.837
314.871;   81.831;   -3.942;  589.829
315.468;   80.275;   -2.802;  652.090
316.066;   82.451;   -0.701;  694.427
316.664;   75.482;   -4.362;  656.351
317.261;   79.874;   -2.872;  910.128
317.859;   75.158;   -2.022;  768.735
318.456;   75.536;   -0.531;  830.096
319.054;   71.437;   -3.912;  787.828
319.651;   70.365;   -4.752;  759.928
320.249;   69.153;   -2.602;  810.188
320.846;   67.955;   -0.821;  714.286
321.443;   65.047;   -4.642;  832.135
322.041;   61.672;   -5.002;  812.315
322.638;   59.483;   -3.982;  701.456
323.235;   60.305;   -3.411;  665.683
323.833;   58.055;   -7.361;  740.354
324.430;   53.071;   -8.611;  615.900
325.027;   54.680;   -4.061;  876.855
325.624;   53.961;   -4.031;  644.532
326.221;   51.433;   -7.481;  689.717
326.818;   50.264;   -5.281;  818.332
327.415;   53.885;   -7.460;  748.828
328.012;   53.169;   -5.510;  690.585
328.609;   51.966;   -7.880;  731.389
329.206;   50.659;   -8.331;  778.621
329.803;   51.024;   -5.121;  737.841
330.400;   53.366;   -4.510;  704.260
330.997;   54.224;   -6.441;  817.147
331.594;   53.414;   -8.831;  788.185
332.191;   57.881;   -7.621;  728.722
332.787;   60.214;   -4.591;  844.463
333.384;   59.095;   -7.412;  763.093
333.981;   58.573;   -8.293;  815.687
334.578;   61.208;   -7.052;  708.378
335.174;   64.118;   -3.102;  731.469
335.771;   63.578;   -5.943;  836.456
336.367;   60.289;   -7.393;  710.631
336.964;   64.758;   -4.063;  793.266
337.561;   60.887;   -3.813;  731.112
338.157;   57.402;   -4.654;  911.916
338.754;   55.919;   -7.934;  796.589
339.350;   53.127;   -4.414;  722.493
339.946;   54.416;   -4.664;  773.135
340.543;   47.255;   -6.375;  846.136
341.139;   41.963;   -9.815;  720.836
341.735;   40.571;   -4.526;  772.593
342.332;   38.048;   -4.895;  691.472
342.928;   38.610;   -4.295;  795.394
343.524;   32.898;   -5.476;  761.684
344.120;   29.212;   -5.856;  738.562
344.716;   31.751;   -2.155;  723.717
345.313;   30.188;   -6.275;  795.342
345.909;   25.415;   -8.815;  627.336
346.505;   25.828;   -5.305;  740.247
347.101;   27.283;   -2.674;  827.864
347.697;   28.284;   -4.344;  785.398
348.293;   22.433;   -9.975;  627.244
348.889;   23.315;   -5.774;  745.914
349.485;   22.577;   -5.004;  688.205
350.081;   22.747;   -4.704;  772.592
350.676;   18.245;   -6.635;  691.606
351.272;   22.424;   -4.504;  809.530
351.868;   21.660;   -3.914;  780.497
352.464;   19.127;   -9.044;  723.932
353.059;   15.265;   -8.314;  646.017
353.655;   19.631;   -7.024;  777.063
354.251;   19.914;   -5.343;  759.845
354.846;   14.642;   -8.604;  740.646
355.442;   12.673;   -6.945;  753.071
356.038;   14.537;   -7.564;  751.708
356.633;   14.352;   -5.814;  728.594
357.229;   11.178;   -7.364;  724.757
357.824;   10.717;   -8.024;  703.600
358.420;   10.319;   -9.384;  679.726
359.015;    9.528;   -5.104;  695.357
359.610;   11.152;   -6.854;  763.920
360.206;    5.337;  -10.185;  603.240
360.801;    8.382;   -7.054;  646.503
361.396;    9.813;   -5.034;  725.975
361.992;    5.416;   -8.284;  668.220
362.587;    3.391;   -8.625;  670.160
363.182;    5.417;   -7.674;  689.631
363.777;    5.665;   -5.164;  738.242
364.372;    5.532;   -8.604;  737.314
364.967;    2.354;   -9.055;  680.744
365.563;    5.784;   -6.114;  815.567
366.158;    2.279;   -5.814;  685.161
366.753;    3.170;   -7.854;  649.263
367.348;    1.195;   -7.804;  746.056
367.942;    1.223;   -7.954;  697.298
368.537;    1.154;   -4.984;  754.245
369.132;    1.723;   -8.564;  703.428
369.727;   -2.596;   -8.855;  638.079
370.322;   -1.174;   -6.245;  580.186
370.917;   -1.907;   -6.425;  710.646
371.511;    0.676;   -6.294;  861.834
372.106;   -1.976;   -7.685;  776.964
372.701;   -6.307;   -7.335;  585.988
373.296;    0.027;   -4.564;  863.135
373.890;   -4.825;  -10.235;  647.840
374.485;   -7.266;   -7.885;  691.199
375.079;   -2.632;   -7.324;  738.685
375.674;   -1.460;   -3.494;  812.970
376.268;   -6.483;   -8.525;  691.759
376.863;  -12.156;  -10.086;  580.327
377.457;   -6.270;   -7.025;  662.490
378.052;   -7.547;   -3.585;  764.884
378.646;   -8.224;   -7.595;  741.167
379.240;   -8.061;   -8.335;  721.176
379.835;   -7.613;   -5.785;  636.978
380.429;  -10.221;   -4.335;  562.557
381.023;  -10.828;   -6.805;  779.205
381.617;  -11.710;   -9.195;  680.106
382.212;   -8.817;   -6.905;  685.303
382.806;   -8.598;   -3.745;  760.690
383.400;  -12.547;   -7.745;  672.281
383.994;  -13.400;   -9.765;  664.870
384.588;   -8.259;   -6.564;  697.701
385.182;   -8.087;   -5.344;  726.624
385.776;   -9.425;   -8.514;  706.875
386.370;  -13.122;   -9.555;  681.968
386.964;  -11.506;   -8.715;  684.155
387.558;  -10.356;   -6.174;  598.360
388.152;  -13.880;   -8.725;  681.959
388.745;  -10.990;   -7.965;  814.707
389.339;   -9.315;   -5.924;  747.642
389.933;   -8.622;   -5.524;  695.370
390.527;  -10.239;   -7.114;  859.029
391.120;  -16.438;  -10.725;  595.318
391.714;  -12.718;   -8.035;  711.633
392.308;  -10.480;   -3.574;  780.253
392.901;  -13.745;   -7.245;  642.460
393.495;  -16.095;   -9.285;  595.414
394.089;  -13.388;   -5.895;  760.452
394.682;  -14.977;   -4.295;  697.188
395.275;  -15.250;   -9.875;  719.927
395.869;  -16.345;   -8.485;  667.314
396.462;  -14.007;   -7.455;  616.609
397.056;  -11.113;   -5.424;  776.621
397.649;  -16.113;   -6.605;  731.575
398.242;  -12.825;   -8.224;  712.645
398.836;  -11.574;   -7.474;  766.408
399.429;  -13.344;   -7.094;  631.041
400.022;  -17.291;   -9.475;  665.902
400.615;  -13.872;   -7.145;  805.609
401.208;  -11.818;   -7.174;  691.451
401.802;  -14.617;   -5.515;  699.329
402.395;  -15.402;   -9.875;  683.502
402.988;  -17.234;   -8.845;  696.627
403.581;  -12.881;   -8.874;  646.878
404.174;  -10.756;   -5.324;  686.568
404.767;  -14.045;   -9.575;  638.583
405.360;  -16.607;  -10.965;  621.445
405.953;  -11.022;   -8.764;  759.034
406.545;  -10.217;   -7.514;  725.342
407.138;  -14.279;  -10.025;  618.350
407.731;  -13.874;  -10.034;  613.303
408.324;   -9.643;   -9.374;  660.554
408.917;  -10.955;   -6.534;  681.864
409.509;  -12.963;   -8.004;  740.396
410.102;  -13.813;   -9.875;  643.948
410.695;   -8.087;   -8.604;  665.758
411.287;   -9.787;   -6.794;  599.821
411.880;  -10.447;   -9.334;  585.421
412.472;  -14.118;  -10.254;  613.092
413.065;  -10.658;   -6.714;  629.408
413.657;   -9.008;   -7.234;  576.678
414.250;   -8.189;  -10.544;  646.681
414.842;  -11.083;   -9.744;  676.353
415.434;   -7.716;   -6.994;  570.463
416.027;   -3.994;   -5.893;  652.196
416.619;   -6.132;   -7.264;  713.400
417.211;   -6.589;  -10.374;  599.352
417.804;   -2.531;   -7.993;  628.499
418.396;   -7.104;   -7.234;  607.643
418.988;   -4.952;   -9.443;  659.238
419.580;   -8.322;  -10.724;  568.276
420.172;   -5.961;  -10.323;  536.196
420.764;   -1.957;   -8.793;  672.482
421.356;   -2.644;  -11.143;  636.898
421.948;   -4.162;   -8.293;  677.661
422.540;    1.459;   -7.893;  680.027
423.132;    0.070;   -7.082;  600.641
423.724;   -3.022;   -8.653;  561.267
424.316;   -0.518;  -10.213;  621.345
424.908;    2.894;   -9.762;  591.517
425.500;    3.541;   -5.572;  647.978
426.092;    3.906;   -8.422;  648.268
426.683;    2.819;   -9.283;  684.836
427.275;    5.520;   -7.852;  641.471
427.867;    6.522;   -5.272;  668.948
428.458;    7.144;   -7.682;  732.344
429.050;    5.742;  -10.612;  680.749
429.642;    8.103;   -9.882;  743.124
430.233;    9.003;   -6.962;  569.356
430.825;   10.191;   -6.842;  724.809
431.416;    7.665;   -9.672;  698.241
432.008;   10.925;   -6.552;  651.723
432.599;   11.550;   -6.891;  656.073
433.190;    8.099;  -10.912;  637.670
433.782;    8.157;  -11.172;  590.395
434.373;   15.854;   -6.061;  884.765
434.964;   13.607;   -8.251;  602.920
435.556;   11.772;   -9.722;  634.537
436.147;   14.670;   -9.082;  758.490
436.738;   13.981;   -8.041;  701.099
437.329;   19.545;   -7.341;  721.723
437.920;   12.391;   -8.162;  666.688
438.511;   12.575;  -11.802;  564.526
439.103;   19.682;  -10.191;  623.998
439.694;   20.579;   -7.601;  681.583
440.285;   22.243;   -8.541;  764.432
440.876;   19.848;   -9.751;  845.738
441.466;   19.353;   -9.401;  575.162
442.057;   25.183;   -7.760;  665.814
442.648;   23.334;   -9.971;  746.255
443.239;   21.965;  -11.001;  620.477
443.830;   27.199;   -7.990;  704.958
444.421;   28.530;   -7.910;  655.474
445.011;   24.602;   -8.131;  693.619
445.602;   24.715;   -7.111;  743.126
446.193;   26.780;  -10.920;  488.117
446.783;   31.258;   -6.500;  640.397
447.374;   26.150;   -8.671;  692.759
447.964;   26.844;  -10.781;  713.770
448.555;   35.763;   -9.650;  822.742
449.145;   32.167;   -8.660;  662.853
449.736;   32.435;   -8.990;  803.179
450.326;   32.730;   -9.500;  713.626
450.917;   37.895;   -8.680;  675.324
451.507;   36.510;   -7.520;  600.661
452.097;   37.578;   -8.590;  746.267
452.688;   38.045;  -11.340;  742.160
453.278;   37.901;  -10.100;  566.840
453.868;   42.055;   -6.019;  793.550
454.458;   40.660;   -9.440;  651.141
455.048;   40.960;  -10.560;  711.783
455.639;   41.652;  -11.799;  567.096
456.229;   46.192;   -6.899;  710.694
456.819;   47.557;   -7.389;  751.158
457.409;   47.646;  -11.119;  773.993
457.999;   50.988;   -9.289;  737.505
458.589;   50.693;   -6.139;  686.606
459.179;   49.814;   -8.729;  717.658
459.769;   49.017;   -9.789;  627.099
460.358;   53.710;  -10.259;  797.262
460.948;   53.653;   -7.299;  689.503
461.538;   54.850;  -10.289;  660.677
462.128;   52.661;  -11.269;  664.934
462.717;   59.630;   -9.368;  710.326
463.307;   62.679;   -7.908;  705.846
463.897;   57.553;   -9.599;  656.942
464.486;   57.489;   -9.769;  837.128
465.076;   62.346;   -8.048;  733.776
465.666;   65.766;   -9.358;  652.900
466.255;   63.140;   -7.919;  785.651
466.845;   62.829;  -11.689;  666.749
467.434;   65.925;   -7.818;  725.873
468.023;   66.178;   -7.678;  658.357
468.613;   64.141;  -10.939;  713.946
469.202;   68.965;  -10.118;  646.507
469.791;   72.612;   -9.108;  737.811
470.381;   74.433;   -6.058;  742.813
470.970;   74.569;  -10.428;  711.099
471.559;   73.627;  -10.268;  733.291
472.148;   76.191;   -8.448;  675.737
472.738;   79.177;   -6.917;  765.466
473.327;   77.861;  -11.978;  637.529
473.916;   78.539;  -11.888;  737.446
474.505;   83.152;   -9.437;  751.703
475.094;   85.602;   -6.747;  806.570
475.683;   84.510;   -9.367;  797.699
476.272;   86.785;  -12.637;  730.632
476.861;   89.277;  -10.027;  706.754
477.449;   95.183;   -8.716;  728.487
478.038;   90.034;   -9.577;  692.513
478.627;   89.924;   -9.718;  714.852
479.216;   97.302;   -8.947;  769.441
479.805;  100.296;   -6.256;  783.375
480.393;  100.549;   -7.937; 1008.945
480.982;   98.900;   -7.717;  874.501
481.571;  106.763;   -9.266;  858.333
482.159;  105.712;   -7.636;  705.386
482.748;  105.476;   -9.667;  821.385
483.336;  109.991;  -10.376;  858.209
483.925;  111.027;   -7.147;  774.373
484.513;  116.985;   -7.996;  758.962
485.102;  113.753;  -10.027;  810.965
485.690;  122.136;  -10.446; 1011.050
486.278;  124.587;   -8.446;  979.329
486.867;  125.422;   -6.356;  809.662
487.455;  126.763;   -9.136;  898.229
488.043;  128.580;  -10.646;  748.361
488.631;  137.811;   -7.456; 1005.079
489.220;  140.935;   -6.636;  908.626
489.808;  141.050;  -11.036;  741.415
490.396;  148.705;  -10.246;  914.645
490.984;  154.849;   -8.556;  830.161
491.572;  164.226;   -5.886;  940.315
492.160;  169.962;   -9.486;  919.081
492.748;  181.245;  -10.976;  884.341
493.336;  203.707;   -8.776; 1019.693
493.924;  228.503;   -5.465;  958.077
494.512;  255.065;   -9.986; 1066.638
495.100;  289.295;  -10.636; 1103.280
495.687;  344.727;  -10.885; 1206.373
496.275;  403.502;   -8.126; 1150.796
496.863;  471.849;  -10.586; 1281.171
497.451;  568.308;  -11.926; 1386.805
498.038;  697.715;  -10.885; 1556.729
498.626;  803.041;   -6.315; 1741.407
499.214;  951.227;   -7.326; 2016.609
499.801; 1139.606;  -11.906; 2220.633
500.389; 1378.182;  -10.466; 2312.494
500.976; 1661.232;   -5.236; 2744.849
501.564; 2090.541;   -8.936; 3148.565
502.151; 2433.762;  -13.176; 3515.999
502.738; 2825.477;  -10.646; 3971.274
503.326; 3234.354;   -9.525; 4403.796
503.913; 3642.412;  -10.856; 5161.749
504.500; 4013.246;  -11.586; 5986.420
505.088; 4381.036;  -10.336; 6381.201
505.675; 4913.988;   -6.355; 6925.547
506.262; 5582.199;   -9.046; 7619.060
506.849; 6297.134;  -10.416; 8733.969
507.436; 6829.651;  -10.305; 9790.121
508.023; 7403.772;   -5.496; 9985.472
508.610; 7664.242;   -7.856;10434.618
509.197; 8292.049;  -10.097;11198.435
509.784; 9620.168;  -10.886;12391.194
510.371;10838.296;   -9.315;13603.713
510.958;11638.676;   -9.936;14426.586
511.545;12325.059;   -9.326;15243.775
512.132;13070.575;  -10.075;15945.876
512.719;13476.492;   -7.796;16340.369
513.305;14527.351;  -10.606;18011.766
513.892;15214.674;  -11.486;19754.971
514.479;16400.150;   -9.126;20967.805
515.066;17964.926;   -6.026;22299.793
515.652;19693.197;   -8.466;22908.660
516.239;20922.502;  -10.886;23798.875
516.825;21658.543;  -11.496;25567.275
517.412;22467.488;   -5.796;28154.959
517.998;23204.000;  -10.506;28344.111
518.585;23329.545;  -10.076;27134.219
519.171;24014.775;   -8.315;27268.576
519.758;25598.883;   -8.596;28964.129
520.344;27668.969;   -8.466;30664.494
520.930;27528.795;  -11.006;32550.605
521.516;28248.975;  -10.495;35422.895
522.103;30007.238;   -5.526;38280.004
522.689;30395.576;   -8.746;37835.117
523.275;30222.711;  -11.376;37288.613
523.861;32155.678;  -11.156;37281.395
524.447;33943.414;   -8.135;37846.949
525.033;33855.949;   -7.896;38321.949
525.619;34055.258;  -12.476;38579.285
526.205;35392.926;   -9.516;40622.875
526.791;38308.016;   -6.926;42258.836
527.377;38514.902;   -8.346;42966.902
527.963;39301.297;   -8.717;42018.949
528.549;38538.586;  -11.016;42476.828
529.135;37075.770;   -8.536;41854.852
529.721;35742.852;   -9.666;41237.711
530.306;34971.914;  -10.066;41259.445
530.892;34886.926;  -11.356;41506.047
531.478;36295.578;   -6.596;43559.613
532.063;39754.820;   -8.836;47695.563
532.649;41297.160;  -10.047;50808.324
533.235;41460.488;   -9.746;51787.500
533.820;40826.641;   -6.566;52145.035
534.406;42230.859;  -10.817;51133.488
534.991;42384.520;   -9.416;49996.805
535.576;40669.129;   -9.036;48882.852
536.162;41579.996;   -6.156;46942.285
536.747;42709.242;  -11.607;45711.746
537.333;44950.410;  -11.787;48510.180
537.918;48283.840;  -12.437;50439.891
538.503;48248.426;   -7.196;50863.711
539.088;44726.039;  -10.556;50906.922
539.673;44044.125;   -8.767;52621.965
540.259;44870.625;  -10.026;52368.094
540.844;42534.930;   -7.416;50879.109
541.429;44413.020;   -9.467;52077.777
542.014;46278.496;   -9.527;52716.695
542.599;45163.895;   -9.946;52363.281
543.184;42449.008;   -7.927;53187.137
543.769;43453.137;   -9.297;54697.605
544.354;43630.305;  -10.127;53913.914
544.938;42361.691;   -9.267;49680.164
545.523;44173.039;   -6.506;47386.277
546.108;47105.254;   -9.787;49151.949
546.693;48755.820;  -11.587;51384.637
547.278;48972.223;  -10.986;51853.254
547.862;46411.488;   -8.206;51173.750
548.447;42210.203;  -10.067;51691.395
549.031;41175.477;   -9.637;52456.703
549.616;45232.551;   -9.926;52714.516
550.201;45395.824;   -6.347;52414.598
550.785;46698.719;   -7.917;52355.059
551.370;45780.504;  -10.867;54589.453
551.954;44822.500;   -9.047;58267.348
552.538;45853.566;   -7.827;59062.176
553.123;44584.363;  -10.287;58115.285
553.707;42107.059;  -12.178;56556.285
554.291;43521.125;   -8.717;56201.668
554.876;47061.070;   -7.457;55335.762
555.460;47089.313;  -10.387;54155.703
556.044;46827.934;   -9.618;53721.484
556.628;44737.891;  -11.567;53731.016
557.212;43754.027;   -8.097;54312.531
557.796;42915.281;  -11.077;53797.773
558.380;43213.234;  -11.108;56145.984
558.964;43161.668;   -9.057;57277.930
559.548;44402.664;   -6.977;56459.641
560.132;42647.930;  -11.457;54434.543
560.716;40539.387;  -11.378;54800.617
561.300;41353.727;   -9.577;57606.945
561.884;42675.293;   -7.127;58972.445
562.467;40508.852;   -7.118;57327.570
563.051;39856.699;  -13.358;54962.434
563.635;41938.766;  -10.178;52594.473
564.219;42394.273;   -7.837;50610.410
564.802;42846.195;  -11.398;49551.180
565.386;42383.551;  -12.788;48370.953
565.969;41698.652;   -9.077;48178.871
566.553;40230.316;   -6.207;49957.305
567.136;41162.320;   -8.568;50369.594
567.720;38509.996;  -11.868;49492.004
568.303;36443.664;   -8.268;50616.352
568.887;36494.465;   -8.698;50727.148
569.470;37220.305;   -6.808;51698.379
570.053;36371.445;  -13.188;52122.078
570.637;34098.152;  -12.037;52536.438
571.220;34057.227;   -8.577;51186.098
571.803;35418.820;   -8.498;51032.762
572.386;37032.555;  -10.498;49609.887
572.969;39118.797;   -9.388;48285.926
573.552;37862.621;   -8.338;47624.285
574.135;36397.816;   -8.518;45498.641
574.718;34106.164;  -13.628;41970.434
575.301;33457.191;  -10.893;41447.137
575.884;32808.223;   -8.158;40923.836
576.467;33971.586;  -10.328;45267.723
577.050;34913.172;  -13.058;48175.543
577.633;35804.957;   -9.458;47729.328
578.216;35217.684;   -8.928;47579.793
578.799;34506.703;   -9.358;47820.996
579.381;33723.090;  -11.388;48115.551
579.964;31362.438;  -11.718;47333.766
580.547;33439.176;   -8.588;46668.969
581.129;34210.379;   -8.859;44466.141
581.712;34878.270;  -10.729;44164.922
582.294;35188.355;  -11.118;46477.855
582.877;35141.344;   -5.218;48244.254
583.459;33446.727;   -8.679;47437.895
584.042;31345.545;  -10.709;46943.219
584.624;30804.139;  -11.669;46792.227
585.206;30039.906;   -8.218;46557.250
585.789;29081.840;  -10.569;45793.773
586.371;29102.895;  -11.859;43836.391
586.953;27441.867;  -10.719;42972.492
587.536;27973.818;   -7.198;42487.211
588.118;31681.262;   -8.720;42086.414
588.700;31339.691;  -10.439;43389.930
589.282;31843.707;   -9.198;43646.039
589.864;33336.176;   -9.199;43438.109
590.446;34775.816;  -11.319;43151.926
591.028;35011.699;  -11.159;42781.867
591.610;33680.516;  -11.779;42839.098
592.192;30689.586;   -7.668;42820.402
592.774;29233.412;  -11.949;40724.277
593.356;28165.316;  -12.129;39874.789
593.937;26988.842;  -10.669;39980.648
594.519;29048.160;   -6.509;42069.633
595.101;31063.260;  -10.849;42976.031
595.683;31096.313;  -11.679;44084.441
596.264;31884.971;   -9.049;43478.797
596.846;32046.943;   -8.849;43803.672
597.427;32125.285;   -9.570;42986.934
598.009;33392.641;  -12.620;42832.219
598.591;33693.680;  -10.039;42580.086
599.172;33399.965;  -10.369;43061.805
599.753;33777.738;   -9.140;41691.469
600.335;35078.883;  -11.430;40692.520
600.916;33166.527;   -9.939;39982.422
601.498;30856.508;   -8.479;40318.617
602.079;29330.686;  -10.920;40670.609
602.660;28751.318;  -11.480;41450.898
603.241;30555.809;  -11.699;41137.738
603.823;29501.539;   -9.579;38868.797
604.404;28140.301;  -10.620;38182.785
604.985;29914.402;  -10.450;38078.047
605.566;30535.109;   -9.129;38056.633
606.147;30565.535;   -7.510;37020.418
606.728;31878.277;  -10.660;37883.359
607.309;30380.377;  -11.740;38748.273
607.890;30306.645;   -9.759;38850.230
608.471;29969.912;   -8.250;37457.918
609.051;29217.316;   -9.240;36066.457
609.632;27898.520;  -12.120;35991.074
610.213;27831.666;   -9.110;37402.641
610.794;28644.549;   -8.030;38383.363
611.374;28651.385;   -8.110;40562.387
611.955;29726.365;  -13.560;38533.727
612.536;31144.529;  -11.400;36951.789
613.116;30574.492;   -8.070;37197.891
613.697;31098.576;  -10.830;38411.125
614.277;29079.631;  -11.641;38673.938
614.858;29501.625;  -13.310;37075.863
615.438;29358.104;   -7.460;35092.906
616.019;27629.576;   -7.601;33666.301
616.599;27841.004;  -12.020;34189.023
617.179;29428.170;  -11.780;36952.047
617.760;30633.646;   -8.570;39582.574
618.340;31277.713;  -11.471;38943.977
618.920;32144.758;  -11.170;37594.156
619.500;32092.375;  -11.071;37866.938
620.080;30894.342;   -7.750;37869.043
620.660;31748.971;  -12.711;36868.617
621.241;33409.973;  -10.211;36352.309
621.821;34258.816;  -10.961;35459.520
622.401;33248.582;   -7.720;35207.414
622.980;32116.553;   -8.981;35980.422
623.560;30675.896;   -9.331;37351.328
624.140;29140.666;   -9.850;34388.582
624.720;24605.416;   -7.451;32368.764
625.300;21471.799;   -9.070;32638.629
625.880;24807.711;  -12.601;34599.035
626.459;28769.359;  -11.751;36831.738
627.039;31493.770;   -9.281;38299.098
627.619;31431.475;   -8.801;38289.574
628.198;30232.143;  -12.071;37220.695
628.778;29238.619;   -9.461;37632.563
629.357;29571.525;   -8.491;38003.012
629.937;29779.314;   -9.721;38402.039
630.516;29380.426;   -9.951;37868.801
631.096;29339.605;  -11.731;35760.410
631.675;30936.428;   -8.572;35225.219
632.254;35824.773;  -11.282;35130.289
632.834;35576.395;  -13.322;35794.570
633.413;34161.258;  -10.301;35788.922
633.992;32109.867;   -8.582;34532.863
634.571;32371.539;   -8.352;33590.113
635.151;34960.762;  -11.912;34943.863
635.730;33857.199;  -10.511;35352.523
636.309;30609.588;   -7.731;35366.605
636.888;27853.896;   -9.952;36165.637
637.467;27982.617;  -11.672;37515.902
638.046;29275.199;   -8.901;39288.695
638.625;32074.771;   -7.912;38279.699
639.204;32031.270;  -10.022;37741.598
639.782;30807.068;  -12.252;38364.551
640.361;27346.805;  -10.041;36740.621
640.940;24792.787;  -11.161;34950.082
641.519;25692.285;   -9.701;34137.398
642.097;28543.377;  -11.271;35654.258
642.676;31046.625;   -8.651;35637.957
643.255;32480.877;   -8.711;36567.074
643.833;31939.629;   -9.581;37809.434
644.412;31769.289;  -13.711;37337.293
644.990;30723.525;  -11.811;37018.531
645.569;30342.947;   -9.411;36518.469
646.147;30033.283;  -10.291;36186.430
646.726;30548.059;  -12.401;36267.688
647.304;31614.811;  -10.411;36647.625
647.882;32582.438;   -9.651;39286.742
648.461;34081.039;   -9.631;39157.703
649.039;32888.152;  -11.881;35412.883
649.617;31937.645;   -9.661;34744.918
650.195;30788.898;   -9.301;35403.098
650.773;29534.477;  -10.511;35053.797
651.352;27235.961;  -11.521;33756.816
651.930;24893.865;  -12.211;31868.773
652.508;23628.002;   -9.171;33121.551
653.086;27416.053;   -9.371;33564.793
653.663;30680.953;  -13.161;34054.668
654.241;29153.229;  -13.031;35693.309
654.819;30138.053;   -9.371;36422.906
655.397;29990.213;  -10.511;38213.484
655.975;29506.354;  -10.371;39507.625
656.553;29327.666;  -10.051;39498.223
657.130;28037.182;  -10.061;40395.480
657.708;27094.941;   -9.561;39242.020
658.286;27115.535;  -11.511;38920.020
658.863;28552.824;  -10.261;40202.898
659.441;32029.875;   -7.531;39677.938
660.018;32214.324;   -9.501;40413.355
660.596;30808.516;  -13.301;39931.414
661.173;32053.064;  -11.211;39604.531
661.750;32309.232;   -9.951;39700.070
662.328;30889.678;   -9.390;39292.809
662.905;29956.037;  -11.330;38235.648
663.482;26426.938;   -9.050;36212.305
664.060;24550.914;   -8.240;35944.945
664.637;27189.707;  -10.050;35170.785
665.214;28539.627;  -11.760;34197.523
665.791;30285.721;  -10.530;34549.520
666.368;29695.373;   -9.690;35118.578
666.945;29910.633;   -9.320;36019.418
667.522;31438.930;  -11.860;36048.438
668.099;31164.990;  -10.770;36243.914
668.676;29744.094;   -6.260;35958.875
669.253;28512.920;   -7.000;37384.730
669.830;28701.928;  -10.190;36779.629
670.407;28719.342;   -9.550;35231.289
670.984;28360.063;   -9.260;35544.270
671.560;29333.941;   -9.280;35466.867
672.137;29011.613;  -11.810;34280.863
672.714;29968.871;  -11.490;34632.863
673.290;31282.451;   -7.740;35135.422
673.867;31152.209;  -10.660;36114.480
674.443;31067.516;  -12.230;36152.859
675.020;29138.684;  -10.450;35327.238
675.596;29741.242;   -9.260;35795.176
676.173;30358.947;  -10.780;35430.355
676.749;30080.566;  -13.690;33549.516
677.326;29858.494;  -11.980;32210.012
677.902;29651.609;   -8.630;32068.871
678.478;29136.609;  -10.730;32583.891
679.054;28094.385;  -10.520;32088.928
679.631;28396.514;  -11.920;30978.848
680.207;29922.441;   -7.490;33160.887
680.783;31377.977;   -9.860;35570.363
681.359;30524.182;  -13.380;36125.184
681.935;30381.711;  -12.480;35240.922
682.511;30577.996;   -7.900;34429.961
683.087;30955.291;   -7.710;34463.680
683.663;29901.178;  -11.480;34648.898
684.239;28476.012;  -14.090;34546.457
684.815;28021.773;   -7.560;35586.375
685.390;28003.320;   -9.910;35821.895
685.966;28445.570;  -11.159;35085.871
686.542;30645.598;  -11.169;34198.230
687.118;33297.102;   -5.959;32847.707
687.693;34199.027;  -10.329;32794.027
688.269;33839.379;  -12.059;33072.367
688.844;32139.383;  -10.909;33141.664
689.420;30201.754;   -8.019;33965.742
689.995;28461.182;   -8.399;34655.523
690.571;26918.594;  -10.949;33576.742
691.146;26752.402;   -9.619;32657.219
691.722;26779.883;   -8.999;32526.979
692.297;26080.822;  -11.589;33014.617
692.872;27094.611;  -11.739;34012.254
693.448;27066.809;  -11.059;34237.434
694.023;26185.105;  -10.139;34142.672
694.598;27905.586;   -9.029;34132.031
695.173;28723.684;  -13.319;34205.250
695.748;27681.055;  -10.169;32882.488
696.323;27817.242;   -8.339;32864.906
696.898;28129.947;   -8.169;33170.004
697.473;28376.150;  -12.309;32432.984
698.048;27827.354;  -10.989;31649.303
698.623;27410.270;   -9.329;30778.141
699.198;28658.156;   -9.849;31140.119
699.773;30189.709;  -12.329;31764.299
700.348;28931.758;  -10.389;31780.816
700.922;28852.385;   -9.269;32046.375
701.497;30200.734;   -9.329;32603.574
702.072;30717.832;  -10.789;34799.871
702.646;29116.863;  -10.839;35793.172
703.221;26517.775;   -9.099;35201.590
703.795;28242.053;  -10.939;34764.527
704.370;28926.342;  -12.859;34307.367
704.944;29214.785;  -11.559;33509.887
705.519;29672.770;   -7.939;31388.584
706.093;30804.377;  -10.499;31340.104
706.668;31545.795;  -11.289;32630.281
707.242;30463.461;  -11.509;32728.779
707.816;29114.234;   -9.639;32947.238
708.390;27549.176;  -11.429;33277.855
708.965;27710.830;  -11.869;33834.336
709.539;27349.908;  -11.689;33709.273
710.113;27548.902;  -10.478;33044.313
710.687;27455.832;  -10.228;31953.992
711.261;26110.762;  -13.698;30505.949
711.835;25771.301;  -13.378;30262.369
712.409;25900.170;   -9.698;31254.447
712.983;27951.230;  -11.898;32754.986
713.557;29407.047;  -15.138;34018.824
714.131;29358.420;  -14.098;34579.625
714.704;28361.000;   -9.958;33890.262
715.278;25829.660;  -10.028;33531.102
715.852;24459.070;  -11.148;33601.660
716.425;25508.689;   -9.068;33515.117
716.999;26742.498;  -10.038;33185.555
717.573;27496.674;   -9.798;33905.996
718.146;28428.469;  -12.378;35199.293
718.720;28551.000;  -11.918;35060.551
719.293;28394.225;   -8.088;34973.230
719.867;31441.240;  -10.888;36394.449
720.440;31592.619;  -11.938;36663.008
721.013;30124.357;  -12.818;35102.426
721.587;28448.305;  -10.298;33985.266
722.160;27039.314;  -10.048;33524.965
722.733;25875.771;  -12.108;32987.043
723.306;25850.449;  -10.818;33066.301
723.880;28141.645;   -8.908;33399.500
724.453;30985.250;   -9.878;33468.297
725.026;30578.295;  -11.188;33816.637
725.599;27494.918;  -11.678;32797.996
726.172;26874.170;   -9.618;33187.434
726.745;27663.189;   -8.258;35136.613
727.318;28823.268;  -12.978;35751.730
727.891;29794.051;  -12.148;35890.430
728.463;29529.936;   -8.968;34822.090
729.036;28100.936;  -10.188;32895.086
729.609;28493.615;  -11.788;31823.225
730.182;25912.375;  -11.788;31445.283
730.754;23745.869;  -10.268;32373.223
731.327;24131.010;   -9.998;33676.820
731.900;24265.674;  -12.228;33417.000
732.472;24736.902;  -13.848;31978.498
733.045;26321.279;   -8.698;30368.777
733.617;26502.600;  -10.607;30574.215
734.190;27011.029;  -11.507;31280.975
734.762;25082.008;  -13.647;31674.412
735.334;23120.613;   -9.767;31247.291
735.907;23353.137;   -9.897;29876.211
736.479;23827.969;  -11.637;29808.488
737.051;23416.297;   -9.567;30233.547
737.623;23813.639;   -8.187;31469.086
738.195;23898.402;  -11.187;31784.225
738.768;25775.914;  -12.337;32120.523
739.340;27007.412;  -12.227;32094.342
739.912;26337.033;  -11.057;31312.680
740.484;24852.998;  -10.207;31946.238
741.056;23012.508;  -10.047;32984.059
741.628;24031.924;  -13.627;33897.715
742.199;26158.443;   -7.177;33213.016
742.771;24901.875;  -10.797;31369.113
743.343;22907.691;  -11.997;31865.473
743.915;21974.223;  -12.867;32388.631
744.487;21870.367;   -7.617;31079.568
745.058;22025.051;   -9.557;30570.107
745.630;22657.895;   -9.877;29970.127
746.201;24060.289;  -14.177;29186.766
746.773;25037.588;   -9.237;28805.723
747.344;24786.033;   -9.847;29591.223
747.916;22743.752;  -11.657;31412.201
748.487;22527.596;  -10.587;32194.898
749.059;23730.119;   -8.707;32533.719
749.630;24333.615;  -10.537;32158.518
750.201;23256.434;  -11.687;30855.395
750.773;21649.303;  -11.647;28622.555
751.344;21470.156;   -7.147;28405.732
751.915;22447.832;   -9.757;28461.551
752.486;22941.100;  -12.427;27842.850
753.057;21032.793;  -12.227;27845.008
753.628;19595.098;  -10.417;27728.107
754.199;20383.678;  -11.767;27381.086
754.770;21495.252;  -11.187;25882.203
755.341;21758.648;  -10.507;25886.184
755.912;22040.322;   -9.387;26050.861
756.483;21637.701;  -10.647;26798.779
757.054;19950.391;  -11.837;27048.238
757.625;18533.969;  -12.716;26294.838
758.195;18183.789;   -9.666;26142.076
758.766;17749.461;   -8.656;26392.234
759.337;18266.191;  -12.856;26334.594
759.907;19621.703;  -13.366;27579.652
760.478;20614.285;   -8.576;28352.770
761.048;20347.400;  -10.526;27325.088
761.619;19402.248;  -11.116;26460.428
762.189;19244.623;  -12.136;26029.826
762.760;20037.127;   -9.456;26430.145
763.330;21375.832;   -7.136;26670.902
763.900;21203.871;  -11.786;26603.021
764.471;18995.666;  -11.546;25542.740
765.041;17711.139;   -8.096;24358.459
765.611;17448.145;   -8.876;23991.297
766.181;17494.318;  -12.196;24470.236
766.751;18604.689;  -11.636;24845.975
767.321;18623.693;  -10.156;24533.633
767.891;16720.982;  -11.766;24916.492
768.461;16044.188;  -14.936;24776.771
769.031;16429.115;  -12.356;24757.988
769.601;18190.281;   -7.526;24181.088
770.171;18348.033;  -10.766;23670.387
770.741;17171.520;  -13.176;22960.045
771.311;16905.102;  -10.616;22917.523
771.880;17607.256;   -9.576;23562.941
772.450;17716.443;  -10.336;24216.500
773.020;17613.676;  -13.516;24140.398
773.589;16627.842;  -13.466;24414.857
774.159;15784.430;   -8.686;23858.717
774.729;15359.673;   -9.476;22942.135
775.298;15090.549;  -13.666;22324.033
775.867;14762.792;  -11.716;21140.313
776.437;15081.316;   -9.906;20838.092
777.006;14925.666;  -12.166;20599.510
777.576;14452.056;  -12.356;20508.809
778.145;14281.181;  -11.646;20732.947
778.714;14430.374;   -8.226;21062.465
779.283;14017.582;   -9.556;20949.664
779.853;13450.540;  -14.116;20508.623
780.422;13857.913;  -11.506;20649.082
780.991;13433.452;   -9.556;21527.520
781.560;12065.196;   -9.095;22632.658
782.129;11784.013;  -12.135;23048.277
782.698;11802.934;  -10.865;23438.555
783.267;11498.691;   -9.335;23267.734
783.836;11391.457;  -11.045;22415.133
784.404;12345.358;  -13.865;20443.152
784.973;13113.898;  -13.095;19699.150
785.542;13196.604;  -11.575;19763.828
786.111;12920.299;   -9.705;20341.408
786.679;12458.982;  -12.105;20207.967
787.248;12188.873;  -12.455;19516.465
787.817;12038.685;  -11.535;18900.363
788.385;11796.938;   -9.765;17879.121
788.954;11295.770;  -14.005;17658.301
789.522;10582.847;  -11.955;17788.879
790.090;10901.719;  -10.135;18118.277
790.659;11528.109;  -10.975;18338.736
791.227;11245.563;  -13.375;18508.615
791.795;11615.631;  -12.375;17898.254
792.364;11983.611;  -10.725;17295.133
792.932;12412.947;   -9.715;16822.051
793.500;12679.795;  -12.675;17040.148
794.068;12804.679;  -13.495;17179.787
794.636;12962.671;  -10.885;16664.246
795.204;12212.209;  -11.045;16524.545
795.772;12151.348;  -13.175;17274.564
796.340;11710.064;  -12.445;17891.002
796.908;11427.863;   -9.735;17648.561
797.476;11297.943;   -9.815;17064.080
798.044;10897.728;  -13.985;16672.777
798.612;10161.461;  -13.115;17023.996
799.180; 9820.257;  -10.185;16561.615
799.747; 9704.594;   -9.055;15962.773
800.315; 9383.251;  -12.385;15296.992
800.883; 9197.605;  -15.035;14801.771
801.450; 9438.564;  -10.365;14534.430
802.018; 9601.985;   -9.855;14173.248
802.585; 9651.014;  -11.905;14029.547
803.153; 9575.574;  -11.585;13836.846
803.720; 9302.127;   -9.095;13567.324
804.287; 8797.317;   -9.135;13360.622
804.855; 8279.373;  -11.604;13681.981
805.422; 8126.187;  -11.794;13536.560
805.989; 8238.957;  -10.734;13355.958
806.556; 8381.012;  -10.444;13747.896
807.124; 8581.975;  -12.764;13987.376
807.691; 8539.016;  -12.964;14038.674
808.258; 8404.634;  -11.134;14120.152
808.825; 8150.403;   -9.854;13860.111
809.392; 8258.739;  -10.504;13268.790
809.959; 7729.633;  -13.054;12680.389
810.526; 7173.213;   -8.294;12427.308
811.093; 7106.439;   -8.394;12030.105
811.659; 7804.186;  -12.304;11653.664
812.226; 8506.026;  -13.944;11637.183
812.793; 8315.832;  -10.484;11611.521
813.360; 7649.167;  -10.144;11885.181
813.926; 7289.178;  -11.684;12770.539
814.493; 7082.463;  -13.644;12677.638
815.060; 6699.627;   -9.724;11974.336
815.626; 6602.531;   -9.854;11594.715
816.193; 6950.147;  -13.254;11579.474
816.759; 6990.107;  -13.204;11666.972
817.325; 6975.065;   -9.434;11325.530
817.892; 7278.348;  -10.134;11105.369
818.458; 7724.796;  -13.474;10843.928
819.024; 7435.214;  -11.854;10714.406
819.591; 7139.735;  -10.244;10469.165
820.157; 6932.878;  -10.704;10235.523
820.723; 6386.687;  -12.324;10847.563
821.289; 6023.200;   -9.444;11040.980
821.855; 5979.150;   -8.374;10357.100
822.421; 6042.880;  -10.234; 9978.918
822.987; 6080.447;  -13.294; 9754.177
823.553; 5662.141;  -10.884;10065.755
824.119; 5376.205;   -8.884;10036.294
824.685; 5490.218;   -6.784;10029.192
825.251; 5639.181;  -12.004;10199.230
825.816; 5588.281;  -11.474; 9820.189
826.382; 5281.214;   -9.174; 9297.248
826.948; 5366.943;   -9.214; 9381.347
827.513; 5810.720;  -10.774; 9450.726
828.079; 5770.306;  -11.924; 9472.444
828.645; 5151.548;  -10.543; 9292.643
829.210; 4896.550;  -10.533; 9065.341
829.776; 4853.011;  -10.753; 9132.620
830.341; 4746.740;  -10.173; 9092.878
830.906; 4884.066;  -10.743; 9078.557
831.472; 5227.800;  -11.113; 8534.535
832.037; 5061.730;  -10.603; 8677.874
832.602; 4553.864;  -13.323; 8628.692
833.167; 4288.962;  -10.823; 8879.031
833.733; 4240.891;  -10.113; 9189.790
834.298; 4407.462;  -13.583; 9052.608
834.863; 4591.807;  -12.703; 8895.087
835.428; 4622.860;  -10.523; 8824.266
835.993; 4446.285;   -6.963; 8845.385
836.558; 4217.230;  -10.763; 8888.563
837.123; 4254.924;   -9.903; 8966.582
837.688; 4509.570;   -9.913; 8617.860
838.253; 4814.624;  -10.283; 8590.699
838.817; 5035.347;  -12.963; 8443.797
839.382; 4955.989;  -14.243; 8799.356
839.947; 4645.039;  -10.733; 8810.595
840.511; 4352.969;   -9.383; 8796.394
841.076; 3975.020;  -12.563; 8347.231
841.641; 4016.214;  -12.953; 8224.330
842.205; 4137.736;   -7.043; 8223.349
842.770; 4159.384;   -8.163; 8622.107
843.334; 4230.696;  -12.503; 8410.386
843.898; 4160.002;  -11.693; 8337.465
844.463; 4154.423;  -10.203; 8506.283
845.027; 3967.380;   -9.533; 8280.962
845.591; 3789.856;  -13.443; 8231.141
846.156; 3817.168;  -13.143; 7969.179
846.720; 3737.495;   -9.433; 7768.278
847.284; 3631.860;  -11.033; 7630.957
847.848; 3497.898;  -10.403; 7472.395
848.412; 3402.598;  -11.553; 7437.394
848.976; 3446.479;   -8.393; 7674.592
849.540; 3353.223;   -8.713; 7836.011
850.104; 3389.114;  -12.463; 7913.669
850.668; 3757.272;  -12.973; 7694.508
851.232; 3953.403;  -10.793; 7756.887
851.796; 3831.913;  -10.662; 7926.545
852.359; 3512.549;  -13.082; 7827.844
852.923; 3308.564;  -12.192; 7641.163
853.487; 3157.598;  -11.912; 7342.501
854.050; 3139.101;  -10.892; 7042.820
854.614; 3291.279;  -13.992; 7151.338
855.177; 3415.331;  -11.732; 7105.077
855.741; 3451.064;   -8.962; 6989.675
856.304; 3329.772;   -9.442; 6596.634
856.868; 3292.036;  -14.192; 6356.272
857.431; 3412.291;  -12.702; 6468.571
857.995; 3540.071;   -9.942; 6373.210
858.558; 3576.083;   -9.112; 6324.448
859.121; 3307.571;  -12.932; 6408.327
859.684; 3116.680;  -13.442; 6347.886
860.247; 3218.407;  -10.632; 6321.264
860.810; 3279.264;  -11.272; 6301.903
861.374; 3039.017;   -9.832; 6607.881
861.937; 2767.889;  -11.762; 6408.200
862.500; 2756.217;   -9.722; 6572.639
863.062; 2901.531;  -10.512; 6387.297
863.625; 3042.583;  -11.232; 6190.836
864.188; 3203.610;  -14.112; 5807.254
864.751; 3291.382;  -11.302; 5682.413
865.314; 3222.191;  -10.112; 5547.492
865.876; 2988.376;  -12.182; 5500.150
866.439; 2919.869;  -10.722; 5415.909
867.002; 2881.547;   -9.252; 5501.567
867.564; 2718.512;   -9.572; 5413.946
868.127; 2516.456;  -13.142; 5160.325
868.689; 2395.819;  -12.902; 5133.183
869.252; 2299.101;   -9.732; 5252.382
869.814; 2194.811;   -9.432; 5297.141
870.377; 2181.909;  -11.552; 5390.919
870.939; 2235.620;   -9.052; 5599.898
871.501; 2315.937;  -10.982; 5248.336
872.063; 2340.741;  -12.292; 4854.235
872.626; 2283.767;  -14.912; 4817.074
873.188; 2264.508;  -13.112; 4987.732
873.750; 2229.283;  -13.442; 4868.651
874.312; 2136.313;   -9.402; 4779.330
874.874; 2058.764;  -11.062; 4866.348
875.436; 1982.949;  -13.931; 4718.887
875.998; 1974.592;   -9.561; 4660.005
876.560; 2007.984;  -11.321; 4462.964
877.122; 1950.389;  -12.221; 4145.042
877.683; 1838.688;  -12.191; 4056.481
878.245; 1752.250;  -12.101; 3950.740
878.807; 1786.106;   -8.971; 4058.958
879.369; 1821.760;  -12.071; 3954.677
879.930; 1730.174;  -14.621; 3941.495
880.492; 1653.192;  -10.311; 4067.014
881.053; 1632.134;  -10.901; 3859.633
881.615; 1548.118;  -14.411; 3776.071
882.176; 1440.744;  -13.761; 3734.750
882.738; 1373.531;   -9.181; 3678.489
883.299; 1342.531;  -11.791; 3405.407
883.860; 1326.485;  -13.121; 3351.106
884.422; 1313.367;  -11.211; 3394.044
884.983; 1277.519;  -10.091; 3166.443
885.544; 1214.100;   -8.461; 3189.802
886.105; 1138.425;  -12.361; 3160.360
886.666; 1065.384;  -14.141; 3093.059
887.227;  998.860;  -11.361; 2941.957
887.788;  936.350;  -11.401; 2974.836
888.349;  869.677;  -13.791; 2721.214
888.910;  857.862;  -13.191; 2696.493
889.471;  862.659;   -9.881; 2560.172
890.032;  846.858;   -9.881; 2558.190
890.593;  820.539;  -10.371; 2567.669
891.153;  789.840;  -13.301; 2460.307
891.714;  740.549;  -11.431; 2372.046
892.275;  709.288;  -11.291; 2309.505
892.835;  680.677;  -11.471; 2382.543
893.396;  633.287;  -11.541; 2295.502
893.956;  574.984;  -11.181; 2162.420
894.517;  531.003;  -11.741; 2125.439
895.077;  519.033;  -11.671; 2086.978
895.638;  521.859;  -11.311; 2126.316
896.198;  496.857;   -9.831; 1838.275
896.758;  453.343;   -8.421; 1892.813
897.319;  420.514;  -12.351; 1792.232
897.879;  404.569;  -13.511; 1762.751
898.439;  380.845;  -12.001; 1661.149
898.999;  355.503;  -10.180; 1781.468
899.559;  345.611;  -12.030; 1703.347
900.119;  339.376;  -15.710; 1537.525
900.679;  335.940;   -8.900; 1638.384
901.239;  320.894;   -8.340; 1527.902
901.799;  310.698;  -13.910; 1456.441
902.359;  304.422;  -13.460; 1357.140
902.919;  298.943;  -11.490; 1331.118
903.479;  284.880;  -12.110; 1317.257
904.038;  264.907;  -11.720; 1262.595
904.598;  249.783;  -13.610; 1152.034
905.158;  245.427;  -11.040; 1240.893
905.717;  239.965;  -10.900; 1233.691
906.277;  228.520;  -15.080; 1217.330
906.836;  219.972;  -13.380; 1222.408
907.396;  210.457;  -10.780; 1193.047
907.955;  202.044;   -8.500; 1182.526
908.515;  195.617;  -12.760; 1099.364
909.074;  189.979;  -11.900; 1092.863
909.633;  184.064;   -8.950; 1069.121
910.192;  178.914;   -8.770; 1196.460
910.752;  174.832;  -12.390; 1029.960
911.311;  169.899;  -13.680; 1009.780
911.870;  166.274;  -12.370;  971.460
912.429;  167.271;  -10.900; 1094.080
912.988;  166.638;  -11.690; 1081.060
913.547;  163.213;  -13.240;  940.380
914.106;  158.334;  -11.990;  999.420
914.665;  154.480;   -9.990;  984.020
915.224;  153.057;  -12.880; 1035.760
915.782;  153.634;  -12.350;  922.560
916.341;  152.819;   -9.110; 1049.840
916.900;  148.472;   -9.270;  925.260
917.458;  146.488;  -13.240;  884.220
918.017;  146.612;  -13.550;  942.600
918.576;  146.019;  -12.320;  904.440
919.134;  144.423;  -11.490;  837.980
919.693;  142.604;  -13.670;  893.060
920.251;  141.379;  -15.470;  876.500
920.809;  140.215;  -11.290;  839.580
921.368;  139.624;  -10.210;  885.360
921.926;  138.576;  -12.140;  842.940
922.484;  137.657;  -13.080;  903.360
923.042;  136.420;  -11.720;  880.340
923.601;  138.900;   -7.480;  998.680
924.159;  137.934;  -11.570;  935.560
924.717;  134.861;  -13.840;  841.080
925.275;  135.045;  -10.640;  903.240
925.833;  133.949;  -11.540;  779.320
926.391;  134.463;  -12.960;  938.380
926.949;  133.898;  -14.130;  857.680
927.506;  134.154;  -11.750;  903.500
928.064;  134.436;  -10.250;  877.580
928.622;  133.553;  -13.030;  880.100
929.180;  132.965;  -13.400;  814.180
929.737;  133.876;  -10.700;  808.540
930.295;  137.511;  -10.070;  928.480
930.853;  138.969;  -11.960;  849.100
931.410;  139.863;  -13.120;  821.120
931.968;  139.590;  -10.770;  940.660
932.525;  139.054;  -10.680;  909.380
933.082;  139.348;  -13.130;  811.440
933.640;  141.314;  -13.210;  925.900
934.197;  139.243;  -11.060;  886.360
934.754;  140.586;   -9.580;  897.780
935.312;  143.224;  -14.000;  863.340
935.869;  147.424;  -10.710; 1012.980
936.426;  147.213;   -9.860;  872.800
936.983;  148.933;   -9.710;  889.020
937.540;  149.917;  -13.990;  838.280
938.097;  149.523;  -14.040;  940.120
938.654;  150.002;  -10.310;  898.860
939.211;  151.209;  -10.560;  952.480
939.768;  154.777;  -13.900;  915.420
940.324;  158.623;  -14.760;  904.200
940.881;  159.773;  -10.370;  878.500
941.438;  161.211;   -8.260; 1021.200
941.995;  157.740;  -12.540;  992.560
942.551;  154.614;  -14.670;  875.620
943.108;  153.658;  -10.450;  937.920
943.664;  156.015;  -10.750;  869.340
944.221;  159.999;  -11.550; 1088.140
944.777;  158.039;  -14.770;  869.680
945.334;  157.053;  -12.820;  884.840
945.890;  158.996;  -10.130;  946.480
946.446;  159.655;  -13.470;  947.020
947.003;  162.194;  -12.120;  964.940
947.559;  164.524;   -9.980; 1063.040
948.115;  164.263;   -9.080; 1026.540
948.671;  163.003;  -10.830;  967.300
949.227;  159.997;  -12.440;  859.560
949.783;  157.249;  -12.910;  858.900
950.339;  159.570;  -10.270;  991.000
950.895;  159.889;  -13.630; 1023.840
951.451;  158.990;  -15.100;  925.280
952.007;  157.346;  -11.330;  998.540
952.563;  157.253;  -10.580;  937.780
953.118;  156.048;  -13.440;  904.940
953.674;  155.830;  -12.710;  935.780
954.230;  155.835;  -10.350;  949.640
954.785;  153.219;   -9.190;  936.640
955.341;  151.079;  -11.200;  998.160
955.897;  149.715;  -16.560;  834.660
956.452;  152.491;  -12.570;  953.840
957.008;  151.795;   -7.970; 1083.640
957.563;  149.088;  -11.940; 1009.540
958.118;  142.967;  -13.450;  877.700
958.674;  142.700;  -12.030;  946.780
959.229;  144.613;   -9.410; 1013.980
959.784;  142.754;  -12.000;  832.400
960.339;  142.082;  -14.780; 1001.280
960.894;  139.241;   -9.860;  963.760
961.449;  135.499;   -9.970;  859.960
962.004;  134.732;  -10.900; 1212.840
962.559;  128.909;  -13.150;  860.140
963.114;  126.212;  -13.740;  742.480
963.669;  126.155;   -9.820;  915.500
964.224;  124.272;  -13.890;  874.340
964.779;  123.926;  -12.600;  828.420
965.334;  124.536;  -10.950; 1017.860
965.888;  123.418;  -11.170;  875.360
966.443;  127.582;  -12.540;  972.380
966.998;  127.479;  -15.780;  819.460
967.552;  127.133;   -9.760;  908.380
968.107;  123.000;   -9.060;  868.300
968.661;  124.130;  -11.950;  922.440
969.216;  124.378;  -12.800;  856.280
969.770;  124.183;  -11.210;  917.200
970.324;  123.610;  -11.610;  923.140
970.879;  119.543;  -11.370;  947.180
971.433;  118.197;  -12.540;  952.720
971.987;  112.023;  -11.320;  895.340
972.541;  110.106;  -10.720;  917.100
973.095;  109.160;   -9.680; 1009.460
973.649;  108.743;  -11.440;  809.480
974.203;  106.568;  -11.210;  829.040
974.757;  106.560;  -10.240;  855.220
975.311;  106.655;  -13.720;  872.600
975.865;  105.387;  -13.770;  881.820
976.419;  103.211;  -11.690;  857.400
976.973;  101.508;   -9.510;  849.620
977.526;  101.495;  -12.620;  949.920
978.080;   95.556;  -12.010;  796.780
978.634;   88.952;  -10.170;  921.320
979.187;   79.975;   -9.020;  905.400
979.741;   76.635;   -9.820; 1018.380
980.294;   74.602;  -14.870;  789.160
980.848;   73.669;  -12.380;  717.220
981.401;   75.661;  -10.350;  816.540
981.955;   78.741;  -13.720;  844.300
982.508;   78.824;  -11.490;  746.340
983.061;   81.459;  -10.000;  915.260
983.615;   79.170;  -11.480;  798.800
984.168;   77.563;  -13.220;  770.080
984.721;   77.797;  -13.960;  880.760
985.274;   77.567;  -10.870;  867.500
985.827;   77.052;   -9.790;  834.220
986.380;   74.748;  -13.120;  721.340
986.933;   74.348;  -12.450;  864.800
987.486;   74.770;  -10.210;  861.920
988.039;   73.067;   -8.430;  863.100
988.591;   71.939;  -10.520;  893.260
989.144;   69.763;  -14.860;  737.260
989.697;   69.084;  -13.080;  758.740
990.250;   69.353;  -10.150;  858.100
990.802;   68.598;  -13.430;  755.860
991.355;   70.550;  -12.750;  974.880
991.907;   68.371;  -12.040;  864.320
992.460;   66.192;  -11.330;  753.760
993.012;   64.474;  -13.610;  749.540
993.565;   64.082;  -13.460;  711.360
994.117;   65.571;   -9.360;  950.780
994.669;   61.175;  -11.300;  701.320
995.221;   59.368;  -13.540;  791.920
995.774;   58.625;  -13.430;  787.580
996.326;   57.449;  -12.520;  740.220
996.878;   57.800;  -10.950;  838.420
997.430;   55.357;  -14.300;  699.860
997.982;   54.681;  -13.760;  750.140
998.534;   54.713;  -11.530;  739.060
999.086;   52.529;  -10.310;  738.220
999.638;   51.780;  -12.530;  661.380
1000.190;   51.091;  -11.840;  699.320
1000.741;   51.403;  -10.260;  742.700
1001.293;   51.071;   -8.860;  686.020
1001.845;   49.203;  -13.700;  676.640
1002.396;   50.496;  -12.100;  743.400
1002.948;   49.199;  -12.760;  737.400
1003.500;   47.666;  -10.380;  723.780
1004.051;   48.610;  -11.900;  907.580
1004.603;   46.720;  -12.250;  791.820
1005.154;   43.272;  -13.210;  608.980
1005.705;   42.339;  -10.950;  723.960
1006.257;   41.737;  -13.880;  707.220
1006.808;   41.381;  -12.840;  685.460
1007.359;   41.434;  -10.570;  763.240
1007.910;   39.500;   -9.620;  646.640
1008.461;   39.238;  -13.630;  732.940
1009.013;   38.836;  -17.200;  588.340
1009.564;   39.802;  -10.200;  793.520
1010.115;   37.000;  -12.570;  597.040
1010.665;   37.197;  -15.150;  602.160
1011.216;   37.452;  -14.480;  667.920
1011.767;   37.187;  -11.340;  697.920
1012.318;   36.812;   -9.780;  736.980
1012.869;   36.330;  -12.380;  679.000
1013.419;   34.877;  -15.560;  603.120
1013.970;   36.206;  -11.010;  666.640
1014.521;   35.263;  -11.610;  620.620
1015.071;   35.674;  -13.450;  670.380
1015.622;   35.171;  -13.870;  635.460
1016.172;   34.258;  -11.610;  596.820
1016.723;   33.773;  -12.120;  614.380
1017.273;   33.920;  -13.620;  604.160
1017.823;   33.497;  -14.140;  650.340
1018.374;   32.963;  -12.800;  611.760
1018.924;   32.685;  -12.340;  716.880
1019.474;   33.025;  -11.410;  718.880
1020.024;   32.145;  -14.770;  657.580
1020.574;   33.215;   -9.780;  726.160
1021.124;   32.528;   -8.560;  673.580
1021.674;   31.624;  -15.190;  559.120
1022.224;   32.744;  -13.530;  708.940
1022.774;   31.923;  -13.280;  668.820
1023.324;   32.122;  -10.690;  753.520
1023.874;   33.369;  -10.240;  875.760
1024.423;   30.843;  -12.540;  613.700
1024.973;   30.396;  -10.010;  610.760
1025.523;   29.488;  -10.550;  620.960
1026.072;   29.368;  -13.560;  606.420
1026.622;   30.057;  -15.120;  675.740
1027.172;   30.249;  -11.260;  715.660
1027.721;   29.129;  -11.410;  601.220
1028.270;   30.215;  -13.530;  663.400
1028.820;   29.667;  -13.680;  638.080
1029.369;   29.619;  -13.520;  612.700
1029.918;   29.583;  -10.980;  649.840
1030.468;   28.542;  -13.530;  564.780
1031.017;   29.163;  -13.170;  634.800
1031.566;   28.134;  -12.200;  608.900
1032.115;   28.736;   -9.960;  694.500
1032.664;   27.070;  -13.210;  596.480
1033.213;   28.219;  -12.500;  735.420
1033.762;   27.271;  -11.910;  635.620
1034.311;   27.295;   -9.640;  677.220
1034.860;   27.699;  -13.310;  691.000
1035.408;   27.582;  -11.830;  722.720
1035.957;   28.237;  -12.000;  719.540
1036.506;   25.084;  -11.690;  530.800
1037.055;   28.288;  -10.990;  844.320
1037.603;   26.199;  -15.120;  664.000
1038.152;   25.089;  -12.450;  534.760
1038.700;   25.183;  -10.560;  585.740
1039.249;   25.417;  -11.080;  681.220
1039.797;   25.281;  -12.540;  633.360
1040.345;   25.348;  -11.920;  705.420
1040.894;   24.956;  -11.410;  625.300
1041.442;   24.398;  -14.320;  632.200
1041.990;   24.240;  -16.240;  559.160
1042.538;   23.733;  -11.680;  536.180
1043.087;   23.996;  -10.760;  570.860
1043.635;   25.129;  -11.850;  670.500
1044.183;   23.734;  -15.480;  586.400
1044.731;   23.247;  -11.770;  576.000
1045.279;   23.133;  -13.090;  674.920
1045.827;   25.173;  -12.440;  892.400
1046.374;   22.095;  -13.840;  515.420
1046.922;   21.946;  -13.220;  590.580
1047.470;   23.281;  -10.230;  691.300
1048.018;   23.024;  -14.590;  647.960
1048.565;   23.437;  -12.050;  708.600
1049.113;   22.752;  -11.650;  557.000
1049.660;   22.298;  -10.510;  629.660
1050.208;   22.539;  -13.310;  675.640
1050.755;   21.769;  -15.900;  606.580
1051.303;   22.492;  -11.430;  686.820
1051.850;   21.724;   -8.480;  635.120
1052.397;   19.927;  -15.010;  473.960
1052.945;   21.265;  -13.960;  617.760
1053.492;   22.279;  -13.150;  741.840
1054.039;   22.260;   -9.630;  720.180
1054.586;   21.095;  -13.680;  557.240
1055.133;   21.892;  -14.570;  693.140
1055.680;   21.303;  -13.820;  646.620
1056.227;   19.963;  -11.730;  542.780
1056.774;   21.961;  -12.480;  794.980
1057.321;   19.780;  -13.930;  523.260
1057.868;   19.959;  -11.690;  651.320
1058.415;   19.100;   -9.520;  651.980
1058.961;   20.071;  -13.160;  678.940
1059.508;   19.996;  -12.920;  643.820
1060.055;   19.227;  -11.920;  581.780
1060.601;   19.733;  -11.500;  624.300
1061.148;   19.583;  -14.330;  616.820
1061.694;   18.528;  -16.870;  592.580
1062.241;   18.952;  -10.330;  596.320
1062.787;   19.071;  -10.620;  663.140
1063.334;   20.648;  -10.110;  808.560
1063.880;   19.043;  -13.400;  668.360
1064.426;   18.796;  -10.680;  706.820
1064.972;   18.009;   -9.920;  601.340
1065.518;   16.593;  -10.980;  566.640
1066.065;   18.471;  -14.890;  624.460
1066.611;   17.594;  -12.870;  598.800
1067.157;   18.649;  -12.950;  641.860
1067.703;   17.985;  -13.540;  668.480
1068.249;   17.824;  -13.540;  605.220
1068.794;   17.703;  -12.600;  626.880
1069.340;   16.503;  -10.620;  578.960
1069.886;   17.268;  -12.830;  590.700
1070.432;   16.723;  -14.870;  541.720
1070.977;   16.599;  -11.980;  601.080
1071.523;   16.245;   -8.200;  573.060
1072.068;   16.769;  -12.330;  582.000
1072.614;   16.594;  -16.370;  527.760
1073.160;   17.063;  -11.100;  687.040
1073.705;   15.679;  -10.480;  572.520
1074.250;   15.593;  -14.520;  559.900
1074.796;   16.712;  -11.460;  655.160
1075.341;   17.050;  -11.950;  664.100
1075.886;   15.497;  -11.460;  594.240
1076.431;   14.391;  -13.770;  649.880
1076.976;   15.865;  -12.680;  639.220
1077.521;   14.718;  -13.170;  583.080
1078.067;   14.577;  -10.860;  579.400
1078.612;   15.535;  -13.920;  661.620
1079.156;   14.420;  -13.880;  601.540
1079.701;   15.688;  -13.120;  693.260
1080.246;   15.682;   -9.940;  696.300
1080.791;   15.480;  -14.740;  625.020
1081.336;   14.624;  -13.750;  659.320
1081.880;   15.034;  -13.400;  649.680
1082.425;   13.648;  -12.220;  573.480
1082.970;   15.530;  -11.610;  717.040
1083.514;   13.015;  -13.580;  597.000
1084.059;   13.312;  -12.810;  586.720
1084.603;   13.279;  -12.320;  565.840
1085.147;   13.764;  -13.190;  645.220
1085.692;   15.038;  -12.480;  716.800
1086.236;   13.167;  -13.020;  503.140
1086.780;   14.573;   -9.190;  751.440
1087.325;   13.031;  -12.480;  654.620
1087.869;   13.270;  -12.450;  610.700
1088.413;   13.859;  -12.240;  705.040
1088.957;   11.637;   -9.020;  543.400
1089.501;   13.797;  -10.320;  766.640
1090.045;   13.866;  -12.720;  726.480
1090.589;   11.548;  -13.690;  569.920
1091.133;   12.460;  -10.020;  673.340
1091.676;   12.411;  -12.330;  591.940
1092.220;   12.187;  -14.970;  600.920
1092.764;   13.268;  -12.430;  706.960
1093.307;   12.312;   -9.800;  673.780
1093.851;   10.474;  -14.970;  556.540
1094.395;   12.524;  -15.310;  683.140
1094.938;   11.774;  -10.370;  632.520
1095.482;   11.421;  -11.050;  559.800
1096.025;   11.890;  -11.840;  710.880
1096.568;   12.201;  -12.840;  779.280
1097.112;    9.483;  -14.700;  508.180
1097.655;   11.194;   -8.720;  603.000
1098.198;   10.640;  -13.610;  600.180
1098.741;   10.231;  -13.350;  612.860
1099.285;   11.911;  -11.230;  657.300
1099.828;    8.349;  -11.840;  439.400
1100.371;   10.430;  -10.840;  608.160
1100.914;   10.824;  -14.190;  682.660
1101.457;   10.897;  -11.240;  679.900
1101.999;    9.295;  -11.270;  584.680
1102.542;   10.655;  -11.480;  641.440
1103.085;    9.845;  -11.750;  658.500
1103.628;   10.731;  -11.400;  762.060
1104.170;    9.429;  -10.490;  588.280
1104.713;   10.204;  -10.600;  646.700
1105.256;    9.499;  -14.360;  557.440
1105.798;    8.813;  -13.210;  499.980
1106.341;    9.954;  -10.270;  728.900
1106.883;    9.138;  -12.200;  521.340
1107.425;    9.547;  -13.110;  668.180
1107.968;    8.850;  -12.840;  612.380
1108.510;    9.531;   -6.480;  684.960
1109.052;    7.746;  -13.940;  612.620
1109.594;    8.570;  -13.690;  554.440
1110.136;    9.511;  -11.880;  643.220
1110.679;    8.070;   -9.500;  633.080
1111.221;    8.503;  -14.160;  604.460
1111.763;    7.711;  -13.980;  559.220
1112.304;    7.445;  -13.880;  547.140
1112.846;    8.231;  -12.210;  666.240
1113.388;   11.726;  -11.390;  942.180
1113.930;    8.185;  -14.540;  694.200
1114.472;    7.409;  -12.640;  606.540
1115.013;    6.496;  -11.620;  551.280
1115.555;    6.288;  -13.640;  587.100
1116.097;    6.316;  -15.380;  579.480
1116.638;    7.111;  -12.640;  684.600
1117.180;    7.438;   -9.850;  667.740
1117.721;    7.242;  -13.690;  568.580
1118.262;    7.626;  -12.680;  677.960
1118.804;    7.539;  -12.530;  637.340
1119.345;    6.246;  -11.690;  578.400
1119.886;    7.764;  -13.380;  704.040
1120.427;    6.447;  -14.070;  589.020
1120.969;    6.219;  -13.500;  597.920
1121.510;    5.274;  -11.480;  563.060
1122.051;    6.594;  -12.830;  723.580
1122.592;    5.624;  -14.290;  655.420
1123.133;    5.075;  -12.400;  547.940
1123.673;    6.404;  -10.130;  706.480
1124.214;    5.585;  -12.930;  612.460
1124.755;    6.610;  -14.380;  639.460
1125.296;    6.023;  -14.000;  627.320
1125.836;    6.322;  -10.070;  691.500
1126.377;    5.224;  -12.640;  599.660
1126.918;    5.412;  -12.960;  614.980
1127.458;    4.867;  -13.350;  622.220
1127.999;    6.383;  -10.750;  656.980
1128.539;    4.997;  -12.350;  694.240
1129.079;    4.678;  -14.860;  632.720
1129.620;    4.284;  -13.840;  558.100
1130.160;    4.807;  -12.330;  539.480
1130.700;    4.923;  -14.530;  640.840
1131.240;    5.506;  -12.530;  643.700
1131.781;    4.700;  -14.450;  619.680
1132.321;    4.636;   -9.790;  599.120
1132.861;    3.549;  -14.860;  564.200
1133.401;    3.924;  -14.290;  593.940
1133.941;    4.323;  -11.750;  626.280
1134.481;    3.467;   -9.920;  597.580
1135.020;    3.615;  -12.290;  609.160
1135.560;    3.800;  -11.650;  674.940
1136.100;    3.171;  -16.270;  501.160
1136.640;    2.663;  -10.890;  510.480
1137.179;    3.299;  -14.180;  537.960
1137.719;    3.323;  -16.250;  605.400
1138.258;    3.948;  -14.230;  587.360
1138.798;    3.881;   -9.090;  663.780
1139.337;    1.683;  -15.130;  482.840
1139.877;    3.161;  -13.680;  642.360
1140.416;    5.997;  -11.320;  878.060
1140.955;    2.437;  -10.860;  535.380
1141.494;    3.405;  -12.920;  669.280
1142.034;    2.436;  -13.930;  583.520
1142.573;    3.897;  -11.440;  646.280
1143.112;    2.000;  -12.000;  553.480
1143.651;    3.257;  -13.670;  536.480
1144.190;    3.531;  -12.730;  691.640
1144.729;    2.349;  -14.560;  607.420
1145.267;    2.162;  -11.830;  584.900
1145.806;    3.247;  -12.230;  637.040
1146.345;    1.606;  -14.130;  635.020
1146.884;    3.071;  -11.590;  622.500
1147.422;    2.099;  -12.550;  533.060
1147.961;    3.300;  -11.180;  708.460
1148.500;    3.160;  -11.510;  669.720
1149.038;    3.205;  -11.640;  632.500
1149.577;    3.010;  -10.130;  698.640
1150.115;    0.177;  -13.970;  452.280
1150.653;    2.100;  -14.520;  607.340
1151.192;    1.766;  -12.810;  552.920
1151.730;    1.839;   -9.100;  652.560
1152.268;    1.090;  -12.220;  589.520
1152.806;    1.898;  -14.140;  571.180
1153.344;    0.730;  -12.350;  577.640
1153.882;    1.323;   -8.980;  600.060
1154.421;   -0.528;  -15.190;  470.620
1154.958;    0.537;  -15.210;  595.240
1155.496;    2.345;  -12.850;  645.280
1156.034;    1.286;   -9.940;  721.880
1156.572;    1.997;  -13.570;  667.060
1157.110;    0.041;  -14.590;  473.940
1157.647;    1.974;  -13.030;  676.960
1158.185;    0.299;  -12.140;  564.320
1158.723;   -0.899;  -14.390;  509.200
1159.260;    1.238;  -14.090;  701.700
1159.798;    1.534;  -11.920;  658.160
1160.335;    0.523;  -11.110;  631.820

