
Integration time [ms]:   3.276
Averaging Nr. [scans]: 1000
Smoothing Nr. [pixels]: 0
Data measured with spectrometer [name]: 7414430SP
Wave   ;Sample   ;Dark     ;Reference
[nm]   ;[counts] ;[counts] ;[counts] 

288.544;  150.112;    7.793;  793.890
289.143;  155.191;    7.462;  681.602
289.742;  155.639;    8.602;  828.814
290.341;  139.079;    1.321;  789.841
290.940;  128.593;   -0.709;  730.702
291.538;  129.607;    0.881;  881.108
292.137;  130.175;    0.122;  792.581
292.736;  134.798;   -1.929;  975.101
293.335;  130.790;   -8.229;  735.086
293.934;  131.612;   -5.279;  781.677
294.532;  129.865;   -1.369; 1031.958
295.131;  115.250;   -7.641;  834.394
295.730;  115.857;   -8.420;  809.588
296.328;  115.009;   -5.611;  783.442
296.927;  115.938;   -5.781;  779.652
297.525;  116.360;   -6.361;  781.236
298.124;  107.132;  -11.382;  654.009
298.722;  111.993;   -7.641;  761.933
299.321;  108.278;   -6.811;  708.597
299.919;  106.243;   -6.991;  751.918
300.518;  104.255;  -10.362;  689.338
301.116;  106.376;   -9.581;  691.381
301.715;  105.512;   -4.891;  730.222
302.313;  103.670;   -8.801;  704.943
302.911;   99.568;   -8.522;  733.830
303.509;  104.903;   -6.171;  925.627
304.108;  102.680;   -7.311;  760.383
304.706;  101.935;   -8.321;  801.664
305.304;   96.473;  -10.222;  796.707
305.902;  101.959;   -6.021;  784.484
306.500;   97.575;   -4.971;  728.200
307.098;   95.856;   -7.061;  746.560
307.696;   93.635;   -8.801;  780.432
308.294;   93.554;   -6.411;  731.359
308.892;   96.829;   -2.901;  759.769
309.490;   92.491;   -5.041;  712.161
310.088;   91.304;   -5.002;  788.444
310.686;   95.127;   -2.041;  821.749
311.284;   91.104;   -2.351;  766.040
311.882;   88.237;   -4.422;  731.225
312.480;   85.450;   -4.192;  697.167
313.078;   87.186;   -1.172;  808.331
313.675;   86.313;   -2.601;  691.600
314.273;   82.842;   -1.312;  797.837
314.871;   82.784;   -3.942;  589.829
315.468;   80.152;   -2.802;  652.090
316.066;   82.854;   -0.701;  694.427
316.664;   74.520;   -4.362;  656.351
317.261;   79.932;   -2.872;  910.128
317.859;   76.049;   -2.022;  768.735
318.456;   76.136;   -0.531;  830.096
319.054;   71.139;   -3.912;  787.828
319.651;   71.098;   -4.752;  759.928
320.249;   69.824;   -2.602;  810.188
320.846;   67.068;   -0.821;  714.286
321.443;   63.689;   -4.642;  832.135
322.041;   62.434;   -5.002;  812.315
322.638;   60.198;   -3.982;  701.456
323.235;   60.535;   -3.411;  665.683
323.833;   57.976;   -7.361;  740.354
324.430;   53.658;   -8.611;  615.900
325.027;   54.363;   -4.061;  876.855
325.624;   53.815;   -4.031;  644.532
326.221;   51.153;   -7.481;  689.717
326.818;   51.436;   -5.281;  818.332
327.415;   54.093;   -7.460;  748.828
328.012;   53.383;   -5.510;  690.585
328.609;   52.555;   -7.880;  731.389
329.206;   50.670;   -8.331;  778.621
329.803;   50.298;   -5.121;  737.841
330.400;   53.291;   -4.510;  704.260
330.997;   54.075;   -6.441;  817.147
331.594;   53.297;   -8.831;  788.185
332.191;   57.895;   -7.621;  728.722
332.787;   61.343;   -4.591;  844.463
333.384;   59.126;   -7.412;  763.093
333.981;   57.735;   -8.293;  815.687
334.578;   61.036;   -7.052;  708.378
335.174;   64.177;   -3.102;  731.469
335.771;   63.109;   -5.943;  836.456
336.367;   60.557;   -7.393;  710.631
336.964;   65.304;   -4.063;  793.266
337.561;   62.045;   -3.813;  731.112
338.157;   57.627;   -4.654;  911.916
338.754;   55.655;   -7.934;  796.589
339.350;   53.367;   -4.414;  722.493
339.946;   55.419;   -4.664;  773.135
340.543;   47.071;   -6.375;  846.136
341.139;   42.083;   -9.815;  720.836
341.735;   40.272;   -4.526;  772.593
342.332;   39.048;   -4.895;  691.472
342.928;   38.704;   -4.295;  795.394
343.524;   32.563;   -5.476;  761.684
344.120;   29.254;   -5.856;  738.562
344.716;   32.158;   -2.155;  723.717
345.313;   30.034;   -6.275;  795.342
345.909;   25.437;   -8.815;  627.336
346.505;   26.457;   -5.305;  740.247
347.101;   27.098;   -2.674;  827.864
347.697;   28.337;   -4.344;  785.398
348.293;   22.623;   -9.975;  627.244
348.889;   23.084;   -5.774;  745.914
349.485;   22.491;   -5.004;  688.205
350.081;   22.546;   -4.704;  772.592
350.676;   18.695;   -6.635;  691.606
351.272;   22.825;   -4.504;  809.530
351.868;   22.472;   -3.914;  780.497
352.464;   18.579;   -9.044;  723.932
353.059;   15.702;   -8.314;  646.017
353.655;   19.266;   -7.024;  777.063
354.251;   20.961;   -5.343;  759.845
354.846;   14.103;   -8.604;  740.646
355.442;   12.292;   -6.945;  753.071
356.038;   15.014;   -7.564;  751.708
356.633;   14.210;   -5.814;  728.594
357.229;   11.883;   -7.364;  724.757
357.824;   10.785;   -8.024;  703.600
358.420;   10.442;   -9.384;  679.726
359.015;   10.432;   -5.104;  695.357
359.610;   11.169;   -6.854;  763.920
360.206;    5.732;  -10.185;  603.240
360.801;    8.486;   -7.054;  646.503
361.396;   10.933;   -5.034;  725.975
361.992;    5.556;   -8.284;  668.220
362.587;    2.706;   -8.625;  670.160
363.182;    5.174;   -7.674;  689.631
363.777;    6.302;   -5.164;  738.242
364.372;    5.649;   -8.604;  737.314
364.967;    1.971;   -9.055;  680.744
365.563;    5.558;   -6.114;  815.567
366.158;    3.457;   -5.814;  685.161
366.753;    3.137;   -7.854;  649.263
367.348;    2.167;   -7.804;  746.056
367.942;    2.437;   -7.954;  697.298
368.537;    0.985;   -4.984;  754.245
369.132;    0.861;   -8.564;  703.428
369.727;   -3.197;   -8.855;  638.079
370.322;   -1.473;   -6.245;  580.186
370.917;   -1.577;   -6.425;  710.646
371.511;    1.365;   -6.294;  861.834
372.106;   -2.703;   -7.685;  776.964
372.701;   -5.272;   -7.335;  585.988
373.296;    0.074;   -4.564;  863.135
373.890;   -5.574;  -10.235;  647.840
374.485;   -7.179;   -7.885;  691.199
375.079;   -3.477;   -7.324;  738.685
375.674;   -1.950;   -3.494;  812.970
376.268;   -6.618;   -8.525;  691.759
376.863;  -11.792;  -10.086;  580.327
377.457;   -5.814;   -7.025;  662.490
378.052;   -7.419;   -3.585;  764.884
378.646;   -8.765;   -7.595;  741.167
379.240;   -8.442;   -8.335;  721.176
379.835;   -7.906;   -5.785;  636.978
380.429;   -9.533;   -4.335;  562.557
381.023;  -10.252;   -6.805;  779.205
381.617;  -11.772;   -9.195;  680.106
382.212;   -8.806;   -6.905;  685.303
382.806;   -8.439;   -3.745;  760.690
383.400;  -12.894;   -7.745;  672.281
383.994;  -13.911;   -9.765;  664.870
384.588;   -8.632;   -6.564;  697.701
385.182;   -7.854;   -5.344;  726.624
385.776;   -9.640;   -8.514;  706.875
386.370;  -13.522;   -9.555;  681.968
386.964;  -11.315;   -8.715;  684.155
387.558;  -10.298;   -6.174;  598.360
388.152;  -13.619;   -8.725;  681.959
388.745;  -12.058;   -7.965;  814.707
389.339;   -9.789;   -5.924;  747.642
389.933;   -8.819;   -5.524;  695.370
390.527;  -10.707;   -7.114;  859.029
391.120;  -15.768;  -10.725;  595.318
391.714;  -12.600;   -8.035;  711.633
392.308;  -10.704;   -3.574;  780.253
392.901;  -14.054;   -7.245;  642.460
393.495;  -16.446;   -9.285;  595.414
394.089;  -13.678;   -5.895;  760.452
394.682;  -13.933;   -4.295;  697.188
395.275;  -15.744;   -9.875;  719.927
395.869;  -16.017;   -8.485;  667.314
396.462;  -14.010;   -7.455;  616.609
397.056;  -10.290;   -5.424;  776.621
397.649;  -15.377;   -6.605;  731.575
398.242;  -12.892;   -8.224;  712.645
398.836;  -11.247;   -7.474;  766.408
399.429;  -12.611;   -7.094;  631.041
400.022;  -16.293;   -9.475;  665.902
400.615;  -14.299;   -7.145;  805.609
401.208;  -12.078;   -7.174;  691.451
401.802;  -14.057;   -5.515;  699.329
402.395;  -15.780;   -9.875;  683.502
402.988;  -17.127;   -8.845;  696.627
403.581;  -12.786;   -8.874;  646.878
404.174;  -11.451;   -5.324;  686.568
404.767;  -14.390;   -9.575;  638.583
405.360;  -16.532;  -10.965;  621.445
405.953;  -10.792;   -8.764;  759.034
406.545;  -10.350;   -7.514;  725.342
407.138;  -15.637;  -10.025;  618.350
407.731;  -14.137;  -10.034;  613.303
408.324;   -9.695;   -9.374;  660.554
408.917;  -10.496;   -6.534;  681.864
409.509;  -13.222;   -8.004;  740.396
410.102;  -14.807;   -9.875;  643.948
410.695;   -7.575;   -8.604;  665.758
411.287;   -9.003;   -6.794;  599.821
411.880;  -11.191;   -9.334;  585.421
412.472;  -13.928;  -10.254;  613.092
413.065;   -9.870;   -6.714;  629.408
413.657;   -8.555;   -7.234;  576.678
414.250;   -8.733;  -10.544;  646.681
414.842;   -9.951;   -9.744;  676.353
415.434;   -8.651;   -6.994;  570.463
416.027;   -3.984;   -5.893;  652.196
416.619;   -5.574;   -7.264;  713.400
417.211;   -6.945;  -10.374;  599.352
417.804;   -2.813;   -7.993;  628.499
418.396;   -7.204;   -7.234;  607.643
418.988;   -4.754;   -9.443;  659.238
419.580;   -7.697;  -10.724;  568.276
420.172;   -5.666;  -10.323;  536.196
420.764;   -1.367;   -8.793;  672.482
421.356;   -2.697;  -11.143;  636.898
421.948;   -3.426;   -8.293;  677.661
422.540;    1.203;   -7.893;  680.027
423.132;    0.104;   -7.082;  600.641
423.724;   -3.145;   -8.653;  561.267
424.316;   -0.486;  -10.213;  621.345
424.908;    2.439;   -9.762;  591.517
425.500;    3.767;   -5.572;  647.978
426.092;    3.962;   -8.422;  648.268
426.683;    2.587;   -9.283;  684.836
427.275;    5.458;   -7.852;  641.471
427.867;    7.895;   -5.272;  668.948
428.458;    7.179;   -7.682;  732.344
429.050;    5.906;  -10.612;  680.749
429.642;    8.014;   -9.882;  743.124
430.233;    8.689;   -6.962;  569.356
430.825;   10.301;   -6.842;  724.809
431.416;    7.393;   -9.672;  698.241
432.008;   10.979;   -6.552;  651.723
432.599;   11.832;   -6.891;  656.073
433.190;    8.503;  -10.912;  637.670
433.782;    7.694;  -11.172;  590.395
434.373;   15.569;   -6.061;  884.765
434.964;   13.855;   -8.251;  602.920
435.556;   11.048;   -9.722;  634.537
436.147;   13.875;   -9.082;  758.490
436.738;   15.183;   -8.041;  701.099
437.329;   21.205;   -7.341;  721.723
437.920;   11.869;   -8.162;  666.688
438.511;   12.855;  -11.802;  564.526
439.103;   19.665;  -10.191;  623.998
439.694;   21.260;   -7.601;  681.583
440.285;   21.385;   -8.541;  764.432
440.876;   19.635;   -9.751;  845.738
441.466;   20.205;   -9.401;  575.162
442.057;   24.359;   -7.760;  665.814
442.648;   23.617;   -9.971;  746.255
443.239;   21.585;  -11.001;  620.477
443.830;   27.339;   -7.990;  704.958
444.421;   28.908;   -7.910;  655.474
445.011;   24.665;   -8.131;  693.619
445.602;   25.231;   -7.111;  743.126
446.193;   26.906;  -10.920;  488.117
446.783;   31.409;   -6.500;  640.397
447.374;   26.053;   -8.671;  692.759
447.964;   27.293;  -10.781;  713.770
448.555;   35.487;   -9.650;  822.742
449.145;   31.895;   -8.660;  662.853
449.736;   32.530;   -8.990;  803.179
450.326;   32.431;   -9.500;  713.626
450.917;   37.383;   -8.680;  675.324
451.507;   36.416;   -7.520;  600.661
452.097;   37.042;   -8.590;  746.267
452.688;   37.976;  -11.340;  742.160
453.278;   37.938;  -10.100;  566.840
453.868;   42.621;   -6.019;  793.550
454.458;   40.378;   -9.440;  651.141
455.048;   40.234;  -10.560;  711.783
455.639;   42.760;  -11.799;  567.096
456.229;   46.473;   -6.899;  710.694
456.819;   47.845;   -7.389;  751.158
457.409;   47.524;  -11.119;  773.993
457.999;   51.555;   -9.289;  737.505
458.589;   51.288;   -6.139;  686.606
459.179;   50.762;   -8.729;  717.658
459.769;   48.900;   -9.789;  627.099
460.358;   53.914;  -10.259;  797.262
460.948;   53.421;   -7.299;  689.503
461.538;   55.196;  -10.289;  660.677
462.128;   52.648;  -11.269;  664.934
462.717;   59.777;   -9.368;  710.326
463.307;   62.548;   -7.908;  705.846
463.897;   58.483;   -9.599;  656.942
464.486;   57.822;   -9.769;  837.128
465.076;   62.800;   -8.048;  733.776
465.666;   65.646;   -9.358;  652.900
466.255;   63.895;   -7.919;  785.651
466.845;   61.991;  -11.689;  666.749
467.434;   65.751;   -7.818;  725.873
468.023;   65.742;   -7.678;  658.357
468.613;   63.716;  -10.939;  713.946
469.202;   67.879;  -10.118;  646.507
469.791;   72.467;   -9.108;  737.811
470.381;   74.600;   -6.058;  742.813
470.970;   74.480;  -10.428;  711.099
471.559;   74.259;  -10.268;  733.291
472.148;   77.637;   -8.448;  675.737
472.738;   79.731;   -6.917;  765.466
473.327;   78.886;  -11.978;  637.529
473.916;   78.607;  -11.888;  737.446
474.505;   83.607;   -9.437;  751.703
475.094;   86.838;   -6.747;  806.570
475.683;   85.141;   -9.367;  797.699
476.272;   86.836;  -12.637;  730.632
476.861;   89.205;  -10.027;  706.754
477.449;   96.199;   -8.716;  728.487
478.038;   89.622;   -9.577;  692.513
478.627;   91.996;   -9.718;  714.852
479.216;   97.931;   -8.947;  769.441
479.805;  100.423;   -6.256;  783.375
480.393;  100.534;   -7.937; 1008.945
480.982;   99.816;   -7.717;  874.501
481.571;  106.646;   -9.266;  858.333
482.159;  106.418;   -7.636;  705.386
482.748;  106.189;   -9.667;  821.385
483.336;  110.805;  -10.376;  858.209
483.925;  111.326;   -7.147;  774.373
484.513;  117.440;   -7.996;  758.962
485.102;  114.357;  -10.027;  810.965
485.690;  123.477;  -10.446; 1011.050
486.278;  125.282;   -8.446;  979.329
486.867;  126.720;   -6.356;  809.662
487.455;  128.094;   -9.136;  898.229
488.043;  128.806;  -10.646;  748.361
488.631;  138.417;   -7.456; 1005.079
489.220;  142.051;   -6.636;  908.626
489.808;  141.357;  -11.036;  741.415
490.396;  149.660;  -10.246;  914.645
490.984;  155.896;   -8.556;  830.161
491.572;  165.658;   -5.886;  940.315
492.160;  170.835;   -9.486;  919.081
492.748;  183.179;  -10.976;  884.341
493.336;  206.446;   -8.776; 1019.693
493.924;  232.425;   -5.465;  958.077
494.512;  258.064;   -9.986; 1066.638
495.100;  295.108;  -10.636; 1103.280
495.687;  350.197;  -10.885; 1206.373
496.275;  411.732;   -8.126; 1150.796
496.863;  482.320;  -10.586; 1281.171
497.451;  583.382;  -11.926; 1386.805
498.038;  712.323;  -10.885; 1556.729
498.626;  816.692;   -6.315; 1741.407
499.214;  961.840;   -7.326; 2016.609
499.801; 1150.652;  -11.906; 2220.633
500.389; 1396.624;  -10.466; 2312.494
500.976; 1697.294;   -5.236; 2744.849
501.564; 2127.360;   -8.936; 3148.565
502.151; 2493.674;  -13.176; 3515.999
502.738; 2932.359;  -10.646; 3971.274
503.326; 3315.428;   -9.525; 4403.796
503.913; 3690.379;  -10.856; 5161.749
504.500; 4046.032;  -11.586; 5986.420
505.088; 4454.046;  -10.336; 6381.201
505.675; 4971.730;   -6.355; 6925.547
506.262; 5691.402;   -9.046; 7619.060
506.849; 6396.408;  -10.416; 8733.969
507.436; 6849.603;  -10.305; 9790.121
508.023; 7402.035;   -5.496; 9985.472
508.610; 7675.173;   -7.856;10434.618
509.197; 8341.179;  -10.097;11198.435
509.784; 9706.266;  -10.886;12391.194
510.371;10746.743;   -9.315;13603.713
510.958;11485.822;   -9.936;14426.586
511.545;12250.616;   -9.326;15243.775
512.132;13094.981;  -10.075;15945.876
512.719;13608.251;   -7.796;16340.369
513.305;14497.225;  -10.606;18011.766
513.892;15180.760;  -11.486;19754.971
514.479;16530.109;   -9.126;20967.805
515.066;18134.832;   -6.026;22299.793
515.652;19435.480;   -8.466;22908.660
516.239;20682.684;  -10.886;23798.875
516.825;21730.709;  -11.496;25567.275
517.412;22713.104;   -5.796;28154.959
517.998;23222.674;  -10.506;28344.111
518.585;23281.369;  -10.076;27134.219
519.171;23880.207;   -8.315;27268.576
519.758;25202.281;   -8.596;28964.129
520.344;27042.162;   -8.466;30664.494
520.930;27235.498;  -11.006;32550.605
521.516;28558.037;  -10.495;35422.895
522.103;30824.770;   -5.526;38280.004
522.689;31272.473;   -8.746;37835.117
523.275;30810.086;  -11.376;37288.613
523.861;32124.715;  -11.156;37281.395
524.447;33326.938;   -8.135;37846.949
525.033;32991.969;   -7.896;38321.949
525.619;33148.359;  -12.476;38579.285
526.205;34752.637;   -9.516;40622.875
526.791;36761.262;   -6.926;42258.836
527.377;36863.684;   -8.346;42966.902
527.963;38050.180;   -8.717;42018.949
528.549;36048.902;  -11.016;42476.828
529.135;33529.938;   -8.536;41854.852
529.721;30808.910;   -9.666;41237.711
530.306;29442.443;  -10.066;41259.445
530.892;31388.633;  -11.356;41506.047
531.478;35213.938;   -6.596;43559.613
532.063;39286.500;   -8.836;47695.563
532.649;40004.461;  -10.047;50808.324
533.235;40806.270;   -9.746;51787.500
533.820;41057.715;   -6.566;52145.035
534.406;41958.500;  -10.817;51133.488
534.991;41032.465;   -9.416;49996.805
535.576;38495.410;   -9.036;48882.852
536.162;36696.297;   -6.156;46942.285
536.747;34170.281;  -11.607;45711.746
537.333;35353.133;  -11.787;48510.180
537.918;39785.051;  -12.437;50439.891
538.503;43393.648;   -7.196;50863.711
539.088;44189.086;  -10.556;50906.922
539.673;45928.043;   -8.767;52621.965
540.259;46584.480;  -10.026;52368.094
540.844;44139.113;   -7.416;50879.109
541.429;45273.645;   -9.467;52077.777
542.014;48042.883;   -9.527;52716.695
542.599;47420.664;   -9.946;52363.281
543.184;45131.848;   -7.927;53187.137
543.769;46376.355;   -9.297;54697.605
544.354;45676.707;  -10.127;53913.914
544.938;44315.281;   -9.267;49680.164
545.523;46302.453;   -6.506;47386.277
546.108;49138.523;   -9.787;49151.949
546.693;51181.168;  -11.587;51384.637
547.278;50573.371;  -10.986;51853.254
547.862;47602.117;   -8.206;51173.750
548.447;43197.996;  -10.067;51691.395
549.031;42652.227;   -9.637;52456.703
549.616;47578.746;   -9.926;52714.516
550.201;46898.426;   -6.347;52414.598
550.785;47983.230;   -7.917;52355.059
551.370;47106.844;  -10.867;54589.453
551.954;46453.676;   -9.047;58267.348
552.538;47322.762;   -7.827;59062.176
553.123;45812.086;  -10.287;58115.285
553.707;43503.500;  -12.178;56556.285
554.291;44671.926;   -8.717;56201.668
554.876;46868.789;   -7.457;55335.762
555.460;47074.852;  -10.387;54155.703
556.044;48195.031;   -9.618;53721.484
556.628;46921.484;  -11.567;53731.016
557.212;45830.047;   -8.097;54312.531
557.796;44387.410;  -11.077;53797.773
558.380;44274.531;  -11.108;56145.984
558.964;44386.996;   -9.057;57277.930
559.548;45647.125;   -6.977;56459.641
560.132;44106.375;  -11.457;54434.543
560.716;42704.219;  -11.378;54800.617
561.300;43676.188;   -9.577;57606.945
561.884;44830.641;   -7.127;58972.445
562.467;43302.992;   -7.118;57327.570
563.051;42755.301;  -13.358;54962.434
563.635;43765.773;  -10.178;52594.473
564.219;43672.184;   -7.837;50610.410
564.802;44448.898;  -11.398;49551.180
565.386;44499.055;  -12.788;48370.953
565.969;43830.359;   -9.077;48178.871
566.553;43104.465;   -6.207;49957.305
567.136;43600.277;   -8.568;50369.594
567.720;40072.098;  -11.868;49492.004
568.303;37977.594;   -8.268;50616.352
568.887;38075.563;   -8.698;50727.148
569.470;38359.660;   -6.808;51698.379
570.053;36993.098;  -13.188;52122.078
570.637;35612.957;  -12.037;52536.438
571.220;35489.688;   -8.577;51186.098
571.803;36105.629;   -8.498;51032.762
572.386;38232.480;  -10.498;49609.887
572.969;40617.820;   -9.388;48285.926
573.552;38748.242;   -8.338;47624.285
574.135;37461.211;   -8.518;45498.641
574.718;35026.043;  -13.628;41970.434
575.301;34082.145;  -10.893;41447.137
575.884;33138.246;   -8.158;40923.836
576.467;34354.254;  -10.328;45267.723
577.050;36116.063;  -13.058;48175.543
577.633;37494.734;   -9.458;47729.328
578.216;36506.656;   -8.928;47579.793
578.799;35635.672;   -9.358;47820.996
579.381;34630.895;  -11.388;48115.551
579.964;32785.379;  -11.718;47333.766
580.547;34520.016;   -8.588;46668.969
581.129;35760.441;   -8.859;44466.141
581.712;36592.109;  -10.729;44164.922
582.294;37169.918;  -11.118;46477.855
582.877;36948.535;   -5.218;48244.254
583.459;34384.652;   -8.679;47437.895
584.042;32533.180;  -10.709;46943.219
584.624;33201.133;  -11.669;46792.227
585.206;32657.506;   -8.218;46557.250
585.789;32531.926;  -10.569;45793.773
586.371;35335.734;  -11.859;43836.391
586.953;35998.289;  -10.719;42972.492
587.536;37212.719;   -7.198;42487.211
588.118;37325.090;   -8.720;42086.414
588.700;33773.121;  -10.439;43389.930
589.282;32853.906;   -9.198;43646.039
589.864;33620.496;   -9.199;43438.109
590.446;34708.895;  -11.319;43151.926
591.028;34780.563;  -11.159;42781.867
591.610;33801.164;  -11.779;42839.098
592.192;31254.084;   -7.668;42820.402
592.774;29728.543;  -11.949;40724.277
593.356;28399.363;  -12.129;39874.789
593.937;27297.025;  -10.669;39980.648
594.519;29332.611;   -6.509;42069.633
595.101;31582.850;  -10.849;42976.031
595.683;31705.686;  -11.679;44084.441
596.264;32839.836;   -9.049;43478.797
596.846;32346.150;   -8.849;43803.672
597.427;32203.189;   -9.570;42986.934
598.009;33825.199;  -12.620;42832.219
598.591;34225.727;  -10.039;42580.086
599.172;33412.473;  -10.369;43061.805
599.753;33648.082;   -9.140;41691.469
600.335;35260.063;  -11.430;40692.520
600.916;33526.887;   -9.939;39982.422
601.498;30888.316;   -8.479;40318.617
602.079;29330.955;  -10.920;40670.609
602.660;29162.563;  -11.480;41450.898
603.241;30804.705;  -11.699;41137.738
603.823;29701.193;   -9.579;38868.797
604.404;29122.018;  -10.620;38182.785
604.985;30761.939;  -10.450;38078.047
605.566;30661.752;   -9.129;38056.633
606.147;30797.768;   -7.510;37020.418
606.728;32358.982;  -10.660;37883.359
607.309;31095.947;  -11.740;38748.273
607.890;30574.344;   -9.759;38850.230
608.471;29995.076;   -8.250;37457.918
609.051;29065.396;   -9.240;36066.457
609.632;28026.051;  -12.120;35991.074
610.213;28818.166;   -9.110;37402.641
610.794;29460.969;   -8.030;38383.363
611.374;28927.148;   -8.110;40562.387
611.955;29348.635;  -13.560;38533.727
612.536;30701.732;  -11.400;36951.789
613.116;30669.732;   -8.070;37197.891
613.697;31100.986;  -10.830;38411.125
614.277;29597.012;  -11.641;38673.938
614.858;30398.559;  -13.310;37075.863
615.438;29450.783;   -7.460;35092.906
616.019;26830.672;   -7.601;33666.301
616.599;27564.996;  -12.020;34189.023
617.179;29335.221;  -11.780;36952.047
617.760;30237.301;   -8.570;39582.574
618.340;31406.932;  -11.471;38943.977
618.920;32787.164;  -11.170;37594.156
619.500;32463.133;  -11.071;37866.938
620.080;31490.648;   -7.750;37869.043
620.660;32607.424;  -12.711;36868.617
621.241;33968.926;  -10.211;36352.309
621.821;34240.609;  -10.961;35459.520
622.401;33257.648;   -7.720;35207.414
622.980;32594.518;   -8.981;35980.422
623.560;31129.604;   -9.331;37351.328
624.140;29797.480;   -9.850;34388.582
624.720;24740.303;   -7.451;32368.764
625.300;21282.004;   -9.070;32638.629
625.880;24701.785;  -12.601;34599.035
626.459;28608.365;  -11.751;36831.738
627.039;31686.443;   -9.281;38299.098
627.619;31706.387;   -8.801;38289.574
628.198;30157.094;  -12.071;37220.695
628.778;29377.533;   -9.461;37632.563
629.357;30143.170;   -8.491;38003.012
629.937;30131.730;   -9.721;38402.039
630.516;29512.688;   -9.951;37868.801
631.096;29214.305;  -11.731;35760.410
631.675;31647.645;   -8.572;35225.219
632.254;36713.547;  -11.282;35130.289
632.834;36216.660;  -13.322;35794.570
633.413;34406.613;  -10.301;35788.922
633.992;31660.479;   -8.582;34532.863
634.571;32418.227;   -8.352;33590.113
635.151;35590.164;  -11.912;34943.863
635.730;33989.680;  -10.511;35352.523
636.309;30374.129;   -7.731;35366.605
636.888;27803.150;   -9.952;36165.637
637.467;28528.781;  -11.672;37515.902
638.046;30270.662;   -8.901;39288.695
638.625;33375.492;   -7.912;38279.699
639.204;33207.379;  -10.022;37741.598
639.782;31658.148;  -12.252;38364.551
640.361;28081.920;  -10.041;36740.621
640.940;25153.553;  -11.161;34950.082
641.519;25785.189;   -9.701;34137.398
642.097;28789.889;  -11.271;35654.258
642.676;31739.195;   -8.651;35637.957
643.255;32352.146;   -8.711;36567.074
643.833;31419.891;   -9.581;37809.434
644.412;31432.441;  -13.711;37337.293
644.990;30544.352;  -11.811;37018.531
645.569;30450.328;   -9.411;36518.469
646.147;29242.943;  -10.291;36186.430
646.726;28986.580;  -12.401;36267.688
647.304;30362.664;  -10.411;36647.625
647.882;32168.971;   -9.651;39286.742
648.461;33802.848;   -9.631;39157.703
649.039;32168.676;  -11.881;35412.883
649.617;31695.635;   -9.661;34744.918
650.195;31419.660;   -9.301;35403.098
650.773;29946.018;  -10.511;35053.797
651.352;27425.428;  -11.521;33756.816
651.930;24982.443;  -12.211;31868.773
652.508;23476.932;   -9.171;33121.551
653.086;27375.207;   -9.371;33564.793
653.663;30253.838;  -13.161;34054.668
654.241;28983.117;  -13.031;35693.309
654.819;30643.705;   -9.371;36422.906
655.397;30950.877;  -10.511;38213.484
655.975;30639.115;  -10.371;39507.625
656.553;30486.943;  -10.051;39498.223
657.130;28914.023;  -10.061;40395.480
657.708;28044.301;   -9.561;39242.020
658.286;28108.514;  -11.511;38920.020
658.863;29513.279;  -10.261;40202.898
659.441;32522.158;   -7.531;39677.938
660.018;32025.324;   -9.501;40413.355
660.596;30936.176;  -13.301;39931.414
661.173;32986.508;  -11.211;39604.531
661.750;33043.242;   -9.951;39700.070
662.328;31546.527;   -9.390;39292.809
662.905;30555.543;  -11.330;38235.648
663.482;26495.025;   -9.050;36212.305
664.060;24552.746;   -8.240;35944.945
664.637;27303.246;  -10.050;35170.785
665.214;29159.482;  -11.760;34197.523
665.791;30662.084;  -10.530;34549.520
666.368;29596.504;   -9.690;35118.578
666.945;30242.078;   -9.320;36019.418
667.522;31845.383;  -11.860;36048.438
668.099;31527.049;  -10.770;36243.914
668.676;30379.223;   -6.260;35958.875
669.253;29116.887;   -7.000;37384.730
669.830;29814.520;  -10.190;36779.629
670.407;29608.955;   -9.550;35231.289
670.984;29354.254;   -9.260;35544.270
671.560;29949.971;   -9.280;35466.867
672.137;29263.865;  -11.810;34280.863
672.714;30085.885;  -11.490;34632.863
673.290;30665.963;   -7.740;35135.422
673.867;30825.252;  -10.660;36114.480
674.443;30793.252;  -12.230;36152.859
675.020;29042.160;  -10.450;35327.238
675.596;29999.291;   -9.260;35795.176
676.173;30353.207;  -10.780;35430.355
676.749;30092.295;  -13.690;33549.516
677.326;30137.713;  -11.980;32210.012
677.902;30146.037;   -8.630;32068.871
678.478;29526.459;  -10.730;32583.891
679.054;28953.900;  -10.520;32088.928
679.631;29213.566;  -11.920;30978.848
680.207;30934.299;   -7.490;33160.887
680.783;32769.059;   -9.860;35570.363
681.359;31875.566;  -13.380;36125.184
681.935;31129.971;  -12.480;35240.922
682.511;30182.234;   -7.900;34429.961
683.087;30138.439;   -7.710;34463.680
683.663;29729.260;  -11.480;34648.898
684.239;28581.016;  -14.090;34546.457
684.815;28263.502;   -7.560;35586.375
685.390;28507.699;   -9.910;35821.895
685.966;28962.934;  -11.159;35085.871
686.542;31438.615;  -11.169;34198.230
687.118;33605.680;   -5.959;32847.707
687.693;33983.145;  -10.329;32794.027
688.269;33809.965;  -12.059;33072.367
688.844;32078.602;  -10.909;33141.664
689.420;29823.709;   -8.019;33965.742
689.995;27382.410;   -8.399;34655.523
690.571;25864.492;  -10.949;33576.742
691.146;26290.563;   -9.619;32657.219
691.722;25782.258;   -8.999;32526.979
692.297;25629.285;  -11.589;33014.617
692.872;27587.744;  -11.739;34012.254
693.448;27203.082;  -11.059;34237.434
694.023;26360.836;  -10.139;34142.672
694.598;28229.916;   -9.029;34132.031
695.173;28599.479;  -13.319;34205.250
695.748;27892.389;  -10.169;32882.488
696.323;28129.277;   -8.339;32864.906
696.898;28443.510;   -8.169;33170.004
697.473;28215.928;  -12.309;32432.984
698.048;27643.832;  -10.989;31649.303
698.623;27544.766;   -9.329;30778.141
699.198;29522.084;   -9.849;31140.119
699.773;30470.699;  -12.329;31764.299
700.348;28682.350;  -10.389;31780.816
700.922;28636.494;   -9.269;32046.375
701.497;29544.678;   -9.329;32603.574
702.072;29874.303;  -10.789;34799.871
702.646;28521.828;  -10.839;35793.172
703.221;26262.463;   -9.099;35201.590
703.795;28504.592;  -10.939;34764.527
704.370;29017.551;  -12.859;34307.367
704.944;29357.096;  -11.559;33509.887
705.519;30179.410;   -7.939;31388.584
706.093;31643.047;  -10.499;31340.104
706.668;32019.305;  -11.289;32630.281
707.242;30944.133;  -11.509;32728.779
707.816;29304.465;   -9.639;32947.238
708.390;27678.119;  -11.429;33277.855
708.965;28075.264;  -11.869;33834.336
709.539;27940.699;  -11.689;33709.273
710.113;28483.875;  -10.478;33044.313
710.687;28145.396;  -10.228;31953.992
711.261;26472.207;  -13.698;30505.949
711.835;26331.400;  -13.378;30262.369
712.409;27142.891;   -9.698;31254.447
712.983;29129.971;  -11.898;32754.986
713.557;30146.375;  -15.138;34018.824
714.131;29683.752;  -14.098;34579.625
714.704;28635.152;   -9.958;33890.262
715.278;26382.398;  -10.028;33531.102
715.852;25367.818;  -11.148;33601.660
716.425;26163.922;   -9.068;33515.117
716.999;26816.773;  -10.038;33185.555
717.573;27729.807;   -9.798;33905.996
718.146;28857.879;  -12.378;35199.293
718.720;28964.035;  -11.918;35060.551
719.293;28324.205;   -8.088;34973.230
719.867;31168.135;  -10.888;36394.449
720.440;31067.852;  -11.938;36663.008
721.013;29386.184;  -12.818;35102.426
721.587;27949.428;  -10.298;33985.266
722.160;26961.561;  -10.048;33524.965
722.733;25850.027;  -12.108;32987.043
723.306;26112.486;  -10.818;33066.301
723.880;28620.201;   -8.908;33399.500
724.453;30706.537;   -9.878;33468.297
725.026;29767.406;  -11.188;33816.637
725.599;27007.232;  -11.678;32797.996
726.172;27293.260;   -9.618;33187.434
726.745;28366.344;   -8.258;35136.613
727.318;29659.875;  -12.978;35751.730
727.891;30201.047;  -12.148;35890.430
728.463;29766.008;   -8.968;34822.090
729.036;28557.250;  -10.188;32895.086
729.609;28869.324;  -11.788;31823.225
730.182;25891.568;  -11.788;31445.283
730.754;23499.580;  -10.268;32373.223
731.327;23568.766;   -9.998;33676.820
731.900;23905.396;  -12.228;33417.000
732.472;25362.381;  -13.848;31978.498
733.045;27423.209;   -8.698;30368.777
733.617;27585.082;  -10.607;30574.215
734.190;27320.908;  -11.507;31280.975
734.762;24463.033;  -13.647;31674.412
735.334;22585.238;   -9.767;31247.291
735.907;23136.266;   -9.897;29876.211
736.479;23279.205;  -11.637;29808.488
737.051;22941.637;   -9.567;30233.547
737.623;23828.066;   -8.187;31469.086
738.195;24527.746;  -11.187;31784.225
738.768;26403.688;  -12.337;32120.523
739.340;26718.271;  -12.227;32094.342
739.912;25541.035;  -11.057;31312.680
740.484;24049.313;  -10.207;31946.238
741.056;22921.055;  -10.047;32984.059
741.628;24777.334;  -13.627;33897.715
742.199;27014.471;   -7.177;33213.016
742.771;25266.736;  -10.797;31369.113
743.343;22920.516;  -11.997;31865.473
743.915;21940.086;  -12.867;32388.631
744.487;22059.518;   -7.617;31079.568
745.058;22270.107;   -9.557;30570.107
745.630;22700.939;   -9.877;29970.127
746.201;23454.363;  -14.177;29186.766
746.773;23844.963;   -9.237;28805.723
747.344;23669.754;   -9.847;29591.223
747.916;22373.377;  -11.657;31412.201
748.487;22588.002;  -10.587;32194.898
749.059;23711.004;   -8.707;32533.719
749.630;24301.346;  -10.537;32158.518
750.201;23345.555;  -11.687;30855.395
750.773;21584.920;  -11.647;28622.555
751.344;21581.031;   -7.147;28405.732
751.915;23012.766;   -9.757;28461.551
752.486;23104.398;  -12.427;27842.850
753.057;20739.783;  -12.227;27845.008
753.628;19410.193;  -10.417;27728.107
754.199;20540.244;  -11.767;27381.086
754.770;21558.260;  -11.187;25882.203
755.341;21501.391;  -10.507;25886.184
755.912;21556.770;   -9.387;26050.861
756.483;21058.768;  -10.647;26798.779
757.054;19402.727;  -11.837;27048.238
757.625;18106.832;  -12.716;26294.838
758.195;17751.631;   -9.666;26142.076
758.766;17428.162;   -8.656;26392.234
759.337;18217.801;  -12.856;26334.594
759.907;19947.330;  -13.366;27579.652
760.478;20878.732;   -8.576;28352.770
761.048;20339.877;  -10.526;27325.088
761.619;19543.166;  -11.116;26460.428
762.189;19573.098;  -12.136;26029.826
762.760;20569.867;   -9.456;26430.145
763.330;21693.586;   -7.136;26670.902
763.900;21170.168;  -11.786;26603.021
764.471;18567.270;  -11.546;25542.740
765.041;17363.016;   -8.096;24358.459
765.611;17479.389;   -8.876;23991.297
766.181;17824.383;  -12.196;24470.236
766.751;18719.539;  -11.636;24845.975
767.321;18538.291;  -10.156;24533.633
767.891;16699.488;  -11.766;24916.492
768.461;16152.044;  -14.936;24776.771
769.031;16584.611;  -12.356;24757.988
769.601;18177.014;   -7.526;24181.088
770.171;18071.264;  -10.766;23670.387
770.741;17223.096;  -13.176;22960.045
771.311;17338.641;  -10.616;22917.523
771.880;17708.020;   -9.576;23562.941
772.450;17361.930;  -10.336;24216.500
773.020;17401.457;  -13.516;24140.398
773.589;16805.934;  -13.466;24414.857
774.159;16134.490;   -8.686;23858.717
774.729;15696.959;   -9.476;22942.135
775.298;15209.203;  -13.666;22324.033
775.867;14828.267;  -11.716;21140.313
776.437;14938.080;   -9.906;20838.092
777.006;14761.152;  -12.166;20599.510
777.576;14668.502;  -12.356;20508.809
778.145;14739.777;  -11.646;20732.947
778.714;14588.088;   -8.226;21062.465
779.283;13808.078;   -9.556;20949.664
779.853;13289.170;  -14.116;20508.623
780.422;13765.658;  -11.506;20649.082
780.991;13356.271;   -9.556;21527.520
781.560;12206.600;   -9.095;22632.658
782.129;12079.565;  -12.135;23048.277
782.698;12135.068;  -10.865;23438.555
783.267;11717.160;   -9.335;23267.734
783.836;11638.960;  -11.045;22415.133
784.404;12720.854;  -13.865;20443.152
784.973;13350.242;  -13.095;19699.150
785.542;13219.835;  -11.575;19763.828
786.111;12964.141;   -9.705;20341.408
786.679;12446.126;  -12.105;20207.967
787.248;12193.084;  -12.455;19516.465
787.817;12062.688;  -11.535;18900.363
788.385;11728.698;   -9.765;17879.121
788.954;11159.976;  -14.005;17658.301
789.522;10600.431;  -11.955;17788.879
790.090;11138.665;  -10.135;18118.277
790.659;11561.378;  -10.975;18338.736
791.227;11058.673;  -13.375;18508.615
791.795;11515.245;  -12.375;17898.254
792.364;11956.247;  -10.725;17295.133
792.932;12306.332;   -9.715;16822.051
793.500;12420.617;  -12.675;17040.148
794.068;12570.647;  -13.495;17179.787
794.636;12695.988;  -10.885;16664.246
795.204;12099.878;  -11.045;16524.545
795.772;12206.676;  -13.175;17274.564
796.340;11781.078;  -12.445;17891.002
796.908;11609.629;   -9.735;17648.561
797.476;11503.837;   -9.815;17064.080
798.044;11017.867;  -13.985;16672.777
798.612;10163.534;  -13.115;17023.996
799.180; 9746.355;  -10.185;16561.615
799.747; 9676.644;   -9.055;15962.773
800.315; 9413.813;  -12.385;15296.992
800.883; 9091.888;  -15.035;14801.771
801.450; 9109.899;  -10.365;14534.430
802.018; 9196.866;   -9.855;14173.248
802.585; 9348.246;  -11.905;14029.547
803.153; 9381.898;  -11.585;13836.846
803.720; 9201.377;   -9.095;13567.324
804.287; 8786.038;   -9.135;13360.622
804.855; 8362.363;  -11.604;13681.981
805.422; 8218.067;  -11.794;13536.560
805.989; 8241.573;  -10.734;13355.958
806.556; 8421.104;  -10.444;13747.896
807.124; 8645.228;  -12.764;13987.376
807.691; 8606.195;  -12.964;14038.674
808.258; 8427.303;  -11.134;14120.152
808.825; 8114.527;   -9.854;13860.111
809.392; 8161.918;  -10.504;13268.790
809.959; 7648.890;  -13.054;12680.389
810.526; 7215.381;   -8.294;12427.308
811.093; 7266.271;   -8.394;12030.105
811.659; 7886.673;  -12.304;11653.664
812.226; 8407.096;  -13.944;11637.183
812.793; 8114.649;  -10.484;11611.521
813.360; 7493.323;  -10.144;11885.181
813.926; 7181.309;  -11.684;12770.539
814.493; 6963.410;  -13.644;12677.638
815.060; 6558.638;   -9.724;11974.336
815.626; 6539.104;   -9.854;11594.715
816.193; 6954.156;  -13.254;11579.474
816.759; 6984.547;  -13.204;11666.972
817.325; 7039.295;   -9.434;11325.530
817.892; 7372.524;  -10.134;11105.369
818.458; 7806.444;  -13.474;10843.928
819.024; 7437.903;  -11.854;10714.406
819.591; 7072.096;  -10.244;10469.165
820.157; 6832.774;  -10.704;10235.523
820.723; 6332.550;  -12.324;10847.563
821.289; 5996.341;   -9.444;11040.980
821.855; 5897.623;   -8.374;10357.100
822.421; 5870.140;  -10.234; 9978.918
822.987; 5883.815;  -13.294; 9754.177
823.553; 5581.737;  -10.884;10065.755
824.119; 5391.341;   -8.884;10036.294
824.685; 5466.953;   -6.784;10029.192
825.251; 5550.199;  -12.004;10199.230
825.816; 5510.699;  -11.474; 9820.189
826.382; 5281.005;   -9.174; 9297.248
826.948; 5478.781;   -9.214; 9381.347
827.513; 5873.521;  -10.774; 9450.726
828.079; 5694.833;  -11.924; 9472.444
828.645; 5102.613;  -10.543; 9292.643
829.210; 5005.064;  -10.533; 9065.341
829.776; 5009.542;  -10.753; 9132.620
830.341; 4899.930;  -10.173; 9092.878
830.906; 5082.993;  -10.743; 9078.557
831.472; 5419.671;  -11.113; 8534.535
832.037; 5162.191;  -10.603; 8677.874
832.602; 4618.268;  -13.323; 8628.692
833.167; 4367.708;  -10.823; 8879.031
833.733; 4307.717;  -10.113; 9189.790
834.298; 4436.092;  -13.583; 9052.608
834.863; 4501.113;  -12.703; 8895.087
835.428; 4474.053;  -10.523; 8824.266
835.993; 4331.423;   -6.963; 8845.385
836.558; 4177.195;  -10.763; 8888.563
837.123; 4304.212;   -9.903; 8966.582
837.688; 4531.293;   -9.913; 8617.860
838.253; 4780.315;  -10.283; 8590.699
838.817; 5002.808;  -12.963; 8443.797
839.382; 4923.472;  -14.243; 8799.356
839.947; 4597.198;  -10.733; 8810.595
840.511; 4304.198;   -9.383; 8796.394
841.076; 3925.877;  -12.563; 8347.231
841.641; 3966.712;  -12.953; 8224.330
842.205; 4063.885;   -7.043; 8223.349
842.770; 4182.055;   -8.163; 8622.107
843.334; 4359.199;  -12.503; 8410.386
843.898; 4294.717;  -11.693; 8337.465
844.463; 4302.920;  -10.203; 8506.283
845.027; 4079.624;   -9.533; 8280.962
845.591; 3897.314;  -13.443; 8231.141
846.156; 3889.798;  -13.143; 7969.179
846.720; 3771.182;   -9.433; 7768.278
847.284; 3640.019;  -11.033; 7630.957
847.848; 3516.431;  -10.403; 7472.395
848.412; 3440.324;  -11.553; 7437.394
848.976; 3502.840;   -8.393; 7674.592
849.540; 3438.801;   -8.713; 7836.011
850.104; 3552.256;  -12.463; 7913.669
850.668; 3922.299;  -12.973; 7694.508
851.232; 4024.579;  -10.793; 7756.887
851.796; 3852.889;  -10.662; 7926.545
852.359; 3555.143;  -13.082; 7827.844
852.923; 3383.012;  -12.192; 7641.163
853.487; 3196.536;  -11.912; 7342.501
854.050; 3147.341;  -10.892; 7042.820
854.614; 3301.640;  -13.992; 7151.338
855.177; 3450.192;  -11.732; 7105.077
855.741; 3494.225;   -8.962; 6989.675
856.304; 3378.299;   -9.442; 6596.634
856.868; 3315.702;  -14.192; 6356.272
857.431; 3405.952;  -12.702; 6468.571
857.995; 3520.181;   -9.942; 6373.210
858.558; 3530.754;   -9.112; 6324.448
859.121; 3250.788;  -12.932; 6408.327
859.684; 3125.130;  -13.442; 6347.886
860.247; 3248.078;  -10.632; 6321.264
860.810; 3250.538;  -11.272; 6301.903
861.374; 2996.427;   -9.832; 6607.881
861.937; 2738.740;  -11.762; 6408.200
862.500; 2734.749;   -9.722; 6572.639
863.062; 2924.270;  -10.512; 6387.297
863.625; 3109.405;  -11.232; 6190.836
864.188; 3265.467;  -14.112; 5807.254
864.751; 3323.104;  -11.302; 5682.413
865.314; 3205.767;  -10.112; 5547.492
865.876; 2986.472;  -12.182; 5500.150
866.439; 2968.157;  -10.722; 5415.909
867.002; 2924.973;   -9.252; 5501.567
867.564; 2717.722;   -9.572; 5413.946
868.127; 2489.710;  -13.142; 5160.325
868.689; 2382.053;  -12.902; 5133.183
869.252; 2289.901;   -9.732; 5252.382
869.814; 2198.432;   -9.432; 5297.141
870.377; 2211.585;  -11.552; 5390.919
870.939; 2278.648;   -9.052; 5599.898
871.501; 2340.972;  -10.982; 5248.336
872.063; 2343.789;  -12.292; 4854.235
872.626; 2305.823;  -14.912; 4817.074
873.188; 2338.765;  -13.112; 4987.732
873.750; 2307.773;  -13.442; 4868.651
874.312; 2192.514;   -9.402; 4779.330
874.874; 2096.049;  -11.062; 4866.348
875.436; 2006.310;  -13.931; 4718.887
875.998; 1995.530;   -9.561; 4660.005
876.560; 2022.405;  -11.321; 4462.964
877.122; 1966.400;  -12.221; 4145.042
877.683; 1874.754;  -12.191; 4056.481
878.245; 1806.177;  -12.101; 3950.740
878.807; 1855.078;   -8.971; 4058.958
879.369; 1891.945;  -12.071; 3954.677
879.930; 1792.456;  -14.621; 3941.495
880.492; 1726.275;  -10.311; 4067.014
881.053; 1690.236;  -10.901; 3859.633
881.615; 1575.126;  -14.411; 3776.071
882.176; 1473.363;  -13.761; 3734.750
882.738; 1451.592;   -9.181; 3678.489
883.299; 1492.339;  -11.791; 3405.407
883.860; 1589.028;  -13.121; 3351.106
884.422; 1626.277;  -11.211; 3394.044
884.983; 1458.326;  -10.091; 3166.443
885.544; 1125.764;   -8.461; 3189.802
886.105;  816.037;  -12.361; 3160.360
886.666;  649.581;  -14.141; 3093.059
887.227;  602.842;  -11.361; 2941.957
887.788;  600.710;  -11.401; 2974.836
888.349;  607.187;  -13.791; 2721.214
888.910;  647.625;  -13.191; 2696.493
889.471;  689.560;   -9.881; 2560.172
890.032;  700.018;   -9.881; 2558.190
890.593;  699.215;  -10.371; 2567.669
891.153;  691.529;  -13.301; 2460.307
891.714;  660.238;  -11.431; 2372.046
892.275;  635.935;  -11.291; 2309.505
892.835;  610.407;  -11.471; 2382.543
893.396;  569.179;  -11.541; 2295.502
893.956;  524.553;  -11.181; 2162.420
894.517;  493.215;  -11.741; 2125.439
895.077;  487.979;  -11.671; 2086.978
895.638;  489.119;  -11.311; 2126.316
896.198;  465.189;   -9.831; 1838.275
896.758;  426.635;   -8.421; 1892.813
897.319;  398.138;  -12.351; 1792.232
897.879;  384.273;  -13.511; 1762.751
898.439;  361.876;  -12.001; 1661.149
898.999;  339.673;  -10.180; 1781.468
899.559;  331.988;  -12.030; 1703.347
900.119;  328.238;  -15.710; 1537.525
900.679;  324.865;   -8.900; 1638.384
901.239;  312.226;   -8.340; 1527.902
901.799;  301.662;  -13.910; 1456.441
902.359;  296.721;  -13.460; 1357.140
902.919;  291.220;  -11.490; 1331.118
903.479;  278.142;  -12.110; 1317.257
904.038;  258.755;  -11.720; 1262.595
904.598;  244.404;  -13.610; 1152.034
905.158;  241.706;  -11.040; 1240.893
905.717;  235.599;  -10.900; 1233.691
906.277;  223.396;  -15.080; 1217.330
906.836;  215.397;  -13.380; 1222.408
907.396;  205.375;  -10.780; 1193.047
907.955;  196.148;   -8.500; 1182.526
908.515;  187.534;  -12.760; 1099.364
909.074;  181.518;  -11.900; 1092.863
909.633;  176.712;   -8.950; 1069.121
910.192;  173.625;   -8.770; 1196.460
910.752;  169.702;  -12.390; 1029.960
911.311;  166.182;  -13.680; 1009.780
911.870;  164.040;  -12.370;  971.460
912.429;  165.272;  -10.900; 1094.080
912.988;  164.475;  -11.690; 1081.060
913.547;  160.587;  -13.240;  940.380
914.106;  156.181;  -11.990;  999.420
914.665;  151.777;   -9.990;  984.020
915.224;  151.313;  -12.880; 1035.760
915.782;  152.193;  -12.350;  922.560
916.341;  151.711;   -9.110; 1049.840
916.900;  146.615;   -9.270;  925.260
917.458;  144.621;  -13.240;  884.220
918.017;  145.057;  -13.550;  942.600
918.576;  145.451;  -12.320;  904.440
919.134;  143.182;  -11.490;  837.980
919.693;  141.001;  -13.670;  893.060
920.251;  138.800;  -15.470;  876.500
920.809;  138.708;  -11.290;  839.580
921.368;  137.858;  -10.210;  885.360
921.926;  136.855;  -12.140;  842.940
922.484;  135.414;  -13.080;  903.360
923.042;  135.119;  -11.720;  880.340
923.601;  137.746;   -7.480;  998.680
924.159;  136.443;  -11.570;  935.560
924.717;  133.964;  -13.840;  841.080
925.275;  134.147;  -10.640;  903.240
925.833;  133.185;  -11.540;  779.320
926.391;  134.403;  -12.960;  938.380
926.949;  132.860;  -14.130;  857.680
927.506;  133.492;  -11.750;  903.500
928.064;  132.698;  -10.250;  877.580
928.622;  132.134;  -13.030;  880.100
929.180;  131.716;  -13.400;  814.180
929.737;  133.600;  -10.700;  808.540
930.295;  136.542;  -10.070;  928.480
930.853;  137.992;  -11.960;  849.100
931.410;  138.527;  -13.120;  821.120
931.968;  138.252;  -10.770;  940.660
932.525;  137.169;  -10.680;  909.380
933.082;  137.840;  -13.130;  811.440
933.640;  138.823;  -13.210;  925.900
934.197;  137.533;  -11.060;  886.360
934.754;  138.342;   -9.580;  897.780
935.312;  140.719;  -14.000;  863.340
935.869;  145.541;  -10.710; 1012.980
936.426;  146.559;   -9.860;  872.800
936.983;  146.593;   -9.710;  889.020
937.540;  146.275;  -13.990;  838.280
938.097;  144.948;  -14.040;  940.120
938.654;  145.041;  -10.310;  898.860
939.211;  147.655;  -10.560;  952.480
939.768;  151.367;  -13.900;  915.420
940.324;  154.393;  -14.760;  904.200
940.881;  155.830;  -10.370;  878.500
941.438;  156.982;   -8.260; 1021.200
941.995;  152.196;  -12.540;  992.560
942.551;  150.468;  -14.670;  875.620
943.108;  151.126;  -10.450;  937.920
943.664;  152.725;  -10.750;  869.340
944.221;  155.018;  -11.550; 1088.140
944.777;  152.913;  -14.770;  869.680
945.334;  154.431;  -12.820;  884.840
945.890;  155.149;  -10.130;  946.480
946.446;  156.098;  -13.470;  947.020
947.003;  156.852;  -12.120;  964.940
947.559;  160.772;   -9.980; 1063.040
948.115;  159.126;   -9.080; 1026.540
948.671;  156.829;  -10.830;  967.300
949.227;  154.558;  -12.440;  859.560
949.783;  152.526;  -12.910;  858.900
950.339;  153.283;  -10.270;  991.000
950.895;  153.194;  -13.630; 1023.840
951.451;  152.984;  -15.100;  925.280
952.007;  153.533;  -11.330;  998.540
952.563;  154.492;  -10.580;  937.780
953.118;  152.911;  -13.440;  904.940
953.674;  153.857;  -12.710;  935.780
954.230;  153.387;  -10.350;  949.640
954.785;  150.598;   -9.190;  936.640
955.341;  147.794;  -11.200;  998.160
955.897;  145.363;  -16.560;  834.660
956.452;  147.482;  -12.570;  953.840
957.008;  145.883;   -7.970; 1083.640
957.563;  144.176;  -11.940; 1009.540
958.118;  138.671;  -13.450;  877.700
958.674;  139.407;  -12.030;  946.780
959.229;  140.217;   -9.410; 1013.980
959.784;  137.845;  -12.000;  832.400
960.339;  137.570;  -14.780; 1001.280
960.894;  134.869;   -9.860;  963.760
961.449;  130.706;   -9.970;  859.960
962.004;  130.774;  -10.900; 1212.840
962.559;  125.300;  -13.150;  860.140
963.114;  123.452;  -13.740;  742.480
963.669;  123.232;   -9.820;  915.500
964.224;  120.602;  -13.890;  874.340
964.779;  119.504;  -12.600;  828.420
965.334;  120.983;  -10.950; 1017.860
965.888;  119.838;  -11.170;  875.360
966.443;  122.661;  -12.540;  972.380
966.998;  122.215;  -15.780;  819.460
967.552;  122.087;   -9.760;  908.380
968.107;  117.604;   -9.060;  868.300
968.661;  118.416;  -11.950;  922.440
969.216;  118.877;  -12.800;  856.280
969.770;  120.039;  -11.210;  917.200
970.324;  118.263;  -11.610;  923.140
970.879;  114.790;  -11.370;  947.180
971.433;  112.235;  -12.540;  952.720
971.987;  107.322;  -11.320;  895.340
972.541;  103.557;  -10.720;  917.100
973.095;  103.688;   -9.680; 1009.460
973.649;  102.903;  -11.440;  809.480
974.203;  101.216;  -11.210;  829.040
974.757;  101.487;  -10.240;  855.220
975.311;  100.676;  -13.720;  872.600
975.865;  100.338;  -13.770;  881.820
976.419;   98.152;  -11.690;  857.400
976.973;   98.856;   -9.510;  849.620
977.526;   99.907;  -12.620;  949.920
978.080;   99.138;  -12.010;  796.780
978.634;  101.613;  -10.170;  921.320
979.187;   98.478;   -9.020;  905.400
979.741;   95.373;   -9.820; 1018.380
980.294;   91.281;  -14.870;  789.160
980.848;   88.941;  -12.380;  717.220
981.401;   90.992;  -10.350;  816.540
981.955;   93.487;  -13.720;  844.300
982.508;   92.051;  -11.490;  746.340
983.061;   93.513;  -10.000;  915.260
983.615;   87.728;  -11.480;  798.800
984.168;   85.505;  -13.220;  770.080
984.721;   84.793;  -13.960;  880.760
985.274;   84.561;  -10.870;  867.500
985.827;   82.639;   -9.790;  834.220
986.380;   80.419;  -13.120;  721.340
986.933;   79.567;  -12.450;  864.800
987.486;   78.029;  -10.210;  861.920
988.039;   77.094;   -8.430;  863.100
988.591;   74.569;  -10.520;  893.260
989.144;   72.850;  -14.860;  737.260
989.697;   72.021;  -13.080;  758.740
990.250;   72.438;  -10.150;  858.100
990.802;   70.681;  -13.430;  755.860
991.355;   71.831;  -12.750;  974.880
991.907;   69.906;  -12.040;  864.320
992.460;   67.980;  -11.330;  753.760
993.012;   67.233;  -13.610;  749.540
993.565;   65.703;  -13.460;  711.360
994.117;   67.758;   -9.360;  950.780
994.669;   64.236;  -11.300;  701.320
995.221;   61.815;  -13.540;  791.920
995.774;   60.147;  -13.430;  787.580
996.326;   59.446;  -12.520;  740.220
996.878;   58.464;  -10.950;  838.420
997.430;   56.097;  -14.300;  699.860
997.982;   55.252;  -13.760;  750.140
998.534;   55.824;  -11.530;  739.060
999.086;   53.964;  -10.310;  738.220
999.638;   52.370;  -12.530;  661.380
1000.190;   51.535;  -11.840;  699.320
1000.741;   52.408;  -10.260;  742.700
1001.293;   51.767;   -8.860;  686.020
1001.845;   49.767;  -13.700;  676.640
1002.396;   49.735;  -12.100;  743.400
1002.948;   49.967;  -12.760;  737.400
1003.500;   48.620;  -10.380;  723.780
1004.051;   48.363;  -11.900;  907.580
1004.603;   47.105;  -12.250;  791.820
1005.154;   43.954;  -13.210;  608.980
1005.705;   42.002;  -10.950;  723.960
1006.257;   41.838;  -13.880;  707.220
1006.808;   41.191;  -12.840;  685.460
1007.359;   41.274;  -10.570;  763.240
1007.910;   39.973;   -9.620;  646.640
1008.461;   39.044;  -13.630;  732.940
1009.013;   38.491;  -17.200;  588.340
1009.564;   39.516;  -10.200;  793.520
1010.115;   37.182;  -12.570;  597.040
1010.665;   36.998;  -15.150;  602.160
1011.216;   37.915;  -14.480;  667.920
1011.767;   36.894;  -11.340;  697.920
1012.318;   36.715;   -9.780;  736.980
1012.869;   35.452;  -12.380;  679.000
1013.419;   35.791;  -15.560;  603.120
1013.970;   35.152;  -11.010;  666.640
1014.521;   34.329;  -11.610;  620.620
1015.071;   34.778;  -13.450;  670.380
1015.622;   34.731;  -13.870;  635.460
1016.172;   33.916;  -11.610;  596.820
1016.723;   33.242;  -12.120;  614.380
1017.273;   33.302;  -13.620;  604.160
1017.823;   33.669;  -14.140;  650.340
1018.374;   32.735;  -12.800;  611.760
1018.924;   32.817;  -12.340;  716.880
1019.474;   33.268;  -11.410;  718.880
1020.024;   32.131;  -14.770;  657.580
1020.574;   33.175;   -9.780;  726.160
1021.124;   32.503;   -8.560;  673.580
1021.674;   30.813;  -15.190;  559.120
1022.224;   31.664;  -13.530;  708.940
1022.774;   32.557;  -13.280;  668.820
1023.324;   32.437;  -10.690;  753.520
1023.874;   33.104;  -10.240;  875.760
1024.423;   30.117;  -12.540;  613.700
1024.973;   30.957;  -10.010;  610.760
1025.523;   29.595;  -10.550;  620.960
1026.072;   29.483;  -13.560;  606.420
1026.622;   29.525;  -15.120;  675.740
1027.172;   30.133;  -11.260;  715.660
1027.721;   28.737;  -11.410;  601.220
1028.270;   29.571;  -13.530;  663.400
1028.820;   29.696;  -13.680;  638.080
1029.369;   29.607;  -13.520;  612.700
1029.918;   29.167;  -10.980;  649.840
1030.468;   28.539;  -13.530;  564.780
1031.017;   29.267;  -13.170;  634.800
1031.566;   28.241;  -12.200;  608.900
1032.115;   27.956;   -9.960;  694.500
1032.664;   26.532;  -13.210;  596.480
1033.213;   27.927;  -12.500;  735.420
1033.762;   27.714;  -11.910;  635.620
1034.311;   27.347;   -9.640;  677.220
1034.860;   27.018;  -13.310;  691.000
1035.408;   27.646;  -11.830;  722.720
1035.957;   27.500;  -12.000;  719.540
1036.506;   25.278;  -11.690;  530.800
1037.055;   28.036;  -10.990;  844.320
1037.603;   26.077;  -15.120;  664.000
1038.152;   24.814;  -12.450;  534.760
1038.700;   25.250;  -10.560;  585.740
1039.249;   25.094;  -11.080;  681.220
1039.797;   25.670;  -12.540;  633.360
1040.345;   25.602;  -11.920;  705.420
1040.894;   24.757;  -11.410;  625.300
1041.442;   24.584;  -14.320;  632.200
1041.990;   23.486;  -16.240;  559.160
1042.538;   23.993;  -11.680;  536.180
1043.087;   23.968;  -10.760;  570.860
1043.635;   24.170;  -11.850;  670.500
1044.183;   23.641;  -15.480;  586.400
1044.731;   24.023;  -11.770;  576.000
1045.279;   23.048;  -13.090;  674.920
1045.827;   25.366;  -12.440;  892.400
1046.374;   22.335;  -13.840;  515.420
1046.922;   22.431;  -13.220;  590.580
1047.470;   23.802;  -10.230;  691.300
1048.018;   23.067;  -14.590;  647.960
1048.565;   23.718;  -12.050;  708.600
1049.113;   22.212;  -11.650;  557.000
1049.660;   22.077;  -10.510;  629.660
1050.208;   22.496;  -13.310;  675.640
1050.755;   21.418;  -15.900;  606.580
1051.303;   22.605;  -11.430;  686.820
1051.850;   21.354;   -8.480;  635.120
1052.397;   19.534;  -15.010;  473.960
1052.945;   20.443;  -13.960;  617.760
1053.492;   22.232;  -13.150;  741.840
1054.039;   22.046;   -9.630;  720.180
1054.586;   20.802;  -13.680;  557.240
1055.133;   21.346;  -14.570;  693.140
1055.680;   20.848;  -13.820;  646.620
1056.227;   20.284;  -11.730;  542.780
1056.774;   21.125;  -12.480;  794.980
1057.321;   19.048;  -13.930;  523.260
1057.868;   20.613;  -11.690;  651.320
1058.415;   20.158;   -9.520;  651.980
1058.961;   19.883;  -13.160;  678.940
1059.508;   19.576;  -12.920;  643.820
1060.055;   19.324;  -11.920;  581.780
1060.601;   20.173;  -11.500;  624.300
1061.148;   19.258;  -14.330;  616.820
1061.694;   18.082;  -16.870;  592.580
1062.241;   19.856;  -10.330;  596.320
1062.787;   19.264;  -10.620;  663.140
1063.334;   20.566;  -10.110;  808.560
1063.880;   18.314;  -13.400;  668.360
1064.426;   19.298;  -10.680;  706.820
1064.972;   17.812;   -9.920;  601.340
1065.518;   16.182;  -10.980;  566.640
1066.065;   18.550;  -14.890;  624.460
1066.611;   17.157;  -12.870;  598.800
1067.157;   17.692;  -12.950;  641.860
1067.703;   17.418;  -13.540;  668.480
1068.249;   17.416;  -13.540;  605.220
1068.794;   18.775;  -12.600;  626.880
1069.340;   16.586;  -10.620;  578.960
1069.886;   16.995;  -12.830;  590.700
1070.432;   16.211;  -14.870;  541.720
1070.977;   16.597;  -11.980;  601.080
1071.523;   16.651;   -8.200;  573.060
1072.068;   16.334;  -12.330;  582.000
1072.614;   15.724;  -16.370;  527.760
1073.160;   17.266;  -11.100;  687.040
1073.705;   15.742;  -10.480;  572.520
1074.250;   14.853;  -14.520;  559.900
1074.796;   16.354;  -11.460;  655.160
1075.341;   17.102;  -11.950;  664.100
1075.886;   16.060;  -11.460;  594.240
1076.431;   15.202;  -13.770;  649.880
1076.976;   15.298;  -12.680;  639.220
1077.521;   14.788;  -13.170;  583.080
1078.067;   14.060;  -10.860;  579.400
1078.612;   14.491;  -13.920;  661.620
1079.156;   14.872;  -13.880;  601.540
1079.701;   15.388;  -13.120;  693.260
1080.246;   15.267;   -9.940;  696.300
1080.791;   14.619;  -14.740;  625.020
1081.336;   14.832;  -13.750;  659.320
1081.880;   15.147;  -13.400;  649.680
1082.425;   13.856;  -12.220;  573.480
1082.970;   14.995;  -11.610;  717.040
1083.514;   13.672;  -13.580;  597.000
1084.059;   13.411;  -12.810;  586.720
1084.603;   12.631;  -12.320;  565.840
1085.147;   12.921;  -13.190;  645.220
1085.692;   14.414;  -12.480;  716.800
1086.236;   12.949;  -13.020;  503.140
1086.780;   13.990;   -9.190;  751.440
1087.325;   12.734;  -12.480;  654.620
1087.869;   13.191;  -12.450;  610.700
1088.413;   14.130;  -12.240;  705.040
1088.957;   10.886;   -9.020;  543.400
1089.501;   13.142;  -10.320;  766.640
1090.045;   12.454;  -12.720;  726.480
1090.589;   11.593;  -13.690;  569.920
1091.133;   11.970;  -10.020;  673.340
1091.676;   12.590;  -12.330;  591.940
1092.220;   11.840;  -14.970;  600.920
1092.764;   12.901;  -12.430;  706.960
1093.307;   12.646;   -9.800;  673.780
1093.851;   10.564;  -14.970;  556.540
1094.395;   12.307;  -15.310;  683.140
1094.938;   11.889;  -10.370;  632.520
1095.482;   11.387;  -11.050;  559.800
1096.025;   12.061;  -11.840;  710.880
1096.568;   12.070;  -12.840;  779.280
1097.112;    9.895;  -14.700;  508.180
1097.655;   11.703;   -8.720;  603.000
1098.198;    9.766;  -13.610;  600.180
1098.741;    9.981;  -13.350;  612.860
1099.285;   11.808;  -11.230;  657.300
1099.828;    8.788;  -11.840;  439.400
1100.371;    9.278;  -10.840;  608.160
1100.914;   10.348;  -14.190;  682.660
1101.457;   11.287;  -11.240;  679.900
1101.999;    9.286;  -11.270;  584.680
1102.542;    9.449;  -11.480;  641.440
1103.085;    9.972;  -11.750;  658.500
1103.628;   10.594;  -11.400;  762.060
1104.170;    9.587;  -10.490;  588.280
1104.713;    9.393;  -10.600;  646.700
1105.256;    8.964;  -14.360;  557.440
1105.798;    8.758;  -13.210;  499.980
1106.341;   10.486;  -10.270;  728.900
1106.883;    8.945;  -12.200;  521.340
1107.425;    9.065;  -13.110;  668.180
1107.968;    9.072;  -12.840;  612.380
1108.510;    8.965;   -6.480;  684.960
1109.052;    7.372;  -13.940;  612.620
1109.594;    7.994;  -13.690;  554.440
1110.136;    8.820;  -11.880;  643.220
1110.679;    8.008;   -9.500;  633.080
1111.221;    8.379;  -14.160;  604.460
1111.763;    7.854;  -13.980;  559.220
1112.304;    7.521;  -13.880;  547.140
1112.846;    8.366;  -12.210;  666.240
1113.388;   10.207;  -11.390;  942.180
1113.930;    8.262;  -14.540;  694.200
1114.472;    7.411;  -12.640;  606.540
1115.013;    6.383;  -11.620;  551.280
1115.555;    6.222;  -13.640;  587.100
1116.097;    6.250;  -15.380;  579.480
1116.638;    7.311;  -12.640;  684.600
1117.180;    7.882;   -9.850;  667.740
1117.721;    6.731;  -13.690;  568.580
1118.262;    7.147;  -12.680;  677.960
1118.804;    8.061;  -12.530;  637.340
1119.345;    6.651;  -11.690;  578.400
1119.886;    7.080;  -13.380;  704.040
1120.427;    6.334;  -14.070;  589.020
1120.969;    5.899;  -13.500;  597.920
1121.510;    5.256;  -11.480;  563.060
1122.051;    5.953;  -12.830;  723.580
1122.592;    5.954;  -14.290;  655.420
1123.133;    5.223;  -12.400;  547.940
1123.673;    6.272;  -10.130;  706.480
1124.214;    5.723;  -12.930;  612.460
1124.755;    5.895;  -14.380;  639.460
1125.296;    6.039;  -14.000;  627.320
1125.836;    6.593;  -10.070;  691.500
1126.377;    4.781;  -12.640;  599.660
1126.918;    6.084;  -12.960;  614.980
1127.458;    5.002;  -13.350;  622.220
1127.999;    5.463;  -10.750;  656.980
1128.539;    5.892;  -12.350;  694.240
1129.079;    4.570;  -14.860;  632.720
1129.620;    4.755;  -13.840;  558.100
1130.160;    4.144;  -12.330;  539.480
1130.700;    4.857;  -14.530;  640.840
1131.240;    5.080;  -12.530;  643.700
1131.781;    3.815;  -14.450;  619.680
1132.321;    4.637;   -9.790;  599.120
1132.861;    2.710;  -14.860;  564.200
1133.401;    2.526;  -14.290;  593.940
1133.941;    4.847;  -11.750;  626.280
1134.481;    3.427;   -9.920;  597.580
1135.020;    3.045;  -12.290;  609.160
1135.560;    3.245;  -11.650;  674.940
1136.100;    3.383;  -16.270;  501.160
1136.640;    3.236;  -10.890;  510.480
1137.179;    2.999;  -14.180;  537.960
1137.719;    2.800;  -16.250;  605.400
1138.258;    3.562;  -14.230;  587.360
1138.798;    4.133;   -9.090;  663.780
1139.337;    1.649;  -15.130;  482.840
1139.877;    3.084;  -13.680;  642.360
1140.416;    5.210;  -11.320;  878.060
1140.955;    2.550;  -10.860;  535.380
1141.494;    2.696;  -12.920;  669.280
1142.034;    2.760;  -13.930;  583.520
1142.573;    3.769;  -11.440;  646.280
1143.112;    2.987;  -12.000;  553.480
1143.651;    2.325;  -13.670;  536.480
1144.190;    3.056;  -12.730;  691.640
1144.729;    2.602;  -14.560;  607.420
1145.267;    2.115;  -11.830;  584.900
1145.806;    2.506;  -12.230;  637.040
1146.345;    1.675;  -14.130;  635.020
1146.884;    1.539;  -11.590;  622.500
1147.422;    1.562;  -12.550;  533.060
1147.961;    2.830;  -11.180;  708.460
1148.500;    2.683;  -11.510;  669.720
1149.038;    3.404;  -11.640;  632.500
1149.577;    2.873;  -10.130;  698.640
1150.115;   -0.342;  -13.970;  452.280
1150.653;    2.088;  -14.520;  607.340
1151.192;    2.119;  -12.810;  552.920
1151.730;    1.344;   -9.100;  652.560
1152.268;    0.757;  -12.220;  589.520
1152.806;    1.299;  -14.140;  571.180
1153.344;   -0.156;  -12.350;  577.640
1153.882;    1.384;   -8.980;  600.060
1154.421;   -0.283;  -15.190;  470.620
1154.958;    0.391;  -15.210;  595.240
1155.496;    2.079;  -12.850;  645.280
1156.034;    1.423;   -9.940;  721.880
1156.572;    2.089;  -13.570;  667.060
1157.110;   -0.288;  -14.590;  473.940
1157.647;    1.284;  -13.030;  676.960
1158.185;    0.121;  -12.140;  564.320
1158.723;   -0.868;  -14.390;  509.200
1159.260;    0.316;  -14.090;  701.700
1159.798;    1.685;  -11.920;  658.160
1160.335;    0.176;  -11.110;  631.820

