
Integration time [ms]:   3.276
Averaging Nr. [scans]: 1000
Smoothing Nr. [pixels]: 0
Data measured with spectrometer [name]: 7414430SP
Wave   ;Sample   ;Dark     ;Reference
[nm]   ;[counts] ;[counts] ;[counts] 

288.544;  150.622;    7.793;  793.890
289.143;  154.765;    7.462;  681.602
289.742;  154.661;    8.602;  828.814
290.341;  139.496;    1.321;  789.841
290.940;  130.363;   -0.709;  730.702
291.538;  130.607;    0.881;  881.108
292.137;  130.422;    0.122;  792.581
292.736;  135.011;   -1.929;  975.101
293.335;  131.686;   -8.229;  735.086
293.934;  131.790;   -5.279;  781.677
294.532;  129.022;   -1.369; 1031.958
295.131;  115.662;   -7.641;  834.394
295.730;  116.397;   -8.420;  809.588
296.328;  115.360;   -5.611;  783.442
296.927;  115.394;   -5.781;  779.652
297.525;  116.342;   -6.361;  781.236
298.124;  108.344;  -11.382;  654.009
298.722;  111.326;   -7.641;  761.933
299.321;  108.351;   -6.811;  708.597
299.919;  107.255;   -6.991;  751.918
300.518;  104.112;  -10.362;  689.338
301.116;  106.255;   -9.581;  691.381
301.715;  105.375;   -4.891;  730.222
302.313;  104.751;   -8.801;  704.943
302.911;  101.071;   -8.522;  733.830
303.509;  105.353;   -6.171;  925.627
304.108;  102.628;   -7.311;  760.383
304.706;  102.596;   -8.321;  801.664
305.304;   96.192;  -10.222;  796.707
305.902;  102.432;   -6.021;  784.484
306.500;   98.189;   -4.971;  728.200
307.098;   95.560;   -7.061;  746.560
307.696;   94.595;   -8.801;  780.432
308.294;   95.695;   -6.411;  731.359
308.892;   96.407;   -2.901;  759.769
309.490;   92.864;   -5.041;  712.161
310.088;   90.309;   -5.002;  788.444
310.686;   95.631;   -2.041;  821.749
311.284;   91.285;   -2.351;  766.040
311.882;   89.186;   -4.422;  731.225
312.480;   85.499;   -4.192;  697.167
313.078;   87.264;   -1.172;  808.331
313.675;   87.417;   -2.601;  691.600
314.273;   83.472;   -1.312;  797.837
314.871;   83.196;   -3.942;  589.829
315.468;   80.777;   -2.802;  652.090
316.066;   82.660;   -0.701;  694.427
316.664;   76.821;   -4.362;  656.351
317.261;   79.891;   -2.872;  910.128
317.859;   75.907;   -2.022;  768.735
318.456;   75.992;   -0.531;  830.096
319.054;   72.358;   -3.912;  787.828
319.651;   71.993;   -4.752;  759.928
320.249;   70.484;   -2.602;  810.188
320.846;   67.882;   -0.821;  714.286
321.443;   65.512;   -4.642;  832.135
322.041;   62.603;   -5.002;  812.315
322.638;   60.533;   -3.982;  701.456
323.235;   61.767;   -3.411;  665.683
323.833;   59.413;   -7.361;  740.354
324.430;   54.865;   -8.611;  615.900
325.027;   55.130;   -4.061;  876.855
325.624;   55.125;   -4.031;  644.532
326.221;   51.896;   -7.481;  689.717
326.818;   51.287;   -5.281;  818.332
327.415;   54.835;   -7.460;  748.828
328.012;   54.535;   -5.510;  690.585
328.609;   53.091;   -7.880;  731.389
329.206;   52.057;   -8.331;  778.621
329.803;   51.676;   -5.121;  737.841
330.400;   53.460;   -4.510;  704.260
330.997;   55.466;   -6.441;  817.147
331.594;   54.448;   -8.831;  788.185
332.191;   59.184;   -7.621;  728.722
332.787;   61.601;   -4.591;  844.463
333.384;   60.409;   -7.412;  763.093
333.981;   59.497;   -8.293;  815.687
334.578;   62.907;   -7.052;  708.378
335.174;   64.751;   -3.102;  731.469
335.771;   64.944;   -5.943;  836.456
336.367;   61.277;   -7.393;  710.631
336.964;   65.164;   -4.063;  793.266
337.561;   62.668;   -3.813;  731.112
338.157;   58.755;   -4.654;  911.916
338.754;   55.824;   -7.934;  796.589
339.350;   54.350;   -4.414;  722.493
339.946;   56.898;   -4.664;  773.135
340.543;   48.010;   -6.375;  846.136
341.139;   42.976;   -9.815;  720.836
341.735;   41.429;   -4.526;  772.593
342.332;   39.581;   -4.895;  691.472
342.928;   40.275;   -4.295;  795.394
343.524;   34.887;   -5.476;  761.684
344.120;   30.919;   -5.856;  738.562
344.716;   34.063;   -2.155;  723.717
345.313;   31.708;   -6.275;  795.342
345.909;   26.659;   -8.815;  627.336
346.505;   27.494;   -5.305;  740.247
347.101;   28.721;   -2.674;  827.864
347.697;   28.785;   -4.344;  785.398
348.293;   23.786;   -9.975;  627.244
348.889;   24.447;   -5.774;  745.914
349.485;   23.801;   -5.004;  688.205
350.081;   24.395;   -4.704;  772.592
350.676;   19.968;   -6.635;  691.606
351.272;   24.072;   -4.504;  809.530
351.868;   23.511;   -3.914;  780.497
352.464;   21.255;   -9.044;  723.932
353.059;   17.675;   -8.314;  646.017
353.655;   20.754;   -7.024;  777.063
354.251;   21.833;   -5.343;  759.845
354.846;   16.036;   -8.604;  740.646
355.442;   14.565;   -6.945;  753.071
356.038;   15.952;   -7.564;  751.708
356.633;   15.677;   -5.814;  728.594
357.229;   14.444;   -7.364;  724.757
357.824;   13.061;   -8.024;  703.600
358.420;   11.894;   -9.384;  679.726
359.015;   12.204;   -5.104;  695.357
359.610;   12.843;   -6.854;  763.920
360.206;    7.605;  -10.185;  603.240
360.801;    9.775;   -7.054;  646.503
361.396;   12.022;   -5.034;  725.975
361.992;    7.670;   -8.284;  668.220
362.587;    5.359;   -8.625;  670.160
363.182;    6.913;   -7.674;  689.631
363.777;    7.318;   -5.164;  738.242
364.372;    7.684;   -8.604;  737.314
364.967;    4.193;   -9.055;  680.744
365.563;    7.738;   -6.114;  815.567
366.158;    4.962;   -5.814;  685.161
366.753;    5.416;   -7.854;  649.263
367.348;    4.204;   -7.804;  746.056
367.942;    3.983;   -7.954;  697.298
368.537;    3.095;   -4.984;  754.245
369.132;    3.280;   -8.564;  703.428
369.727;   -0.117;   -8.855;  638.079
370.322;    1.082;   -6.245;  580.186
370.917;    0.719;   -6.425;  710.646
371.511;    3.148;   -6.294;  861.834
372.106;   -0.559;   -7.685;  776.964
372.701;   -3.795;   -7.335;  585.988
373.296;    2.001;   -4.564;  863.135
373.890;   -2.795;  -10.235;  647.840
374.485;   -4.354;   -7.885;  691.199
375.079;   -1.072;   -7.324;  738.685
375.674;   -0.340;   -3.494;  812.970
376.268;   -4.078;   -8.525;  691.759
376.863;   -9.151;  -10.086;  580.327
377.457;   -3.422;   -7.025;  662.490
378.052;   -5.034;   -3.585;  764.884
378.646;   -6.896;   -7.595;  741.167
379.240;   -5.696;   -8.335;  721.176
379.835;   -4.827;   -5.785;  636.978
380.429;   -7.557;   -4.335;  562.557
381.023;   -7.972;   -6.805;  779.205
381.617;   -9.358;   -9.195;  680.106
382.212;   -5.964;   -6.905;  685.303
382.806;   -5.960;   -3.745;  760.690
383.400;   -9.501;   -7.745;  672.281
383.994;  -11.011;   -9.765;  664.870
384.588;   -6.927;   -6.564;  697.701
385.182;   -5.313;   -5.344;  726.624
385.776;   -7.040;   -8.514;  706.875
386.370;  -10.744;   -9.555;  681.968
386.964;   -9.088;   -8.715;  684.155
387.558;   -7.023;   -6.174;  598.360
388.152;  -10.379;   -8.725;  681.959
388.745;   -9.117;   -7.965;  814.707
389.339;   -7.474;   -5.924;  747.642
389.933;   -6.504;   -5.524;  695.370
390.527;   -8.094;   -7.114;  859.029
391.120;  -13.260;  -10.725;  595.318
391.714;  -10.825;   -8.035;  711.633
392.308;   -7.552;   -3.574;  780.253
392.901;  -10.924;   -7.245;  642.460
393.495;  -13.257;   -9.285;  595.414
394.089;  -11.182;   -5.895;  760.452
394.682;  -11.749;   -4.295;  697.188
395.275;  -11.689;   -9.875;  719.927
395.869;  -12.827;   -8.485;  667.314
396.462;  -11.215;   -7.455;  616.609
397.056;   -7.658;   -5.424;  776.621
397.649;  -12.571;   -6.605;  731.575
398.242;   -9.224;   -8.224;  712.645
398.836;   -9.262;   -7.474;  766.408
399.429;  -10.056;   -7.094;  631.041
400.022;  -14.253;   -9.475;  665.902
400.615;  -10.833;   -7.145;  805.609
401.208;   -9.383;   -7.174;  691.451
401.802;  -11.465;   -5.515;  699.329
402.395;  -12.440;   -9.875;  683.502
402.988;  -13.604;   -8.845;  696.627
403.581;   -9.500;   -8.874;  646.878
404.174;   -8.211;   -5.324;  686.568
404.767;  -11.570;   -9.575;  638.583
405.360;  -12.647;  -10.965;  621.445
405.953;   -7.738;   -8.764;  759.034
406.545;   -7.383;   -7.514;  725.342
407.138;  -11.657;  -10.025;  618.350
407.731;  -10.631;  -10.034;  613.303
408.324;   -6.653;   -9.374;  660.554
408.917;   -6.905;   -6.534;  681.864
409.509;   -9.523;   -8.004;  740.396
410.102;  -10.844;   -9.875;  643.948
410.695;   -4.890;   -8.604;  665.758
411.287;   -6.148;   -6.794;  599.821
411.880;   -7.412;   -9.334;  585.421
412.472;   -9.719;  -10.254;  613.092
413.065;   -7.831;   -6.714;  629.408
413.657;   -5.308;   -7.234;  576.678
414.250;   -5.288;  -10.544;  646.681
414.842;   -6.943;   -9.744;  676.353
415.434;   -4.590;   -6.994;  570.463
416.027;   -0.081;   -5.893;  652.196
416.619;   -3.364;   -7.264;  713.400
417.211;   -2.704;  -10.374;  599.352
417.804;   -0.012;   -7.993;  628.499
418.396;   -3.326;   -7.234;  607.643
418.988;   -1.217;   -9.443;  659.238
419.580;   -4.321;  -10.724;  568.276
420.172;   -2.632;  -10.323;  536.196
420.764;    1.877;   -8.793;  672.482
421.356;    0.729;  -11.143;  636.898
421.948;    0.393;   -8.293;  677.661
422.540;    5.001;   -7.893;  680.027
423.132;    4.343;   -7.082;  600.641
423.724;    0.996;   -8.653;  561.267
424.316;    3.312;  -10.213;  621.345
424.908;    7.051;   -9.762;  591.517
425.500;    6.599;   -5.572;  647.978
426.092;    7.734;   -8.422;  648.268
426.683;    6.806;   -9.283;  684.836
427.275;   10.360;   -7.852;  641.471
427.867;   11.148;   -5.272;  668.948
428.458;   11.623;   -7.682;  732.344
429.050;   10.056;  -10.612;  680.749
429.642;   11.712;   -9.882;  743.124
430.233;   12.679;   -6.962;  569.356
430.825;   14.139;   -6.842;  724.809
431.416;   11.796;   -9.672;  698.241
432.008;   15.434;   -6.552;  651.723
432.599;   16.286;   -6.891;  656.073
433.190;   12.303;  -10.912;  637.670
433.782;   12.206;  -11.172;  590.395
434.373;   19.739;   -6.061;  884.765
434.964;   18.413;   -8.251;  602.920
435.556;   16.272;   -9.722;  634.537
436.147;   19.206;   -9.082;  758.490
436.738;   19.004;   -8.041;  701.099
437.329;   24.260;   -7.341;  721.723
437.920;   17.210;   -8.162;  666.688
438.511;   17.415;  -11.802;  564.526
439.103;   24.022;  -10.191;  623.998
439.694;   25.086;   -7.601;  681.583
440.285;   26.383;   -8.541;  764.432
440.876;   25.025;   -9.751;  845.738
441.466;   24.481;   -9.401;  575.162
442.057;   28.692;   -7.760;  665.814
442.648;   28.034;   -9.971;  746.255
443.239;   27.241;  -11.001;  620.477
443.830;   31.308;   -7.990;  704.958
444.421;   33.024;   -7.910;  655.474
445.011;   29.566;   -8.131;  693.619
445.602;   29.958;   -7.111;  743.126
446.193;   31.446;  -10.920;  488.117
446.783;   36.717;   -6.500;  640.397
447.374;   31.463;   -8.671;  692.759
447.964;   32.227;  -10.781;  713.770
448.555;   40.011;   -9.650;  822.742
449.145;   37.437;   -8.660;  662.853
449.736;   38.262;   -8.990;  803.179
450.326;   38.627;   -9.500;  713.626
450.917;   43.041;   -8.680;  675.324
451.507;   41.790;   -7.520;  600.661
452.097;   42.273;   -8.590;  746.267
452.688;   44.051;  -11.340;  742.160
453.278;   43.496;  -10.100;  566.840
453.868;   48.016;   -6.019;  793.550
454.458;   45.409;   -9.440;  651.141
455.048;   46.182;  -10.560;  711.783
455.639;   48.466;  -11.799;  567.096
456.229;   51.293;   -6.899;  710.694
456.819;   52.809;   -7.389;  751.158
457.409;   53.434;  -11.119;  773.993
457.999;   56.314;   -9.289;  737.505
458.589;   56.279;   -6.139;  686.606
459.179;   56.369;   -8.729;  717.658
459.769;   54.537;   -9.789;  627.099
460.358;   59.379;  -10.259;  797.262
460.948;   60.094;   -7.299;  689.503
461.538;   60.894;  -10.289;  660.677
462.128;   59.426;  -11.269;  664.934
462.717;   66.301;   -9.368;  710.326
463.307;   68.323;   -7.908;  705.846
463.897;   64.559;   -9.599;  656.942
464.486;   64.369;   -9.769;  837.128
465.076;   69.093;   -8.048;  733.776
465.666;   72.456;   -9.358;  652.900
466.255;   69.571;   -7.919;  785.651
466.845;   69.514;  -11.689;  666.749
467.434;   72.983;   -7.818;  725.873
468.023;   73.302;   -7.678;  658.357
468.613;   70.777;  -10.939;  713.946
469.202;   75.315;  -10.118;  646.507
469.791;   79.381;   -9.108;  737.811
470.381;   81.166;   -6.058;  742.813
470.970;   80.597;  -10.428;  711.099
471.559;   81.069;  -10.268;  733.291
472.148;   84.598;   -8.448;  675.737
472.738;   87.239;   -6.917;  765.466
473.327;   86.175;  -11.978;  637.529
473.916;   86.296;  -11.888;  737.446
474.505;   90.317;   -9.437;  751.703
475.094;   93.484;   -6.747;  806.570
475.683;   92.673;   -9.367;  797.699
476.272;   94.500;  -12.637;  730.632
476.861;   96.321;  -10.027;  706.754
477.449;  103.379;   -8.716;  728.487
478.038;   97.228;   -9.577;  692.513
478.627;   99.343;   -9.718;  714.852
479.216;  106.116;   -8.947;  769.441
479.805;  108.845;   -6.256;  783.375
480.393;  108.168;   -7.937; 1008.945
480.982;  107.823;   -7.717;  874.501
481.571;  113.290;   -9.266;  858.333
482.159;  114.751;   -7.636;  705.386
482.748;  115.518;   -9.667;  821.385
483.336;  120.023;  -10.376;  858.209
483.925;  120.484;   -7.147;  774.373
484.513;  126.996;   -7.996;  758.962
485.102;  123.733;  -10.027;  810.965
485.690;  132.174;  -10.446; 1011.050
486.278;  134.532;   -8.446;  979.329
486.867;  135.802;   -6.356;  809.662
487.455;  137.251;   -9.136;  898.229
488.043;  139.231;  -10.646;  748.361
488.631;  147.496;   -7.456; 1005.079
489.220;  152.234;   -6.636;  908.626
489.808;  151.764;  -11.036;  741.415
490.396;  160.704;  -10.246;  914.645
490.984;  167.476;   -8.556;  830.161
491.572;  178.341;   -5.886;  940.315
492.160;  183.391;   -9.486;  919.081
492.748;  196.573;  -10.976;  884.341
493.336;  221.260;   -8.776; 1019.693
493.924;  249.542;   -5.465;  958.077
494.512;  278.746;   -9.986; 1066.638
495.100;  320.377;  -10.636; 1103.280
495.687;  378.819;  -10.885; 1206.373
496.275;  446.437;   -8.126; 1150.796
496.863;  521.396;  -10.586; 1281.171
497.451;  630.236;  -11.926; 1386.805
498.038;  767.202;  -10.885; 1556.729
498.626;  880.501;   -6.315; 1741.407
499.214; 1036.808;   -7.326; 2016.609
499.801; 1242.003;  -11.906; 2220.633
500.389; 1505.867;  -10.466; 2312.494
500.976; 1833.759;   -5.236; 2744.849
501.564; 2301.800;   -8.936; 3148.565
502.151; 2698.698;  -13.176; 3515.999
502.738; 3177.351;  -10.646; 3971.274
503.326; 3592.262;   -9.525; 4403.796
503.913; 3992.068;  -10.856; 5161.749
504.500; 4381.659;  -11.586; 5986.420
505.088; 4820.577;  -10.336; 6381.201
505.675; 5383.890;   -6.355; 6925.547
506.262; 6159.729;   -9.046; 7619.060
506.849; 6924.965;  -10.416; 8733.969
507.436; 7400.900;  -10.305; 9790.121
508.023; 7989.803;   -5.496; 9985.472
508.610; 8289.723;   -7.856;10434.618
509.197; 9007.729;  -10.097;11198.435
509.784;10480.188;  -10.886;12391.194
510.371;11593.271;   -9.315;13603.713
510.958;12375.668;   -9.936;14426.586
511.545;13199.030;   -9.326;15243.775
512.132;14120.589;  -10.075;15945.876
512.719;14690.261;   -7.796;16340.369
513.305;15655.414;  -10.606;18011.766
513.892;16387.631;  -11.486;19754.971
514.479;17829.932;   -9.126;20967.805
515.066;19530.471;   -6.026;22299.793
515.652;20923.184;   -8.466;22908.660
516.239;22299.354;  -10.886;23798.875
516.825;23475.053;  -11.496;25567.275
517.412;24564.305;   -5.796;28154.959
517.998;25133.031;  -10.506;28344.111
518.585;25233.705;  -10.076;27134.219
519.171;25890.949;   -8.315;27268.576
519.758;27299.547;   -8.596;28964.129
520.344;29270.215;   -8.466;30664.494
520.930;29485.299;  -11.006;32550.605
521.516;30985.547;  -10.495;35422.895
522.103;33497.680;   -5.526;38280.004
522.689;34082.520;   -8.746;37835.117
523.275;33576.020;  -11.376;37288.613
523.861;34997.559;  -11.156;37281.395
524.447;36332.957;   -8.135;37846.949
525.033;36006.371;   -7.896;38321.949
525.619;36257.035;  -12.476;38579.285
526.205;38152.355;   -9.516;40622.875
526.791;40531.355;   -6.926;42258.836
527.377;40885.785;   -8.346;42966.902
527.963;42561.164;   -8.717;42018.949
528.549;40824.137;  -11.016;42476.828
529.135;39519.203;   -8.536;41854.852
529.721;38903.391;   -9.666;41237.711
530.306;38080.445;  -10.066;41259.445
530.892;37901.176;  -11.356;41506.047
531.478;39442.195;   -6.596;43559.613
532.063;42565.727;   -8.836;47695.563
532.649;43026.465;  -10.047;50808.324
533.235;44108.926;   -9.746;51787.500
533.820;44805.336;   -6.566;52145.035
534.406;46355.602;  -10.817;51133.488
534.991;46102.469;   -9.416;49996.805
535.576;44644.508;   -9.036;48882.852
536.162;45082.660;   -6.156;46942.285
536.747;45885.848;  -11.607;45711.746
537.333;49919.672;  -11.787;48510.180
537.918;53172.551;  -12.437;50439.891
538.503;51648.785;   -7.196;50863.711
539.088;48013.551;  -10.556;50906.922
539.673;47702.125;   -8.767;52621.965
540.259;47764.668;  -10.026;52368.094
540.844;45126.973;   -7.416;50879.109
541.429;46301.762;   -9.467;52077.777
542.014;49247.324;   -9.527;52716.695
542.599;48740.578;   -9.946;52363.281
543.184;46454.832;   -7.927;53187.137
543.769;47822.852;   -9.297;54697.605
544.354;47168.902;  -10.127;53913.914
544.938;45826.500;   -9.267;49680.164
545.523;47886.398;   -6.506;47386.277
546.108;50740.309;   -9.787;49151.949
546.693;52869.191;  -11.587;51384.637
547.278;52289.141;  -10.986;51853.254
547.862;49256.898;   -8.206;51173.750
548.447;44693.340;  -10.067;51691.395
549.031;44169.238;   -9.637;52456.703
549.616;49287.313;   -9.926;52714.516
550.201;48605.242;   -6.347;52414.598
550.785;49762.914;   -7.917;52355.059
551.370;48886.773;  -10.867;54589.453
551.954;48301.699;   -9.047;58267.348
552.538;49137.813;   -7.827;59062.176
553.123;47490.344;  -10.287;58115.285
553.707;45150.699;  -12.178;56556.285
554.291;46423.371;   -8.717;56201.668
554.876;48659.543;   -7.457;55335.762
555.460;48916.840;  -10.387;54155.703
556.044;50110.027;   -9.618;53721.484
556.628;48761.949;  -11.567;53731.016
557.212;47539.359;   -8.097;54312.531
557.796;46005.371;  -11.077;53797.773
558.380;45887.711;  -11.108;56145.984
558.964;46065.859;   -9.057;57277.930
559.548;47352.195;   -6.977;56459.641
560.132;45728.695;  -11.457;54434.543
560.716;44306.676;  -11.378;54800.617
561.300;45337.605;   -9.577;57606.945
561.884;46475.852;   -7.127;58972.445
562.467;44920.324;   -7.118;57327.570
563.051;44344.035;  -13.358;54962.434
563.635;45345.656;  -10.178;52594.473
564.219;45291.020;   -7.837;50610.410
564.802;46136.512;  -11.398;49551.180
565.386;46137.984;  -12.788;48370.953
565.969;45447.063;   -9.077;48178.871
566.553;44715.246;   -6.207;49957.305
567.136;45192.254;   -8.568;50369.594
567.720;41510.102;  -11.868;49492.004
568.303;39358.383;   -8.268;50616.352
568.887;39462.648;   -8.698;50727.148
569.470;39674.750;   -6.808;51698.379
570.053;38232.355;  -13.188;52122.078
570.637;36780.203;  -12.037;52536.438
571.220;36666.984;   -8.577;51186.098
571.803;37292.625;   -8.498;51032.762
572.386;39521.250;  -10.498;49609.887
572.969;41998.645;   -9.388;48285.926
573.552;39970.910;   -8.338;47624.285
574.135;38604.582;   -8.518;45498.641
574.718;36096.598;  -13.628;41970.434
575.301;35127.648;  -10.893;41447.137
575.884;34158.695;   -8.158;40923.836
576.467;35430.496;  -10.328;45267.723
577.050;37318.992;  -13.058;48175.543
577.633;38746.281;   -9.458;47729.328
578.216;37657.059;   -8.928;47579.793
578.799;36726.352;   -9.358;47820.996
579.381;35646.984;  -11.388;48115.551
579.964;33808.477;  -11.718;47333.766
580.547;35577.918;   -8.588;46668.969
581.129;36792.855;   -8.859;44466.141
581.712;37608.922;  -10.729;44164.922
582.294;38194.504;  -11.118;46477.855
582.877;37979.473;   -5.218;48244.254
583.459;35304.957;   -8.679;47437.895
584.042;33426.090;  -10.709;46943.219
584.624;34167.988;  -11.669;46792.227
585.206;33584.473;   -8.218;46557.250
585.789;33485.723;  -10.569;45793.773
586.371;36386.543;  -11.859;43836.391
586.953;37047.348;  -10.719;42972.492
587.536;38319.668;   -7.198;42487.211
588.118;38372.621;   -8.720;42086.414
588.700;34755.980;  -10.439;43389.930
589.282;33793.055;   -9.198;43646.039
589.864;34543.480;   -9.199;43438.109
590.446;35601.957;  -11.319;43151.926
591.028;35645.203;  -11.159;42781.867
591.610;34677.375;  -11.779;42839.098
592.192;32113.744;   -7.668;42820.402
592.774;30557.236;  -11.949;40724.277
593.356;29196.215;  -12.129;39874.789
593.937;28053.732;  -10.669;39980.648
594.519;30142.086;   -6.509;42069.633
595.101;32447.734;  -10.849;42976.031
595.683;32532.453;  -11.679;44084.441
596.264;33687.430;   -9.049;43478.797
596.846;33149.246;   -8.849;43803.672
597.427;32997.992;   -9.570;42986.934
598.009;34625.527;  -12.620;42832.219
598.591;34982.676;  -10.039;42580.086
599.172;34113.969;  -10.369;43061.805
599.753;34311.547;   -9.140;41691.469
600.335;35957.309;  -11.430;40692.520
600.916;34220.301;   -9.939;39982.422
601.498;31541.066;   -8.479;40318.617
602.079;29935.811;  -10.920;40670.609
602.660;29790.557;  -11.480;41450.898
603.241;31450.867;  -11.699;41137.738
603.823;30326.771;   -9.579;38868.797
604.404;29818.371;  -10.620;38182.785
604.985;31444.859;  -10.450;38078.047
605.566;31261.025;   -9.129;38056.633
606.147;31382.260;   -7.510;37020.418
606.728;32986.965;  -10.660;37883.359
607.309;31724.824;  -11.740;38748.273
607.890;31200.898;   -9.759;38850.230
608.471;30602.465;   -8.250;37457.918
609.051;29630.775;   -9.240;36066.457
609.632;28589.990;  -12.120;35991.074
610.213;29413.029;   -9.110;37402.641
610.794;30040.059;   -8.030;38383.363
611.374;29508.381;   -8.110;40562.387
611.955;29932.928;  -13.560;38533.727
612.536;31298.039;  -11.400;36951.789
613.116;31281.342;   -8.070;37197.891
613.697;31692.951;  -10.830;38411.125
614.277;30167.461;  -11.641;38673.938
614.858;31009.346;  -13.310;37075.863
615.438;30023.857;   -7.460;35092.906
616.019;27306.197;   -7.601;33666.301
616.599;28035.336;  -12.020;34189.023
617.179;29840.314;  -11.780;36952.047
617.760;30772.688;   -8.570;39582.574
618.340;31960.900;  -11.471;38943.977
618.920;33331.496;  -11.170;37594.156
619.500;32977.773;  -11.071;37866.938
620.080;32017.201;   -7.750;37869.043
620.660;33143.840;  -12.711;36868.617
621.241;34537.391;  -10.211;36352.309
621.821;34808.961;  -10.961;35459.520
622.401;33808.125;   -7.720;35207.414
622.980;33115.145;   -8.981;35980.422
623.560;31611.506;   -9.331;37351.328
624.140;30291.424;   -9.850;34388.582
624.720;25130.959;   -7.451;32368.764
625.300;21587.816;   -9.070;32638.629
625.880;25037.191;  -12.601;34599.035
626.459;29038.137;  -11.751;36831.738
627.039;32179.264;   -9.281;38299.098
627.619;32187.355;   -8.801;38289.574
628.198;30582.045;  -12.071;37220.695
628.778;29771.217;   -9.461;37632.563
629.357;30542.318;   -8.491;38003.012
629.937;30576.957;   -9.721;38402.039
630.516;29903.262;   -9.951;37868.801
631.096;29551.918;  -11.731;35760.410
631.675;32095.883;   -8.572;35225.219
632.254;37224.859;  -11.282;35130.289
632.834;36735.387;  -13.322;35794.570
633.413;34925.078;  -10.301;35788.922
633.992;32086.914;   -8.582;34532.863
634.571;32790.879;   -8.352;33590.113
635.151;35925.988;  -11.912;34943.863
635.730;34291.414;  -10.511;35352.523
636.309;30644.557;   -7.731;35366.605
636.888;28075.570;   -9.952;36165.637
637.467;28850.127;  -11.672;37515.902
638.046;30560.721;   -8.901;39288.695
638.625;33653.293;   -7.912;38279.699
639.204;33488.074;  -10.022;37741.598
639.782;31939.074;  -12.252;38364.551
640.361;28282.965;  -10.041;36740.621
640.940;25352.621;  -11.161;34950.082
641.519;26001.822;   -9.701;34137.398
642.097;29069.910;  -11.271;35654.258
642.676;32047.404;   -8.651;35637.957
643.255;32663.447;   -8.711;36567.074
643.833;31731.031;   -9.581;37809.434
644.412;31740.768;  -13.711;37337.293
644.990;30826.129;  -11.811;37018.531
645.569;30742.852;   -9.411;36518.469
646.147;29510.576;  -10.291;36186.430
646.726;29175.766;  -12.401;36267.688
647.304;30535.594;  -10.411;36647.625
647.882;32401.041;   -9.651;39286.742
648.461;34093.168;   -9.631;39157.703
649.039;32418.270;  -11.881;35412.883
649.617;31925.885;   -9.661;34744.918
650.195;31640.990;   -9.301;35403.098
650.773;30139.209;  -10.511;35053.797
651.352;27603.377;  -11.521;33756.816
651.930;25164.248;  -12.211;31868.773
652.508;23633.541;   -9.171;33121.551
653.086;27532.461;   -9.371;33564.793
653.663;30393.695;  -13.161;34054.668
654.241;29157.670;  -13.031;35693.309
654.819;30852.697;   -9.371;36422.906
655.397;31136.771;  -10.511;38213.484
655.975;30863.934;  -10.371;39507.625
656.553;30702.014;  -10.051;39498.223
657.130;29079.650;  -10.061;40395.480
657.708;28177.025;   -9.561;39242.020
658.286;28188.764;  -11.511;38920.020
658.863;29562.217;  -10.261;40202.898
659.441;32600.350;   -7.531;39677.938
660.018;32079.188;   -9.501;40413.355
660.596;30987.760;  -13.301;39931.414
661.173;33089.305;  -11.211;39604.531
661.750;33189.117;   -9.951;39700.070
662.328;31713.236;   -9.390;39292.809
662.905;30664.236;  -11.330;38235.648
663.482;26538.139;   -9.050;36212.305
664.060;24593.264;   -8.240;35944.945
664.637;27383.469;  -10.050;35170.785
665.214;29269.563;  -11.760;34197.523
665.791;30735.105;  -10.530;34549.520
666.368;29639.135;   -9.690;35118.578
666.945;30341.137;   -9.320;36019.418
667.522;31947.180;  -11.860;36048.438
668.099;31651.086;  -10.770;36243.914
668.676;30508.566;   -6.260;35958.875
669.253;29199.840;   -7.000;37384.730
669.830;29877.352;  -10.190;36779.629
670.407;29669.936;   -9.550;35231.289
670.984;29459.580;   -9.260;35544.270
671.560;30049.004;   -9.280;35466.867
672.137;29283.855;  -11.810;34280.863
672.714;30057.268;  -11.490;34632.863
673.290;30598.875;   -7.740;35135.422
673.867;30752.652;  -10.660;36114.480
674.443;30700.586;  -12.230;36152.859
675.020;28986.156;  -10.450;35327.238
675.596;29973.342;   -9.260;35795.176
676.173;30335.463;  -10.780;35430.355
676.749;30086.012;  -13.690;33549.516
677.326;30126.723;  -11.980;32210.012
677.902;30121.551;   -8.630;32068.871
678.478;29489.996;  -10.730;32583.891
679.054;28906.893;  -10.520;32088.928
679.631;29160.176;  -11.920;30978.848
680.207;30868.467;   -7.490;33160.887
680.783;32690.932;   -9.860;35570.363
681.359;31785.297;  -13.380;36125.184
681.935;30995.998;  -12.480;35240.922
682.511;30017.787;   -7.900;34429.961
683.087;29954.801;   -7.710;34463.680
683.663;29557.137;  -11.480;34648.898
684.239;28420.307;  -14.090;34546.457
684.815;28105.539;   -7.560;35586.375
685.390;28372.775;   -9.910;35821.895
685.966;28846.602;  -11.159;35085.871
686.542;31324.363;  -11.169;34198.230
687.118;33427.074;   -5.959;32847.707
687.693;33759.234;  -10.329;32794.027
688.269;33579.438;  -12.059;33072.367
688.844;31858.285;  -10.909;33141.664
689.420;29593.537;   -8.019;33965.742
689.995;27153.043;   -8.399;34655.523
690.571;25667.768;  -10.949;33576.742
691.146;26148.443;   -9.619;32657.219
691.722;25628.420;   -8.999;32526.979
692.297;25499.945;  -11.589;33014.617
692.872;27449.773;  -11.739;34012.254
693.448;27027.150;  -11.059;34237.434
694.023;26198.830;  -10.139;34142.672
694.598;28091.020;   -9.029;34132.031
695.173;28427.916;  -13.319;34205.250
695.748;27736.068;  -10.169;32882.488
696.323;27936.037;   -8.339;32864.906
696.898;28217.867;   -8.169;33170.004
697.473;27946.020;  -12.309;32432.984
698.048;27351.945;  -10.989;31649.303
698.623;27287.492;   -9.329;30778.141
699.198;29259.313;   -9.849;31140.119
699.773;30171.277;  -12.329;31764.299
700.348;28390.754;  -10.389;31780.816
700.922;28351.518;   -9.269;32046.375
701.497;29219.320;   -9.329;32603.574
702.072;29526.246;  -10.789;34799.871
702.646;28226.734;  -10.839;35793.172
703.221;26030.594;   -9.099;35201.590
703.795;28213.633;  -10.939;34764.527
704.370;28689.195;  -12.859;34307.367
704.944;29007.924;  -11.559;33509.887
705.519;29843.215;   -7.939;31388.584
706.093;31324.195;  -10.499;31340.104
706.668;31681.572;  -11.289;32630.281
707.242;30635.217;  -11.509;32728.779
707.816;29015.180;   -9.639;32947.238
708.390;27404.270;  -11.429;33277.855
708.965;27810.850;  -11.869;33834.336
709.539;27739.303;  -11.689;33709.273
710.113;28295.719;  -10.478;33044.313
710.687;27900.340;  -10.228;31953.992
711.261;26238.951;  -13.698;30505.949
711.835;26094.252;  -13.378;30262.369
712.409;26903.865;   -9.698;31254.447
712.983;28841.535;  -11.898;32754.986
713.557;29822.262;  -15.138;34018.824
714.131;29328.453;  -14.098;34579.625
714.704;28285.896;   -9.958;33890.262
715.278;26047.205;  -10.028;33531.102
715.852;25093.512;  -11.148;33601.660
716.425;25907.658;   -9.068;33515.117
716.999;26543.184;  -10.038;33185.555
717.573;27449.104;   -9.798;33905.996
718.146;28575.686;  -12.378;35199.293
718.720;28640.232;  -11.918;35060.551
719.293;27966.213;   -8.088;34973.230
719.867;30768.561;  -10.888;36394.449
720.440;30640.023;  -11.938;36663.008
721.013;28968.170;  -12.818;35102.426
721.587;27572.283;  -10.298;33985.266
722.160;26625.084;  -10.048;33524.965
722.733;25506.838;  -12.108;32987.043
723.306;25791.484;  -10.818;33066.301
723.880;28260.066;   -8.908;33399.500
724.453;30257.217;   -9.878;33468.297
725.026;29302.891;  -11.188;33816.637
725.599;26613.932;  -11.678;32797.996
726.172;26943.127;   -9.618;33187.434
726.745;27959.070;   -8.258;35136.613
727.318;29189.646;  -12.978;35751.730
727.891;29759.793;  -12.148;35890.430
728.463;29511.078;   -8.968;34822.090
729.036;28497.133;  -10.188;32895.086
729.609;28869.615;  -11.788;31823.225
730.182;25829.777;  -11.788;31445.283
730.754;23313.729;  -10.268;32373.223
731.327;23240.881;   -9.998;33676.820
731.900;23529.846;  -12.228;33417.000
732.472;24979.982;  -13.848;31978.498
733.045;26983.510;   -8.698;30368.777
733.617;27142.451;  -10.607;30574.215
734.190;26829.941;  -11.507;31280.975
734.762;23993.248;  -13.647;31674.412
735.334;22176.328;   -9.767;31247.291
735.907;22717.025;   -9.897;29876.211
736.479;22860.938;  -11.637;29808.488
737.051;22552.555;   -9.567;30233.547
737.623;23460.488;   -8.187;31469.086
738.195;24198.084;  -11.187;31784.225
738.768;26081.871;  -12.337;32120.523
739.340;26316.617;  -12.227;32094.342
739.912;25099.676;  -11.057;31312.680
740.484;23614.844;  -10.207;31946.238
741.056;22535.705;  -10.047;32984.059
741.628;24387.113;  -13.627;33897.715
742.199;26577.584;   -7.177;33213.016
742.771;24862.486;  -10.797;31369.113
743.343;22543.111;  -11.997;31865.473
743.915;21588.465;  -12.867;32388.631
744.487;21737.555;   -7.617;31079.568
745.058;21995.762;   -9.557;30570.107
745.630;22523.154;   -9.877;29970.127
746.201;23326.014;  -14.177;29186.766
746.773;23666.336;   -9.237;28805.723
747.344;23414.834;   -9.847;29591.223
747.916;22087.943;  -11.657;31412.201
748.487;22274.492;  -10.587;32194.898
749.059;23385.146;   -8.707;32533.719
749.630;23969.848;  -10.537;32158.518
750.201;23041.563;  -11.687;30855.395
750.773;21295.287;  -11.647;28622.555
751.344;21291.854;   -7.147;28405.732
751.915;22653.770;   -9.757;28461.551
752.486;22659.139;  -12.427;27842.850
753.057;20313.840;  -12.227;27845.008
753.628;19014.047;  -10.417;27728.107
754.199;20148.225;  -11.767;27381.086
754.770;21168.785;  -11.187;25882.203
755.341;21113.971;  -10.507;25886.184
755.912;21150.689;   -9.387;26050.861
756.483;20643.174;  -10.647;26798.779
757.054;19001.266;  -11.837;27048.238
757.625;17736.393;  -12.716;26294.838
758.195;17418.520;   -9.666;26142.076
758.766;17097.658;   -8.656;26392.234
759.337;17870.877;  -12.856;26334.594
759.907;19582.123;  -13.366;27579.652
760.478;20483.246;   -8.576;28352.770
761.048;19926.529;  -10.526;27325.088
761.619;19133.621;  -11.116;26460.428
762.189;19154.336;  -12.136;26029.826
762.760;20165.238;   -9.456;26430.145
763.330;21249.322;   -7.136;26670.902
763.900;20720.801;  -11.786;26603.021
764.471;18168.445;  -11.546;25542.740
765.041;16986.055;   -8.096;24358.459
765.611;17106.662;   -8.876;23991.297
766.181;17451.988;  -12.196;24470.236
766.751;18315.318;  -11.636;24845.975
767.321;18107.195;  -10.156;24533.633
767.891;16280.660;  -11.766;24916.492
768.461;15774.068;  -14.936;24776.771
769.031;16229.378;  -12.356;24757.988
769.601;17779.885;   -7.526;24181.088
770.171;17654.676;  -10.766;23670.387
770.741;16845.658;  -13.176;22960.045
771.311;16981.348;  -10.616;22917.523
771.880;17324.145;   -9.576;23562.941
772.450;16969.564;  -10.336;24216.500
773.020;17018.488;  -13.516;24140.398
773.589;16458.137;  -13.466;24414.857
774.159;15805.890;   -8.686;23858.717
774.729;15359.596;   -9.476;22942.135
775.298;14858.225;  -13.666;22324.033
775.867;14471.925;  -11.716;21140.313
776.437;14565.207;   -9.906;20838.092
777.006;14378.118;  -12.166;20599.510
777.576;14290.460;  -12.356;20508.809
778.145;14371.635;  -11.646;20732.947
778.714;14225.355;   -8.226;21062.465
779.283;13463.963;   -9.556;20949.664
779.853;12960.898;  -14.116;20508.623
780.422;13436.069;  -11.506;20649.082
780.991;13043.958;   -9.556;21527.520
781.560;11917.106;   -9.095;22632.658
782.129;11786.657;  -12.135;23048.277
782.698;11828.589;  -10.865;23438.555
783.267;11413.645;   -9.335;23267.734
783.836;11369.079;  -11.045;22415.133
784.404;12432.524;  -13.865;20443.152
784.973;13029.753;  -13.095;19699.150
785.542;12900.135;  -11.575;19763.828
786.111;12668.400;   -9.705;20341.408
786.679;12162.515;  -12.105;20207.967
787.248;11929.052;  -12.455;19516.465
787.817;11796.661;  -11.535;18900.363
788.385;11445.062;   -9.765;17879.121
788.954;10876.489;  -14.005;17658.301
789.522;10328.556;  -11.955;17788.879
790.090;10863.364;  -10.135;18118.277
790.659;11268.682;  -10.975;18338.736
791.227;10771.231;  -13.375;18508.615
791.795;11216.691;  -12.375;17898.254
792.364;11636.170;  -10.725;17295.133
792.932;11983.650;   -9.715;16822.051
793.500;12112.703;  -12.675;17040.148
794.068;12278.567;  -13.495;17179.787
794.636;12390.431;  -10.885;16664.246
795.204;11821.771;  -11.045;16524.545
795.772;11931.460;  -13.175;17274.564
796.340;11508.672;  -12.445;17891.002
796.908;11341.913;   -9.735;17648.561
797.476;11224.071;   -9.815;17064.080
798.044;10740.738;  -13.985;16672.777
798.612; 9916.660;  -13.115;17023.996
799.180; 9508.396;  -10.185;16561.615
799.747; 9434.967;   -9.055;15962.773
800.315; 9183.724;  -12.385;15296.992
800.883; 8869.101;  -15.035;14801.771
801.450; 8876.633;  -10.365;14534.430
802.018; 8942.954;   -9.855;14173.248
802.585; 9093.505;  -11.905;14029.547
803.153; 9133.324;  -11.585;13836.846
803.720; 8959.101;   -9.095;13567.324
804.287; 8543.788;   -9.135;13360.622
804.855; 8129.367;  -11.604;13681.981
805.422; 7989.362;  -11.794;13536.560
805.989; 8001.861;  -10.734;13355.958
806.556; 8178.486;  -10.444;13747.896
807.124; 8406.489;  -12.764;13987.376
807.691; 8374.823;  -12.964;14038.674
808.258; 8192.693;  -11.134;14120.152
808.825; 7879.057;   -9.854;13860.111
809.392; 7924.826;  -10.504;13268.790
809.959; 7428.696;  -13.054;12680.389
810.526; 7012.343;   -8.294;12427.308
811.093; 7048.951;   -8.394;12030.105
811.659; 7638.789;  -12.304;11653.664
812.226; 8130.746;  -13.944;11637.183
812.793; 7846.232;  -10.484;11611.521
813.360; 7237.480;  -10.144;11885.181
813.926; 6939.452;  -11.684;12770.539
814.493; 6726.213;  -13.644;12677.638
815.060; 6341.835;   -9.724;11974.336
815.626; 6331.623;   -9.854;11594.715
816.193; 6728.560;  -13.254;11579.474
816.759; 6760.849;  -13.204;11666.972
817.325; 6812.803;   -9.434;11325.530
817.892; 7134.257;  -10.134;11105.369
818.458; 7552.213;  -13.474;10843.928
819.024; 7194.832;  -11.854;10714.406
819.591; 6837.607;  -10.244;10469.165
820.157; 6606.786;  -10.704;10235.523
820.723; 6130.258;  -12.324;10847.563
821.289; 5813.701;   -9.444;11040.980
821.855; 5713.625;   -8.374;10357.100
822.421; 5680.620;  -10.234; 9978.918
822.987; 5690.826;  -13.294; 9754.177
823.553; 5393.684;  -10.884;10065.755
824.119; 5209.566;   -8.884;10036.294
824.685; 5279.119;   -6.784;10029.192
825.251; 5357.978;  -12.004;10199.230
825.816; 5317.820;  -11.474; 9820.189
826.382; 5098.855;   -9.174; 9297.248
826.948; 5292.764;   -9.214; 9381.347
827.513; 5675.523;  -10.774; 9450.726
828.079; 5504.969;  -11.924; 9472.444
828.645; 4934.939;  -10.543; 9292.643
829.210; 4850.388;  -10.533; 9065.341
829.776; 4852.929;  -10.753; 9132.620
830.341; 4748.486;  -10.173; 9092.878
830.906; 4918.927;  -10.743; 9078.557
831.472; 5238.304;  -11.113; 8534.535
832.037; 4987.122;  -10.603; 8677.874
832.602; 4457.822;  -13.323; 8628.692
833.167; 4210.894;  -10.823; 8879.031
833.733; 4151.086;  -10.113; 9189.790
834.298; 4273.172;  -13.583; 9052.608
834.863; 4328.694;  -12.703; 8895.087
835.428; 4305.753;  -10.523; 8824.266
835.993; 4172.004;   -6.963; 8845.385
836.558; 4030.456;  -10.763; 8888.563
837.123; 4157.960;   -9.903; 8966.582
837.688; 4371.735;   -9.913; 8617.860
838.253; 4604.303;  -10.283; 8590.699
838.817; 4810.862;  -12.963; 8443.797
839.382; 4737.974;  -14.243; 8799.356
839.947; 4417.884;  -10.733; 8810.595
840.511; 4132.867;   -9.383; 8796.394
841.076; 3770.050;  -12.563; 8347.231
841.641; 3810.656;  -12.953; 8224.330
842.205; 3903.610;   -7.043; 8223.349
842.770; 4018.601;   -8.163; 8622.107
843.334; 4194.146;  -12.503; 8410.386
843.898; 4135.347;  -11.693; 8337.465
844.463; 4142.549;  -10.203; 8506.283
845.027; 3929.522;   -9.533; 8280.962
845.591; 3760.424;  -13.443; 8231.141
846.156; 3742.657;  -13.143; 7969.179
846.720; 3625.546;   -9.433; 7768.278
847.284; 3502.532;  -11.033; 7630.957
847.848; 3380.657;  -10.403; 7472.395
848.412; 3303.620;  -11.553; 7437.394
848.976; 3354.099;   -8.393; 7674.592
849.540; 3292.753;   -8.713; 7836.011
850.104; 3409.664;  -12.463; 7913.669
850.668; 3762.090;  -12.973; 7694.508
851.232; 3856.434;  -10.793; 7756.887
851.796; 3693.382;  -10.662; 7926.545
852.359; 3406.027;  -13.082; 7827.844
852.923; 3244.415;  -12.192; 7641.163
853.487; 3064.245;  -11.912; 7342.501
854.050; 3015.144;  -10.892; 7042.820
854.614; 3157.976;  -13.992; 7151.338
855.177; 3294.400;  -11.732; 7105.077
855.741; 3337.944;   -8.962; 6989.675
856.304; 3231.486;   -9.442; 6596.634
856.868; 3170.969;  -14.192; 6356.272
857.431; 3254.757;  -12.702; 6468.571
857.995; 3367.860;   -9.942; 6373.210
858.558; 3376.238;   -9.112; 6324.448
859.121; 3113.549;  -12.932; 6408.327
859.684; 2989.846;  -13.442; 6347.886
860.247; 3098.360;  -10.632; 6321.264
860.810; 3093.197;  -11.272; 6301.903
861.374; 2851.471;   -9.832; 6607.881
861.937; 2608.615;  -11.762; 6408.200
862.500; 2601.281;   -9.722; 6572.639
863.062; 2781.495;  -10.512; 6387.297
863.625; 2954.906;  -11.232; 6190.836
864.188; 3104.812;  -14.112; 5807.254
864.751; 3159.081;  -11.302; 5682.413
865.314; 3045.420;  -10.112; 5547.492
865.876; 2836.963;  -12.182; 5500.150
866.439; 2822.500;  -10.722; 5415.909
867.002; 2778.864;   -9.252; 5501.567
867.564; 2579.975;   -9.572; 5413.946
868.127; 2359.179;  -13.142; 5160.325
868.689; 2255.115;  -12.902; 5133.183
869.252; 2163.636;   -9.732; 5252.382
869.814; 2076.688;   -9.432; 5297.141
870.377; 2087.292;  -11.552; 5390.919
870.939; 2151.739;   -9.052; 5599.898
871.501; 2209.710;  -10.982; 5248.336
872.063; 2206.926;  -12.292; 4854.235
872.626; 2169.759;  -14.912; 4817.074
873.188; 2201.436;  -13.112; 4987.732
873.750; 2167.638;  -13.442; 4868.651
874.312; 2062.446;   -9.402; 4779.330
874.874; 1971.694;  -11.062; 4866.348
875.436; 1886.751;  -13.931; 4718.887
875.998; 1874.353;   -9.561; 4660.005
876.560; 1895.791;  -11.321; 4462.964
877.122; 1840.935;  -12.221; 4145.042
877.683; 1752.042;  -12.191; 4056.481
878.245; 1684.238;  -12.101; 3950.740
878.807; 1723.916;   -8.971; 4058.958
879.369; 1748.528;  -12.071; 3954.677
879.930; 1648.691;  -14.621; 3941.495
880.492; 1583.818;  -10.311; 4067.014
881.053; 1550.700;  -10.901; 3859.633
881.615; 1446.200;  -14.411; 3776.071
882.176; 1348.767;  -13.761; 3734.750
882.738; 1301.742;   -9.181; 3678.489
883.299; 1272.858;  -11.791; 3405.407
883.860; 1275.472;  -13.121; 3351.106
884.422; 1277.085;  -11.211; 3394.044
884.983; 1232.867;  -10.091; 3166.443
885.544; 1157.527;   -8.461; 3189.802
886.105; 1079.963;  -12.361; 3160.360
886.666; 1013.353;  -14.141; 3093.059
887.227;  957.155;  -11.361; 2941.957
887.788;  896.242;  -11.401; 2974.836
888.349;  834.643;  -13.791; 2721.214
888.910;  831.674;  -13.191; 2696.493
889.471;  840.640;   -9.881; 2560.172
890.032;  824.807;   -9.881; 2558.190
890.593;  802.532;  -10.371; 2567.669
891.153;  774.523;  -13.301; 2460.307
891.714;  726.013;  -11.431; 2372.046
892.275;  686.700;  -11.291; 2309.505
892.835;  650.493;  -11.471; 2382.543
893.396;  599.391;  -11.541; 2295.502
893.956;  546.613;  -11.181; 2162.420
894.517;  510.730;  -11.741; 2125.439
895.077;  503.876;  -11.671; 2086.978
895.638;  503.794;  -11.311; 2126.316
896.198;  476.748;   -9.831; 1838.275
896.758;  433.907;   -8.421; 1892.813
897.319;  404.728;  -12.351; 1792.232
897.879;  388.406;  -13.511; 1762.751
898.439;  364.328;  -12.001; 1661.149
898.999;  340.725;  -10.180; 1781.468
899.559;  332.625;  -12.030; 1703.347
900.119;  329.256;  -15.710; 1537.525
900.679;  325.119;   -8.900; 1638.384
901.239;  310.997;   -8.340; 1527.902
901.799;  299.699;  -13.910; 1456.441
902.359;  294.944;  -13.460; 1357.140
902.919;  289.014;  -11.490; 1331.118
903.479;  276.546;  -12.110; 1317.257
904.038;  256.684;  -11.720; 1262.595
904.598;  241.257;  -13.610; 1152.034
905.158;  237.497;  -11.040; 1240.893
905.717;  230.880;  -10.900; 1233.691
906.277;  219.344;  -15.080; 1217.330
906.836;  210.809;  -13.380; 1222.408
907.396;  202.077;  -10.780; 1193.047
907.955;  196.406;   -8.500; 1182.526
908.515;  189.486;  -12.760; 1099.364
909.074;  184.552;  -11.900; 1092.863
909.633;  178.273;   -8.950; 1069.121
910.192;  173.380;   -8.770; 1196.460
910.752;  168.755;  -12.390; 1029.960
911.311;  164.876;  -13.680; 1009.780
911.870;  162.558;  -12.370;  971.460
912.429;  163.822;  -10.900; 1094.080
912.988;  162.156;  -11.690; 1081.060
913.547;  158.252;  -13.240;  940.380
914.106;  152.902;  -11.990;  999.420
914.665;  149.495;   -9.990;  984.020
915.224;  149.155;  -12.880; 1035.760
915.782;  150.579;  -12.350;  922.560
916.341;  149.303;   -9.110; 1049.840
916.900;  144.799;   -9.270;  925.260
917.458;  143.245;  -13.240;  884.220
918.017;  142.642;  -13.550;  942.600
918.576;  142.522;  -12.320;  904.440
919.134;  140.302;  -11.490;  837.980
919.693;  138.037;  -13.670;  893.060
920.251;  135.972;  -15.470;  876.500
920.809;  135.564;  -11.290;  839.580
921.368;  135.391;  -10.210;  885.360
921.926;  133.711;  -12.140;  842.940
922.484;  133.030;  -13.080;  903.360
923.042;  132.355;  -11.720;  880.340
923.601;  136.290;   -7.480;  998.680
924.159;  133.932;  -11.570;  935.560
924.717;  131.007;  -13.840;  841.080
925.275;  130.578;  -10.640;  903.240
925.833;  130.218;  -11.540;  779.320
926.391;  130.728;  -12.960;  938.380
926.949;  129.381;  -14.130;  857.680
927.506;  129.505;  -11.750;  903.500
928.064;  129.893;  -10.250;  877.580
928.622;  129.160;  -13.030;  880.100
929.180;  128.692;  -13.400;  814.180
929.737;  129.622;  -10.700;  808.540
930.295;  133.351;  -10.070;  928.480
930.853;  135.175;  -11.960;  849.100
931.410;  135.699;  -13.120;  821.120
931.968;  135.293;  -10.770;  940.660
932.525;  134.492;  -10.680;  909.380
933.082;  135.036;  -13.130;  811.440
933.640;  136.294;  -13.210;  925.900
934.197;  134.265;  -11.060;  886.360
934.754;  135.350;   -9.580;  897.780
935.312;  138.554;  -14.000;  863.340
935.869;  142.191;  -10.710; 1012.980
936.426;  142.902;   -9.860;  872.800
936.983;  143.532;   -9.710;  889.020
937.540;  143.038;  -13.990;  838.280
938.097;  141.392;  -14.040;  940.120
938.654;  142.063;  -10.310;  898.860
939.211;  143.543;  -10.560;  952.480
939.768;  148.109;  -13.900;  915.420
940.324;  150.699;  -14.760;  904.200
940.881;  151.435;  -10.370;  878.500
941.438;  152.721;   -8.260; 1021.200
941.995;  149.225;  -12.540;  992.560
942.551;  147.659;  -14.670;  875.620
943.108;  147.255;  -10.450;  937.920
943.664;  149.095;  -10.750;  869.340
944.221;  152.788;  -11.550; 1088.140
944.777;  149.199;  -14.770;  869.680
945.334;  150.609;  -12.820;  884.840
945.890;  151.965;  -10.130;  946.480
946.446;  151.957;  -13.470;  947.020
947.003;  153.902;  -12.120;  964.940
947.559;  156.642;   -9.980; 1063.040
948.115;  154.874;   -9.080; 1026.540
948.671;  153.336;  -10.830;  967.300
949.227;  150.572;  -12.440;  859.560
949.783;  148.787;  -12.910;  858.900
950.339;  149.956;  -10.270;  991.000
950.895;  150.061;  -13.630; 1023.840
951.451;  148.751;  -15.100;  925.280
952.007;  150.043;  -11.330;  998.540
952.563;  150.056;  -10.580;  937.780
953.118;  149.134;  -13.440;  904.940
953.674;  149.628;  -12.710;  935.780
954.230;  149.618;  -10.350;  949.640
954.785;  146.620;   -9.190;  936.640
955.341;  144.292;  -11.200;  998.160
955.897;  141.790;  -16.560;  834.660
956.452;  143.665;  -12.570;  953.840
957.008;  142.828;   -7.970; 1083.640
957.563;  140.392;  -11.940; 1009.540
958.118;  135.771;  -13.450;  877.700
958.674;  135.980;  -12.030;  946.780
959.229;  136.049;   -9.410; 1013.980
959.784;  134.511;  -12.000;  832.400
960.339;  135.621;  -14.780; 1001.280
960.894;  131.612;   -9.860;  963.760
961.449;  127.402;   -9.970;  859.960
962.004;  127.315;  -10.900; 1212.840
962.559;  122.888;  -13.150;  860.140
963.114;  120.349;  -13.740;  742.480
963.669;  119.020;   -9.820;  915.500
964.224;  117.493;  -13.890;  874.340
964.779;  117.533;  -12.600;  828.420
965.334;  117.269;  -10.950; 1017.860
965.888;  116.935;  -11.170;  875.360
966.443;  120.138;  -12.540;  972.380
966.998;  118.762;  -15.780;  819.460
967.552;  118.952;   -9.760;  908.380
968.107;  114.724;   -9.060;  868.300
968.661;  115.799;  -11.950;  922.440
969.216;  116.422;  -12.800;  856.280
969.770;  116.116;  -11.210;  917.200
970.324;  115.290;  -11.610;  923.140
970.879;  112.992;  -11.370;  947.180
971.433;  109.825;  -12.540;  952.720
971.987;  103.656;  -11.320;  895.340
972.541;  101.531;  -10.720;  917.100
973.095;  101.149;   -9.680; 1009.460
973.649;  100.603;  -11.440;  809.480
974.203;   98.904;  -11.210;  829.040
974.757;   98.290;  -10.240;  855.220
975.311;   98.745;  -13.720;  872.600
975.865;   97.441;  -13.770;  881.820
976.419;   96.309;  -11.690;  857.400
976.973;   96.374;   -9.510;  849.620
977.526;   97.951;  -12.620;  949.920
978.080;   97.062;  -12.010;  796.780
978.634;   98.881;  -10.170;  921.320
979.187;   95.317;   -9.020;  905.400
979.741;   93.823;   -9.820; 1018.380
980.294;   88.192;  -14.870;  789.160
980.848;   87.229;  -12.380;  717.220
981.401;   88.262;  -10.350;  816.540
981.955;   90.792;  -13.720;  844.300
982.508;   89.889;  -11.490;  746.340
983.061;   90.294;  -10.000;  915.260
983.615;   86.305;  -11.480;  798.800
984.168;   82.412;  -13.220;  770.080
984.721;   82.545;  -13.960;  880.760
985.274;   82.278;  -10.870;  867.500
985.827;   79.815;   -9.790;  834.220
986.380;   78.381;  -13.120;  721.340
986.933;   77.857;  -12.450;  864.800
987.486;   77.100;  -10.210;  861.920
988.039;   74.985;   -8.430;  863.100
988.591;   72.527;  -10.520;  893.260
989.144;   70.337;  -14.860;  737.260
989.697;   69.976;  -13.080;  758.740
990.250;   70.901;  -10.150;  858.100
990.802;   68.909;  -13.430;  755.860
991.355;   70.754;  -12.750;  974.880
991.907;   68.349;  -12.040;  864.320
992.460;   65.943;  -11.330;  753.760
993.012;   65.402;  -13.610;  749.540
993.565;   64.467;  -13.460;  711.360
994.117;   66.284;   -9.360;  950.780
994.669;   62.450;  -11.300;  701.320
995.221;   60.694;  -13.540;  791.920
995.774;   58.927;  -13.430;  787.580
996.326;   57.079;  -12.520;  740.220
996.878;   57.203;  -10.950;  838.420
997.430;   54.705;  -14.300;  699.860
997.982;   54.527;  -13.760;  750.140
998.534;   53.800;  -11.530;  739.060
999.086;   52.289;  -10.310;  738.220
999.638;   51.363;  -12.530;  661.380
1000.190;   50.884;  -11.840;  699.320
1000.741;   50.656;  -10.260;  742.700
1001.293;   49.327;   -8.860;  686.020
1001.845;   48.273;  -13.700;  676.640
1002.396;   49.052;  -12.100;  743.400
1002.948;   48.608;  -12.760;  737.400
1003.500;   46.538;  -10.380;  723.780
1004.051;   47.032;  -11.900;  907.580
1004.603;   45.854;  -12.250;  791.820
1005.154;   42.094;  -13.210;  608.980
1005.705;   41.012;  -10.950;  723.960
1006.257;   40.767;  -13.880;  707.220
1006.808;   40.232;  -12.840;  685.460
1007.359;   40.503;  -10.570;  763.240
1007.910;   38.197;   -9.620;  646.640
1008.461;   38.957;  -13.630;  732.940
1009.013;   37.137;  -17.200;  588.340
1009.564;   39.248;  -10.200;  793.520
1010.115;   36.272;  -12.570;  597.040
1010.665;   35.917;  -15.150;  602.160
1011.216;   36.758;  -14.480;  667.920
1011.767;   36.072;  -11.340;  697.920
1012.318;   35.608;   -9.780;  736.980
1012.869;   34.823;  -12.380;  679.000
1013.419;   34.356;  -15.560;  603.120
1013.970;   34.365;  -11.010;  666.640
1014.521;   33.806;  -11.610;  620.620
1015.071;   34.055;  -13.450;  670.380
1015.622;   34.381;  -13.870;  635.460
1016.172;   33.024;  -11.610;  596.820
1016.723;   33.022;  -12.120;  614.380
1017.273;   32.688;  -13.620;  604.160
1017.823;   32.710;  -14.140;  650.340
1018.374;   32.405;  -12.800;  611.760
1018.924;   31.866;  -12.340;  716.880
1019.474;   32.261;  -11.410;  718.880
1020.024;   31.444;  -14.770;  657.580
1020.574;   32.011;   -9.780;  726.160
1021.124;   31.646;   -8.560;  673.580
1021.674;   30.185;  -15.190;  559.120
1022.224;   31.909;  -13.530;  708.940
1022.774;   31.060;  -13.280;  668.820
1023.324;   31.240;  -10.690;  753.520
1023.874;   31.964;  -10.240;  875.760
1024.423;   30.305;  -12.540;  613.700
1024.973;   29.523;  -10.010;  610.760
1025.523;   29.428;  -10.550;  620.960
1026.072;   28.779;  -13.560;  606.420
1026.622;   28.859;  -15.120;  675.740
1027.172;   29.421;  -11.260;  715.660
1027.721;   27.806;  -11.410;  601.220
1028.270;   28.538;  -13.530;  663.400
1028.820;   28.833;  -13.680;  638.080
1029.369;   27.859;  -13.520;  612.700
1029.918;   28.164;  -10.980;  649.840
1030.468;   27.221;  -13.530;  564.780
1031.017;   28.424;  -13.170;  634.800
1031.566;   27.057;  -12.200;  608.900
1032.115;   27.313;   -9.960;  694.500
1032.664;   25.613;  -13.210;  596.480
1033.213;   27.467;  -12.500;  735.420
1033.762;   27.085;  -11.910;  635.620
1034.311;   26.884;   -9.640;  677.220
1034.860;   26.546;  -13.310;  691.000
1035.408;   27.037;  -11.830;  722.720
1035.957;   26.699;  -12.000;  719.540
1036.506;   25.295;  -11.690;  530.800
1037.055;   27.159;  -10.990;  844.320
1037.603;   25.634;  -15.120;  664.000
1038.152;   23.704;  -12.450;  534.760
1038.700;   24.304;  -10.560;  585.740
1039.249;   24.331;  -11.080;  681.220
1039.797;   24.917;  -12.540;  633.360
1040.345;   24.435;  -11.920;  705.420
1040.894;   24.130;  -11.410;  625.300
1041.442;   23.437;  -14.320;  632.200
1041.990;   22.966;  -16.240;  559.160
1042.538;   22.868;  -11.680;  536.180
1043.087;   22.983;  -10.760;  570.860
1043.635;   24.005;  -11.850;  670.500
1044.183;   23.034;  -15.480;  586.400
1044.731;   22.987;  -11.770;  576.000
1045.279;   22.150;  -13.090;  674.920
1045.827;   23.904;  -12.440;  892.400
1046.374;   23.005;  -13.840;  515.420
1046.922;   22.113;  -13.220;  590.580
1047.470;   23.476;  -10.230;  691.300
1048.018;   22.193;  -14.590;  647.960
1048.565;   23.169;  -12.050;  708.600
1049.113;   21.894;  -11.650;  557.000
1049.660;   20.753;  -10.510;  629.660
1050.208;   21.047;  -13.310;  675.640
1050.755;   20.959;  -15.900;  606.580
1051.303;   22.043;  -11.430;  686.820
1051.850;   21.073;   -8.480;  635.120
1052.397;   19.605;  -15.010;  473.960
1052.945;   20.113;  -13.960;  617.760
1053.492;   22.036;  -13.150;  741.840
1054.039;   21.617;   -9.630;  720.180
1054.586;   19.878;  -13.680;  557.240
1055.133;   20.534;  -14.570;  693.140
1055.680;   20.983;  -13.820;  646.620
1056.227;   19.200;  -11.730;  542.780
1056.774;   20.704;  -12.480;  794.980
1057.321;   19.385;  -13.930;  523.260
1057.868;   19.150;  -11.690;  651.320
1058.415;   18.430;   -9.520;  651.980
1058.961;   19.487;  -13.160;  678.940
1059.508;   19.616;  -12.920;  643.820
1060.055;   19.338;  -11.920;  581.780
1060.601;   19.116;  -11.500;  624.300
1061.148;   18.242;  -14.330;  616.820
1061.694;   18.470;  -16.870;  592.580
1062.241;   18.334;  -10.330;  596.320
1062.787;   18.679;  -10.620;  663.140
1063.334;   19.760;  -10.110;  808.560
1063.880;   18.914;  -13.400;  668.360
1064.426;   19.246;  -10.680;  706.820
1064.972;   16.680;   -9.920;  601.340
1065.518;   15.781;  -10.980;  566.640
1066.065;   17.706;  -14.890;  624.460
1066.611;   17.315;  -12.870;  598.800
1067.157;   17.836;  -12.950;  641.860
1067.703;   16.960;  -13.540;  668.480
1068.249;   17.002;  -13.540;  605.220
1068.794;   16.862;  -12.600;  626.880
1069.340;   15.740;  -10.620;  578.960
1069.886;   16.488;  -12.830;  590.700
1070.432;   15.154;  -14.870;  541.720
1070.977;   16.050;  -11.980;  601.080
1071.523;   16.128;   -8.200;  573.060
1072.068;   15.570;  -12.330;  582.000
1072.614;   15.855;  -16.370;  527.760
1073.160;   17.646;  -11.100;  687.040
1073.705;   15.394;  -10.480;  572.520
1074.250;   14.284;  -14.520;  559.900
1074.796;   16.671;  -11.460;  655.160
1075.341;   16.110;  -11.950;  664.100
1075.886;   15.060;  -11.460;  594.240
1076.431;   14.689;  -13.770;  649.880
1076.976;   14.478;  -12.680;  639.220
1077.521;   13.609;  -13.170;  583.080
1078.067;   13.850;  -10.860;  579.400
1078.612;   14.175;  -13.920;  661.620
1079.156;   14.817;  -13.880;  601.540
1079.701;   15.148;  -13.120;  693.260
1080.246;   14.507;   -9.940;  696.300
1080.791;   14.276;  -14.740;  625.020
1081.336;   14.322;  -13.750;  659.320
1081.880;   14.226;  -13.400;  649.680
1082.425;   13.242;  -12.220;  573.480
1082.970;   14.530;  -11.610;  717.040
1083.514;   13.228;  -13.580;  597.000
1084.059;   12.964;  -12.810;  586.720
1084.603;   12.379;  -12.320;  565.840
1085.147;   12.606;  -13.190;  645.220
1085.692;   14.256;  -12.480;  716.800
1086.236;   12.659;  -13.020;  503.140
1086.780;   13.891;   -9.190;  751.440
1087.325;   12.854;  -12.480;  654.620
1087.869;   13.108;  -12.450;  610.700
1088.413;   13.396;  -12.240;  705.040
1088.957;   10.886;   -9.020;  543.400
1089.501;   12.891;  -10.320;  766.640
1090.045;   12.397;  -12.720;  726.480
1090.589;   10.641;  -13.690;  569.920
1091.133;   12.096;  -10.020;  673.340
1091.676;   12.378;  -12.330;  591.940
1092.220;   11.184;  -14.970;  600.920
1092.764;   12.647;  -12.430;  706.960
1093.307;   11.668;   -9.800;  673.780
1093.851;   10.135;  -14.970;  556.540
1094.395;   11.572;  -15.310;  683.140
1094.938;   10.390;  -10.370;  632.520
1095.482;   10.488;  -11.050;  559.800
1096.025;   10.850;  -11.840;  710.880
1096.568;   12.003;  -12.840;  779.280
1097.112;    9.560;  -14.700;  508.180
1097.655;   10.938;   -8.720;  603.000
1098.198;    9.130;  -13.610;  600.180
1098.741;   10.043;  -13.350;  612.860
1099.285;   11.118;  -11.230;  657.300
1099.828;    8.703;  -11.840;  439.400
1100.371;    9.685;  -10.840;  608.160
1100.914;    9.582;  -14.190;  682.660
1101.457;   10.025;  -11.240;  679.900
1101.999;    8.423;  -11.270;  584.680
1102.542;    9.781;  -11.480;  641.440
1103.085;    8.705;  -11.750;  658.500
1103.628;    9.597;  -11.400;  762.060
1104.170;    8.839;  -10.490;  588.280
1104.713;    9.235;  -10.600;  646.700
1105.256;    8.976;  -14.360;  557.440
1105.798;    8.619;  -13.210;  499.980
1106.341;   10.031;  -10.270;  728.900
1106.883;    8.120;  -12.200;  521.340
1107.425;    8.603;  -13.110;  668.180
1107.968;    8.326;  -12.840;  612.380
1108.510;    8.249;   -6.480;  684.960
1109.052;    7.332;  -13.940;  612.620
1109.594;    8.156;  -13.690;  554.440
1110.136;    9.027;  -11.880;  643.220
1110.679;    7.945;   -9.500;  633.080
1111.221;    7.986;  -14.160;  604.460
1111.763;    7.225;  -13.980;  559.220
1112.304;    6.582;  -13.880;  547.140
1112.846;    7.722;  -12.210;  666.240
1113.388;   10.390;  -11.390;  942.180
1113.930;    7.374;  -14.540;  694.200
1114.472;    7.133;  -12.640;  606.540
1115.013;    5.356;  -11.620;  551.280
1115.555;    6.396;  -13.640;  587.100
1116.097;    5.704;  -15.380;  579.480
1116.638;    7.156;  -12.640;  684.600
1117.180;    6.687;   -9.850;  667.740
1117.721;    6.364;  -13.690;  568.580
1118.262;    7.158;  -12.680;  677.960
1118.804;    6.998;  -12.530;  637.340
1119.345;    5.492;  -11.690;  578.400
1119.886;    7.097;  -13.380;  704.040
1120.427;    5.351;  -14.070;  589.020
1120.969;    5.785;  -13.500;  597.920
1121.510;    4.486;  -11.480;  563.060
1122.051;    5.734;  -12.830;  723.580
1122.592;    5.011;  -14.290;  655.420
1123.133;    4.336;  -12.400;  547.940
1123.673;    6.580;  -10.130;  706.480
1124.214;    6.127;  -12.930;  612.460
1124.755;    5.970;  -14.380;  639.460
1125.296;    5.729;  -14.000;  627.320
1125.836;    5.830;  -10.070;  691.500
1126.377;    4.889;  -12.640;  599.660
1126.918;    4.998;  -12.960;  614.980
1127.458;    4.644;  -13.350;  622.220
1127.999;    4.935;  -10.750;  656.980
1128.539;    4.570;  -12.350;  694.240
1129.079;    4.037;  -14.860;  632.720
1129.620;    3.942;  -13.840;  558.100
1130.160;    4.104;  -12.330;  539.480
1130.700;    4.751;  -14.530;  640.840
1131.240;    5.546;  -12.530;  643.700
1131.781;    4.503;  -14.450;  619.680
1132.321;    3.879;   -9.790;  599.120
1132.861;    2.503;  -14.860;  564.200
1133.401;    3.509;  -14.290;  593.940
1133.941;    3.563;  -11.750;  626.280
1134.481;    3.066;   -9.920;  597.580
1135.020;    2.708;  -12.290;  609.160
1135.560;    3.890;  -11.650;  674.940
1136.100;    3.260;  -16.270;  501.160
1136.640;    2.354;  -10.890;  510.480
1137.179;    2.657;  -14.180;  537.960
1137.719;    2.985;  -16.250;  605.400
1138.258;    3.387;  -14.230;  587.360
1138.798;    3.059;   -9.090;  663.780
1139.337;    1.846;  -15.130;  482.840
1139.877;    2.894;  -13.680;  642.360
1140.416;    5.442;  -11.320;  878.060
1140.955;    1.611;  -10.860;  535.380
1141.494;    2.227;  -12.920;  669.280
1142.034;    2.572;  -13.930;  583.520
1142.573;    3.180;  -11.440;  646.280
1143.112;    1.642;  -12.000;  553.480
1143.651;    1.771;  -13.670;  536.480
1144.190;    3.256;  -12.730;  691.640
1144.729;    2.623;  -14.560;  607.420
1145.267;    2.184;  -11.830;  584.900
1145.806;    2.408;  -12.230;  637.040
1146.345;    1.255;  -14.130;  635.020
1146.884;    1.687;  -11.590;  622.500
1147.422;    0.553;  -12.550;  533.060
1147.961;    2.900;  -11.180;  708.460
1148.500;    2.290;  -11.510;  669.720
1149.038;    3.099;  -11.640;  632.500
1149.577;    2.157;  -10.130;  698.640
1150.115;   -0.001;  -13.970;  452.280
1150.653;    1.878;  -14.520;  607.340
1151.192;    2.055;  -12.810;  552.920
1151.730;    1.309;   -9.100;  652.560
1152.268;    0.457;  -12.220;  589.520
1152.806;    0.595;  -14.140;  571.180
1153.344;    0.001;  -12.350;  577.640
1153.882;    0.860;   -8.980;  600.060
1154.421;   -0.947;  -15.190;  470.620
1154.958;    0.065;  -15.210;  595.240
1155.496;    1.835;  -12.850;  645.280
1156.034;    0.924;   -9.940;  721.880
1156.572;    1.355;  -13.570;  667.060
1157.110;   -0.573;  -14.590;  473.940
1157.647;    0.678;  -13.030;  676.960
1158.185;   -0.342;  -12.140;  564.320
1158.723;   -1.907;  -14.390;  509.200
1159.260;    0.401;  -14.090;  701.700
1159.798;    1.055;  -11.920;  658.160
1160.335;   -0.633;  -11.110;  631.820

