
Integration time [ms]:   3.882
Averaging Nr. [scans]: 1000
Smoothing Nr. [pixels]: 0
Data measured with spectrometer [name]: 7414430SP
Wave   ;Sample   ;Dark     ;Reference
[nm]   ;[counts] ;[counts] ;[counts] 

288.544;  139.724;    7.153;  793.890
289.143;  143.092;    8.402;  681.602
289.742;  144.172;    7.062;  828.814
290.341;  131.998;    0.191;  789.841
290.940;  122.334;    0.321;  730.702
291.538;  124.053;    3.811;  881.108
292.137;  121.695;   -3.438;  792.581
292.736;  124.276;   -2.809;  975.101
293.335;  121.182;   -5.239;  735.086
293.934;  122.427;   -4.939;  781.677
294.532;  122.587;   -2.199; 1031.958
295.131;  108.742;   -6.831;  834.394
295.730;  108.230;   -6.620;  809.588
296.328;  106.116;   -6.471;  783.442
296.927;  105.013;   -6.571;  779.652
297.525;  106.589;   -7.391;  781.236
298.124;   98.207;   -9.402;  654.009
298.722;  103.091;   -5.781;  761.933
299.321;  100.866;   -6.351;  708.597
299.919;   97.776;   -8.661;  751.918
300.518;   94.083;  -11.922;  689.338
301.116;   95.782;   -6.941;  691.381
301.715;   96.061;   -5.471;  730.222
302.313;   95.214;   -8.361;  704.943
302.911;   90.970;   -9.082;  733.830
303.509;   96.586;   -4.571;  925.627
304.108;   93.569;   -7.111;  760.383
304.706;   92.472;   -7.681;  801.664
305.304;   88.216;   -9.162;  796.707
305.902;   93.536;   -6.761;  784.484
306.500;   89.117;   -6.921;  728.200
307.098;   87.756;   -6.491;  746.560
307.696;   85.478;   -6.941;  780.432
308.294;   85.826;   -6.301;  731.359
308.892;   88.046;   -4.771;  759.769
309.490;   82.643;   -5.141;  712.161
310.088;   82.524;   -2.912;  788.444
310.686;   87.337;   -0.421;  821.749
311.284;   83.176;   -3.461;  766.040
311.882;   79.980;   -6.282;  731.225
312.480;   77.616;   -3.632;  697.167
313.078;   79.333;   -2.112;  808.331
313.675;   79.527;   -1.931;  691.600
314.273;   74.896;   -1.442;  797.837
314.871;   74.703;   -3.002;  589.829
315.468;   72.799;   -2.252;  652.090
316.066;   74.983;   -1.091;  694.427
316.664;   68.296;   -4.512;  656.351
317.261;   73.499;   -0.062;  910.128
317.859;   68.186;   -0.952;  768.735
318.456;   69.944;    0.719;  830.096
319.054;   65.204;   -4.002;  787.828
319.651;   65.004;   -4.972;  759.928
320.249;   63.857;   -1.162;  810.188
320.846;   60.783;   -2.651;  714.286
321.443;   59.176;   -3.832;  832.135
322.041;   56.204;   -4.312;  812.315
322.638;   54.163;   -3.872;  701.456
323.235;   55.403;   -4.361;  665.683
323.833;   52.874;   -4.821;  740.354
324.430;   48.639;   -6.971;  615.900
325.027;   50.710;   -4.361;  876.855
325.624;   50.301;   -5.581;  644.532
326.221;   47.001;   -6.601;  689.717
326.818;   47.325;   -7.301;  818.332
327.415;   49.311;   -6.180;  748.828
328.012;   48.508;   -5.920;  690.585
328.609;   46.589;   -8.390;  731.389
329.206;   45.267;   -6.121;  778.621
329.803;   45.424;   -5.241;  737.841
330.400;   47.040;   -7.420;  704.260
330.997;   48.586;   -5.931;  817.147
331.594;   46.486;   -5.641;  788.185
332.191;   51.894;   -6.451;  728.722
332.787;   54.349;   -4.651;  844.463
333.384;   53.014;   -5.472;  763.093
333.981;   50.523;   -6.303;  815.687
334.578;   53.858;   -5.892;  708.378
335.174;   55.012;   -4.102;  731.469
335.771;   54.115;   -8.053;  836.456
336.367;   51.615;   -7.363;  710.631
336.964;   56.525;   -6.243;  793.266
337.561;   55.067;   -5.653;  731.112
338.157;   49.856;   -7.074;  911.916
338.754;   47.484;   -5.474;  796.589
339.350;   46.420;   -5.624;  722.493
339.946;   48.347;   -5.054;  773.135
340.543;   41.310;   -6.695;  846.136
341.139;   35.460;   -6.215;  720.836
341.735;   34.172;   -5.746;  772.593
342.332;   32.967;   -7.335;  691.472
342.928;   33.452;   -4.835;  795.394
343.524;   27.471;   -4.586;  761.684
344.120;   25.393;   -3.946;  738.562
344.716;   26.711;   -4.835;  723.717
345.313;   25.679;   -5.325;  795.342
345.909;   20.721;   -6.535;  627.336
346.505;   22.940;   -4.725;  740.247
347.101;   22.981;   -4.164;  827.864
347.697;   23.507;   -5.274;  785.398
348.293;   17.447;   -7.145;  627.244
348.889;   18.052;   -4.364;  745.914
349.485;   17.858;   -6.404;  688.205
350.081;   18.557;   -7.534;  772.592
350.676;   14.554;   -6.995;  691.606
351.272;   19.322;   -3.544;  809.530
351.868;   18.449;   -5.324;  780.497
352.464;   16.010;   -7.204;  723.932
353.059;   11.769;   -6.894;  646.017
353.655;   15.743;   -3.754;  777.063
354.251;   16.795;   -6.143;  759.845
354.846;   11.226;   -9.464;  740.646
355.442;    9.086;   -7.555;  753.071
356.038;   10.911;   -5.474;  751.708
356.633;   11.180;   -5.914;  728.594
357.229;    9.334;   -8.944;  724.757
357.824;    8.324;   -6.794;  703.600
358.420;    6.495;   -5.754;  679.726
359.015;    7.367;   -5.664;  695.357
359.610;    8.665;   -8.004;  763.920
360.206;    2.329;   -8.815;  603.240
360.801;    5.226;   -8.834;  646.503
361.396;    7.869;   -6.274;  725.975
361.992;    3.560;   -8.574;  668.220
362.587;    0.102;   -9.265;  670.160
363.182;    3.077;   -5.484;  689.631
363.777;    3.616;   -5.164;  738.242
364.372;    3.219;   -6.954;  737.314
364.967;   -0.440;   -7.065;  680.744
365.563;    5.115;   -5.684;  815.567
366.158;    1.330;   -6.484;  685.161
366.753;    0.916;   -8.004;  649.263
367.348;   -0.002;  -10.114;  746.056
367.942;    0.224;   -7.764;  697.298
368.537;   -1.318;   -4.554;  754.245
369.132;   -0.779;   -7.664;  703.428
369.727;   -5.055;   -8.905;  638.079
370.322;   -3.319;   -4.945;  580.186
370.917;   -3.624;   -7.095;  710.646
371.511;   -0.340;   -6.574;  861.834
372.106;   -4.138;   -6.515;  776.964
372.701;   -7.139;   -8.225;  585.988
373.296;   -1.107;   -4.494;  863.135
373.890;   -7.096;   -7.965;  647.840
374.485;   -8.937;   -9.745;  691.199
375.079;   -5.240;   -5.554;  738.685
375.674;   -2.742;   -4.724;  812.970
376.268;   -7.982;   -8.365;  691.759
376.863;  -13.598;   -8.126;  580.327
377.457;   -7.219;   -6.045;  662.490
378.052;   -8.304;   -6.835;  764.884
378.646;   -9.353;   -9.375;  741.167
379.240;   -9.828;   -6.185;  721.176
379.835;   -8.870;   -6.135;  636.978
380.429;  -10.229;   -8.365;  562.557
381.023;  -10.104;   -7.935;  779.205
381.617;  -13.191;   -8.325;  680.106
382.212;   -9.643;   -7.405;  685.303
382.806;   -9.058;   -4.155;  760.690
383.400;  -13.398;   -8.945;  672.281
383.994;  -13.813;   -8.365;  664.870
384.588;   -9.759;   -7.824;  697.701
385.182;   -8.052;   -7.984;  726.624
385.776;   -9.604;  -10.404;  706.875
386.370;  -13.275;   -7.335;  681.968
386.964;  -11.687;   -7.485;  684.155
387.558;  -10.203;   -8.174;  598.360
388.152;  -13.324;  -10.415;  681.959
388.745;  -11.729;   -9.595;  814.707
389.339;  -10.025;   -6.454;  747.642
389.933;   -8.839;   -5.804;  695.370
390.527;   -9.909;   -6.854;  859.029
391.120;  -16.740;   -7.665;  595.318
391.714;  -12.787;   -7.245;  711.633
392.308;  -10.195;   -4.514;  780.253
392.901;  -13.591;   -7.935;  642.460
393.495;  -15.706;   -8.585;  595.414
394.089;  -13.150;   -5.245;  760.452
394.682;  -14.195;   -6.305;  697.188
395.275;  -15.230;   -9.335;  719.927
395.869;  -15.787;   -7.375;  667.314
396.462;  -14.086;   -7.055;  616.609
397.056;   -9.791;   -5.434;  776.621
397.649;  -14.584;   -9.525;  731.575
398.242;  -11.713;   -7.574;  712.645
398.836;  -11.366;   -5.134;  766.408
399.429;  -12.255;   -6.544;  631.041
400.022;  -15.990;   -9.215;  665.902
400.615;  -13.391;   -8.105;  805.609
401.208;  -11.349;   -7.614;  691.451
401.802;  -13.608;   -8.085;  699.329
402.395;  -15.272;   -9.575;  683.502
402.988;  -15.991;   -9.285;  696.627
403.581;  -12.174;   -7.514;  646.878
404.174;  -10.206;   -6.404;  686.568
404.767;  -13.265;   -8.775;  638.583
405.360;  -15.890;   -7.415;  621.445
405.953;   -9.694;   -5.624;  759.034
406.545;   -9.688;   -6.474;  725.342
407.138;  -14.178;   -8.445;  618.350
407.731;  -13.043;  -10.044;  613.303
408.324;   -9.315;   -8.484;  660.554
408.917;   -8.865;   -7.624;  681.864
409.509;  -10.630;   -8.304;  740.396
410.102;  -13.778;   -8.495;  643.948
410.695;   -7.690;   -7.824;  665.758
411.287;   -8.239;   -7.754;  599.821
411.880;   -9.526;   -9.294;  585.421
412.472;  -12.161;   -8.814;  613.092
413.065;   -9.505;   -6.674;  629.408
413.657;   -7.706;   -9.664;  576.678
414.250;   -7.094;  -10.264;  646.681
414.842;   -8.678;   -8.664;  676.353
415.434;   -6.658;   -8.584;  570.463
416.027;   -2.668;   -9.423;  652.196
416.619;   -4.697;  -10.764;  713.400
417.211;   -5.694;   -7.404;  599.352
417.804;   -1.544;   -7.383;  628.499
418.396;   -4.820;   -8.334;  607.643
418.988;   -3.626;   -9.633;  659.238
419.580;   -6.211;  -10.554;  568.276
420.172;   -4.604;   -8.683;  536.196
420.764;   -0.643;   -9.713;  672.482
421.356;   -1.251;  -11.303;  636.898
421.948;   -2.452;   -8.453;  677.661
422.540;    3.128;   -5.793;  680.027
423.132;    2.452;   -7.162;  600.641
423.724;   -2.028;   -7.933;  561.267
424.316;    0.644;   -9.083;  621.345
424.908;    5.561;   -8.392;  591.517
425.500;    4.748;   -8.062;  647.978
426.092;    6.000;   -9.692;  648.268
426.683;    4.963;   -8.223;  684.836
427.275;    7.820;   -8.602;  641.471
427.867;    9.417;   -8.382;  668.948
428.458;    8.737;  -10.472;  732.344
429.050;    7.539;   -9.112;  680.749
429.642;   10.795;   -7.752;  743.124
430.233;   11.098;   -8.832;  569.356
430.825;   11.627;   -8.292;  724.809
431.416;    9.020;   -7.522;  698.241
432.008;   12.671;   -9.262;  651.723
432.599;   13.581;   -6.441;  656.073
433.190;   10.700;   -9.222;  637.670
433.782;    9.475;  -11.832;  590.395
434.373;   18.221;   -7.121;  884.765
434.964;   16.482;   -9.141;  602.920
435.556;   13.591;   -9.332;  634.537
436.147;   16.642;   -8.892;  758.490
436.738;   16.538;   -8.151;  701.099
437.329;   21.871;   -8.281;  721.723
437.920;   15.111;   -9.062;  666.688
438.511;   14.508;  -11.182;  564.526
439.103;   21.697;   -7.461;  623.998
439.694;   23.543;   -8.541;  681.583
440.285;   23.926;   -7.351;  764.432
440.876;   22.809;   -8.201;  845.738
441.466;   21.838;  -10.381;  575.162
442.057;   27.061;   -7.620;  665.814
442.648;   25.308;   -8.461;  746.255
443.239;   23.773;   -8.991;  620.477
443.830;   28.707;   -7.910;  704.958
444.421;   31.002;   -7.340;  655.474
445.011;   27.790;   -8.981;  693.619
445.602;   26.702;   -9.341;  743.126
446.193;   28.634;  -11.390;  488.117
446.783;   33.777;  -11.240;  640.397
447.374;   29.181;   -8.471;  692.759
447.964;   29.497;   -8.471;  713.770
448.555;   38.549;   -6.590;  822.742
449.145;   34.511;   -8.200;  662.853
449.736;   35.377;  -11.040;  803.179
450.326;   34.229;   -9.640;  713.626
450.917;   39.761;   -9.480;  675.324
451.507;   38.933;   -8.020;  600.661
452.097;   39.697;  -10.210;  746.267
452.688;   40.976;   -7.810;  742.160
453.278;   40.253;   -9.360;  566.840
453.868;   46.258;   -8.669;  793.550
454.458;   42.336;  -10.950;  651.141
455.048;   43.430;  -10.200;  711.783
455.639;   45.028;   -9.369;  567.096
456.229;   48.752;   -7.739;  710.694
456.819;   50.561;   -8.939;  751.158
457.409;   50.301;   -7.169;  773.993
457.999;   53.256;   -7.779;  737.505
458.589;   53.573;   -7.039;  686.606
459.179;   53.514;   -9.019;  717.658
459.769;   51.322;   -8.909;  627.099
460.358;   56.277;   -8.659;  797.262
460.948;   56.843;   -8.209;  689.503
461.538;   57.906;   -9.879;  660.677
462.128;   56.214;   -9.379;  664.934
462.717;   62.365;   -9.158;  710.326
463.307;   65.919;   -8.638;  705.846
463.897;   60.680;   -8.869;  656.942
464.486;   60.620;   -7.409;  837.128
465.076;   65.401;   -9.618;  733.776
465.666;   68.871;   -7.578;  652.900
466.255;   66.741;   -9.369;  785.651
466.845;   65.478;  -10.049;  666.749
467.434;   68.753;   -8.168;  725.873
468.023;   70.445;   -9.188;  658.357
468.613;   67.301;   -9.849;  713.946
469.202;   70.379;  -12.958;  646.507
469.791;   76.216;   -9.488;  737.811
470.381;   77.941;   -6.468;  742.813
470.970;   77.697;  -10.248;  711.099
471.559;   77.561;  -11.428;  733.291
472.148;   80.757;   -9.738;  675.737
472.738;   83.255;   -7.877;  765.466
473.327;   82.991;  -11.868;  637.529
473.916;   82.039;   -8.578;  737.446
474.505;   86.644;  -11.137;  751.703
475.094;   89.947;   -9.407;  806.570
475.683;   88.513;   -9.977;  797.699
476.272;   89.973;  -10.807;  730.632
476.861;   93.386;  -11.017;  706.754
477.449;   98.950;  -10.316;  728.487
478.038;   93.310;  -10.187;  692.513
478.627;   94.661;  -12.458;  714.852
479.216;  101.334;  -10.127;  769.441
479.805;  105.140;   -6.256;  783.375
480.393;  104.145;   -8.737; 1008.945
480.982;  102.033;   -9.087;  874.501
481.571;  109.384;   -7.806;  858.333
482.159;  110.212;  -10.596;  705.386
482.748;  108.695;  -11.507;  821.385
483.336;  114.238;   -8.366;  858.209
483.925;  114.652;   -7.497;  774.373
484.513;  120.661;   -8.326;  758.962
485.102;  118.128;  -10.277;  810.965
485.690;  126.658;   -8.256; 1011.050
486.278;  129.141;   -7.146;  979.329
486.867;  129.478;   -7.986;  809.662
487.455;  131.035;   -9.926;  898.229
488.043;  131.888;  -10.026;  748.361
488.631;  141.452;   -7.226; 1005.079
489.220;  145.793;   -8.696;  908.626
489.808;  145.020;  -12.276;  741.415
490.396;  152.813;   -9.386;  914.645
490.984;  158.780;   -8.506;  830.161
491.572;  167.897;   -8.226;  940.315
492.160;  174.235;   -9.836;  919.081
492.748;  184.624;  -10.316;  884.341
493.336;  204.423;   -7.146; 1019.693
493.924;  226.757;   -7.965;  958.077
494.512;  253.124;  -10.316; 1066.638
495.100;  289.954;  -10.186; 1103.280
495.687;  341.846;   -7.805; 1206.373
496.275;  403.957;   -9.686; 1150.796
496.863;  481.328;  -11.566; 1281.171
497.451;  574.023;  -11.406; 1386.805
498.038;  705.256;   -8.235; 1556.729
498.626;  822.612;   -7.485; 1741.407
499.214;  980.559;   -8.646; 2016.609
499.801; 1226.954;   -9.936; 2220.633
500.389; 1411.481;   -8.056; 2312.494
500.976; 1591.040;   -6.166; 2744.849
501.564; 1791.384;   -9.126; 3148.565
502.151; 2084.262;  -12.456; 3515.999
502.738; 2496.058;  -10.056; 3971.274
503.326; 2924.960;  -10.605; 4403.796
503.913; 3278.294;  -10.576; 5161.749
504.500; 3791.922;   -9.056; 5986.420
505.088; 4284.126;  -10.136; 6381.201
505.675; 5033.911;   -9.075; 6925.547
506.262; 5595.672;  -11.346; 7619.060
506.849; 6323.379;   -9.376; 8733.969
507.436; 6901.046;   -7.365; 9790.121
508.023; 7247.597;   -8.686; 9985.472
508.610; 7697.986;   -8.846;10434.618
509.197; 8742.524;   -9.077;11198.435
509.784;10084.420;  -10.246;12391.194
510.371;10554.406;   -9.825;13603.713
510.958;11207.064;  -10.896;14426.586
511.545;12055.768;   -9.006;15243.775
512.132;12962.861;   -8.765;15945.876
512.719;13994.851;   -8.286;16340.369
513.305;16026.812;   -9.256;18011.766
513.892;18296.209;  -11.106;19754.971
514.479;19945.795;   -8.576;20967.805
515.066;21282.842;   -9.046;22299.793
515.652;21841.623;  -10.676;22908.660
516.239;23366.277;  -10.166;23798.875
516.825;23934.479;  -11.266;25567.275
517.412;23399.004;   -7.446;28154.959
517.998;23954.611;  -10.916;28344.111
518.585;23388.598;   -9.166;27134.219
519.171;23110.912;  -10.135;27268.576
519.758;24724.438;   -8.806;28964.129
520.344;27968.555;   -6.716;30664.494
520.930;29980.090;  -10.166;32550.605
521.516;30237.830;   -9.615;35422.895
522.103;31486.693;   -8.656;38280.004
522.689;34091.695;   -9.646;37835.117
523.275;35035.465;  -10.786;37288.613
523.861;35941.258;   -9.266;37281.395
524.447;36013.441;   -8.285;37846.949
525.033;36002.730;   -9.426;38321.949
525.619;35402.871;   -9.836;38579.285
526.205;36219.578;   -8.136;40622.875
526.791;37241.328;   -9.986;42258.836
527.377;39003.988;   -8.236;42966.902
527.963;38111.984;  -12.117;42018.949
528.549;36452.758;   -8.376;42476.828
529.135;37251.051;   -8.696;41854.852
529.721;38751.313;   -9.686;41237.711
530.306;41072.461;   -8.616;41259.445
530.892;44544.887;   -9.396;41506.047
531.478;44950.508;   -9.926;43559.613
532.063;46349.902;  -10.236;47695.563
532.649;48773.730;   -8.257;50808.324
533.235;50633.207;  -11.476;51787.500
533.820;49730.855;   -8.156;52145.035
534.406;47668.406;  -12.257;51133.488
534.991;45363.063;   -8.686;49996.805
535.576;43122.648;   -9.426;48882.852
536.162;43402.695;   -8.436;46942.285
536.747;42602.563;  -10.957;45711.746
537.333;41346.395;  -13.147;48510.180
537.918;44427.230;   -9.027;50439.891
538.503;45897.684;   -8.256;50863.711
539.088;49419.426;  -10.576;50906.922
539.673;51228.168;  -10.907;52621.965
540.259;51412.086;   -9.126;52368.094
540.844;48674.418;   -9.026;50879.109
541.429;49669.316;   -9.597;52077.777
542.014;53646.035;  -11.447;52716.695
542.599;55010.992;   -9.236;52363.281
543.184;52778.781;  -12.267;53187.137
543.769;54303.895;  -10.367;54697.605
544.354;54928.555;  -10.887;53913.914
544.938;48847.020;  -11.687;49680.164
545.523;43808.383;   -8.286;47386.277
546.108;44886.684;   -9.317;49151.949
546.693;47074.055;  -10.187;51384.637
547.278;46185.680;   -9.926;51853.254
547.862;45182.520;   -9.196;51173.750
548.447;44005.148;   -9.657;51691.395
549.031;43739.492;   -9.127;52456.703
549.616;47570.785;  -10.836;52714.516
550.201;51384.207;   -8.507;52414.598
550.785;52077.082;  -10.537;52355.059
551.370;51807.262;  -11.727;54589.453
551.954;52281.230;   -9.457;58267.348
552.538;52021.832;   -8.147;59062.176
553.123;50071.000;   -9.397;58115.285
553.707;47710.734;   -9.558;56556.285
554.291;48898.359;   -9.417;56201.668
554.876;49307.297;   -7.627;55335.762
555.460;47290.305;  -10.457;54155.703
556.044;44637.879;  -10.078;53721.484
556.628;44811.047;   -9.407;53731.016
557.212;44930.977;   -7.957;54312.531
557.796;44914.742;  -11.327;53797.773
558.380;49175.773;  -10.868;56145.984
558.964;50599.641;   -9.637;57277.930
559.548;48796.875;   -8.807;56459.641
560.132;49658.000;  -10.187;54434.543
560.716;49211.504;   -9.868;54800.617
561.300;50117.496;  -10.217;57606.945
561.884;50488.461;   -4.947;58972.445
562.467;49581.379;   -9.588;57327.570
563.051;47922.848;  -11.138;54962.434
563.635;45974.910;   -9.358;52594.473
564.219;45500.418;   -9.797;50610.410
564.802;45941.879;   -9.918;49551.180
565.386;43515.980;  -10.838;48370.953
565.969;42475.344;   -8.037;48178.871
566.553;41939.402;   -5.667;49957.305
567.136;40444.063;   -8.258;50369.594
567.720;40073.930;  -11.278;49492.004
568.303;42799.191;   -9.028;50616.352
568.887;42797.492;   -7.508;50727.148
569.470;41314.027;  -11.068;51698.379
570.053;41616.199;  -10.028;52122.078
570.637;40209.566;  -11.077;52536.438
571.220;39993.129;   -8.747;51186.098
571.803;41733.496;   -8.868;51032.762
572.386;43891.617;  -10.608;49609.887
572.969;43613.762;  -10.548;48285.926
573.552;40852.117;   -7.898;47624.285
574.135;41477.234;   -9.918;45498.641
574.718;37530.781;  -10.328;41970.434
575.301;34544.383;   -9.548;41447.137
575.884;31557.986;   -8.768;40923.836
576.467;35263.160;   -9.858;45267.723
577.050;35712.383;  -11.018;48175.543
577.633;36519.383;  -10.048;47729.328
578.216;35553.215;  -10.268;47579.793
578.799;32786.848;  -11.808;47820.996
579.381;32640.025;   -7.338;48115.551
579.964;35697.926;   -9.728;47333.766
580.547;37121.340;   -8.928;46668.969
581.129;38454.309;   -9.149;44466.141
581.712;38986.473;  -11.359;44164.922
582.294;36716.566;  -10.738;46477.855
582.877;35060.664;   -8.788;48244.254
583.459;35081.598;   -9.859;47437.895
584.042;37484.809;   -9.649;46943.219
584.624;37407.004;  -10.529;46792.227
585.206;35639.969;  -10.298;46557.250
585.789;35053.617;  -11.029;45793.773
586.371;33004.027;   -9.359;43836.391
586.953;32598.516;   -8.799;42972.492
587.536;32652.389;   -8.928;42487.211
588.118;32577.127;   -9.180;42086.414
588.700;31932.527;  -10.519;43389.930
589.282;30762.969;   -8.098;43646.039
589.864;30691.203;   -8.139;43438.109
590.446;32080.924;  -10.509;43151.926
591.028;32678.490;  -11.119;42781.867
591.610;34515.926;  -10.019;42839.098
592.192;34611.691;   -8.838;42820.402
592.774;31286.633;  -11.549;40724.277
593.356;28305.631;  -11.609;39874.789
593.937;27632.543;  -10.019;39980.648
594.519;29792.707;   -7.839;42069.633
595.101;32546.568;  -10.779;42976.031
595.683;34113.961;  -10.049;44084.441
596.264;34025.133;   -9.969;43478.797
596.846;33625.574;   -9.699;43803.672
597.427;32660.982;  -10.970;42986.934
598.009;32186.555;  -13.090;42832.219
598.591;31435.039;   -9.509;42580.086
599.172;31472.045;   -9.019;43061.805
599.753;31972.094;  -13.310;41691.469
600.335;32930.098;  -11.010;40692.520
600.916;32251.328;  -10.309;39982.422
601.498;31163.996;   -8.209;40318.617
602.079;30936.043;  -11.440;40670.609
602.660;32494.678;   -8.690;41450.898
603.241;34019.414;  -12.759;41137.738
603.823;32683.172;  -10.409;38868.797
604.404;32076.639;  -11.790;38182.785
604.985;33629.527;  -10.280;38078.047
605.566;35198.926;   -8.059;38056.633
606.147;32616.516;   -8.960;37020.418
606.728;30106.197;  -10.710;37883.359
607.309;29414.387;  -12.760;38748.273
607.890;28015.734;   -9.959;38850.230
608.471;28171.422;   -9.780;37457.918
609.051;29732.752;   -8.940;36066.457
609.632;30648.203;  -12.070;35991.074
610.213;30911.992;   -9.610;37402.641
610.794;31273.084;   -8.750;38383.363
611.374;31755.416;  -11.100;40562.387
611.955;32101.133;  -12.200;38533.727
612.536;32136.117;  -10.410;36951.789
613.116;31414.363;  -10.010;37197.891
613.697;29658.943;  -10.480;38411.125
614.277;29462.896;  -12.751;38673.938
614.858;28415.537;  -11.600;37075.863
615.438;28117.832;   -8.190;35092.906
616.019;26771.242;   -8.941;33666.301
616.599;28311.947;  -13.540;34189.023
617.179;31098.596;  -10.890;36952.047
617.760;30713.871;   -7.610;39582.574
618.340;28903.902;  -14.441;38943.977
618.920;28548.809;   -9.180;37594.156
619.500;30628.900;  -11.881;37866.938
620.080;32402.078;   -9.870;37869.043
620.660;31159.205;  -13.211;36868.617
621.241;30055.695;  -11.921;36352.309
621.821;29700.021;  -10.271;35459.520
622.401;30676.848;   -8.200;35207.414
622.980;32207.977;  -11.141;35980.422
623.560;31639.547;  -14.321;37351.328
624.140;30005.963;   -9.360;34388.582
624.720;26093.967;   -7.481;32368.764
625.300;23531.459;  -12.730;32638.629
625.880;27565.324;  -11.441;34599.035
626.459;30833.949;  -10.971;36831.738
627.039;34476.219;   -9.011;38299.098
627.619;35265.730;   -8.521;38289.574
628.198;33325.922;   -9.861;37220.695
628.778;32140.098;   -8.841;37632.563
629.357;32297.947;   -9.891;38003.012
629.937;32794.914;  -11.871;38402.039
630.516;32360.371;  -10.641;37868.801
631.096;34253.145;  -11.391;35760.410
631.675;35883.527;   -6.622;35225.219
632.254;32949.273;  -13.002;35130.289
632.834;31318.131;  -11.622;35794.570
633.413;32451.990;   -8.321;35788.922
633.992;30584.699;   -7.732;34532.863
634.571;30358.867;  -10.992;33590.113
635.151;29878.863;  -10.422;34943.863
635.730;31138.742;  -11.511;35352.523
636.309;31417.004;   -7.901;35366.605
636.888;30521.504;  -11.452;36165.637
637.467;29596.721;  -10.672;37515.902
638.046;29894.123;   -9.301;39288.695
638.625;31335.061;  -11.452;38279.699
639.204;32196.287;  -12.262;37741.598
639.782;32486.752;  -11.892;38364.551
640.361;31371.551;  -11.411;36740.621
640.940;25980.881;  -11.501;34950.082
641.519;27658.807;  -10.921;34137.398
642.097;31388.814;  -10.101;35654.258
642.676;30382.488;  -10.821;35637.957
643.255;31457.943;   -8.631;36567.074
643.833;34024.117;  -11.411;37809.434
644.412;36673.781;  -12.021;37337.293
644.990;36833.254;  -12.271;37018.531
645.569;35499.328;   -9.741;36518.469
646.147;33246.273;   -9.051;36186.430
646.726;33277.445;  -13.861;36267.688
647.304;33690.480;   -9.461;36647.625
647.882;33207.578;  -13.171;39286.742
648.461;33644.582;  -11.911;39157.703
649.039;32515.141;   -9.541;35412.883
649.617;31808.189;   -8.901;34744.918
650.195;29983.186;   -8.591;35403.098
650.773;29348.572;  -13.031;35053.797
651.352;28116.885;  -12.211;33756.816
651.930;25769.268;  -11.361;31868.773
652.508;22879.424;   -8.601;33121.551
653.086;25520.357;   -9.991;33564.793
653.663;29840.479;  -11.931;34054.668
654.241;32123.053;  -10.821;35693.309
654.819;33611.102;   -9.341;36422.906
655.397;31415.887;  -10.851;38213.484
655.975;30029.094;  -11.461;39507.625
656.553;30109.482;   -8.841;39498.223
657.130;29535.844;  -10.371;40395.480
657.708;30134.596;  -11.071;39242.020
658.286;29839.869;  -11.141;38920.020
658.863;30779.723;  -10.861;40202.898
659.441;35210.695;  -11.181;39677.938
660.018;35607.418;  -10.851;40413.355
660.596;34787.875;  -12.571;39931.414
661.173;35086.648;  -12.141;39604.531
661.750;34831.258;  -11.571;39700.070
662.328;32494.588;  -10.780;39292.809
662.905;30078.908;  -10.750;38235.648
663.482;26727.570;  -11.320;36212.305
664.060;25786.109;  -10.160;35944.945
664.637;30421.701;  -13.120;35170.785
665.214;32651.303;  -11.500;34197.523
665.791;30950.695;  -12.430;34549.520
666.368;28651.305;   -9.840;35118.578
666.945;27608.311;  -11.290;36019.418
667.522;28125.303;  -13.540;36048.438
668.099;28709.627;  -10.250;36243.914
668.676;28084.676;  -11.270;35958.875
669.253;27050.840;   -8.210;37384.730
669.830;26340.779;   -9.710;36779.629
670.407;25747.395;   -9.700;35231.289
670.984;26312.178;   -9.190;35544.270
671.560;25493.861;   -9.560;35466.867
672.137;25018.674;  -11.820;34280.863
672.714;27652.949;  -12.460;34632.863
673.290;32270.271;  -10.940;35135.422
673.867;33495.672;  -10.510;36114.480
674.443;30081.207;  -12.110;36152.859
675.020;31127.533;  -11.760;35327.238
675.596;32296.014;   -9.380;35795.176
676.173;31017.377;  -11.120;35430.355
676.749;29740.965;  -13.390;33549.516
677.326;28812.572;  -12.600;32210.012
677.902;27863.281;  -10.830;32068.871
678.478;27592.182;  -12.400;32583.891
679.054;29543.258;   -8.610;32088.928
679.631;29910.639;  -11.640;30978.848
680.207;29711.410;   -8.140;33160.887
680.783;30647.123;  -12.300;35570.363
681.359;29595.648;  -10.910;36125.184
681.935;29556.979;  -11.040;35240.922
682.511;30693.158;  -11.130;34429.961
683.087;31201.371;  -11.080;34463.680
683.663;33205.934;  -10.530;34648.898
684.239;32622.477;  -12.120;34546.457
684.815;30020.664;   -8.870;35586.375
685.390;29053.658;   -8.940;35821.895
685.966;29222.918;  -12.109;35085.871
686.542;28332.275;  -13.539;34198.230
687.118;28040.305;  -10.379;32847.707
687.693;28307.887;  -10.189;32794.027
688.269;27208.242;  -12.939;33072.367
688.844;25908.641;   -8.679;33141.664
689.420;26807.570;  -10.919;33965.742
689.995;27321.102;   -7.489;34655.523
690.571;26816.773;  -12.199;33576.742
691.146;26656.012;   -8.979;32657.219
691.722;28059.016;   -9.119;32526.979
692.297;26750.969;  -10.519;33014.617
692.872;26167.689;  -10.629;34012.254
693.448;26565.795;  -12.119;34237.434
694.023;27447.975;   -8.219;34142.672
694.598;25858.043;  -13.209;34132.031
695.173;24783.027;  -11.879;34205.250
695.748;25700.906;  -12.039;32882.488
696.323;25588.523;  -11.779;32864.906
696.898;26208.500;  -10.219;33170.004
697.473;27235.535;  -13.639;32432.984
698.048;27638.785;  -11.239;31649.303
698.623;29696.736;  -10.859;30778.141
699.198;31767.125;  -13.379;31140.119
699.773;32354.551;  -13.409;31764.299
700.348;32575.975;  -12.329;31780.816
700.922;32912.273;   -8.749;32046.375
701.497;33060.531;  -12.449;32603.574
702.072;32223.674;   -8.879;34799.871
702.646;30405.982;  -10.719;35793.172
703.221;28968.461;   -8.469;35201.590
703.795;28703.012;  -11.389;34764.527
704.370;28433.982;  -12.499;34307.367
704.944;28047.283;  -11.449;33509.887
705.519;27532.563;  -10.659;31388.584
706.093;26972.637;  -12.909;31340.104
706.668;27194.715;  -13.509;32630.281
707.242;26580.289;  -10.049;32728.779
707.816;24697.725;  -10.629;32947.238
708.390;24003.840;  -11.829;33277.855
708.965;24143.947;  -11.159;33834.336
709.539;25096.227;  -11.069;33709.273
710.113;24660.404;  -10.908;33044.313
710.687;23104.840;   -9.488;31953.992
711.261;23063.273;  -13.068;30505.949
711.835;25667.346;  -12.748;30262.369
712.409;26994.301;  -10.678;31254.447
712.983;26259.805;  -11.658;32754.986
713.557;26775.137;  -13.718;34018.824
714.131;27589.176;  -13.388;34579.625
714.704;27876.514;   -9.818;33890.262
715.278;28378.020;  -11.818;33531.102
715.852;29396.398;  -11.328;33601.660
716.425;29891.990;   -9.118;33515.117
716.999;30202.779;  -10.188;33185.555
717.573;30382.867;   -9.808;33905.996
718.146;32751.781;  -11.478;35199.293
718.720;32856.789;  -10.998;35060.551
719.293;31018.773;   -9.508;34973.230
719.867;30249.820;  -12.138;36394.449
720.440;28792.252;  -11.288;36663.008
721.013;30961.639;  -11.428;35102.426
721.587;32222.650;  -11.698;33985.266
722.160;33257.121;  -11.608;33524.965
722.733;32501.129;  -11.428;32987.043
723.306;31384.373;  -12.518;33066.301
723.880;31338.154;   -7.408;33399.500
724.453;30288.061;  -11.048;33468.297
725.026;28967.689;  -11.678;33816.637
725.599;27560.930;  -10.978;32797.996
726.172;26595.033;   -8.838;33187.434
726.745;27444.311;  -11.438;35136.613
727.318;28105.059;   -9.828;35751.730
727.891;26598.617;  -10.868;35890.430
728.463;24773.846;  -11.348;34822.090
729.036;23458.189;  -11.608;32895.086
729.609;23654.574;  -14.738;31823.225
730.182;24788.561;   -8.448;31445.283
730.754;25986.945;  -11.228;32373.223
731.327;25957.721;  -12.018;33676.820
731.900;27621.301;  -13.748;33417.000
732.472;27991.559;  -10.928;31978.498
733.045;26706.373;   -9.478;30368.777
733.617;25213.854;  -12.967;30574.215
734.190;24325.779;  -11.707;31280.975
734.762;23152.604;  -11.067;31674.412
735.334;22481.143;  -10.587;31247.291
735.907;21694.570;  -11.947;29876.211
736.479;22142.074;  -11.667;29808.488
737.051;24460.709;  -10.187;30233.547
737.623;26506.168;   -6.887;31469.086
738.195;29048.105;  -12.117;31784.225
738.768;31032.869;  -14.077;32120.523
739.340;30680.578;  -12.207;32094.342
739.912;27901.807;   -8.977;31312.680
740.484;25949.121;  -11.017;31946.238
741.056;26432.715;  -13.517;32984.059
741.628;28156.631;  -11.507;33897.715
742.199;28505.479;   -7.597;33213.016
742.771;29216.105;  -12.227;31369.113
743.343;28968.350;  -12.427;31865.473
743.915;27647.885;   -9.827;32388.631
744.487;26796.365;  -10.007;31079.568
745.058;25116.645;  -11.887;30570.107
745.630;24087.637;  -10.787;29970.127
746.201;23289.699;  -10.887;29186.766
746.773;23142.785;   -9.707;28805.723
747.344;24088.584;  -11.137;29591.223
747.916;24327.869;  -11.887;31412.201
748.487;23738.119;   -9.707;32194.898
749.059;23172.248;  -10.027;32533.719
749.630;23067.971;  -11.787;32158.518
750.201;21981.615;  -12.767;30855.395
750.773;21462.902;  -11.497;28622.555
751.344;22165.150;   -9.937;28405.732
751.915;22544.725;  -11.567;28461.551
752.486;21851.518;  -13.267;27842.850
753.057;19949.635;  -10.627;27845.008
753.628;18489.604;  -11.657;27728.107
754.199;20573.480;  -12.097;27381.086
754.770;22397.734;  -11.447;25882.203
755.341;22666.543;  -11.997;25886.184
755.912;20493.316;  -10.207;26050.861
756.483;18612.619;  -10.937;26798.779
757.054;18489.643;  -11.527;27048.238
757.625;18737.283;  -12.886;26294.838
758.195;19116.750;  -11.226;26142.076
758.766;19250.305;  -12.366;26392.234
759.337;18107.637;  -11.946;26334.594
759.907;18069.752;  -13.856;27579.652
760.478;19066.486;   -9.606;28352.770
761.048;18943.324;  -11.606;27325.088
761.619;18852.611;  -11.036;26460.428
762.189;18231.805;  -12.206;26029.826
762.760;19386.432;   -9.666;26430.145
763.330;20440.969;   -9.796;26670.902
763.900;18820.090;  -10.896;26603.021
764.471;17338.363;  -11.726;25542.740
765.041;17726.309;   -9.656;24358.459
765.611;18579.105;  -11.276;23991.297
766.181;18478.178;  -12.116;24470.236
766.751;17961.209;  -12.376;24845.975
767.321;17729.404;  -11.626;24533.633
767.891;17966.787;  -10.426;24916.492
768.461;17165.133;  -13.456;24776.771
769.031;15256.674;  -11.616;24757.988
769.601;15007.411;  -11.356;24181.088
770.171;15146.029;  -11.586;23670.387
770.741;15512.738;  -12.696;22960.045
771.311;15677.212;  -10.226;22917.523
771.880;15411.906;  -11.146;23562.941
772.450;16071.122;  -11.716;24216.500
773.020;16407.945;  -13.226;24140.398
773.589;16051.610;  -12.586;24414.857
774.159;15874.206;  -10.246;23858.717
774.729;15374.140;  -11.586;22942.135
775.298;14453.726;  -15.926;22324.033
775.867;14432.047;  -10.426;21140.313
776.437;14431.499;  -11.416;20838.092
777.006;13049.745;  -12.766;20599.510
777.576;12927.056;  -13.666;20508.809
778.145;13498.207;  -10.066;20732.947
778.714;13303.617;  -10.276;21062.465
779.283;13506.382;  -12.086;20949.664
779.853;14770.319;  -14.016;20508.623
780.422;15282.158;  -12.376;20649.082
780.991;14254.852;   -9.246;21527.520
781.560;13433.787;   -9.775;22632.658
782.129;13262.666;  -12.495;23048.277
782.698;12904.540;  -11.775;23438.555
783.267;13092.993;  -10.065;23267.734
783.836;13759.532;  -12.455;22415.133
784.404;14593.329;  -13.385;20443.152
784.973;15388.724;  -11.045;19699.150
785.542;14819.898;   -9.505;19763.828
786.111;13808.104;   -9.385;20341.408
786.679;13705.974;  -13.475;20207.967
787.248;13740.643;  -11.245;19516.465
787.817;11875.830;  -12.485;18900.363
788.385;10043.505;  -11.165;17879.121
788.954;10704.181;  -11.755;17658.301
789.522;11707.249;   -9.625;17788.879
790.090;11379.956;   -9.665;18118.277
790.659;10810.820;   -9.295;18338.736
791.227;11593.987;  -12.175;18508.615
791.795;12966.075;  -12.145;17898.254
792.364;13038.539;  -11.575;17295.133
792.932;11831.345;  -11.085;16822.051
793.500;10697.098;  -11.345;17040.148
794.068;10398.432;  -12.565;17179.787
794.636;11357.711;  -12.105;16664.246
795.204;12050.769;  -11.995;16524.545
795.772;11568.406;  -12.615;17274.564
796.340;11128.068;  -12.425;17891.002
796.908;10907.960;  -11.455;17648.561
797.476;10380.702;  -12.165;17064.080
798.044;10025.953;  -15.795;16672.777
798.612;10098.719;  -10.985;17023.996
799.180;10729.064;  -12.055;16561.615
799.747;11046.024;  -12.525;15962.773
800.315; 9882.394;  -14.765;15296.992
800.883; 8594.052;  -12.435;14801.771
801.450; 8458.727;  -11.295;14534.430
802.018; 8969.813;  -11.185;14173.248
802.585; 9025.255;  -11.625;14029.547
803.153; 8058.759;  -10.665;13836.846
803.720; 7604.700;  -10.275;13567.324
804.287; 7511.995;  -12.865;13360.622
804.855; 7725.302;  -12.324;13681.981
805.422; 8017.163;  -11.574;13536.560
805.989; 7865.594;  -11.004;13355.958
806.556; 8095.155;  -12.214;13747.896
807.124; 8553.894;  -13.304;13987.376
807.691; 8340.009;  -12.034;14038.674
808.258; 7700.899;  -11.014;14120.152
808.825; 7605.487;  -11.804;13860.111
809.392; 7543.530;  -11.544;13268.790
809.959; 7345.968;  -14.954;12680.389
810.526; 7664.558;  -10.214;12427.308
811.093; 8172.762;  -10.754;12030.105
811.659; 7860.728;  -12.194;11653.664
812.226; 6688.638;   -9.194;11637.183
812.793; 6286.983;   -9.644;11611.521
813.360; 7077.679;  -11.544;11885.181
813.926; 7985.264;  -12.814;12770.539
814.493; 8003.525;  -11.524;12677.638
815.060; 7693.873;  -12.254;11974.336
815.626; 7257.899;  -12.114;11594.715
816.193; 6866.374;  -11.994;11579.474
816.759; 6706.577;  -11.464;11666.972
817.325; 6406.269;  -10.444;11325.530
817.892; 6114.825;  -11.124;11105.369
818.458; 5960.318;  -11.864;10843.928
819.024; 6160.921;  -10.634;10714.406
819.591; 6240.194;  -10.554;10469.165
820.157; 6515.661;  -13.334;10235.523
820.723; 6818.607;  -13.044;10847.563
821.289; 6931.957;   -9.664;11040.980
821.855; 7087.501;  -10.994;10357.100
822.421; 7120.885;  -11.784; 9978.918
822.987; 7084.557;  -12.554; 9754.177
823.553; 7463.831;  -12.554;10065.755
824.119; 7380.493;   -8.544;10036.294
824.685; 6474.021;  -12.144;10029.192
825.251; 5916.337;  -12.754;10199.230
825.816; 5489.323;  -11.354; 9820.189
826.382; 5206.832;  -11.004; 9297.248
826.948; 5237.154;  -11.004; 9381.347
827.513; 5184.434;  -12.474; 9450.726
828.079; 5155.065;  -13.084; 9472.444
828.645; 5284.064;  -10.813; 9292.643
829.210; 5086.339;  -11.593; 9065.341
829.776; 4996.716;  -12.633; 9132.620
830.341; 5033.127;  -10.473; 9092.878
830.906; 4874.326;   -8.763; 9078.557
831.472; 4596.081;  -13.453; 8534.535
832.037; 4013.578;  -12.173; 8677.874
832.602; 3772.553;  -14.093; 8628.692
833.167; 4024.540;  -13.593; 8879.031
833.733; 4550.657;  -10.793; 9189.790
834.298; 4954.707;  -14.783; 9052.608
834.863; 4606.154;  -11.023; 8895.087
835.428; 4324.810;  -11.113; 8824.266
835.993; 4739.029;   -9.983; 8845.385
836.558; 4989.405;  -13.003; 8888.563
837.123; 4808.359;  -10.733; 8966.582
837.688; 4385.165;   -9.683; 8617.860
838.253; 4191.271;  -12.253; 8590.699
838.817; 4216.101;  -11.643; 8443.797
839.382; 4185.102;  -11.953; 8799.356
839.947; 4254.140;  -11.443; 8810.595
840.511; 4563.428;  -10.843; 8796.394
841.076; 4826.756;  -13.533; 8347.231
841.641; 4697.944;  -11.743; 8224.330
842.205; 4192.779;  -10.013; 8223.349
842.770; 3864.221;  -11.023; 8622.107
843.334; 3914.395;  -14.273; 8410.386
843.898; 4276.356;  -11.323; 8337.465
844.463; 4667.912;  -10.263; 8506.283
845.027; 4857.928;  -10.353; 8280.962
845.591; 4812.381;  -12.163; 8231.141
846.156; 4659.879;  -12.263; 7969.179
846.720; 4638.150;  -11.553; 7768.278
847.284; 4471.389;  -12.393; 7630.957
847.848; 3729.086;  -12.623; 7472.395
848.412; 3103.715;  -11.863; 7437.394
848.976; 3026.025;  -10.203; 7674.592
849.540; 3222.049;  -10.603; 7836.011
850.104; 3435.941;  -12.423; 7913.669
850.668; 3460.083;  -14.613; 7694.508
851.232; 3463.848;  -12.873; 7756.887
851.796; 3692.763;  -14.192; 7926.545
852.359; 3919.037;  -13.652; 7827.844
852.923; 3866.076;  -11.402; 7641.163
853.487; 3568.032;  -12.022; 7342.501
854.050; 3363.347;  -15.202; 7042.820
854.614; 3337.482;  -14.592; 7151.338
855.177; 3273.204;  -12.572; 7105.077
855.741; 3272.173;   -9.932; 6989.675
856.304; 3238.151;  -12.192; 6596.634
856.868; 3124.689;  -13.462; 6356.272
857.431; 3111.655;  -11.542; 6468.571
857.995; 3222.903;  -12.062; 6373.210
858.558; 3076.013;  -11.142; 6324.448
859.121; 2918.508;  -11.742; 6408.327
859.684; 2937.635;  -10.332; 6347.886
860.247; 3020.134;  -11.962; 6321.264
860.810; 3080.548;  -12.332; 6301.903
861.374; 2983.542;  -10.292; 6607.881
861.937; 2846.309;  -12.062; 6408.200
862.500; 2879.809;  -11.702; 6572.639
863.062; 2989.739;  -13.852; 6387.297
863.625; 3068.452;  -12.972; 6190.836
864.188; 3052.968;  -10.292; 5807.254
864.751; 3012.598;  -12.382; 5682.413
865.314; 2825.540;  -13.232; 5547.492
865.876; 2502.669;  -12.772; 5500.150
866.439; 2226.080;  -11.952; 5415.909
867.002; 2249.764;   -9.332; 5501.567
867.564; 2562.563;  -11.712; 5413.946
868.127; 2750.565;  -12.012; 5160.325
868.689; 2476.258;  -11.882; 5133.183
869.252; 2124.583;  -11.572; 5252.382
869.814; 2000.586;  -10.692; 5297.141
870.377; 2025.247;  -12.392; 5390.919
870.939; 2078.423;  -10.582; 5599.898
871.501; 2125.638;  -12.782; 5248.336
872.063; 2145.992;  -15.612; 4854.235
872.626; 2196.323;  -13.922; 4817.074
873.188; 2177.877;  -13.832; 4987.732
873.750; 2118.503;  -10.962; 4868.651
874.312; 2171.283;  -11.022; 4779.330
874.874; 2237.183;  -13.152; 4866.348
875.436; 2180.814;  -13.401; 4718.887
875.998; 2074.064;   -8.891; 4660.005
876.560; 1968.606;  -12.591; 4462.964
877.122; 1883.766;  -14.531; 4145.042
877.683; 1836.060;  -10.781; 4056.481
878.245; 1754.808;  -14.281; 3950.740
878.807; 1705.039;  -10.311; 4058.958
879.369; 1660.363;  -13.201; 3954.677
879.930; 1623.484;  -12.061; 3941.495
880.492; 1623.399;   -9.181; 4067.014
881.053; 1642.699;  -12.051; 3859.633
881.615; 1613.382;  -11.501; 3776.071
882.176; 1517.631;  -12.221; 3734.750
882.738; 1414.799;   -8.931; 3678.489
883.299; 1346.375;  -13.571; 3405.407
883.860; 1351.849;  -12.331; 3351.106
884.422; 1298.050;  -10.201; 3394.044
884.983; 1171.512;  -12.521; 3166.443
885.544; 1054.144;  -12.291; 3189.802
886.105;  992.402;  -12.991; 3160.360
886.666;  972.717;  -12.901; 3093.059
887.227;  966.632;  -12.061; 2941.957
887.788;  942.979;  -11.641; 2974.836
888.349;  896.601;  -14.691; 2721.214
888.910;  850.712;   -9.681; 2696.493
889.471;  845.819;   -9.971; 2560.172
890.032;  859.196;  -13.151; 2558.190
890.593;  839.780;  -12.051; 2567.669
891.153;  795.941;  -12.841; 2460.307
891.714;  761.626;  -13.561; 2372.046
892.275;  731.583;  -12.401; 2309.505
892.835;  695.386;  -13.191; 2382.543
893.396;  654.985;  -12.551; 2295.502
893.956;  631.321;  -11.981; 2162.420
894.517;  613.167;  -12.221; 2125.439
895.077;  581.064;  -12.021; 2086.978
895.638;  526.307;  -10.891; 2126.316
896.198;  474.844;  -13.171; 1838.275
896.758;  441.780;  -11.891; 1892.813
897.319;  420.223;  -12.491; 1792.232
897.879;  405.199;  -12.401; 1762.751
898.439;  378.506;  -13.431; 1661.149
898.999;  358.150;  -11.340; 1781.468
899.559;  349.681;  -13.930; 1703.347
900.119;  331.338;  -13.730; 1537.525
900.679;  311.938;   -9.210; 1638.384
901.239;  296.165;  -10.860; 1527.902
901.799;  279.447;  -11.450; 1456.441
902.359;  260.990;  -13.800; 1357.140
902.919;  254.620;  -12.130; 1331.118
903.479;  254.632;  -12.650; 1317.257
904.038;  249.826;  -16.110; 1262.595
904.598;  235.872;  -13.690; 1152.034
905.158;  223.671;  -10.290; 1240.893
905.717;  216.631;  -10.670; 1233.691
906.277;  215.654;  -14.040; 1217.330
906.836;  216.106;  -13.510; 1222.408
907.396;  211.962;  -11.530; 1193.047
907.955;  200.627;  -13.190; 1182.526
908.515;  189.183;  -12.950; 1099.364
909.074;  180.693;  -12.390; 1092.863
909.633;  174.913;  -10.340; 1069.121
910.192;  173.216;  -11.170; 1196.460
910.752;  169.708;  -14.200; 1029.960
911.311;  164.755;  -13.810; 1009.780
911.870;  161.530;  -12.750;  971.460
912.429;  161.338;  -12.380; 1094.080
912.988;  158.243;  -11.930; 1081.060
913.547;  152.715;  -10.990;  940.380
914.106;  149.832;  -11.200;  999.420
914.665;  147.480;  -13.150;  984.020
915.224;  146.343;  -13.310; 1035.760
915.782;  144.783;  -13.340;  922.560
916.341;  144.634;  -10.710; 1049.840
916.900;  142.259;  -12.980;  925.260
917.458;  138.970;  -13.060;  884.220
918.017;  137.976;  -10.900;  942.600
918.576;  136.882;  -11.630;  904.440
919.134;  136.931;  -12.860;  837.980
919.693;  137.039;  -15.160;  893.060
920.251;  135.795;  -13.470;  876.500
920.809;  135.584;  -13.700;  839.580
921.368;  136.666;  -13.420;  885.360
921.926;  136.241;  -14.710;  842.940
922.484;  136.355;  -12.560;  903.360
923.042;  136.845;  -11.930;  880.340
923.601;  137.098;  -10.270;  998.680
924.159;  135.098;  -12.960;  935.560
924.717;  134.084;  -13.040;  841.080
925.275;  137.466;  -12.560;  903.240
925.833;  137.695;  -13.040;  779.320
926.391;  139.478;  -13.360;  938.380
926.949;  137.859;  -13.940;  857.680
927.506;  139.336;   -9.400;  903.500
928.064;  139.303;  -10.940;  877.580
928.622;  139.114;  -13.180;  880.100
929.180;  138.460;  -12.730;  814.180
929.737;  139.277;  -12.840;  808.540
930.295;  142.858;  -11.810;  928.480
930.853;  145.641;  -13.650;  849.100
931.410;  148.101;  -13.580;  821.120
931.968;  149.465;  -12.020;  940.660
932.525;  150.309;  -13.320;  909.380
933.082;  150.943;  -13.800;  811.440
933.640;  156.117;  -11.380;  925.900
934.197;  158.518;  -11.480;  886.360
934.754;  162.845;  -13.220;  897.780
935.312;  160.473;  -14.950;  863.340
935.869;  158.045;  -10.940; 1012.980
936.426;  153.029;  -12.100;  872.800
936.983;  152.389;  -12.930;  889.020
937.540;  154.338;  -14.250;  838.280
938.097;  157.411;  -12.600;  940.120
938.654;  164.272;  -11.260;  898.860
939.211;  168.599;  -13.020;  952.480
939.768;  169.991;  -15.760;  915.420
940.324;  171.815;  -13.920;  904.200
940.881;  168.021;  -11.620;  878.500
941.438;  165.188;   -9.870; 1021.200
941.995;  162.270;  -13.920;  992.560
942.551;  160.558;  -12.830;  875.620
943.108;  162.053;  -11.980;  937.920
943.664;  164.848;  -13.740;  869.340
944.221;  169.855;  -12.670; 1088.140
944.777;  168.282;  -13.250;  869.680
945.334;  167.106;  -13.000;  884.840
945.890;  167.834;  -13.020;  946.480
946.446;  168.093;  -13.880;  947.020
947.003;  170.972;  -12.660;  964.940
947.559;  172.046;   -8.730; 1063.040
948.115;  168.933;  -11.960; 1026.540
948.671;  164.308;  -12.360;  967.300
949.227;  160.422;  -12.700;  859.560
949.783;  157.717;  -13.450;  858.900
950.339;  156.224;  -10.620;  991.000
950.895;  152.813;  -14.770; 1023.840
951.451;  149.329;  -13.650;  925.280
952.007;  149.774;  -11.180;  998.540
952.563;  149.681;  -11.680;  937.780
953.118;  148.272;  -13.280;  904.940
953.674;  150.649;  -12.510;  935.780
954.230;  151.869;  -12.220;  949.640
954.785;  147.413;  -12.190;  936.640
955.341;  142.031;  -12.270;  998.160
955.897;  136.078;  -14.900;  834.660
956.452;  136.819;  -12.520;  953.840
957.008;  136.781;   -9.410; 1083.640
957.563;  134.850;  -11.280; 1009.540
958.118;  132.511;  -13.470;  877.700
958.674;  133.507;  -12.190;  946.780
959.229;  134.680;  -12.760; 1013.980
959.784;  139.484;  -15.710;  832.400
960.339;  146.280;  -12.540; 1001.280
960.894;  147.730;  -11.680;  963.760
961.449;  144.298;  -11.410;  859.960
962.004;  143.010;  -10.430; 1212.840
962.559;  136.608;  -14.040;  860.140
963.114;  134.159;  -14.270;  742.480
963.669;  135.282;  -11.320;  915.500
964.224;  133.810;  -14.620;  874.340
964.779;  131.236;  -14.150;  828.420
965.334;  130.923;  -10.850; 1017.860
965.888;  130.229;  -14.530;  875.360
966.443;  131.776;  -13.520;  972.380
966.998;  128.645;  -13.370;  819.460
967.552;  126.192;   -9.960;  908.380
968.107;  121.019;  -12.360;  868.300
968.661;  122.546;  -12.270;  922.440
969.216;  121.522;  -12.140;  856.280
969.770;  122.222;  -11.860;  917.200
970.324;  121.662;  -12.170;  923.140
970.879;  119.724;  -14.160;  947.180
971.433;  117.514;  -12.940;  952.720
971.987;  114.103;  -10.180;  895.340
972.541;  113.003;  -12.130;  917.100
973.095;  113.234;  -14.980; 1009.460
973.649;  111.130;  -14.480;  809.480
974.203;  113.086;  -13.530;  829.040
974.757;  114.862;  -12.060;  855.220
975.311;  112.217;  -13.240;  872.600
975.865;  110.530;  -12.550;  881.820
976.419;  109.316;  -13.180;  857.400
976.973;  108.939;  -14.100;  849.620
977.526;  107.789;  -13.330;  949.920
978.080;  103.825;  -15.390;  796.780
978.634;  104.024;  -11.670;  921.320
979.187;  101.730;  -10.640;  905.400
979.741;  100.809;  -13.330; 1018.380
980.294;   97.103;  -14.480;  789.160
980.848;   95.727;  -13.420;  717.220
981.401;   94.762;  -12.360;  816.540
981.955;   91.663;  -12.480;  844.300
982.508;   88.926;  -14.000;  746.340
983.061;   89.108;  -10.440;  915.260
983.615;   85.110;  -14.340;  798.800
984.168;   81.545;  -14.950;  770.080
984.721;   81.831;  -13.270;  880.760
985.274;   80.718;  -12.240;  867.500
985.827;   77.959;  -12.720;  834.220
986.380;   73.977;  -14.920;  721.340
986.933;   73.978;  -12.860;  864.800
987.486;   73.465;  -10.440;  861.920
988.039;   72.276;  -11.820;  863.100
988.591;   70.668;  -13.760;  893.260
989.144;   68.948;  -14.080;  737.260
989.697;   68.737;  -13.440;  758.740
990.250;   69.931;  -12.050;  858.100
990.802;   68.915;  -14.550;  755.860
991.355;   68.783;  -10.770;  974.880
991.907;   67.123;  -11.710;  864.320
992.460;   65.463;  -12.650;  753.760
993.012;   64.085;  -13.860;  749.540
993.565;   60.607;  -14.310;  711.360
994.117;   62.160;   -9.920;  950.780
994.669;   59.173;  -13.420;  701.320
995.221;   57.590;  -14.200;  791.920
995.774;   57.575;  -13.400;  787.580
996.326;   56.437;  -11.850;  740.220
996.878;   56.093;  -12.230;  838.420
997.430;   54.318;  -14.260;  699.860
997.982;   53.636;  -11.430;  750.140
998.534;   53.810;  -11.590;  739.060
999.086;   53.150;  -11.960;  738.220
999.638;   51.888;  -13.640;  661.380
1000.190;   50.687;  -13.660;  699.320
1000.741;   50.588;   -9.980;  742.700
1001.293;   50.399;  -11.860;  686.020
1001.845;   49.279;  -14.280;  676.640
1002.396;   49.231;  -12.270;  743.400
1002.948;   48.865;  -13.670;  737.400
1003.500;   48.428;  -12.010;  723.780
1004.051;   48.317;  -11.890;  907.580
1004.603;   46.746;  -11.220;  791.820
1005.154;   44.148;  -13.210;  608.980
1005.705;   43.253;  -11.850;  723.960
1006.257;   42.189;  -13.670;  707.220
1006.808;   42.134;  -12.060;  685.460
1007.359;   42.303;  -10.250;  763.240
1007.910;   40.535;  -13.440;  646.640
1008.461;   39.752;  -13.170;  732.940
1009.013;   38.051;  -14.590;  588.340
1009.564;   40.211;  -12.100;  793.520
1010.115;   37.475;  -14.000;  597.040
1010.665;   36.699;  -15.020;  602.160
1011.216;   37.944;  -12.560;  667.920
1011.767;   37.750;  -11.330;  697.920
1012.318;   37.751;  -11.450;  736.980
1012.869;   36.592;  -11.000;  679.000
1013.419;   35.293;  -11.760;  603.120
1013.970;   35.856;  -11.800;  666.640
1014.521;   36.091;  -14.750;  620.620
1015.071;   36.354;  -14.430;  670.380
1015.622;   35.269;  -14.170;  635.460
1016.172;   34.588;  -11.700;  596.820
1016.723;   34.401;  -13.230;  614.380
1017.273;   33.944;  -16.120;  604.160
1017.823;   34.444;  -13.360;  650.340
1018.374;   33.573;  -13.710;  611.760
1018.924;   33.742;  -11.050;  716.880
1019.474;   34.500;  -14.120;  718.880
1020.024;   31.940;  -12.990;  657.580
1020.574;   33.776;  -12.010;  726.160
1021.124;   33.594;  -12.080;  673.580
1021.674;   31.356;  -15.860;  559.120
1022.224;   33.309;  -11.710;  708.940
1022.774;   32.642;  -13.030;  668.820
1023.324;   32.979;  -11.000;  753.520
1023.874;   34.233;  -13.270;  875.760
1024.423;   30.800;  -14.570;  613.700
1024.973;   30.976;  -12.620;  610.760
1025.523;   30.165;  -12.630;  620.960
1026.072;   29.515;  -14.110;  606.420
1026.622;   29.447;  -15.390;  675.740
1027.172;   30.925;   -9.090;  715.660
1027.721;   29.387;  -12.250;  601.220
1028.270;   30.047;  -15.590;  663.400
1028.820;   28.729;  -13.840;  638.080
1029.369;   29.365;  -13.170;  612.700
1029.918;   29.568;  -14.080;  649.840
1030.468;   29.108;  -13.860;  564.780
1031.017;   29.104;  -12.970;  634.800
1031.566;   28.106;  -12.320;  608.900
1032.115;   28.991;  -13.140;  694.500
1032.664;   27.394;  -14.560;  596.480
1033.213;   28.664;  -11.620;  735.420
1033.762;   27.278;  -13.190;  635.620
1034.311;   27.497;  -13.460;  677.220
1034.860;   27.972;  -15.770;  691.000
1035.408;   27.829;  -13.100;  722.720
1035.957;   27.880;  -12.880;  719.540
1036.506;   25.216;  -13.640;  530.800
1037.055;   28.295;  -12.420;  844.320
1037.603;   26.676;  -13.740;  664.000
1038.152;   25.163;  -13.840;  534.760
1038.700;   25.991;  -10.770;  585.740
1039.249;   26.172;  -13.520;  681.220
1039.797;   25.186;  -13.060;  633.360
1040.345;   25.520;  -11.760;  705.420
1040.894;   24.992;  -10.790;  625.300
1041.442;   24.528;  -15.420;  632.200
1041.990;   23.433;  -14.550;  559.160
1042.538;   23.525;  -15.620;  536.180
1043.087;   24.167;  -14.940;  570.860
1043.635;   25.272;  -12.100;  670.500
1044.183;   23.523;  -13.200;  586.400
1044.731;   23.746;  -11.630;  576.000
1045.279;   23.544;  -14.200;  674.920
1045.827;   26.073;  -12.510;  892.400
1046.374;   21.695;  -14.960;  515.420
1046.922;   22.402;  -11.850;  590.580
1047.470;   24.087;  -13.770;  691.300
1048.018;   23.697;  -15.380;  647.960
1048.565;   23.524;  -14.010;  708.600
1049.113;   21.974;  -14.620;  557.000
1049.660;   22.580;  -14.940;  629.660
1050.208;   22.837;  -14.540;  675.640
1050.755;   21.488;  -13.710;  606.580
1051.303;   22.378;  -11.880;  686.820
1051.850;   22.219;  -12.160;  635.120
1052.397;   19.577;  -15.110;  473.960
1052.945;   20.796;  -14.770;  617.760
1053.492;   22.274;  -12.320;  741.840
1054.039;   22.327;  -13.290;  720.180
1054.586;   20.793;  -15.210;  557.240
1055.133;   21.305;  -12.920;  693.140
1055.680;   21.607;  -12.610;  646.620
1056.227;   20.024;  -12.620;  542.780
1056.774;   22.693;  -13.010;  794.980
1057.321;   19.666;  -16.180;  523.260
1057.868;   19.972;  -11.230;  651.320
1058.415;   20.465;  -10.890;  651.980
1058.961;   20.720;  -12.530;  678.940
1059.508;   20.310;  -14.120;  643.820
1060.055;   19.830;  -13.340;  581.780
1060.601;   20.504;  -12.920;  624.300
1061.148;   19.007;  -14.430;  616.820
1061.694;   18.385;  -14.140;  592.580
1062.241;   19.441;  -12.550;  596.320
1062.787;   19.142;  -13.370;  663.140
1063.334;   21.476;  -12.260;  808.560
1063.880;   18.950;  -10.800;  668.360
1064.426;   19.049;   -9.920;  706.820
1064.972;   17.222;  -12.970;  601.340
1065.518;   16.979;  -14.440;  566.640
1066.065;   18.284;  -12.680;  624.460
1066.611;   16.969;  -13.520;  598.800
1067.157;   18.531;  -11.100;  641.860
1067.703;   17.494;  -14.100;  668.480
1068.249;   17.161;  -13.750;  605.220
1068.794;   17.748;  -11.070;  626.880
1069.340;   16.747;  -13.210;  578.960
1069.886;   17.388;  -14.850;  590.700
1070.432;   15.884;  -14.580;  541.720
1070.977;   16.700;  -12.930;  601.080
1071.523;   16.458;  -11.970;  573.060
1072.068;   16.905;  -13.730;  582.000
1072.614;   16.080;  -14.550;  527.760
1073.160;   16.427;  -13.690;  687.040
1073.705;   15.563;  -14.780;  572.520
1074.250;   15.359;  -15.430;  559.900
1074.796;   16.723;  -11.620;  655.160
1075.341;   17.005;  -11.580;  664.100
1075.886;   15.351;  -13.190;  594.240
1076.431;   15.709;  -13.630;  649.880
1076.976;   15.440;  -11.670;  639.220
1077.521;   14.735;  -11.600;  583.080
1078.067;   14.335;  -13.920;  579.400
1078.612;   15.215;  -12.910;  661.620
1079.156;   14.888;  -15.340;  601.540
1079.701;   15.618;  -12.560;  693.260
1080.246;   15.614;  -12.490;  696.300
1080.791;   14.941;  -14.550;  625.020
1081.336;   14.325;  -15.210;  659.320
1081.880;   14.299;  -11.280;  649.680
1082.425;   13.856;  -12.830;  573.480
1082.970;   15.823;  -11.680;  717.040
1083.514;   13.844;  -15.500;  597.000
1084.059;   13.347;  -11.770;  586.720
1084.603;   13.566;  -13.480;  565.840
1085.147;   14.207;  -13.940;  645.220
1085.692;   14.404;  -13.170;  716.800
1086.236;   12.297;  -15.740;  503.140
1086.780;   14.738;  -10.750;  751.440
1087.325;   13.016;  -14.900;  654.620
1087.869;   13.450;  -15.160;  610.700
1088.413;   13.688;  -11.030;  705.040
1088.957;   11.931;  -15.210;  543.400
1089.501;   14.046;  -12.310;  766.640
1090.045;   13.830;  -12.790;  726.480
1090.589;   11.453;  -14.040;  569.920
1091.133;   12.089;  -12.800;  673.340
1091.676;   12.787;  -13.600;  591.940
1092.220;   11.519;  -12.960;  600.920
1092.764;   13.161;  -10.830;  706.960
1093.307;   12.933;  -12.390;  673.780
1093.851;   11.147;  -15.850;  556.540
1094.395;   12.243;  -12.980;  683.140
1094.938;   11.396;  -13.670;  632.520
1095.482;   11.279;  -12.740;  559.800
1096.025;   12.635;  -13.340;  710.880
1096.568;   12.517;  -10.500;  779.280
1097.112;    9.219;  -13.500;  508.180
1097.655;   11.629;  -13.060;  603.000
1098.198;    9.915;  -13.240;  600.180
1098.741;   10.197;  -15.490;  612.860
1099.285;   11.022;  -13.410;  657.300
1099.828;    8.667;  -15.640;  439.400
1100.371;   10.236;  -13.980;  608.160
1100.914;   10.629;  -13.990;  682.660
1101.457;   10.770;  -15.030;  679.900
1101.999;    9.638;  -12.480;  584.680
1102.542;   10.656;  -12.410;  641.440
1103.085;    9.571;  -14.730;  658.500
1103.628;   11.331;  -12.190;  762.060
1104.170;    8.962;  -12.360;  588.280
1104.713;   10.322;  -13.350;  646.700
1105.256;    8.738;  -14.930;  557.440
1105.798;    7.334;  -15.150;  499.980
1106.341;   10.628;  -13.230;  728.900
1106.883;    8.711;  -14.680;  521.340
1107.425;    8.994;  -14.810;  668.180
1107.968;    8.830;  -12.940;  612.380
1108.510;    9.955;  -10.550;  684.960
1109.052;    7.986;  -15.640;  612.620
1109.594;    7.216;  -14.440;  554.440
1110.136;    8.868;  -11.380;  643.220
1110.679;    8.134;  -13.090;  633.080
1111.221;    8.353;  -14.230;  604.460
1111.763;    7.468;  -14.260;  559.220
1112.304;    7.915;  -14.510;  547.140
1112.846;    8.155;  -14.700;  666.240
1113.388;   11.315;  -12.270;  942.180
1113.930;    7.902;  -13.340;  694.200
1114.472;    7.339;  -12.560;  606.540
1115.013;    5.977;  -14.280;  551.280
1115.555;    6.373;  -14.010;  587.100
1116.097;    5.740;  -14.730;  579.480
1116.638;    7.353;  -12.160;  684.600
1117.180;    7.167;  -14.320;  667.740
1117.721;    6.964;  -15.730;  568.580
1118.262;    7.582;  -13.480;  677.960
1118.804;    8.171;  -11.530;  637.340
1119.345;    5.890;  -13.540;  578.400
1119.886;    7.610;  -14.470;  704.040
1120.427;    5.836;  -13.030;  589.020
1120.969;    6.326;  -13.150;  597.920
1121.510;    5.096;  -13.940;  563.060
1122.051;    6.413;  -12.310;  723.580
1122.592;    5.466;  -13.870;  655.420
1123.133;    4.701;  -12.890;  547.940
1123.673;    6.410;  -13.300;  706.480
1124.214;    5.621;  -14.000;  612.460
1124.755;    6.416;  -13.210;  639.460
1125.296;    5.783;  -13.450;  627.320
1125.836;    6.841;  -12.610;  691.500
1126.377;    4.812;  -15.840;  599.660
1126.918;    5.670;  -11.830;  614.980
1127.458;    5.243;  -11.830;  622.220
1127.999;    5.477;  -11.490;  656.980
1128.539;    5.588;  -12.900;  694.240
1129.079;    4.470;  -14.910;  632.720
1129.620;    4.344;  -12.920;  558.100
1130.160;    3.665;  -14.640;  539.480
1130.700;    5.314;  -13.270;  640.840
1131.240;    4.682;  -14.110;  643.700
1131.781;    4.252;  -13.130;  619.680
1132.321;    4.499;  -15.220;  599.120
1132.861;    3.534;  -15.670;  564.200
1133.401;    2.742;  -13.970;  593.940
1133.941;    4.861;  -13.740;  626.280
1134.481;    4.106;  -13.200;  597.580
1135.020;    3.801;  -14.830;  609.160
1135.560;    4.709;  -14.590;  674.940
1136.100;    2.133;  -13.730;  501.160
1136.640;    2.433;  -15.240;  510.480
1137.179;    3.199;  -14.710;  537.960
1137.719;    2.972;  -14.090;  605.400
1138.258;    3.392;  -12.470;  587.360
1138.798;    3.687;  -12.580;  663.780
1139.337;    1.734;  -16.480;  482.840
1139.877;    3.043;  -13.970;  642.360
1140.416;    5.550;   -9.870;  878.060
1140.955;    2.079;  -14.860;  535.380
1141.494;    3.559;  -14.530;  669.280
1142.034;    2.471;  -13.940;  583.520
1142.573;    3.730;  -11.160;  646.280
1143.112;    1.312;  -15.050;  553.480
1143.651;    2.525;  -15.390;  536.480
1144.190;    2.557;  -12.990;  691.640
1144.729;    2.112;  -12.220;  607.420
1145.267;    2.276;  -14.020;  584.900
1145.806;    3.394;  -12.740;  637.040
1146.345;    2.084;  -14.810;  635.020
1146.884;    1.721;  -12.920;  622.500
1147.422;    1.628;  -13.930;  533.060
1147.961;    3.575;  -11.830;  708.460
1148.500;    2.444;  -12.710;  669.720
1149.038;    2.036;  -14.420;  632.500
1149.577;    2.521;  -13.920;  698.640
1150.115;    0.109;  -17.050;  452.280
1150.653;    1.204;  -14.890;  607.340
1151.192;    2.060;  -15.270;  552.920
1151.730;    1.855;  -13.160;  652.560
1152.268;    1.451;  -15.430;  589.520
1152.806;    1.157;  -15.880;  571.180
1153.344;   -0.208;  -13.240;  577.640
1153.882;    1.563;  -13.010;  600.060
1154.421;   -0.479;  -16.180;  470.620
1154.958;    0.199;  -13.880;  595.240
1155.496;    1.824;  -13.590;  645.280
1156.034;    1.695;  -11.910;  721.880
1156.572;    2.584;  -12.010;  667.060
1157.110;   -0.779;  -16.250;  473.940
1157.647;    0.723;  -15.230;  676.960
1158.185;    0.642;  -13.770;  564.320
1158.723;   -0.087;  -15.300;  509.200
1159.260;    0.540;  -13.130;  701.700
1159.798;    0.945;  -11.300;  658.160
1160.335;    0.397;  -13.210;  631.820

