
Integration time [ms]:   3.276
Averaging Nr. [scans]: 1000
Smoothing Nr. [pixels]: 0
Data measured with spectrometer [name]: 7414430SP
Wave   ;Sample   ;Dark     ;Reference
[nm]   ;[counts] ;[counts] ;[counts] 

288.544;  157.256;    7.793;  793.890
289.143;  162.046;    7.462;  681.602
289.742;  162.827;    8.602;  828.814
290.341;  149.699;    1.321;  789.841
290.940;  139.394;   -0.709;  730.702
291.538;  140.217;    0.881;  881.108
292.137;  138.920;    0.122;  792.581
292.736;  142.790;   -1.929;  975.101
293.335;  139.022;   -8.229;  735.086
293.934;  139.432;   -5.279;  781.677
294.532;  139.323;   -1.369; 1031.958
295.131;  123.975;   -7.641;  834.394
295.730;  125.290;   -8.420;  809.588
296.328;  123.105;   -5.611;  783.442
296.927;  123.595;   -5.781;  779.652
297.525;  123.620;   -6.361;  781.236
298.124;  114.172;  -11.382;  654.009
298.722;  118.368;   -7.641;  761.933
299.321;  116.577;   -6.811;  708.597
299.919;  114.321;   -6.991;  751.918
300.518;  109.936;  -10.362;  689.338
301.116;  111.565;   -9.581;  691.381
301.715;  111.667;   -4.891;  730.222
302.313;  110.925;   -8.801;  704.943
302.911;  106.198;   -8.522;  733.830
303.509;  111.021;   -6.171;  925.627
304.108;  109.395;   -7.311;  760.383
304.706;  108.292;   -8.321;  801.664
305.304;  102.697;  -10.222;  796.707
305.902;  107.438;   -6.021;  784.484
306.500;  103.601;   -4.971;  728.200
307.098;  101.643;   -7.061;  746.560
307.696;   99.222;   -8.801;  780.432
308.294;  100.226;   -6.411;  731.359
308.892;  102.371;   -2.901;  759.769
309.490;   98.282;   -5.041;  712.161
310.088;   95.359;   -5.002;  788.444
310.686;  100.281;   -2.041;  821.749
311.284;   95.914;   -2.351;  766.040
311.882;   93.797;   -4.422;  731.225
312.480;   90.726;   -4.192;  697.167
313.078;   92.238;   -1.172;  808.331
313.675;   93.335;   -2.601;  691.600
314.273;   88.173;   -1.312;  797.837
314.871;   87.166;   -3.942;  589.829
315.468;   84.795;   -2.802;  652.090
316.066;   88.427;   -0.701;  694.427
316.664;   80.709;   -4.362;  656.351
317.261;   85.140;   -2.872;  910.128
317.859;   79.893;   -2.022;  768.735
318.456;   80.554;   -0.531;  830.096
319.054;   76.185;   -3.912;  787.828
319.651;   75.339;   -4.752;  759.928
320.249;   73.942;   -2.602;  810.188
320.846;   72.317;   -0.821;  714.286
321.443;   69.463;   -4.642;  832.135
322.041;   66.306;   -5.002;  812.315
322.638;   62.986;   -3.982;  701.456
323.235;   65.758;   -3.411;  665.683
323.833;   62.525;   -7.361;  740.354
324.430;   56.776;   -8.611;  615.900
325.027;   57.780;   -4.061;  876.855
325.624;   58.315;   -4.031;  644.532
326.221;   55.287;   -7.481;  689.717
326.818;   54.514;   -5.281;  818.332
327.415;   57.332;   -7.460;  748.828
328.012;   57.410;   -5.510;  690.585
328.609;   54.990;   -7.880;  731.389
329.206;   53.691;   -8.331;  778.621
329.803;   52.829;   -5.121;  737.841
330.400;   56.346;   -4.510;  704.260
330.997;   57.904;   -6.441;  817.147
331.594;   56.252;   -8.831;  788.185
332.191;   61.569;   -7.621;  728.722
332.787;   64.649;   -4.591;  844.463
333.384;   64.335;   -7.412;  763.093
333.981;   62.706;   -8.293;  815.687
334.578;   65.309;   -7.052;  708.378
335.174;   68.468;   -3.102;  731.469
335.771;   67.909;   -5.943;  836.456
336.367;   64.693;   -7.393;  710.631
336.964;   67.588;   -4.063;  793.266
337.561;   68.054;   -3.813;  731.112
338.157;   63.094;   -4.654;  911.916
338.754;   60.906;   -7.934;  796.589
339.350;   58.640;   -4.414;  722.493
339.946;   60.394;   -4.664;  773.135
340.543;   51.948;   -6.375;  846.136
341.139;   47.427;   -9.815;  720.836
341.735;   44.248;   -4.526;  772.593
342.332;   42.277;   -4.895;  691.472
342.928;   43.283;   -4.295;  795.394
343.524;   35.945;   -5.476;  761.684
344.120;   32.169;   -5.856;  738.562
344.716;   36.330;   -2.155;  723.717
345.313;   33.994;   -6.275;  795.342
345.909;   28.664;   -8.815;  627.336
346.505;   29.557;   -5.305;  740.247
347.101;   30.373;   -2.674;  827.864
347.697;   30.451;   -4.344;  785.398
348.293;   25.928;   -9.975;  627.244
348.889;   26.554;   -5.774;  745.914
349.485;   25.617;   -5.004;  688.205
350.081;   26.292;   -4.704;  772.592
350.676;   21.971;   -6.635;  691.606
351.272;   25.263;   -4.504;  809.530
351.868;   24.954;   -3.914;  780.497
352.464;   23.158;   -9.044;  723.932
353.059;   19.196;   -8.314;  646.017
353.655;   22.557;   -7.024;  777.063
354.251;   23.200;   -5.343;  759.845
354.846;   17.658;   -8.604;  740.646
355.442;   15.712;   -6.945;  753.071
356.038;   17.383;   -7.564;  751.708
356.633;   17.556;   -5.814;  728.594
357.229;   14.116;   -7.364;  724.757
357.824;   14.503;   -8.024;  703.600
358.420;   12.928;   -9.384;  679.726
359.015;   13.581;   -5.104;  695.357
359.610;   14.609;   -6.854;  763.920
360.206;    8.481;  -10.185;  603.240
360.801;   11.614;   -7.054;  646.503
361.396;   13.220;   -5.034;  725.975
361.992;    8.812;   -8.284;  668.220
362.587;    5.437;   -8.625;  670.160
363.182;    8.467;   -7.674;  689.631
363.777;    9.054;   -5.164;  738.242
364.372;    8.684;   -8.604;  737.314
364.967;    4.230;   -9.055;  680.744
365.563;    8.389;   -6.114;  815.567
366.158;    5.805;   -5.814;  685.161
366.753;    6.479;   -7.854;  649.263
367.348;    5.074;   -7.804;  746.056
367.942;    4.141;   -7.954;  697.298
368.537;    3.196;   -4.984;  754.245
369.132;    3.750;   -8.564;  703.428
369.727;    0.585;   -8.855;  638.079
370.322;    1.100;   -6.245;  580.186
370.917;    0.711;   -6.425;  710.646
371.511;    2.838;   -6.294;  861.834
372.106;   -0.248;   -7.685;  776.964
372.701;   -3.432;   -7.335;  585.988
373.296;    2.192;   -4.564;  863.135
373.890;   -2.530;  -10.235;  647.840
374.485;   -4.330;   -7.885;  691.199
375.079;   -0.698;   -7.324;  738.685
375.674;    1.491;   -3.494;  812.970
376.268;   -3.714;   -8.525;  691.759
376.863;   -9.146;  -10.086;  580.327
377.457;   -2.987;   -7.025;  662.490
378.052;   -5.049;   -3.585;  764.884
378.646;   -6.271;   -7.595;  741.167
379.240;   -6.809;   -8.335;  721.176
379.835;   -5.524;   -5.785;  636.978
380.429;   -7.482;   -4.335;  562.557
381.023;   -7.496;   -6.805;  779.205
381.617;   -9.725;   -9.195;  680.106
382.212;   -6.480;   -6.905;  685.303
382.806;   -5.610;   -3.745;  760.690
383.400;   -9.449;   -7.745;  672.281
383.994;  -10.849;   -9.765;  664.870
384.588;   -7.345;   -6.564;  697.701
385.182;   -5.217;   -5.344;  726.624
385.776;   -7.166;   -8.514;  706.875
386.370;  -10.518;   -9.555;  681.968
386.964;   -9.193;   -8.715;  684.155
387.558;   -7.411;   -6.174;  598.360
388.152;  -10.629;   -8.725;  681.959
388.745;   -9.009;   -7.965;  814.707
389.339;   -7.219;   -5.924;  747.642
389.933;   -6.599;   -5.524;  695.370
390.527;   -7.677;   -7.114;  859.029
391.120;  -13.630;  -10.725;  595.318
391.714;  -11.311;   -8.035;  711.633
392.308;   -8.343;   -3.574;  780.253
392.901;  -11.496;   -7.245;  642.460
393.495;  -13.356;   -9.285;  595.414
394.089;  -11.099;   -5.895;  760.452
394.682;  -11.741;   -4.295;  697.188
395.275;  -12.583;   -9.875;  719.927
395.869;  -13.473;   -8.485;  667.314
396.462;  -12.410;   -7.455;  616.609
397.056;   -7.910;   -5.424;  776.621
397.649;  -13.408;   -6.605;  731.575
398.242;  -10.715;   -8.224;  712.645
398.836;   -9.027;   -7.474;  766.408
399.429;  -10.140;   -7.094;  631.041
400.022;  -14.017;   -9.475;  665.902
400.615;  -11.132;   -7.145;  805.609
401.208;   -9.379;   -7.174;  691.451
401.802;  -11.450;   -5.515;  699.329
402.395;  -12.391;   -9.875;  683.502
402.988;  -13.482;   -8.845;  696.627
403.581;  -10.480;   -8.874;  646.878
404.174;   -8.447;   -5.324;  686.568
404.767;  -11.371;   -9.575;  638.583
405.360;  -13.835;  -10.965;  621.445
405.953;   -8.466;   -8.764;  759.034
406.545;   -6.783;   -7.514;  725.342
407.138;  -12.262;  -10.025;  618.350
407.731;  -10.318;  -10.034;  613.303
408.324;   -7.026;   -9.374;  660.554
408.917;   -7.469;   -6.534;  681.864
409.509;   -9.646;   -8.004;  740.396
410.102;  -12.221;   -9.875;  643.948
410.695;   -5.434;   -8.604;  665.758
411.287;   -6.411;   -6.794;  599.821
411.880;   -8.333;   -9.334;  585.421
412.472;  -10.240;  -10.254;  613.092
413.065;   -8.591;   -6.714;  629.408
413.657;   -5.717;   -7.234;  576.678
414.250;   -5.709;  -10.544;  646.681
414.842;   -7.272;   -9.744;  676.353
415.434;   -5.504;   -6.994;  570.463
416.027;   -1.280;   -5.893;  652.196
416.619;   -3.373;   -7.264;  713.400
417.211;   -4.133;  -10.374;  599.352
417.804;   -0.301;   -7.993;  628.499
418.396;   -4.324;   -7.234;  607.643
418.988;   -2.271;   -9.443;  659.238
419.580;   -5.643;  -10.724;  568.276
420.172;   -2.991;  -10.323;  536.196
420.764;    1.490;   -8.793;  672.482
421.356;   -0.259;  -11.143;  636.898
421.948;   -0.925;   -8.293;  677.661
422.540;    3.578;   -7.893;  680.027
423.132;    3.102;   -7.082;  600.641
423.724;    0.299;   -8.653;  561.267
424.316;    2.413;  -10.213;  621.345
424.908;    5.813;   -9.762;  591.517
425.500;    5.634;   -5.572;  647.978
426.092;    6.454;   -8.422;  648.268
426.683;    6.336;   -9.283;  684.836
427.275;    8.425;   -7.852;  641.471
427.867;   10.406;   -5.272;  668.948
428.458;   10.220;   -7.682;  732.344
429.050;    8.725;  -10.612;  680.749
429.642;   10.798;   -9.882;  743.124
430.233;   11.792;   -6.962;  569.356
430.825;   13.243;   -6.842;  724.809
431.416;    9.684;   -9.672;  698.241
432.008;   14.500;   -6.552;  651.723
432.599;   15.055;   -6.891;  656.073
433.190;   11.418;  -10.912;  637.670
433.782;   11.831;  -11.172;  590.395
434.373;   18.769;   -6.061;  884.765
434.964;   17.515;   -8.251;  602.920
435.556;   15.276;   -9.722;  634.537
436.147;   17.872;   -9.082;  758.490
436.738;   18.331;   -8.041;  701.099
437.329;   22.954;   -7.341;  721.723
437.920;   15.308;   -8.162;  666.688
438.511;   16.066;  -11.802;  564.526
439.103;   22.866;  -10.191;  623.998
439.694;   24.811;   -7.601;  681.583
440.285;   24.750;   -8.541;  764.432
440.876;   22.890;   -9.751;  845.738
441.466;   23.678;   -9.401;  575.162
442.057;   28.236;   -7.760;  665.814
442.648;   26.325;   -9.971;  746.255
443.239;   25.355;  -11.001;  620.477
443.830;   30.964;   -7.990;  704.958
444.421;   32.486;   -7.910;  655.474
445.011;   28.137;   -8.131;  693.619
445.602;   28.058;   -7.111;  743.126
446.193;   30.182;  -10.920;  488.117
446.783;   33.732;   -6.500;  640.397
447.374;   30.315;   -8.671;  692.759
447.964;   30.676;  -10.781;  713.770
448.555;   39.158;   -9.650;  822.742
449.145;   35.734;   -8.660;  662.853
449.736;   36.877;   -8.990;  803.179
450.326;   36.552;   -9.500;  713.626
450.917;   41.512;   -8.680;  675.324
451.507;   40.910;   -7.520;  600.661
452.097;   41.026;   -8.590;  746.267
452.688;   42.530;  -11.340;  742.160
453.278;   42.741;  -10.100;  566.840
453.868;   47.142;   -6.019;  793.550
454.458;   45.358;   -9.440;  651.141
455.048;   44.799;  -10.560;  711.783
455.639;   46.880;  -11.799;  567.096
456.229;   50.117;   -6.899;  710.694
456.819;   51.640;   -7.389;  751.158
457.409;   52.062;  -11.119;  773.993
457.999;   54.310;   -9.289;  737.505
458.589;   55.001;   -6.139;  686.606
459.179;   55.184;   -8.729;  717.658
459.769;   52.961;   -9.789;  627.099
460.358;   58.050;  -10.259;  797.262
460.948;   56.878;   -7.299;  689.503
461.538;   59.931;  -10.289;  660.677
462.128;   57.031;  -11.269;  664.934
462.717;   64.413;   -9.368;  710.326
463.307;   67.609;   -7.908;  705.846
463.897;   63.420;   -9.599;  656.942
464.486;   61.751;   -9.769;  837.128
465.076;   66.833;   -8.048;  733.776
465.666;   71.561;   -9.358;  652.900
466.255;   68.519;   -7.919;  785.651
466.845;   67.323;  -11.689;  666.749
467.434;   70.821;   -7.818;  725.873
468.023;   71.640;   -7.678;  658.357
468.613;   69.455;  -10.939;  713.946
469.202;   74.420;  -10.118;  646.507
469.791;   77.794;   -9.108;  737.811
470.381;   80.363;   -6.058;  742.813
470.970;   79.663;  -10.428;  711.099
471.559;   79.239;  -10.268;  733.291
472.148;   82.823;   -8.448;  675.737
472.738;   85.945;   -6.917;  765.466
473.327;   84.310;  -11.978;  637.529
473.916;   83.996;  -11.888;  737.446
474.505;   88.274;   -9.437;  751.703
475.094;   92.412;   -6.747;  806.570
475.683;   91.406;   -9.367;  797.699
476.272;   92.377;  -12.637;  730.632
476.861;   95.625;  -10.027;  706.754
477.449;  101.868;   -8.716;  728.487
478.038;   95.844;   -9.577;  692.513
478.627;   97.420;   -9.718;  714.852
479.216;  104.375;   -8.947;  769.441
479.805;  107.538;   -6.256;  783.375
480.393;  107.106;   -7.937; 1008.945
480.982;  106.422;   -7.717;  874.501
481.571;  112.802;   -9.266;  858.333
482.159;  113.671;   -7.636;  705.386
482.748;  113.167;   -9.667;  821.385
483.336;  118.205;  -10.376;  858.209
483.925;  119.222;   -7.147;  774.373
484.513;  126.482;   -7.996;  758.962
485.102;  123.333;  -10.027;  810.965
485.690;  131.532;  -10.446; 1011.050
486.278;  133.781;   -8.446;  979.329
486.867;  134.594;   -6.356;  809.662
487.455;  136.770;   -9.136;  898.229
488.043;  138.802;  -10.646;  748.361
488.631;  147.121;   -7.456; 1005.079
489.220;  151.494;   -6.636;  908.626
489.808;  151.812;  -11.036;  741.415
490.396;  160.902;  -10.246;  914.645
490.984;  167.918;   -8.556;  830.161
491.572;  180.314;   -5.886;  940.315
492.160;  187.558;   -9.486;  919.081
492.748;  198.996;  -10.976;  884.341
493.336;  222.038;   -8.776; 1019.693
493.924;  255.195;   -5.465;  958.077
494.512;  294.059;   -9.986; 1066.638
495.100;  342.571;  -10.636; 1103.280
495.687;  410.084;  -10.885; 1206.373
496.275;  499.508;   -8.126; 1150.796
496.863;  587.544;  -10.586; 1281.171
497.451;  705.621;  -11.926; 1386.805
498.038;  820.675;  -10.885; 1556.729
498.626;  955.960;   -6.315; 1741.407
499.214; 1180.794;   -7.326; 2016.609
499.801; 1435.368;  -11.906; 2220.633
500.389; 1767.633;  -10.466; 2312.494
500.976; 2079.534;   -5.236; 2744.849
501.564; 2575.211;   -8.936; 3148.565
502.151; 3273.560;  -13.176; 3515.999
502.738; 3686.065;  -10.646; 3971.274
503.326; 4143.141;   -9.525; 4403.796
503.913; 4642.702;  -10.856; 5161.749
504.500; 5095.995;  -11.586; 5986.420
505.088; 5695.736;  -10.336; 6381.201
505.675; 6639.738;   -6.355; 6925.547
506.262; 7306.667;   -9.046; 7619.060
506.849; 7713.877;  -10.416; 8733.969
507.436; 8200.805;  -10.305; 9790.121
508.023; 8625.642;   -5.496; 9985.472
508.610; 8730.087;   -7.856;10434.618
509.197; 9766.396;  -10.097;11198.435
509.784;11171.072;  -10.886;12391.194
510.371;12706.997;   -9.315;13603.713
510.958;13858.283;   -9.936;14426.586
511.545;14327.978;   -9.326;15243.775
512.132;14578.119;  -10.075;15945.876
512.719;15167.556;   -7.796;16340.369
513.305;16459.029;  -10.606;18011.766
513.892;18143.457;  -11.486;19754.971
514.479;19586.037;   -9.126;20967.805
515.066;21134.660;   -6.026;22299.793
515.652;21394.631;   -8.466;22908.660
516.239;21944.375;  -10.886;23798.875
516.825;23408.592;  -11.496;25567.275
517.412;25034.246;   -5.796;28154.959
517.998;26391.990;  -10.506;28344.111
518.585;27366.254;  -10.076;27134.219
519.171;27002.465;   -8.315;27268.576
519.758;27671.605;   -8.596;28964.129
520.344;30343.934;   -8.466;30664.494
520.930;29292.688;  -11.006;32550.605
521.516;27654.502;  -10.495;35422.895
522.103;29510.102;   -5.526;38280.004
522.689;31914.736;   -8.746;37835.117
523.275;33193.980;  -11.376;37288.613
523.861;35321.402;  -11.156;37281.395
524.447;35084.738;   -8.135;37846.949
525.033;35368.199;   -7.896;38321.949
525.619;36109.387;  -12.476;38579.285
526.205;36341.164;   -9.516;40622.875
526.791;35980.059;   -6.926;42258.836
527.377;35850.094;   -8.346;42966.902
527.963;37607.234;   -8.717;42018.949
528.549;39366.660;  -11.016;42476.828
529.135;37919.863;   -8.536;41854.852
529.721;37813.164;   -9.666;41237.711
530.306;36882.938;  -10.066;41259.445
530.892;37916.422;  -11.356;41506.047
531.478;40265.855;   -6.596;43559.613
532.063;42553.855;   -8.836;47695.563
532.649;40559.168;  -10.047;50808.324
533.235;40187.863;   -9.746;51787.500
533.820;42796.555;   -6.566;52145.035
534.406;44485.051;  -10.817;51133.488
534.991;46359.656;   -9.416;49996.805
535.576;45127.441;   -9.036;48882.852
536.162;42559.391;   -6.156;46942.285
536.747;42804.145;  -11.607;45711.746
537.333;45733.457;  -11.787;48510.180
537.918;46827.730;  -12.437;50439.891
538.503;46456.426;   -7.196;50863.711
539.088;47033.379;  -10.556;50906.922
539.673;48112.254;   -8.767;52621.965
540.259;44836.266;  -10.026;52368.094
540.844;44025.047;   -7.416;50879.109
541.429;43655.133;   -9.467;52077.777
542.014;43246.441;   -9.527;52716.695
542.599;46635.500;   -9.946;52363.281
543.184;48203.664;   -7.927;53187.137
543.769;48163.570;   -9.297;54697.605
544.354;48366.355;  -10.127;53913.914
544.938;46143.609;   -9.267;49680.164
545.523;44128.086;   -6.506;47386.277
546.108;45849.539;   -9.787;49151.949
546.693;46938.480;  -11.587;51384.637
547.278;47351.105;  -10.986;51853.254
547.862;47481.527;   -8.206;51173.750
548.447;45433.094;  -10.067;51691.395
549.031;45480.543;   -9.637;52456.703
549.616;46187.461;   -9.926;52714.516
550.201;45295.449;   -6.347;52414.598
550.785;46445.457;   -7.917;52355.059
551.370;47606.035;  -10.867;54589.453
551.954;49825.430;   -9.047;58267.348
552.538;49096.617;   -7.827;59062.176
553.123;47032.297;  -10.287;58115.285
553.707;46442.832;  -12.178;56556.285
554.291;43781.707;   -8.717;56201.668
554.876;44787.426;   -7.457;55335.762
555.460;46875.375;  -10.387;54155.703
556.044;48383.750;   -9.618;53721.484
556.628;49325.516;  -11.567;53731.016
557.212;49900.879;   -8.097;54312.531
557.796;51074.414;  -11.077;53797.773
558.380;48797.113;  -11.108;56145.984
558.964;47270.813;   -9.057;57277.930
559.548;44938.148;   -6.977;56459.641
560.132;41596.254;  -11.457;54434.543
560.716;43016.641;  -11.378;54800.617
561.300;45456.270;   -9.577;57606.945
561.884;44077.453;   -7.127;58972.445
562.467;42165.477;   -7.118;57327.570
563.051;40777.270;  -13.358;54962.434
563.635;38966.590;  -10.178;52594.473
564.219;40942.121;   -7.837;50610.410
564.802;44628.551;  -11.398;49551.180
565.386;44826.105;  -12.788;48370.953
565.969;46005.816;   -9.077;48178.871
566.553;44734.047;   -6.207;49957.305
567.136;42970.602;   -8.568;50369.594
567.720;44102.258;  -11.868;49492.004
568.303;45362.801;   -8.268;50616.352
568.887;44694.449;   -8.698;50727.148
569.470;42532.211;   -6.808;51698.379
570.053;40312.254;  -13.188;52122.078
570.637;37982.070;  -12.037;52536.438
571.220;37816.977;   -8.577;51186.098
571.803;37902.773;   -8.498;51032.762
572.386;39967.434;  -10.498;49609.887
572.969;40821.633;   -9.388;48285.926
573.552;41019.043;   -8.338;47624.285
574.135;40275.199;   -8.518;45498.641
574.718;37529.066;  -13.628;41970.434
575.301;37928.824;  -10.893;41447.137
575.884;38328.582;   -8.158;40923.836
576.467;42286.574;  -10.328;45267.723
577.050;41889.109;  -13.058;48175.543
577.633;40458.176;   -9.458;47729.328
578.216;36914.379;   -8.928;47579.793
578.799;34279.082;   -9.358;47820.996
579.381;35681.426;  -11.388;48115.551
579.964;36430.641;  -11.718;47333.766
580.547;35283.645;   -8.588;46668.969
581.129;35658.512;   -8.859;44466.141
581.712;37305.770;  -10.729;44164.922
582.294;37127.309;  -11.118;46477.855
582.877;37941.184;   -5.218;48244.254
583.459;37998.281;   -8.679;47437.895
584.042;39200.270;  -10.709;46943.219
584.624;36988.699;  -11.669;46792.227
585.206;35787.992;   -8.218;46557.250
585.789;37120.945;  -10.569;45793.773
586.371;37600.809;  -11.859;43836.391
586.953;38283.621;  -10.719;42972.492
587.536;39725.574;   -7.198;42487.211
588.118;38957.281;   -8.720;42086.414
588.700;37908.988;  -10.439;43389.930
589.282;35243.598;   -9.198;43646.039
589.864;33081.082;   -9.199;43438.109
590.446;32930.879;  -11.319;43151.926
591.028;32470.145;  -11.159;42781.867
591.610;32858.762;  -11.779;42839.098
592.192;34001.867;   -7.668;42820.402
592.774;33155.238;  -11.949;40724.277
593.356;31150.564;  -12.129;39874.789
593.937;30800.373;  -10.669;39980.648
594.519;33475.387;   -6.509;42069.633
595.101;33650.516;  -10.849;42976.031
595.683;32387.924;  -11.679;44084.441
596.264;31593.691;   -9.049;43478.797
596.846;31231.197;   -8.849;43803.672
597.427;31234.361;   -9.570;42986.934
598.009;32918.203;  -12.620;42832.219
598.591;32997.453;  -10.039;42580.086
599.172;35086.367;  -10.369;43061.805
599.753;37279.801;   -9.140;41691.469
600.335;36605.328;  -11.430;40692.520
600.916;34029.129;   -9.939;39982.422
601.498;30785.539;   -8.479;40318.617
602.079;30327.566;  -10.920;40670.609
602.660;30018.094;  -11.480;41450.898
603.241;30825.244;  -11.699;41137.738
603.823;31063.707;   -9.579;38868.797
604.404;30617.418;  -10.620;38182.785
604.985;33678.082;  -10.450;38078.047
605.566;34705.219;   -9.129;38056.633
606.147;35556.590;   -7.510;37020.418
606.728;34350.664;  -10.660;37883.359
607.309;32539.574;  -11.740;38748.273
607.890;32440.119;   -9.759;38850.230
608.471;31006.670;   -8.250;37457.918
609.051;31008.023;   -9.240;36066.457
609.632;31216.615;  -12.120;35991.074
610.213;30819.447;   -9.110;37402.641
610.794;31878.158;   -8.030;38383.363
611.374;30547.750;   -8.110;40562.387
611.955;30174.930;  -13.560;38533.727
612.536;31192.445;  -11.400;36951.789
613.116;30722.844;   -8.070;37197.891
613.697;31614.746;  -10.830;38411.125
614.277;31437.434;  -11.641;38673.938
614.858;30770.561;  -13.310;37075.863
615.438;30808.613;   -7.460;35092.906
616.019;28842.740;   -7.601;33666.301
616.599;29517.854;  -12.020;34189.023
617.179;29284.770;  -11.780;36952.047
617.760;28209.555;   -8.570;39582.574
618.340;28860.916;  -11.471;38943.977
618.920;29567.008;  -11.170;37594.156
619.500;30427.635;  -11.071;37866.938
620.080;30837.096;   -7.750;37869.043
620.660;30983.334;  -12.711;36868.617
621.241;31713.922;  -10.211;36352.309
621.821;31357.137;  -10.961;35459.520
622.401;31469.283;   -7.720;35207.414
622.980;33403.273;   -8.981;35980.422
623.560;32250.953;   -9.331;37351.328
624.140;27906.209;   -9.850;34388.582
624.720;23852.277;   -7.451;32368.764
625.300;23412.834;   -9.070;32638.629
625.880;27703.369;  -12.601;34599.035
626.459;30771.684;  -11.751;36831.738
627.039;30702.811;   -9.281;38299.098
627.619;29956.385;   -8.801;38289.574
628.198;30139.002;  -12.071;37220.695
628.778;30954.240;   -9.461;37632.563
629.357;31746.068;   -8.491;38003.012
629.937;31312.137;   -9.721;38402.039
630.516;31874.314;   -9.951;37868.801
631.096;32943.828;  -11.731;35760.410
631.675;35318.984;   -8.572;35225.219
632.254;35300.020;  -11.282;35130.289
632.834;34070.250;  -13.322;35794.570
633.413;34831.828;  -10.301;35788.922
633.992;34849.590;   -8.582;34532.863
634.571;35869.902;   -8.352;33590.113
635.151;35108.391;  -11.912;34943.863
635.730;32792.305;  -10.511;35352.523
636.309;32522.471;   -7.731;35366.605
636.888;31919.779;   -9.952;36165.637
637.467;31339.756;  -11.672;37515.902
638.046;29907.781;   -8.901;39288.695
638.625;29222.064;   -7.912;38279.699
639.204;28561.281;  -10.022;37741.598
639.782;29725.727;  -12.252;38364.551
640.361;31804.836;  -10.041;36740.621
640.940;31692.645;  -11.161;34950.082
641.519;31052.871;   -9.701;34137.398
642.097;32178.523;  -11.271;35654.258
642.676;32285.260;   -8.651;35637.957
643.255;31371.445;   -8.711;36567.074
643.833;30863.512;   -9.581;37809.434
644.412;31538.986;  -13.711;37337.293
644.990;32821.207;  -11.811;37018.531
645.569;35611.078;   -9.411;36518.469
646.147;36215.578;  -10.291;36186.430
646.726;34299.551;  -12.401;36267.688
647.304;32628.682;  -10.411;36647.625
647.882;33251.340;   -9.651;39286.742
648.461;33173.586;   -9.631;39157.703
649.039;30834.531;  -11.881;35412.883
649.617;30603.031;   -9.661;34744.918
650.195;31225.953;   -9.301;35403.098
650.773;30518.896;  -10.511;35053.797
651.352;30317.566;  -11.521;33756.816
651.930;28962.820;  -12.211;31868.773
652.508;27932.396;   -9.171;33121.551
653.086;29169.230;   -9.371;33564.793
653.663;31488.031;  -13.161;34054.668
654.241;30604.801;  -13.031;35693.309
654.819;28791.502;   -9.371;36422.906
655.397;29452.875;  -10.511;38213.484
655.975;29599.051;  -10.371;39507.625
656.553;30228.346;  -10.051;39498.223
657.130;31069.080;  -10.061;40395.480
657.708;28054.584;   -9.561;39242.020
658.286;25314.518;  -11.511;38920.020
658.863;25618.730;  -10.261;40202.898
659.441;28375.756;   -7.531;39677.938
660.018;31168.838;   -9.501;40413.355
660.596;31859.428;  -13.301;39931.414
661.173;34566.605;  -11.211;39604.531
661.750;33880.449;   -9.951;39700.070
662.328;31088.740;   -9.390;39292.809
662.905;29755.365;  -11.330;38235.648
663.482;27092.752;   -9.050;36212.305
664.060;24667.771;   -8.240;35944.945
664.637;28477.852;  -10.050;35170.785
665.214;33192.113;  -11.760;34197.523
665.791;32247.260;  -10.530;34549.520
666.368;31957.082;   -9.690;35118.578
666.945;32181.223;   -9.320;36019.418
667.522;32979.688;  -11.860;36048.438
668.099;32003.791;  -10.770;36243.914
668.676;31882.662;   -6.260;35958.875
669.253;34123.852;   -7.000;37384.730
669.830;34558.645;  -10.190;36779.629
670.407;33355.941;   -9.550;35231.289
670.984;32755.799;   -9.260;35544.270
671.560;31199.705;   -9.280;35466.867
672.137;29500.684;  -11.810;34280.863
672.714;29609.773;  -11.490;34632.863
673.290;30395.154;   -7.740;35135.422
673.867;30945.092;  -10.660;36114.480
674.443;30360.363;  -12.230;36152.859
675.020;28763.328;  -10.450;35327.238
675.596;27220.201;   -9.260;35795.176
676.173;28035.789;  -10.780;35430.355
676.749;28801.463;  -13.690;33549.516
677.326;30000.230;  -11.980;32210.012
677.902;28262.002;   -8.630;32068.871
678.478;26333.613;  -10.730;32583.891
679.054;27900.859;  -10.520;32088.928
679.631;29344.887;  -11.920;30978.848
680.207;30465.211;   -7.490;33160.887
680.783;31784.783;   -9.860;35570.363
681.359;32310.375;  -13.380;36125.184
681.935;30740.832;  -12.480;35240.922
682.511;31246.238;   -7.900;34429.961
683.087;32012.408;   -7.710;34463.680
683.663;32844.484;  -11.480;34648.898
684.239;32350.803;  -14.090;34546.457
684.815;33275.320;   -7.560;35586.375
685.390;33386.848;   -9.910;35821.895
685.966;33054.922;  -11.159;35085.871
686.542;33643.250;  -11.169;34198.230
687.118;32133.314;   -5.959;32847.707
687.693;32152.410;  -10.329;32794.027
688.269;31777.168;  -12.059;33072.367
688.844;32356.883;  -10.909;33141.664
689.420;33548.691;   -8.019;33965.742
689.995;30461.699;   -8.399;34655.523
690.571;29759.799;  -10.949;33576.742
691.146;29004.541;   -9.619;32657.219
691.722;26884.852;   -8.999;32526.979
692.297;25870.537;  -11.589;33014.617
692.872;26543.053;  -11.739;34012.254
693.448;26732.721;  -11.059;34237.434
694.023;28569.121;  -10.139;34142.672
694.598;30799.295;   -9.029;34132.031
695.173;30638.467;  -13.319;34205.250
695.748;28155.951;  -10.169;32882.488
696.323;25648.156;   -8.339;32864.906
696.898;25042.412;   -8.169;33170.004
697.473;28265.158;  -12.309;32432.984
698.048;28333.145;  -10.989;31649.303
698.623;27324.229;   -9.329;30778.141
699.198;28947.432;   -9.849;31140.119
699.773;30380.354;  -12.329;31764.299
700.348;30264.891;  -10.389;31780.816
700.922;28367.783;   -9.269;32046.375
701.497;26434.461;   -9.329;32603.574
702.072;27962.037;  -10.789;34799.871
702.646;27807.787;  -10.839;35793.172
703.221;28405.227;   -9.099;35201.590
703.795;29077.797;  -10.939;34764.527
704.370;27740.275;  -12.859;34307.367
704.944;29095.264;  -11.559;33509.887
705.519;30109.738;   -7.939;31388.584
706.093;31998.086;  -10.499;31340.104
706.668;32970.215;  -11.289;32630.281
707.242;32167.971;  -11.509;32728.779
707.816;30792.182;   -9.639;32947.238
708.390;30090.936;  -11.429;33277.855
708.965;31076.439;  -11.869;33834.336
709.539;31139.773;  -11.689;33709.273
710.113;30781.564;  -10.478;33044.313
710.687;28230.512;  -10.228;31953.992
711.261;27404.016;  -13.698;30505.949
711.835;27178.088;  -13.378;30262.369
712.409;26742.531;   -9.698;31254.447
712.983;26266.111;  -11.898;32754.986
713.557;25031.443;  -15.138;34018.824
714.131;26339.928;  -14.098;34579.625
714.704;26556.029;   -9.958;33890.262
715.278;25792.404;  -10.028;33531.102
715.852;24861.797;  -11.148;33601.660
716.425;24348.518;   -9.068;33515.117
716.999;25982.131;  -10.038;33185.555
717.573;26604.766;   -9.798;33905.996
718.146;27491.021;  -12.378;35199.293
718.720;28068.213;  -11.918;35060.551
719.293;27256.977;   -8.088;34973.230
719.867;26352.592;  -10.888;36394.449
720.440;26975.891;  -11.938;36663.008
721.013;28816.119;  -12.818;35102.426
721.587;30192.285;  -10.298;33985.266
722.160;29922.113;  -10.048;33524.965
722.733;28076.172;  -12.108;32987.043
723.306;26015.627;  -10.818;33066.301
723.880;26485.268;   -8.908;33399.500
724.453;25576.027;   -9.878;33468.297
725.026;25117.990;  -11.188;33816.637
725.599;25414.488;  -11.678;32797.996
726.172;25206.189;   -9.618;33187.434
726.745;26206.133;   -8.258;35136.613
727.318;28713.461;  -12.978;35751.730
727.891;30618.215;  -12.148;35890.430
728.463;31905.746;   -8.968;34822.090
729.036;32161.773;  -10.188;32895.086
729.609;29853.041;  -11.788;31823.225
730.182;27939.859;  -11.788;31445.283
730.754;27126.709;  -10.268;32373.223
731.327;26821.111;   -9.998;33676.820
731.900;25862.162;  -12.228;33417.000
732.472;24953.000;  -13.848;31978.498
733.045;24871.627;   -8.698;30368.777
733.617;24337.428;  -10.607;30574.215
734.190;23038.883;  -11.507;31280.975
734.762;23459.383;  -13.647;31674.412
735.334;24878.887;   -9.767;31247.291
735.907;25346.961;   -9.897;29876.211
736.479;23313.639;  -11.637;29808.488
737.051;22370.980;   -9.567;30233.547
737.623;23127.385;   -8.187;31469.086
738.195;24989.406;  -11.187;31784.225
738.768;25412.359;  -12.337;32120.523
739.340;24888.428;  -12.227;32094.342
739.912;24412.436;  -11.057;31312.680
740.484;25137.443;  -10.207;31946.238
741.056;26373.824;  -10.047;32984.059
741.628;26049.875;  -13.627;33897.715
742.199;26473.912;   -7.177;33213.016
742.771;24774.854;  -10.797;31369.113
743.343;23301.605;  -11.997;31865.473
743.915;23508.016;  -12.867;32388.631
744.487;24036.309;   -7.617;31079.568
745.058;25306.939;   -9.557;30570.107
745.630;25276.965;   -9.877;29970.127
746.201;24223.803;  -14.177;29186.766
746.773;23801.602;   -9.237;28805.723
747.344;23807.781;   -9.847;29591.223
747.916;23882.592;  -11.657;31412.201
748.487;23601.816;  -10.587;32194.898
749.059;23473.945;   -8.707;32533.719
749.630;22609.596;  -10.537;32158.518
750.201;22868.357;  -11.687;30855.395
750.773;23035.947;  -11.647;28622.555
751.344;24235.254;   -7.147;28405.732
751.915;24055.449;   -9.757;28461.551
752.486;23677.854;  -12.427;27842.850
753.057;22206.195;  -12.227;27845.008
753.628;21858.264;  -10.417;27728.107
754.199;22037.463;  -11.767;27381.086
754.770;21432.986;  -11.187;25882.203
755.341;20785.254;  -10.507;25886.184
755.912;20988.111;   -9.387;26050.861
756.483;21438.896;  -10.647;26798.779
757.054;21255.191;  -11.837;27048.238
757.625;19573.150;  -12.716;26294.838
758.195;18891.590;   -9.666;26142.076
758.766;19768.465;   -8.656;26392.234
759.337;19623.549;  -12.856;26334.594
759.907;18940.471;  -13.366;27579.652
760.478;18074.930;   -8.576;28352.770
761.048;18781.605;  -10.526;27325.088
761.619;19453.445;  -11.116;26460.428
762.189;19056.199;  -12.136;26029.826
762.760;19127.488;   -9.456;26430.145
763.330;19369.906;   -7.136;26670.902
763.900;19353.145;  -11.786;26603.021
764.471;18575.375;  -11.546;25542.740
765.041;18218.869;   -8.096;24358.459
765.611;18266.416;   -8.876;23991.297
766.181;18290.365;  -12.196;24470.236
766.751;18966.955;  -11.636;24845.975
767.321;19116.592;  -10.156;24533.633
767.891;18919.238;  -11.766;24916.492
768.461;18658.387;  -14.936;24776.771
769.031;17909.330;  -12.356;24757.988
769.601;17688.449;   -7.526;24181.088
770.171;18023.342;  -10.766;23670.387
770.741;18588.896;  -13.176;22960.045
771.311;18202.889;  -10.616;22917.523
771.880;16909.621;   -9.576;23562.941
772.450;16376.452;  -10.336;24216.500
773.020;16565.555;  -13.516;24140.398
773.589;16461.104;  -13.466;24414.857
774.159;15981.891;   -8.686;23858.717
774.729;15389.610;   -9.476;22942.135
775.298;15359.779;  -13.666;22324.033
775.867;15315.070;  -11.716;21140.313
776.437;14758.420;   -9.906;20838.092
777.006;14616.525;  -12.166;20599.510
777.576;15925.965;  -12.356;20508.809
778.145;15346.203;  -11.646;20732.947
778.714;13929.036;   -8.226;21062.465
779.283;13415.380;   -9.556;20949.664
779.853;13166.811;  -14.116;20508.623
780.422;13425.788;  -11.506;20649.082
780.991;13881.106;   -9.556;21527.520
781.560;14603.732;   -9.095;22632.658
782.129;13575.706;  -12.135;23048.277
782.698;12261.134;  -10.865;23438.555
783.267;11627.908;   -9.335;23267.734
783.836;11989.870;  -11.045;22415.133
784.404;12739.234;  -13.865;20443.152
784.973;12964.500;  -13.095;19699.150
785.542;12860.215;  -11.575;19763.828
786.111;12655.503;   -9.705;20341.408
786.679;12501.673;  -12.105;20207.967
787.248;12239.729;  -12.455;19516.465
787.817;12143.367;  -11.535;18900.363
788.385;11981.446;   -9.765;17879.121
788.954;11779.518;  -14.005;17658.301
789.522;11601.755;  -11.955;17788.879
790.090;10780.010;  -10.135;18118.277
790.659; 9891.969;  -10.975;18338.736
791.227; 9902.681;  -13.375;18508.615
791.795;10252.824;  -12.375;17898.254
792.364;10433.082;  -10.725;17295.133
792.932;10762.147;   -9.715;16822.051
793.500;10499.798;  -12.675;17040.148
794.068;10708.445;  -13.495;17179.787
794.636;10774.233;  -10.885;16664.246
795.204;10431.769;  -11.045;16524.545
795.772;10437.386;  -13.175;17274.564
796.340;10213.197;  -12.445;17891.002
796.908;10407.877;   -9.735;17648.561
797.476;10830.137;   -9.815;17064.080
798.044;10580.139;  -13.985;16672.777
798.612;10138.166;  -13.115;17023.996
799.180; 9355.716;  -10.185;16561.615
799.747; 8978.463;   -9.055;15962.773
800.315; 9180.392;  -12.385;15296.992
800.883; 8603.969;  -15.035;14801.771
801.450; 7894.584;  -10.365;14534.430
802.018; 7597.003;   -9.855;14173.248
802.585; 7522.206;  -11.905;14029.547
803.153; 7657.701;  -11.585;13836.846
803.720; 7451.903;   -9.095;13567.324
804.287; 7361.413;   -9.135;13360.622
804.855; 7548.218;  -11.604;13681.981
805.422; 7875.663;  -11.794;13536.560
805.989; 8084.780;  -10.734;13355.958
806.556; 8021.605;  -10.444;13747.896
807.124; 8269.634;  -12.764;13987.376
807.691; 8726.829;  -12.964;14038.674
808.258; 8771.903;  -11.134;14120.152
808.825; 8771.374;   -9.854;13860.111
809.392; 8426.057;  -10.504;13268.790
809.959; 7744.485;  -13.054;12680.389
810.526; 7020.868;   -8.294;12427.308
811.093; 6351.659;   -8.394;12030.105
811.659; 6108.067;  -12.304;11653.664
812.226; 6254.243;  -13.944;11637.183
812.793; 6630.314;  -10.484;11611.521
813.360; 6773.593;  -10.144;11885.181
813.926; 6783.835;  -11.684;12770.539
814.493; 6686.321;  -13.644;12677.638
815.060; 6549.160;   -9.724;11974.336
815.626; 6720.525;   -9.854;11594.715
816.193; 6807.474;  -13.254;11579.474
816.759; 6238.274;  -13.204;11666.972
817.325; 5816.848;   -9.434;11325.530
817.892; 5691.610;  -10.134;11105.369
818.458; 5816.619;  -13.474;10843.928
819.024; 6248.941;  -11.854;10714.406
819.591; 6386.927;  -10.244;10469.165
820.157; 6180.498;  -10.704;10235.523
820.723; 6146.771;  -12.324;10847.563
821.289; 6049.764;   -9.444;11040.980
821.855; 6092.151;   -8.374;10357.100
822.421; 6400.673;  -10.234; 9978.918
822.987; 6375.793;  -13.294; 9754.177
823.553; 6051.270;  -10.884;10065.755
824.119; 5811.894;   -8.884;10036.294
824.685; 5362.400;   -6.784;10029.192
825.251; 5281.850;  -12.004;10199.230
825.816; 5087.742;  -11.474; 9820.189
826.382; 4902.313;   -9.174; 9297.248
826.948; 5157.405;   -9.214; 9381.347
827.513; 5556.720;  -10.774; 9450.726
828.079; 5669.381;  -11.924; 9472.444
828.645; 5519.770;  -10.543; 9292.643
829.210; 5414.524;  -10.533; 9065.341
829.776; 5316.718;  -10.753; 9132.620
830.341; 5439.915;  -10.173; 9092.878
830.906; 5473.901;  -10.743; 9078.557
831.472; 5251.813;  -11.113; 8534.535
832.037; 4907.637;  -10.603; 8677.874
832.602; 4801.669;  -13.323; 8628.692
833.167; 4602.947;  -10.823; 8879.031
833.733; 4483.215;  -10.113; 9189.790
834.298; 4363.623;  -13.583; 9052.608
834.863; 4551.222;  -12.703; 8895.087
835.428; 4790.350;  -10.523; 8824.266
835.993; 4747.493;   -6.963; 8845.385
836.558; 4719.733;  -10.763; 8888.563
837.123; 4840.245;   -9.903; 8966.582
837.688; 5185.218;   -9.913; 8617.860
838.253; 5247.863;  -10.283; 8590.699
838.817; 4922.768;  -12.963; 8443.797
839.382; 4813.143;  -14.243; 8799.356
839.947; 4957.711;  -10.733; 8810.595
840.511; 4976.280;   -9.383; 8796.394
841.076; 4832.227;  -12.563; 8347.231
841.641; 4666.908;  -12.953; 8224.330
842.205; 4535.843;   -7.043; 8223.349
842.770; 4331.518;   -8.163; 8622.107
843.334; 4461.696;  -12.503; 8410.386
843.898; 4625.729;  -11.693; 8337.465
844.463; 4224.010;  -10.203; 8506.283
845.027; 3903.962;   -9.533; 8280.962
845.591; 3923.856;  -13.443; 8231.141
846.156; 4013.223;  -13.143; 7969.179
846.720; 3865.249;   -9.433; 7768.278
847.284; 3753.331;  -11.033; 7630.957
847.848; 3728.044;  -10.403; 7472.395
848.412; 3575.491;  -11.553; 7437.394
848.976; 3497.614;   -8.393; 7674.592
849.540; 3463.511;   -8.713; 7836.011
850.104; 3444.089;  -12.463; 7913.669
850.668; 3515.399;  -12.973; 7694.508
851.232; 3480.806;  -10.793; 7756.887
851.796; 3484.301;  -10.662; 7926.545
852.359; 3559.876;  -13.082; 7827.844
852.923; 3526.511;  -12.192; 7641.163
853.487; 3526.775;  -11.912; 7342.501
854.050; 3378.305;  -10.892; 7042.820
854.614; 3403.771;  -13.992; 7151.338
855.177; 3464.236;  -11.732; 7105.077
855.741; 3348.796;   -8.962; 6989.675
856.304; 3211.949;   -9.442; 6596.634
856.868; 3082.313;  -14.192; 6356.272
857.431; 3022.434;  -12.702; 6468.571
857.995; 3021.429;   -9.942; 6373.210
858.558; 3105.734;   -9.112; 6324.448
859.121; 3010.213;  -12.932; 6408.327
859.684; 2882.008;  -13.442; 6347.886
860.247; 2840.801;  -10.632; 6321.264
860.810; 2801.156;  -11.272; 6301.903
861.374; 2715.556;   -9.832; 6607.881
861.937; 2628.385;  -11.762; 6408.200
862.500; 2619.522;   -9.722; 6572.639
863.062; 2597.793;  -10.512; 6387.297
863.625; 2588.885;  -11.232; 6190.836
864.188; 2623.049;  -14.112; 5807.254
864.751; 2630.315;  -11.302; 5682.413
865.314; 2519.689;  -10.112; 5547.492
865.876; 2349.511;  -12.182; 5500.150
866.439; 2199.294;  -10.722; 5415.909
867.002; 2096.682;   -9.252; 5501.567
867.564; 2139.983;   -9.572; 5413.946
868.127; 2177.745;  -13.142; 5160.325
868.689; 2257.573;  -12.902; 5133.183
869.252; 2368.770;   -9.732; 5252.382
869.814; 2302.538;   -9.432; 5297.141
870.377; 2190.848;  -11.552; 5390.919
870.939; 2174.150;   -9.052; 5599.898
871.501; 2132.028;  -10.982; 5248.336
872.063; 2031.287;  -12.292; 4854.235
872.626; 1975.621;  -14.912; 4817.074
873.188; 1889.009;  -13.112; 4987.732
873.750; 1862.252;  -13.442; 4868.651
874.312; 1842.163;   -9.402; 4779.330
874.874; 1802.378;  -11.062; 4866.348
875.436; 1693.557;  -13.931; 4718.887
875.998; 1574.654;   -9.561; 4660.005
876.560; 1555.474;  -11.321; 4462.964
877.122; 1607.415;  -12.221; 4145.042
877.683; 1717.357;  -12.191; 4056.481
878.245; 1763.190;  -12.101; 3950.740
878.807; 1792.806;   -8.971; 4058.958
879.369; 1744.186;  -12.071; 3954.677
879.930; 1617.094;  -14.621; 3941.495
880.492; 1527.381;  -10.311; 4067.014
881.053; 1526.010;  -10.901; 3859.633
881.615; 1525.974;  -14.411; 3776.071
882.176; 1466.888;  -13.761; 3734.750
882.738; 1389.145;   -9.181; 3678.489
883.299; 1368.290;  -11.791; 3405.407
883.860; 1376.809;  -13.121; 3351.106
884.422; 1329.602;  -11.211; 3394.044
884.983; 1255.509;  -10.091; 3166.443
885.544; 1212.915;   -8.461; 3189.802
886.105; 1156.157;  -12.361; 3160.360
886.666; 1095.003;  -14.141; 3093.059
887.227; 1065.830;  -11.361; 2941.957
887.788; 1018.709;  -11.401; 2974.836
888.349;  934.391;  -13.791; 2721.214
888.910;  893.573;  -13.191; 2696.493
889.471;  860.251;   -9.881; 2560.172
890.032;  862.869;   -9.881; 2558.190
890.593;  860.510;  -10.371; 2567.669
891.153;  780.515;  -13.301; 2460.307
891.714;  675.273;  -11.431; 2372.046
892.275;  627.439;  -11.291; 2309.505
892.835;  637.287;  -11.471; 2382.543
893.396;  632.576;  -11.541; 2295.502
893.956;  610.099;  -11.181; 2162.420
894.517;  572.408;  -11.741; 2125.439
895.077;  521.499;  -11.671; 2086.978
895.638;  483.402;  -11.311; 2126.316
896.198;  472.917;   -9.831; 1838.275
896.758;  459.039;   -8.421; 1892.813
897.319;  437.774;  -12.351; 1792.232
897.879;  419.436;  -13.511; 1762.751
898.439;  389.731;  -12.001; 1661.149
898.999;  369.829;  -10.180; 1781.468
899.559;  365.302;  -12.030; 1703.347
900.119;  356.833;  -15.710; 1537.525
900.679;  342.212;   -8.900; 1638.384
901.239;  322.789;   -8.340; 1527.902
901.799;  294.347;  -13.910; 1456.441
902.359;  274.619;  -13.460; 1357.140
902.919;  266.799;  -11.490; 1331.118
903.479;  266.326;  -12.110; 1317.257
904.038;  261.280;  -11.720; 1262.595
904.598;  253.432;  -13.610; 1152.034
905.158;  243.543;  -11.040; 1240.893
905.717;  227.689;  -10.900; 1233.691
906.277;  218.272;  -15.080; 1217.330
906.836;  216.162;  -13.380; 1222.408
907.396;  213.412;  -10.780; 1193.047
907.955;  206.663;   -8.500; 1182.526
908.515;  202.325;  -12.760; 1099.364
909.074;  202.114;  -11.900; 1092.863
909.633;  200.559;   -8.950; 1069.121
910.192;  198.864;   -8.770; 1196.460
910.752;  187.788;  -12.390; 1029.960
911.311;  178.972;  -13.680; 1009.780
911.870;  170.116;  -12.370;  971.460
912.429;  164.959;  -10.900; 1094.080
912.988;  161.855;  -11.690; 1081.060
913.547;  159.410;  -13.240;  940.380
914.106;  157.827;  -11.990;  999.420
914.665;  156.306;   -9.990;  984.020
915.224;  154.537;  -12.880; 1035.760
915.782;  153.169;  -12.350;  922.560
916.341;  151.650;   -9.110; 1049.840
916.900;  148.531;   -9.270;  925.260
917.458;  146.738;  -13.240;  884.220
918.017;  145.940;  -13.550;  942.600
918.576;  144.435;  -12.320;  904.440
919.134;  143.364;  -11.490;  837.980
919.693;  140.547;  -13.670;  893.060
920.251;  140.240;  -15.470;  876.500
920.809;  139.427;  -11.290;  839.580
921.368;  140.077;  -10.210;  885.360
921.926;  136.142;  -12.140;  842.940
922.484;  134.482;  -13.080;  903.360
923.042;  134.373;  -11.720;  880.340
923.601;  135.137;   -7.480;  998.680
924.159;  131.920;  -11.570;  935.560
924.717;  130.145;  -13.840;  841.080
925.275;  130.101;  -10.640;  903.240
925.833;  128.844;  -11.540;  779.320
926.391;  130.112;  -12.960;  938.380
926.949;  129.659;  -14.130;  857.680
927.506;  130.677;  -11.750;  903.500
928.064;  129.562;  -10.250;  877.580
928.622;  129.690;  -13.030;  880.100
929.180;  132.144;  -13.400;  814.180
929.737;  133.699;  -10.700;  808.540
930.295;  137.340;  -10.070;  928.480
930.853;  136.140;  -11.960;  849.100
931.410;  136.700;  -13.120;  821.120
931.968;  139.857;  -10.770;  940.660
932.525;  139.089;  -10.680;  909.380
933.082;  138.407;  -13.130;  811.440
933.640;  140.478;  -13.210;  925.900
934.197;  139.548;  -11.060;  886.360
934.754;  138.989;   -9.580;  897.780
935.312;  140.566;  -14.000;  863.340
935.869;  141.665;  -10.710; 1012.980
936.426;  140.600;   -9.860;  872.800
936.983;  139.672;   -9.710;  889.020
937.540;  142.082;  -13.990;  838.280
938.097;  146.034;  -14.040;  940.120
938.654;  149.861;  -10.310;  898.860
939.211;  150.022;  -10.560;  952.480
939.768;  149.249;  -13.900;  915.420
940.324;  153.696;  -14.760;  904.200
940.881;  154.811;  -10.370;  878.500
941.438;  159.757;   -8.260; 1021.200
941.995;  158.091;  -12.540;  992.560
942.551;  157.702;  -14.670;  875.620
943.108;  160.240;  -10.450;  937.920
943.664;  159.835;  -10.750;  869.340
944.221;  163.461;  -11.550; 1088.140
944.777;  162.823;  -14.770;  869.680
945.334;  160.171;  -12.820;  884.840
945.890;  155.495;  -10.130;  946.480
946.446;  153.253;  -13.470;  947.020
947.003;  154.880;  -12.120;  964.940
947.559;  155.210;   -9.980; 1063.040
948.115;  151.013;   -9.080; 1026.540
948.671;  148.801;  -10.830;  967.300
949.227;  148.244;  -12.440;  859.560
949.783;  147.637;  -12.910;  858.900
950.339;  151.928;  -10.270;  991.000
950.895;  152.371;  -13.630; 1023.840
951.451;  151.912;  -15.100;  925.280
952.007;  150.525;  -11.330;  998.540
952.563;  146.641;  -10.580;  937.780
953.118;  144.149;  -13.440;  904.940
953.674;  144.110;  -12.710;  935.780
954.230;  145.979;  -10.350;  949.640
954.785;  149.267;   -9.190;  936.640
955.341;  150.849;  -11.200;  998.160
955.897;  145.458;  -16.560;  834.660
956.452;  144.135;  -12.570;  953.840
957.008;  140.981;   -7.970; 1083.640
957.563;  138.988;  -11.940; 1009.540
958.118;  133.502;  -13.450;  877.700
958.674;  132.490;  -12.030;  946.780
959.229;  133.497;   -9.410; 1013.980
959.784;  133.429;  -12.000;  832.400
960.339;  133.882;  -14.780; 1001.280
960.894;  131.051;   -9.860;  963.760
961.449;  128.020;   -9.970;  859.960
962.004;  128.130;  -10.900; 1212.840
962.559;  126.325;  -13.150;  860.140
963.114;  124.611;  -13.740;  742.480
963.669;  123.671;   -9.820;  915.500
964.224;  121.207;  -13.890;  874.340
964.779;  122.220;  -12.600;  828.420
965.334;  122.685;  -10.950; 1017.860
965.888;  121.535;  -11.170;  875.360
966.443;  121.848;  -12.540;  972.380
966.998;  119.316;  -15.780;  819.460
967.552;  118.865;   -9.760;  908.380
968.107;  114.731;   -9.060;  868.300
968.661;  114.534;  -11.950;  922.440
969.216;  113.964;  -12.800;  856.280
969.770;  111.042;  -11.210;  917.200
970.324;  110.875;  -11.610;  923.140
970.879;  111.901;  -11.370;  947.180
971.433;  113.789;  -12.540;  952.720
971.987;  113.257;  -11.320;  895.340
972.541;  109.936;  -10.720;  917.100
973.095;  109.676;   -9.680; 1009.460
973.649;  107.133;  -11.440;  809.480
974.203;  105.048;  -11.210;  829.040
974.757;  103.994;  -10.240;  855.220
975.311;  103.545;  -13.720;  872.600
975.865;  103.567;  -13.770;  881.820
976.419;  101.106;  -11.690;  857.400
976.973;   98.421;   -9.510;  849.620
977.526;   97.498;  -12.620;  949.920
978.080;   95.052;  -12.010;  796.780
978.634;   95.274;  -10.170;  921.320
979.187;   93.463;   -9.020;  905.400
979.741;   95.678;   -9.820; 1018.380
980.294;   93.355;  -14.870;  789.160
980.848;   92.006;  -12.380;  717.220
981.401;   91.835;  -10.350;  816.540
981.955;   91.145;  -13.720;  844.300
982.508;   87.459;  -11.490;  746.340
983.061;   86.747;  -10.000;  915.260
983.615;   85.245;  -11.480;  798.800
984.168;   83.960;  -13.220;  770.080
984.721;   82.543;  -13.960;  880.760
985.274;   80.703;  -10.870;  867.500
985.827;   79.512;   -9.790;  834.220
986.380;   76.686;  -13.120;  721.340
986.933;   76.794;  -12.450;  864.800
987.486;   75.964;  -10.210;  861.920
988.039;   76.149;   -8.430;  863.100
988.591;   75.226;  -10.520;  893.260
989.144;   72.694;  -14.860;  737.260
989.697;   71.549;  -13.080;  758.740
990.250;   71.556;  -10.150;  858.100
990.802;   68.545;  -13.430;  755.860
991.355;   69.007;  -12.750;  974.880
991.907;   67.385;  -12.040;  864.320
992.460;   65.763;  -11.330;  753.760
993.012;   64.259;  -13.610;  749.540
993.565;   62.127;  -13.460;  711.360
994.117;   64.558;   -9.360;  950.780
994.669;   60.881;  -11.300;  701.320
995.221;   59.728;  -13.540;  791.920
995.774;   59.150;  -13.430;  787.580
996.326;   56.969;  -12.520;  740.220
996.878;   56.772;  -10.950;  838.420
997.430;   54.758;  -14.300;  699.860
997.982;   53.866;  -13.760;  750.140
998.534;   53.055;  -11.530;  739.060
999.086;   52.511;  -10.310;  738.220
999.638;   51.186;  -12.530;  661.380
1000.190;   50.537;  -11.840;  699.320
1000.741;   49.594;  -10.260;  742.700
1001.293;   49.582;   -8.860;  686.020
1001.845;   49.330;  -13.700;  676.640
1002.396;   47.676;  -12.100;  743.400
1002.948;   47.979;  -12.760;  737.400
1003.500;   45.708;  -10.380;  723.780
1004.051;   46.584;  -11.900;  907.580
1004.603;   45.290;  -12.250;  791.820
1005.154;   41.666;  -13.210;  608.980
1005.705;   41.465;  -10.950;  723.960
1006.257;   41.309;  -13.880;  707.220
1006.808;   40.392;  -12.840;  685.460
1007.359;   39.747;  -10.570;  763.240
1007.910;   39.094;   -9.620;  646.640
1008.461;   39.024;  -13.630;  732.940
1009.013;   37.432;  -17.200;  588.340
1009.564;   38.724;  -10.200;  793.520
1010.115;   36.723;  -12.570;  597.040
1010.665;   36.251;  -15.150;  602.160
1011.216;   36.131;  -14.480;  667.920
1011.767;   36.408;  -11.340;  697.920
1012.318;   35.938;   -9.780;  736.980
1012.869;   34.903;  -12.380;  679.000
1013.419;   35.372;  -15.560;  603.120
1013.970;   35.833;  -11.010;  666.640
1014.521;   34.456;  -11.610;  620.620
1015.071;   34.505;  -13.450;  670.380
1015.622;   34.358;  -13.870;  635.460
1016.172;   33.544;  -11.610;  596.820
1016.723;   33.929;  -12.120;  614.380
1017.273;   32.474;  -13.620;  604.160
1017.823;   33.051;  -14.140;  650.340
1018.374;   32.647;  -12.800;  611.760
1018.924;   32.076;  -12.340;  716.880
1019.474;   32.452;  -11.410;  718.880
1020.024;   31.331;  -14.770;  657.580
1020.574;   32.128;   -9.780;  726.160
1021.124;   32.389;   -8.560;  673.580
1021.674;   30.624;  -15.190;  559.120
1022.224;   31.845;  -13.530;  708.940
1022.774;   31.653;  -13.280;  668.820
1023.324;   32.161;  -10.690;  753.520
1023.874;   32.629;  -10.240;  875.760
1024.423;   30.803;  -12.540;  613.700
1024.973;   29.954;  -10.010;  610.760
1025.523;   29.626;  -10.550;  620.960
1026.072;   29.265;  -13.560;  606.420
1026.622;   29.443;  -15.120;  675.740
1027.172;   30.391;  -11.260;  715.660
1027.721;   28.763;  -11.410;  601.220
1028.270;   29.818;  -13.530;  663.400
1028.820;   28.974;  -13.680;  638.080
1029.369;   28.688;  -13.520;  612.700
1029.918;   28.113;  -10.980;  649.840
1030.468;   27.414;  -13.530;  564.780
1031.017;   27.676;  -13.170;  634.800
1031.566;   27.111;  -12.200;  608.900
1032.115;   27.598;   -9.960;  694.500
1032.664;   26.328;  -13.210;  596.480
1033.213;   27.917;  -12.500;  735.420
1033.762;   27.453;  -11.910;  635.620
1034.311;   26.875;   -9.640;  677.220
1034.860;   27.274;  -13.310;  691.000
1035.408;   26.529;  -11.830;  722.720
1035.957;   27.206;  -12.000;  719.540
1036.506;   25.570;  -11.690;  530.800
1037.055;   27.141;  -10.990;  844.320
1037.603;   26.337;  -15.120;  664.000
1038.152;   24.572;  -12.450;  534.760
1038.700;   24.769;  -10.560;  585.740
1039.249;   24.505;  -11.080;  681.220
1039.797;   25.004;  -12.540;  633.360
1040.345;   25.721;  -11.920;  705.420
1040.894;   24.891;  -11.410;  625.300
1041.442;   24.419;  -14.320;  632.200
1041.990;   23.153;  -16.240;  559.160
1042.538;   23.232;  -11.680;  536.180
1043.087;   23.530;  -10.760;  570.860
1043.635;   24.818;  -11.850;  670.500
1044.183;   23.382;  -15.480;  586.400
1044.731;   23.320;  -11.770;  576.000
1045.279;   22.636;  -13.090;  674.920
1045.827;   24.295;  -12.440;  892.400
1046.374;   22.023;  -13.840;  515.420
1046.922;   21.649;  -13.220;  590.580
1047.470;   23.710;  -10.230;  691.300
1048.018;   22.699;  -14.590;  647.960
1048.565;   23.498;  -12.050;  708.600
1049.113;   21.304;  -11.650;  557.000
1049.660;   21.393;  -10.510;  629.660
1050.208;   21.302;  -13.310;  675.640
1050.755;   20.200;  -15.900;  606.580
1051.303;   22.052;  -11.430;  686.820
1051.850;   21.040;   -8.480;  635.120
1052.397;   19.892;  -15.010;  473.960
1052.945;   19.934;  -13.960;  617.760
1053.492;   22.119;  -13.150;  741.840
1054.039;   22.032;   -9.630;  720.180
1054.586;   19.705;  -13.680;  557.240
1055.133;   20.993;  -14.570;  693.140
1055.680;   20.727;  -13.820;  646.620
1056.227;   19.638;  -11.730;  542.780
1056.774;   20.728;  -12.480;  794.980
1057.321;   19.288;  -13.930;  523.260
1057.868;   19.503;  -11.690;  651.320
1058.415;   19.241;   -9.520;  651.980
1058.961;   19.869;  -13.160;  678.940
1059.508;   19.551;  -12.920;  643.820
1060.055;   19.618;  -11.920;  581.780
1060.601;   19.809;  -11.500;  624.300
1061.148;   18.774;  -14.330;  616.820
1061.694;   18.302;  -16.870;  592.580
1062.241;   18.726;  -10.330;  596.320
1062.787;   19.112;  -10.620;  663.140
1063.334;   18.929;  -10.110;  808.560
1063.880;   18.450;  -13.400;  668.360
1064.426;   18.536;  -10.680;  706.820
1064.972;   18.196;   -9.920;  601.340
1065.518;   16.381;  -10.980;  566.640
1066.065;   17.746;  -14.890;  624.460
1066.611;   17.039;  -12.870;  598.800
1067.157;   17.674;  -12.950;  641.860
1067.703;   17.551;  -13.540;  668.480
1068.249;   16.945;  -13.540;  605.220
1068.794;   16.681;  -12.600;  626.880
1069.340;   16.515;  -10.620;  578.960
1069.886;   17.079;  -12.830;  590.700
1070.432;   16.001;  -14.870;  541.720
1070.977;   16.219;  -11.980;  601.080
1071.523;   16.282;   -8.200;  573.060
1072.068;   15.969;  -12.330;  582.000
1072.614;   16.156;  -16.370;  527.760
1073.160;   16.427;  -11.100;  687.040
1073.705;   15.070;  -10.480;  572.520
1074.250;   14.981;  -14.520;  559.900
1074.796;   15.650;  -11.460;  655.160
1075.341;   16.409;  -11.950;  664.100
1075.886;   14.584;  -11.460;  594.240
1076.431;   15.170;  -13.770;  649.880
1076.976;   14.489;  -12.680;  639.220
1077.521;   14.359;  -13.170;  583.080
1078.067;   13.644;  -10.860;  579.400
1078.612;   14.213;  -13.920;  661.620
1079.156;   14.361;  -13.880;  601.540
1079.701;   14.757;  -13.120;  693.260
1080.246;   15.196;   -9.940;  696.300
1080.791;   14.225;  -14.740;  625.020
1081.336;   14.208;  -13.750;  659.320
1081.880;   14.232;  -13.400;  649.680
1082.425;   13.138;  -12.220;  573.480
1082.970;   14.368;  -11.610;  717.040
1083.514;   13.303;  -13.580;  597.000
1084.059;   12.538;  -12.810;  586.720
1084.603;   12.855;  -12.320;  565.840
1085.147;   12.957;  -13.190;  645.220
1085.692;   13.805;  -12.480;  716.800
1086.236;   12.059;  -13.020;  503.140
1086.780;   13.647;   -9.190;  751.440
1087.325;   13.047;  -12.480;  654.620
1087.869;   12.727;  -12.450;  610.700
1088.413;   12.794;  -12.240;  705.040
1088.957;   11.020;   -9.020;  543.400
1089.501;   12.531;  -10.320;  766.640
1090.045;   12.392;  -12.720;  726.480
1090.589;   10.446;  -13.690;  569.920
1091.133;   12.080;  -10.020;  673.340
1091.676;   11.983;  -12.330;  591.940
1092.220;   11.241;  -14.970;  600.920
1092.764;   12.996;  -12.430;  706.960
1093.307;   11.791;   -9.800;  673.780
1093.851;   10.426;  -14.970;  556.540
1094.395;   11.167;  -15.310;  683.140
1094.938;   10.782;  -10.370;  632.520
1095.482;   10.855;  -11.050;  559.800
1096.025;   11.168;  -11.840;  710.880
1096.568;   11.543;  -12.840;  779.280
1097.112;    8.950;  -14.700;  508.180
1097.655;   10.689;   -8.720;  603.000
1098.198;    9.270;  -13.610;  600.180
1098.741;    8.904;  -13.350;  612.860
1099.285;   10.684;  -11.230;  657.300
1099.828;    8.698;  -11.840;  439.400
1100.371;    9.819;  -10.840;  608.160
1100.914;   10.073;  -14.190;  682.660
1101.457;    9.664;  -11.240;  679.900
1101.999;    8.944;  -11.270;  584.680
1102.542;    9.452;  -11.480;  641.440
1103.085;    9.689;  -11.750;  658.500
1103.628;    9.825;  -11.400;  762.060
1104.170;    8.827;  -10.490;  588.280
1104.713;    9.632;  -10.600;  646.700
1105.256;    8.356;  -14.360;  557.440
1105.798;    7.839;  -13.210;  499.980
1106.341;    9.043;  -10.270;  728.900
1106.883;    7.809;  -12.200;  521.340
1107.425;    7.867;  -13.110;  668.180
1107.968;    8.145;  -12.840;  612.380
1108.510;    9.019;   -6.480;  684.960
1109.052;    7.139;  -13.940;  612.620
1109.594;    7.505;  -13.690;  554.440
1110.136;    7.969;  -11.880;  643.220
1110.679;    7.792;   -9.500;  633.080
1111.221;    7.785;  -14.160;  604.460
1111.763;    7.260;  -13.980;  559.220
1112.304;    6.617;  -13.880;  547.140
1112.846;    7.793;  -12.210;  666.240
1113.388;   10.308;  -11.390;  942.180
1113.930;    7.639;  -14.540;  694.200
1114.472;    6.517;  -12.640;  606.540
1115.013;    5.755;  -11.620;  551.280
1115.555;    5.891;  -13.640;  587.100
1116.097;    5.891;  -15.380;  579.480
1116.638;    6.705;  -12.640;  684.600
1117.180;    7.157;   -9.850;  667.740
1117.721;    6.180;  -13.690;  568.580
1118.262;    7.145;  -12.680;  677.960
1118.804;    6.829;  -12.530;  637.340
1119.345;    4.848;  -11.690;  578.400
1119.886;    6.204;  -13.380;  704.040
1120.427;    5.294;  -14.070;  589.020
1120.969;    5.222;  -13.500;  597.920
1121.510;    4.904;  -11.480;  563.060
1122.051;    5.040;  -12.830;  723.580
1122.592;    4.615;  -14.290;  655.420
1123.133;    4.524;  -12.400;  547.940
1123.673;    6.145;  -10.130;  706.480
1124.214;    5.081;  -12.930;  612.460
1124.755;    6.010;  -14.380;  639.460
1125.296;    5.522;  -14.000;  627.320
1125.836;    5.746;  -10.070;  691.500
1126.377;    3.848;  -12.640;  599.660
1126.918;    4.821;  -12.960;  614.980
1127.458;    4.038;  -13.350;  622.220
1127.999;    5.464;  -10.750;  656.980
1128.539;    5.228;  -12.350;  694.240
1129.079;    4.382;  -14.860;  632.720
1129.620;    3.591;  -13.840;  558.100
1130.160;    3.718;  -12.330;  539.480
1130.700;    3.942;  -14.530;  640.840
1131.240;    4.784;  -12.530;  643.700
1131.781;    3.771;  -14.450;  619.680
1132.321;    3.605;   -9.790;  599.120
1132.861;    2.402;  -14.860;  564.200
1133.401;    2.158;  -14.290;  593.940
1133.941;    3.528;  -11.750;  626.280
1134.481;    2.227;   -9.920;  597.580
1135.020;    2.892;  -12.290;  609.160
1135.560;    3.357;  -11.650;  674.940
1136.100;    3.450;  -16.270;  501.160
1136.640;    2.098;  -10.890;  510.480
1137.179;    2.397;  -14.180;  537.960
1137.719;    3.137;  -16.250;  605.400
1138.258;    2.964;  -14.230;  587.360
1138.798;    3.719;   -9.090;  663.780
1139.337;    1.470;  -15.130;  482.840
1139.877;    2.316;  -13.680;  642.360
1140.416;    3.999;  -11.320;  878.060
1140.955;    2.210;  -10.860;  535.380
1141.494;    2.633;  -12.920;  669.280
1142.034;    1.650;  -13.930;  583.520
1142.573;    2.940;  -11.440;  646.280
1143.112;    1.503;  -12.000;  553.480
1143.651;    1.529;  -13.670;  536.480
1144.190;    3.027;  -12.730;  691.640
1144.729;    1.902;  -14.560;  607.420
1145.267;    1.851;  -11.830;  584.900
1145.806;    1.865;  -12.230;  637.040
1146.345;    1.107;  -14.130;  635.020
1146.884;    1.110;  -11.590;  622.500
1147.422;    1.767;  -12.550;  533.060
1147.961;    2.925;  -11.180;  708.460
1148.500;    2.182;  -11.510;  669.720
1149.038;    1.572;  -11.640;  632.500
1149.577;    1.711;  -10.130;  698.640
1150.115;   -0.520;  -13.970;  452.280
1150.653;    1.022;  -14.520;  607.340
1151.192;    0.679;  -12.810;  552.920
1151.730;    1.290;   -9.100;  652.560
1152.268;    0.466;  -12.220;  589.520
1152.806;    0.338;  -14.140;  571.180
1153.344;   -0.197;  -12.350;  577.640
1153.882;    0.969;   -8.980;  600.060
1154.421;   -0.720;  -15.190;  470.620
1154.958;    0.486;  -15.210;  595.240
1155.496;    1.275;  -12.850;  645.280
1156.034;    0.595;   -9.940;  721.880
1156.572;    0.723;  -13.570;  667.060
1157.110;   -0.466;  -14.590;  473.940
1157.647;    0.090;  -13.030;  676.960
1158.185;   -0.429;  -12.140;  564.320
1158.723;   -1.257;  -14.390;  509.200
1159.260;    0.002;  -14.090;  701.700
1159.798;    0.480;  -11.920;  658.160
1160.335;   -0.302;  -11.110;  631.820

