
Integration time [ms]:   3.276
Averaging Nr. [scans]: 1000
Smoothing Nr. [pixels]: 0
Data measured with spectrometer [name]: 7414430SP
Wave   ;Sample   ;Dark     ;Reference
[nm]   ;[counts] ;[counts] ;[counts] 

288.544;  158.815;    7.793;  793.890
289.143;  161.727;    7.462;  681.602
289.742;  162.991;    8.602;  828.814
290.341;  149.499;    1.321;  789.841
290.940;  140.010;   -0.709;  730.702
291.538;  141.776;    0.881;  881.108
292.137;  140.798;    0.122;  792.581
292.736;  142.927;   -1.929;  975.101
293.335;  139.312;   -8.229;  735.086
293.934;  140.283;   -5.279;  781.677
294.532;  141.798;   -1.369; 1031.958
295.131;  127.199;   -7.641;  834.394
295.730;  127.102;   -8.420;  809.588
296.328;  124.757;   -5.611;  783.442
296.927;  122.854;   -5.781;  779.652
297.525;  125.716;   -6.361;  781.236
298.124;  117.353;  -11.382;  654.009
298.722;  121.399;   -7.641;  761.933
299.321;  118.147;   -6.811;  708.597
299.919;  114.591;   -6.991;  751.918
300.518;  111.286;  -10.362;  689.338
301.116;  113.846;   -9.581;  691.381
301.715;  114.508;   -4.891;  730.222
302.313;  112.377;   -8.801;  704.943
302.911;  107.108;   -8.522;  733.830
303.509;  112.209;   -6.171;  925.627
304.108;  111.077;   -7.311;  760.383
304.706;  110.078;   -8.321;  801.664
305.304;  104.376;  -10.222;  796.707
305.902;  109.648;   -6.021;  784.484
306.500;  105.017;   -4.971;  728.200
307.098;  103.184;   -7.061;  746.560
307.696;  101.289;   -8.801;  780.432
308.294;  101.519;   -6.411;  731.359
308.892;  103.684;   -2.901;  759.769
309.490;  100.530;   -5.041;  712.161
310.088;   98.574;   -5.002;  788.444
310.686;  102.625;   -2.041;  821.749
311.284;   98.254;   -2.351;  766.040
311.882;   95.016;   -4.422;  731.225
312.480;   92.138;   -4.192;  697.167
313.078;   93.567;   -1.172;  808.331
313.675;   94.518;   -2.601;  691.600
314.273;   88.508;   -1.312;  797.837
314.871;   88.115;   -3.942;  589.829
315.468;   86.807;   -2.802;  652.090
316.066;   89.335;   -0.701;  694.427
316.664;   82.260;   -4.362;  656.351
317.261;   87.187;   -2.872;  910.128
317.859;   82.266;   -2.022;  768.735
318.456;   82.463;   -0.531;  830.096
319.054;   78.238;   -3.912;  787.828
319.651;   77.008;   -4.752;  759.928
320.249;   75.572;   -2.602;  810.188
320.846;   73.898;   -0.821;  714.286
321.443;   70.825;   -4.642;  832.135
322.041;   67.657;   -5.002;  812.315
322.638;   66.280;   -3.982;  701.456
323.235;   66.162;   -3.411;  665.683
323.833;   63.425;   -7.361;  740.354
324.430;   58.263;   -8.611;  615.900
325.027;   60.050;   -4.061;  876.855
325.624;   59.822;   -4.031;  644.532
326.221;   56.397;   -7.481;  689.717
326.818;   56.245;   -5.281;  818.332
327.415;   59.317;   -7.460;  748.828
328.012;   58.135;   -5.510;  690.585
328.609;   55.929;   -7.880;  731.389
329.206;   54.498;   -8.331;  778.621
329.803;   55.497;   -5.121;  737.841
330.400;   57.581;   -4.510;  704.260
330.997;   57.844;   -6.441;  817.147
331.594;   56.736;   -8.831;  788.185
332.191;   61.867;   -7.621;  728.722
332.787;   66.256;   -4.591;  844.463
333.384;   65.718;   -7.412;  763.093
333.981;   64.357;   -8.293;  815.687
334.578;   68.223;   -7.052;  708.378
335.174;   70.147;   -3.102;  731.469
335.771;   67.573;   -5.943;  836.456
336.367;   65.975;   -7.393;  710.631
336.964;   71.948;   -4.063;  793.266
337.561;   68.072;   -3.813;  731.112
338.157;   63.664;   -4.654;  911.916
338.754;   62.659;   -7.934;  796.589
339.350;   60.473;   -4.414;  722.493
339.946;   62.880;   -4.664;  773.135
340.543;   54.493;   -6.375;  846.136
341.139;   48.450;   -9.815;  720.836
341.735;   46.296;   -4.526;  772.593
342.332;   44.851;   -4.895;  691.472
342.928;   44.746;   -4.295;  795.394
343.524;   37.122;   -5.476;  761.684
344.120;   34.422;   -5.856;  738.562
344.716;   37.645;   -2.155;  723.717
345.313;   35.346;   -6.275;  795.342
345.909;   29.451;   -8.815;  627.336
346.505;   31.224;   -5.305;  740.247
347.101;   31.604;   -2.674;  827.864
347.697;   32.363;   -4.344;  785.398
348.293;   26.088;   -9.975;  627.244
348.889;   27.536;   -5.774;  745.914
349.485;   26.641;   -5.004;  688.205
350.081;   26.612;   -4.704;  772.592
350.676;   22.126;   -6.635;  691.606
351.272;   26.864;   -4.504;  809.530
351.868;   25.985;   -3.914;  780.497
352.464;   24.106;   -9.044;  723.932
353.059;   19.589;   -8.314;  646.017
353.655;   22.834;   -7.024;  777.063
354.251;   23.977;   -5.343;  759.845
354.846;   18.532;   -8.604;  740.646
355.442;   16.274;   -6.945;  753.071
356.038;   17.916;   -7.564;  751.708
356.633;   17.955;   -5.814;  728.594
357.229;   15.870;   -7.364;  724.757
357.824;   14.149;   -8.024;  703.600
358.420;   13.487;   -9.384;  679.726
359.015;   13.716;   -5.104;  695.357
359.610;   14.518;   -6.854;  763.920
360.206;    8.537;  -10.185;  603.240
360.801;   11.277;   -7.054;  646.503
361.396;   13.497;   -5.034;  725.975
361.992;    9.056;   -8.284;  668.220
362.587;    6.215;   -8.625;  670.160
363.182;    8.444;   -7.674;  689.631
363.777;    9.478;   -5.164;  738.242
364.372;    8.225;   -8.604;  737.314
364.967;    4.399;   -9.055;  680.744
365.563;    9.346;   -6.114;  815.567
366.158;    6.421;   -5.814;  685.161
366.753;    6.015;   -7.854;  649.263
367.348;    5.086;   -7.804;  746.056
367.942;    5.111;   -7.954;  697.298
368.537;    3.741;   -4.984;  754.245
369.132;    4.154;   -8.564;  703.428
369.727;   -0.800;   -8.855;  638.079
370.322;    1.430;   -6.245;  580.186
370.917;    1.009;   -6.425;  710.646
371.511;    3.460;   -6.294;  861.834
372.106;   -0.275;   -7.685;  776.964
372.701;   -3.170;   -7.335;  585.988
373.296;    2.672;   -4.564;  863.135
373.890;   -2.580;  -10.235;  647.840
374.485;   -4.989;   -7.885;  691.199
375.079;   -0.215;   -7.324;  738.685
375.674;   -0.037;   -3.494;  812.970
376.268;   -4.507;   -8.525;  691.759
376.863;   -9.658;  -10.086;  580.327
377.457;   -3.085;   -7.025;  662.490
378.052;   -4.711;   -3.585;  764.884
378.646;   -7.123;   -7.595;  741.167
379.240;   -6.497;   -8.335;  721.176
379.835;   -5.859;   -5.785;  636.978
380.429;   -7.897;   -4.335;  562.557
381.023;   -7.867;   -6.805;  779.205
381.617;  -10.153;   -9.195;  680.106
382.212;   -6.938;   -6.905;  685.303
382.806;   -6.168;   -3.745;  760.690
383.400;  -11.002;   -7.745;  672.281
383.994;  -11.512;   -9.765;  664.870
384.588;   -7.049;   -6.564;  697.701
385.182;   -5.826;   -5.344;  726.624
385.776;   -8.236;   -8.514;  706.875
386.370;  -11.061;   -9.555;  681.968
386.964;  -10.801;   -8.715;  684.155
387.558;   -8.795;   -6.174;  598.360
388.152;  -12.574;   -8.725;  681.959
388.745;  -10.620;   -7.965;  814.707
389.339;   -8.404;   -5.924;  747.642
389.933;   -7.773;   -5.524;  695.370
390.527;   -8.858;   -7.114;  859.029
391.120;  -15.029;  -10.725;  595.318
391.714;  -10.924;   -8.035;  711.633
392.308;   -8.875;   -3.574;  780.253
392.901;  -13.279;   -7.245;  642.460
393.495;  -14.649;   -9.285;  595.414
394.089;  -11.959;   -5.895;  760.452
394.682;  -13.378;   -4.295;  697.188
395.275;  -13.547;   -9.875;  719.927
395.869;  -15.133;   -8.485;  667.314
396.462;  -13.295;   -7.455;  616.609
397.056;   -8.751;   -5.424;  776.621
397.649;  -14.278;   -6.605;  731.575
398.242;  -11.411;   -8.224;  712.645
398.836;  -11.123;   -7.474;  766.408
399.429;  -11.247;   -7.094;  631.041
400.022;  -15.486;   -9.475;  665.902
400.615;  -12.877;   -7.145;  805.609
401.208;  -10.893;   -7.174;  691.451
401.802;  -12.469;   -5.515;  699.329
402.395;  -14.654;   -9.875;  683.502
402.988;  -14.995;   -8.845;  696.627
403.581;  -11.852;   -8.874;  646.878
404.174;   -9.428;   -5.324;  686.568
404.767;  -13.433;   -9.575;  638.583
405.360;  -15.558;  -10.965;  621.445
405.953;   -9.801;   -8.764;  759.034
406.545;   -9.782;   -7.514;  725.342
407.138;  -13.857;  -10.025;  618.350
407.731;  -12.566;  -10.034;  613.303
408.324;   -8.009;   -9.374;  660.554
408.917;   -9.580;   -6.534;  681.864
409.509;  -11.240;   -8.004;  740.396
410.102;  -13.410;   -9.875;  643.948
410.695;   -7.000;   -8.604;  665.758
411.287;   -7.997;   -6.794;  599.821
411.880;  -10.180;   -9.334;  585.421
412.472;  -12.476;  -10.254;  613.092
413.065;   -9.192;   -6.714;  629.408
413.657;   -7.813;   -7.234;  576.678
414.250;   -8.051;  -10.544;  646.681
414.842;  -10.298;   -9.744;  676.353
415.434;   -6.735;   -6.994;  570.463
416.027;   -3.111;   -5.893;  652.196
416.619;   -5.604;   -7.264;  713.400
417.211;   -6.188;  -10.374;  599.352
417.804;   -1.083;   -7.993;  628.499
418.396;   -5.704;   -7.234;  607.643
418.988;   -3.588;   -9.443;  659.238
419.580;   -6.862;  -10.724;  568.276
420.172;   -4.579;  -10.323;  536.196
420.764;   -0.633;   -8.793;  672.482
421.356;   -2.229;  -11.143;  636.898
421.948;   -2.704;   -8.293;  677.661
422.540;    1.946;   -7.893;  680.027
423.132;    1.741;   -7.082;  600.641
423.724;   -1.646;   -8.653;  561.267
424.316;    0.420;  -10.213;  621.345
424.908;    3.871;   -9.762;  591.517
425.500;    4.543;   -5.572;  647.978
426.092;    4.312;   -8.422;  648.268
426.683;    3.736;   -9.283;  684.836
427.275;    6.263;   -7.852;  641.471
427.867;    8.621;   -5.272;  668.948
428.458;    8.657;   -7.682;  732.344
429.050;    7.507;  -10.612;  680.749
429.642;    9.432;   -9.882;  743.124
430.233;   10.050;   -6.962;  569.356
430.825;   11.251;   -6.842;  724.809
431.416;    8.166;   -9.672;  698.241
432.008;   12.353;   -6.552;  651.723
432.599;   13.399;   -6.891;  656.073
433.190;    9.816;  -10.912;  637.670
433.782;    9.165;  -11.172;  590.395
434.373;   16.703;   -6.061;  884.765
434.964;   15.143;   -8.251;  602.920
435.556;   12.908;   -9.722;  634.537
436.147;   15.184;   -9.082;  758.490
436.738;   16.077;   -8.041;  701.099
437.329;   21.590;   -7.341;  721.723
437.920;   14.385;   -8.162;  666.688
438.511;   13.477;  -11.802;  564.526
439.103;   20.880;  -10.191;  623.998
439.694;   21.835;   -7.601;  681.583
440.285;   23.347;   -8.541;  764.432
440.876;   20.952;   -9.751;  845.738
441.466;   20.614;   -9.401;  575.162
442.057;   26.416;   -7.760;  665.814
442.648;   24.209;   -9.971;  746.255
443.239;   22.317;  -11.001;  620.477
443.830;   27.962;   -7.990;  704.958
444.421;   29.832;   -7.910;  655.474
445.011;   26.273;   -8.131;  693.619
445.602;   25.168;   -7.111;  743.126
446.193;   27.914;  -10.920;  488.117
446.783;   32.527;   -6.500;  640.397
447.374;   28.193;   -8.671;  692.759
447.964;   27.554;  -10.781;  713.770
448.555;   36.890;   -9.650;  822.742
449.145;   33.863;   -8.660;  662.853
449.736;   33.322;   -8.990;  803.179
450.326;   34.288;   -9.500;  713.626
450.917;   38.815;   -8.680;  675.324
451.507;   38.307;   -7.520;  600.661
452.097;   39.113;   -8.590;  746.267
452.688;   39.934;  -11.340;  742.160
453.278;   39.862;  -10.100;  566.840
453.868;   44.170;   -6.019;  793.550
454.458;   41.950;   -9.440;  651.141
455.048;   41.627;  -10.560;  711.783
455.639;   44.061;  -11.799;  567.096
456.229;   47.661;   -6.899;  710.694
456.819;   49.672;   -7.389;  751.158
457.409;   49.378;  -11.119;  773.993
457.999;   53.202;   -9.289;  737.505
458.589;   53.021;   -6.139;  686.606
459.179;   51.616;   -8.729;  717.658
459.769;   49.729;   -9.789;  627.099
460.358;   55.034;  -10.259;  797.262
460.948;   55.150;   -7.299;  689.503
461.538;   56.578;  -10.289;  660.677
462.128;   53.625;  -11.269;  664.934
462.717;   61.706;   -9.368;  710.326
463.307;   63.992;   -7.908;  705.846
463.897;   59.438;   -9.599;  656.942
464.486;   59.053;   -9.769;  837.128
465.076;   64.792;   -8.048;  733.776
465.666;   67.234;   -9.358;  652.900
466.255;   65.368;   -7.919;  785.651
466.845;   63.763;  -11.689;  666.749
467.434;   67.559;   -7.818;  725.873
468.023;   68.254;   -7.678;  658.357
468.613;   65.587;  -10.939;  713.946
469.202;   69.895;  -10.118;  646.507
469.791;   74.666;   -9.108;  737.811
470.381;   77.555;   -6.058;  742.813
470.970;   75.663;  -10.428;  711.099
471.559;   74.944;  -10.268;  733.291
472.148;   79.506;   -8.448;  675.737
472.738;   82.569;   -6.917;  765.466
473.327;   81.256;  -11.978;  637.529
473.916;   80.367;  -11.888;  737.446
474.505;   85.320;   -9.437;  751.703
475.094;   89.061;   -6.747;  806.570
475.683;   87.386;   -9.367;  797.699
476.272;   88.277;  -12.637;  730.632
476.861;   91.259;  -10.027;  706.754
477.449;   97.632;   -8.716;  728.487
478.038;   92.059;   -9.577;  692.513
478.627;   93.227;   -9.718;  714.852
479.216;   99.909;   -8.947;  769.441
479.805;  103.566;   -6.256;  783.375
480.393;  103.393;   -7.937; 1008.945
480.982;  101.812;   -7.717;  874.501
481.571;  108.303;   -9.266;  858.333
482.159;  109.714;   -7.636;  705.386
482.748;  108.162;   -9.667;  821.385
483.336;  112.791;  -10.376;  858.209
483.925;  113.702;   -7.147;  774.373
484.513;  121.097;   -7.996;  758.962
485.102;  117.820;  -10.027;  810.965
485.690;  125.828;  -10.446; 1011.050
486.278;  128.921;   -8.446;  979.329
486.867;  128.899;   -6.356;  809.662
487.455;  131.090;   -9.136;  898.229
488.043;  131.889;  -10.646;  748.361
488.631;  141.721;   -7.456; 1005.079
489.220;  146.547;   -6.636;  908.626
489.808;  146.212;  -11.036;  741.415
490.396;  154.526;  -10.246;  914.645
490.984;  161.522;   -8.556;  830.161
491.572;  172.577;   -5.886;  940.315
492.160;  179.633;   -9.486;  919.081
492.748;  192.835;  -10.976;  884.341
493.336;  215.957;   -8.776; 1019.693
493.924;  243.953;   -5.465;  958.077
494.512;  277.970;   -9.986; 1066.638
495.100;  325.745;  -10.636; 1103.280
495.687;  389.536;  -10.885; 1206.373
496.275;  446.193;   -8.126; 1150.796
496.863;  513.569;  -10.586; 1281.171
497.451;  625.124;  -11.926; 1386.805
498.038;  735.272;  -10.885; 1556.729
498.626;  836.984;   -6.315; 1741.407
499.214;  989.238;   -7.326; 2016.609
499.801; 1207.854;  -11.906; 2220.633
500.389; 1463.639;  -10.466; 2312.494
500.976; 1725.113;   -5.236; 2744.849
501.564; 2144.958;   -8.936; 3148.565
502.151; 2602.630;  -13.176; 3515.999
502.738; 3117.078;  -10.646; 3971.274
503.326; 3504.664;   -9.525; 4403.796
503.913; 3806.393;  -10.856; 5161.749
504.500; 4322.725;  -11.586; 5986.420
505.088; 4607.000;  -10.336; 6381.201
505.675; 5066.293;   -6.355; 6925.547
506.262; 5555.305;   -9.046; 7619.060
506.849; 6085.708;  -10.416; 8733.969
507.436; 6591.326;  -10.305; 9790.121
508.023; 7038.668;   -5.496; 9985.472
508.610; 7839.329;   -7.856;10434.618
509.197; 9148.268;  -10.097;11198.435
509.784;10653.577;  -10.886;12391.194
510.371;12087.990;   -9.315;13603.713
510.958;12962.975;   -9.936;14426.586
511.545;13472.288;   -9.326;15243.775
512.132;14002.054;  -10.075;15945.876
512.719;14198.667;   -7.796;16340.369
513.305;15115.758;  -10.606;18011.766
513.892;16405.660;  -11.486;19754.971
514.479;18142.736;   -9.126;20967.805
515.066;19827.527;   -6.026;22299.793
515.652;20103.463;   -8.466;22908.660
516.239;21198.410;  -10.886;23798.875
516.825;23267.596;  -11.496;25567.275
517.412;25105.412;   -5.796;28154.959
517.998;27008.514;  -10.506;28344.111
518.585;26826.459;  -10.076;27134.219
519.171;25509.424;   -8.315;27268.576
519.758;26392.346;   -8.596;28964.129
520.344;27645.264;   -8.466;30664.494
520.930;30343.965;  -11.006;32550.605
521.516;30873.959;  -10.495;35422.895
522.103;29250.150;   -5.526;38280.004
522.689;29955.590;   -8.746;37835.117
523.275;31538.857;  -11.376;37288.613
523.861;33156.730;  -11.156;37281.395
524.447;36381.539;   -8.135;37846.949
525.033;37411.207;   -7.896;38321.949
525.619;37384.762;  -12.476;38579.285
526.205;37627.973;   -9.516;40622.875
526.791;37113.664;   -6.926;42258.836
527.377;38101.379;   -8.346;42966.902
527.963;39599.453;   -8.717;42018.949
528.549;38581.535;  -11.016;42476.828
529.135;38910.883;   -8.536;41854.852
529.721;38717.543;   -9.666;41237.711
530.306;37173.008;  -10.066;41259.445
530.892;36934.828;  -11.356;41506.047
531.478;36477.816;   -6.596;43559.613
532.063;37017.738;   -8.836;47695.563
532.649;40812.488;  -10.047;50808.324
533.235;42080.680;   -9.746;51787.500
533.820;41173.594;   -6.566;52145.035
534.406;39801.531;  -10.817;51133.488
534.991;42565.293;   -9.416;49996.805
535.576;43826.234;   -9.036;48882.852
536.162;43961.746;   -6.156;46942.285
536.747;45299.105;  -11.607;45711.746
537.333;45941.328;  -11.787;48510.180
537.918;46113.238;  -12.437;50439.891
538.503;47422.844;   -7.196;50863.711
539.088;44643.918;  -10.556;50906.922
539.673;43143.523;   -8.767;52621.965
540.259;44253.281;  -10.026;52368.094
540.844;46035.004;   -7.416;50879.109
541.429;45103.547;   -9.467;52077.777
542.014;44986.379;   -9.527;52716.695
542.599;47348.547;   -9.946;52363.281
543.184;50111.297;   -7.927;53187.137
543.769;48447.008;   -9.297;54697.605
544.354;45146.480;  -10.127;53913.914
544.938;43427.410;   -9.267;49680.164
545.523;45741.180;   -6.506;47386.277
546.108;49944.402;   -9.787;49151.949
546.693;49159.910;  -11.587;51384.637
547.278;48477.555;  -10.986;51853.254
547.862;45347.668;   -8.206;51173.750
548.447;42773.082;  -10.067;51691.395
549.031;43652.629;   -9.637;52456.703
549.616;44743.145;   -9.926;52714.516
550.201;43532.688;   -6.347;52414.598
550.785;43174.148;   -7.917;52355.059
551.370;44101.543;  -10.867;54589.453
551.954;44610.496;   -9.047;58267.348
552.538;45702.250;   -7.827;59062.176
553.123;45872.727;  -10.287;58115.285
553.707;42007.328;  -12.178;56556.285
554.291;42785.637;   -8.717;56201.668
554.876;45929.277;   -7.457;55335.762
555.460;46981.676;  -10.387;54155.703
556.044;47707.895;   -9.618;53721.484
556.628;47032.262;  -11.567;53731.016
557.212;45253.879;   -8.097;54312.531
557.796;46415.109;  -11.077;53797.773
558.380;44156.223;  -11.108;56145.984
558.964;42885.844;   -9.057;57277.930
559.548;42776.559;   -6.977;56459.641
560.132;41971.168;  -11.457;54434.543
560.716;41166.527;  -11.378;54800.617
561.300;41954.535;   -9.577;57606.945
561.884;43488.309;   -7.127;58972.445
562.467;44474.859;   -7.118;57327.570
563.051;44024.590;  -13.358;54962.434
563.635;42124.266;  -10.178;52594.473
564.219;41606.633;   -7.837;50610.410
564.802;41115.910;  -11.398;49551.180
565.386;42266.391;  -12.788;48370.953
565.969;42864.844;   -9.077;48178.871
566.553;43045.727;   -6.207;49957.305
567.136;40267.613;   -8.568;50369.594
567.720;39234.469;  -11.868;49492.004
568.303;39009.352;   -8.268;50616.352
568.887;37736.578;   -8.698;50727.148
569.470;38255.637;   -6.808;51698.379
570.053;37211.668;  -13.188;52122.078
570.637;35817.352;  -12.037;52536.438
571.220;35001.930;   -8.577;51186.098
571.803;35245.383;   -8.498;51032.762
572.386;37536.313;  -10.498;49609.887
572.969;38598.422;   -9.388;48285.926
573.552;34193.035;   -8.338;47624.285
574.135;31039.162;   -8.518;45498.641
574.718;28257.307;  -13.628;41970.434
575.301;29111.490;  -10.893;41447.137
575.884;29965.674;   -8.158;40923.836
576.467;35243.324;  -10.328;45267.723
577.050;34137.363;  -13.058;48175.543
577.633;33210.578;   -9.458;47729.328
578.216;34483.566;   -8.928;47579.793
578.799;35139.941;   -9.358;47820.996
579.381;34796.621;  -11.388;48115.551
579.964;32013.037;  -11.718;47333.766
580.547;31782.410;   -8.588;46668.969
581.129;33392.355;   -8.859;44466.141
581.712;33811.043;  -10.729;44164.922
582.294;34833.305;  -11.118;46477.855
582.877;32717.949;   -5.218;48244.254
583.459;32562.377;   -8.679;47437.895
584.042;34264.113;  -10.709;46943.219
584.624;36452.793;  -11.669;46792.227
585.206;35806.574;   -8.218;46557.250
585.789;34496.602;  -10.569;45793.773
586.371;34574.828;  -11.859;43836.391
586.953;33302.852;  -10.719;42972.492
587.536;34596.879;   -7.198;42487.211
588.118;35878.887;   -8.720;42086.414
588.700;35351.484;  -10.439;43389.930
589.282;35603.941;   -9.198;43646.039
589.864;34306.465;   -9.199;43438.109
590.446;31707.129;  -11.319;43151.926
591.028;31168.727;  -11.159;42781.867
591.610;30841.289;  -11.779;42839.098
592.192;27766.395;   -7.668;42820.402
592.774;27462.984;  -11.949;40724.277
593.356;26925.365;  -12.129;39874.789
593.937;24226.619;  -10.669;39980.648
594.519;26344.688;   -6.509;42069.633
595.101;30149.207;  -10.849;42976.031
595.683;30559.064;  -11.679;44084.441
596.264;31002.939;   -9.049;43478.797
596.846;32877.973;   -8.849;43803.672
597.427;33098.777;   -9.570;42986.934
598.009;34273.832;  -12.620;42832.219
598.591;33538.031;  -10.039;42580.086
599.172;32362.359;  -10.369;43061.805
599.753;30671.252;   -9.140;41691.469
600.335;30451.461;  -11.430;40692.520
600.916;31037.205;   -9.939;39982.422
601.498;29991.451;   -8.479;40318.617
602.079;28640.359;  -10.920;40670.609
602.660;30201.105;  -11.480;41450.898
603.241;31681.256;  -11.699;41137.738
603.823;32462.322;   -9.579;38868.797
604.404;32260.102;  -10.620;38182.785
604.985;30800.451;  -10.450;38078.047
605.566;30192.379;   -9.129;38056.633
606.147;30222.230;   -7.510;37020.418
606.728;31418.215;  -10.660;37883.359
607.309;32640.984;  -11.740;38748.273
607.890;32426.645;   -9.759;38850.230
608.471;30602.727;   -8.250;37457.918
609.051;30406.256;   -9.240;36066.457
609.632;28809.375;  -12.120;35991.074
610.213;27974.434;   -9.110;37402.641
610.794;29825.789;   -8.030;38383.363
611.374;31987.383;   -8.110;40562.387
611.955;31720.049;  -13.560;38533.727
612.536;29270.316;  -11.400;36951.789
613.116;28189.988;   -8.070;37197.891
613.697;30367.371;  -10.830;38411.125
614.277;31799.441;  -11.641;38673.938
614.858;31347.717;  -13.310;37075.863
615.438;29509.135;   -7.460;35092.906
616.019;27640.963;   -7.601;33666.301
616.599;28656.709;  -12.020;34189.023
617.179;30441.037;  -11.780;36952.047
617.760;32993.457;   -8.570;39582.574
618.340;32945.977;  -11.471;38943.977
618.920;31348.307;  -11.170;37594.156
619.500;33052.098;  -11.071;37866.938
620.080;33405.477;   -7.750;37869.043
620.660;31843.137;  -12.711;36868.617
621.241;30512.543;  -10.211;36352.309
621.821;29622.725;  -10.961;35459.520
622.401;28624.402;   -7.720;35207.414
622.980;29709.537;   -8.981;35980.422
623.560;30292.367;   -9.331;37351.328
624.140;29087.162;   -9.850;34388.582
624.720;26315.049;   -7.451;32368.764
625.300;24615.492;   -9.070;32638.629
625.880;28212.389;  -12.601;34599.035
626.459;30092.926;  -11.751;36831.738
627.039;30145.137;   -9.281;38299.098
627.619;31951.646;   -8.801;38289.574
628.198;32025.924;  -12.071;37220.695
628.778;30863.584;   -9.461;37632.563
629.357;31754.314;   -8.491;38003.012
629.937;32107.904;   -9.721;38402.039
630.516;32091.371;   -9.951;37868.801
631.096;32285.342;  -11.731;35760.410
631.675;33497.754;   -8.572;35225.219
632.254;33059.023;  -11.282;35130.289
632.834;32737.309;  -13.322;35794.570
633.413;32601.246;  -10.301;35788.922
633.992;31812.627;   -8.582;34532.863
634.571;33430.371;   -8.352;33590.113
635.151;33604.641;  -11.912;34943.863
635.730;32192.164;  -10.511;35352.523
636.309;34503.996;   -7.731;35366.605
636.888;33012.742;   -9.952;36165.637
637.467;30757.549;  -11.672;37515.902
638.046;30455.309;   -8.901;39288.695
638.625;31147.113;   -7.912;38279.699
639.204;31925.295;  -10.022;37741.598
639.782;30172.426;  -12.252;38364.551
640.361;28178.898;  -10.041;36740.621
640.940;27217.117;  -11.161;34950.082
641.519;28402.719;   -9.701;34137.398
642.097;30283.555;  -11.271;35654.258
642.676;31625.582;   -8.651;35637.957
643.255;32699.914;   -8.711;36567.074
643.833;30488.623;   -9.581;37809.434
644.412;28245.758;  -13.711;37337.293
644.990;29900.762;  -11.811;37018.531
645.569;32574.809;   -9.411;36518.469
646.147;32278.742;  -10.291;36186.430
646.726;31238.645;  -12.401;36267.688
647.304;31287.766;  -10.411;36647.625
647.882;30436.973;   -9.651;39286.742
648.461;31555.648;   -9.631;39157.703
649.039;34786.289;  -11.881;35412.883
649.617;35385.750;   -9.661;34744.918
650.195;33228.871;   -9.301;35403.098
650.773;32031.049;  -10.511;35053.797
651.352;31425.240;  -11.521;33756.816
651.930;28900.033;  -12.211;31868.773
652.508;25467.504;   -9.171;33121.551
653.086;26532.180;   -9.371;33564.793
653.663;32350.896;  -13.161;34054.668
654.241;36316.039;  -13.031;35693.309
654.819;37220.598;   -9.371;36422.906
655.397;37150.844;  -10.511;38213.484
655.975;33499.043;  -10.371;39507.625
656.553;30346.742;  -10.051;39498.223
657.130;28824.354;  -10.061;40395.480
657.708;26763.607;   -9.561;39242.020
658.286;24143.148;  -11.511;38920.020
658.863;25990.424;  -10.261;40202.898
659.441;29775.346;   -7.531;39677.938
660.018;31776.650;   -9.501;40413.355
660.596;31155.711;  -13.301;39931.414
661.173;30604.266;  -11.211;39604.531
661.750;32225.482;   -9.951;39700.070
662.328;31251.881;   -9.390;39292.809
662.905;30456.729;  -11.330;38235.648
663.482;28385.727;   -9.050;36212.305
664.060;25797.301;   -8.240;35944.945
664.637;26452.162;  -10.050;35170.785
665.214;29700.785;  -11.760;34197.523
665.791;30335.971;  -10.530;34549.520
666.368;29273.359;   -9.690;35118.578
666.945;30363.297;   -9.320;36019.418
667.522;30759.469;  -11.860;36048.438
668.099;32169.377;  -10.770;36243.914
668.676;32266.561;   -6.260;35958.875
669.253;34890.082;   -7.000;37384.730
669.830;36458.875;  -10.190;36779.629
670.407;33192.527;   -9.550;35231.289
670.984;33217.582;   -9.260;35544.270
671.560;30604.549;   -9.280;35466.867
672.137;26462.330;  -11.810;34280.863
672.714;27774.260;  -11.490;34632.863
673.290;31530.723;   -7.740;35135.422
673.867;31463.994;  -10.660;36114.480
674.443;31717.813;  -12.230;36152.859
675.020;31544.691;  -10.450;35327.238
675.596;30039.805;   -9.260;35795.176
676.173;28721.365;  -10.780;35430.355
676.749;28256.668;  -13.690;33549.516
677.326;28290.268;  -11.980;32210.012
677.902;27527.930;   -8.630;32068.871
678.478;29336.621;  -10.730;32583.891
679.054;30419.951;  -10.520;32088.928
679.631;29854.475;  -11.920;30978.848
680.207;29949.137;   -7.490;33160.887
680.783;31726.504;   -9.860;35570.363
681.359;33089.684;  -13.380;36125.184
681.935;33619.113;  -12.480;35240.922
682.511;32770.391;   -7.900;34429.961
683.087;31499.467;   -7.710;34463.680
683.663;31179.600;  -11.480;34648.898
684.239;30338.213;  -14.090;34546.457
684.815;29267.611;   -7.560;35586.375
685.390;29294.137;   -9.910;35821.895
685.966;30271.352;  -11.159;35085.871
686.542;31798.855;  -11.169;34198.230
687.118;33365.363;   -5.959;32847.707
687.693;32303.682;  -10.329;32794.027
688.269;33103.578;  -12.059;33072.367
688.844;33474.199;  -10.909;33141.664
689.420;30925.965;   -8.019;33965.742
689.995;29393.385;   -8.399;34655.523
690.571;30892.773;  -10.949;33576.742
691.146;30597.713;   -9.619;32657.219
691.722;29041.857;   -8.999;32526.979
692.297;28456.645;  -11.589;33014.617
692.872;28653.633;  -11.739;34012.254
693.448;31409.363;  -11.059;34237.434
694.023;32125.438;  -10.139;34142.672
694.598;29987.568;   -9.029;34132.031
695.173;30977.883;  -13.319;34205.250
695.748;31812.332;  -10.169;32882.488
696.323;29533.057;   -8.339;32864.906
696.898;27370.301;   -8.169;33170.004
697.473;27552.201;  -12.309;32432.984
698.048;27780.771;  -10.989;31649.303
698.623;26483.982;   -9.329;30778.141
699.198;27219.590;   -9.849;31140.119
699.773;28402.994;  -12.329;31764.299
700.348;29807.490;  -10.389;31780.816
700.922;30129.225;   -9.269;32046.375
701.497;31174.539;   -9.329;32603.574
702.072;32285.637;  -10.789;34799.871
702.646;31246.635;  -10.839;35793.172
703.221;30346.557;   -9.099;35201.590
703.795;32301.479;  -10.939;34764.527
704.370;30026.158;  -12.859;34307.367
704.944;28390.600;  -11.559;33509.887
705.519;29295.277;   -7.939;31388.584
706.093;31784.381;  -10.499;31340.104
706.668;34425.570;  -11.289;32630.281
707.242;34003.707;  -11.509;32728.779
707.816;31938.678;   -9.639;32947.238
708.390;30380.012;  -11.429;33277.855
708.965;29444.000;  -11.869;33834.336
709.539;30883.332;  -11.689;33709.273
710.113;31091.916;  -10.478;33044.313
710.687;30358.199;  -10.228;31953.992
711.261;29523.049;  -13.698;30505.949
711.835;29892.100;  -13.378;30262.369
712.409;29122.070;   -9.698;31254.447
712.983;28640.830;  -11.898;32754.986
713.557;31088.330;  -15.138;34018.824
714.131;29204.855;  -14.098;34579.625
714.704;28563.959;   -9.958;33890.262
715.278;30564.939;  -10.028;33531.102
715.852;29319.270;  -11.148;33601.660
716.425;28169.625;   -9.068;33515.117
716.999;26829.074;  -10.038;33185.555
717.573;26367.875;   -9.798;33905.996
718.146;25716.836;  -12.378;35199.293
718.720;26353.906;  -11.918;35060.551
719.293;26918.918;   -8.088;34973.230
719.867;29154.482;  -10.888;36394.449
720.440;30646.967;  -11.938;36663.008
721.013;31133.564;  -12.818;35102.426
721.587;28886.133;  -10.298;33985.266
722.160;27088.279;  -10.048;33524.965
722.733;26639.164;  -12.108;32987.043
723.306;26952.451;  -10.818;33066.301
723.880;28614.627;   -8.908;33399.500
724.453;28312.852;   -9.878;33468.297
725.026;28323.484;  -11.188;33816.637
725.599;31332.990;  -11.678;32797.996
726.172;31165.637;   -9.618;33187.434
726.745;28452.775;   -8.258;35136.613
727.318;27926.387;  -12.978;35751.730
727.891;27003.746;  -12.148;35890.430
728.463;25851.123;   -8.968;34822.090
729.036;25784.906;  -10.188;32895.086
729.609;25954.045;  -11.788;31823.225
730.182;24156.939;  -11.788;31445.283
730.754;22829.756;  -10.268;32373.223
731.327;22764.191;   -9.998;33676.820
731.900;24123.432;  -12.228;33417.000
732.472;24269.002;  -13.848;31978.498
733.045;23490.590;   -8.698;30368.777
733.617;22968.457;  -10.607;30574.215
734.190;24693.244;  -11.507;31280.975
734.762;25672.971;  -13.647;31674.412
735.334;27066.955;   -9.767;31247.291
735.907;27655.664;   -9.897;29876.211
736.479;27412.893;  -11.637;29808.488
737.051;28365.838;   -9.567;30233.547
737.623;27879.240;   -8.187;31469.086
738.195;26602.756;  -11.187;31784.225
738.768;25420.510;  -12.337;32120.523
739.340;23718.547;  -12.227;32094.342
739.912;22657.262;  -11.057;31312.680
740.484;22507.547;  -10.207;31946.238
741.056;22291.014;  -10.047;32984.059
741.628;23462.686;  -13.627;33897.715
742.199;24401.260;   -7.177;33213.016
742.771;26509.338;  -10.797;31369.113
743.343;27259.732;  -11.997;31865.473
743.915;27129.986;  -12.867;32388.631
744.487;24720.611;   -7.617;31079.568
745.058;21672.955;   -9.557;30570.107
745.630;22687.668;   -9.877;29970.127
746.201;24438.816;  -14.177;29186.766
746.773;25069.221;   -9.237;28805.723
747.344;23192.424;   -9.847;29591.223
747.916;21388.201;  -11.657;31412.201
748.487;22343.137;  -10.587;32194.898
749.059;24200.443;   -8.707;32533.719
749.630;24476.434;  -10.537;32158.518
750.201;23914.881;  -11.687;30855.395
750.773;22633.227;  -11.647;28622.555
751.344;22346.814;   -7.147;28405.732
751.915;24473.688;   -9.757;28461.551
752.486;25692.801;  -12.427;27842.850
753.057;24422.455;  -12.227;27845.008
753.628;24399.877;  -10.417;27728.107
754.199;24134.100;  -11.767;27381.086
754.770;23666.543;  -11.187;25882.203
755.341;22456.986;  -10.507;25886.184
755.912;20826.992;   -9.387;26050.861
756.483;19348.295;  -10.647;26798.779
757.054;19832.045;  -11.837;27048.238
757.625;19881.531;  -12.716;26294.838
758.195;19727.949;   -9.666;26142.076
758.766;20021.188;   -8.656;26392.234
759.337;19509.992;  -12.856;26334.594
759.907;19326.773;  -13.366;27579.652
760.478;18950.766;   -8.576;28352.770
761.048;19909.203;  -10.526;27325.088
761.619;20094.281;  -11.116;26460.428
762.189;18698.744;  -12.136;26029.826
762.760;18322.631;   -9.456;26430.145
763.330;18700.936;   -7.136;26670.902
763.900;18840.328;  -11.786;26603.021
764.471;18498.391;  -11.546;25542.740
765.041;17558.514;   -8.096;24358.459
765.611;16752.557;   -8.876;23991.297
766.181;16715.537;  -12.196;24470.236
766.751;16615.654;  -11.636;24845.975
767.321;17646.842;  -10.156;24533.633
767.891;17129.494;  -11.766;24916.492
768.461;17283.951;  -14.936;24776.771
769.031;18243.084;  -12.356;24757.988
769.601;18907.176;   -7.526;24181.088
770.171;18800.412;  -10.766;23670.387
770.741;18032.541;  -13.176;22960.045
771.311;17486.207;  -10.616;22917.523
771.880;17625.766;   -9.576;23562.941
772.450;17225.691;  -10.336;24216.500
773.020;16766.754;  -13.516;24140.398
773.589;17414.193;  -13.466;24414.857
774.159;17374.254;   -8.686;23858.717
774.729;15972.017;   -9.476;22942.135
775.298;14154.611;  -13.666;22324.033
775.867;13906.998;  -11.716;21140.313
776.437;14079.310;   -9.906;20838.092
777.006;13321.664;  -12.166;20599.510
777.576;12778.477;  -12.356;20508.809
778.145;12662.525;  -11.646;20732.947
778.714;13109.263;   -8.226;21062.465
779.283;14218.962;   -9.556;20949.664
779.853;15009.238;  -14.116;20508.623
780.422;14512.712;  -11.506;20649.082
780.991;14077.640;   -9.556;21527.520
781.560;13712.554;   -9.095;22632.658
782.129;13451.176;  -12.135;23048.277
782.698;13307.337;  -10.865;23438.555
783.267;13028.240;   -9.335;23267.734
783.836;13069.617;  -11.045;22415.133
784.404;13720.874;  -13.865;20443.152
784.973;13012.476;  -13.095;19699.150
785.542;11615.782;  -11.575;19763.828
786.111;10906.324;   -9.705;20341.408
786.679;11560.151;  -12.105;20207.967
787.248;11946.519;  -12.455;19516.465
787.817;11768.196;  -11.535;18900.363
788.385;11855.132;   -9.765;17879.121
788.954;11707.831;  -14.005;17658.301
789.522;11136.990;  -11.955;17788.879
790.090;11383.404;  -10.135;18118.277
790.659;12393.789;  -10.975;18338.736
791.227;12421.231;  -13.375;18508.615
791.795;11880.295;  -12.375;17898.254
792.364;11275.009;  -10.725;17295.133
792.932;11403.336;   -9.715;16822.051
793.500;11492.331;  -12.675;17040.148
794.068;11244.396;  -13.495;17179.787
794.636;10184.864;  -10.885;16664.246
795.204; 9173.314;  -11.045;16524.545
795.772; 9727.021;  -13.175;17274.564
796.340;10843.014;  -12.445;17891.002
796.908;10722.078;   -9.735;17648.561
797.476;11055.092;   -9.815;17064.080
798.044;11937.967;  -13.985;16672.777
798.612;11839.465;  -13.115;17023.996
799.180;10559.086;  -10.185;16561.615
799.747; 9447.901;   -9.055;15962.773
800.315; 8781.649;  -12.385;15296.992
800.883; 9041.077;  -15.035;14801.771
801.450; 9377.987;  -10.365;14534.430
802.018; 9522.823;   -9.855;14173.248
802.585; 9730.875;  -11.905;14029.547
803.153; 9263.609;  -11.585;13836.846
803.720; 8571.042;   -9.095;13567.324
804.287; 8600.329;   -9.135;13360.622
804.855; 8863.312;  -11.604;13681.981
805.422; 8891.316;  -11.794;13536.560
805.989; 8719.899;  -10.734;13355.958
806.556; 8314.958;  -10.444;13747.896
807.124; 8198.821;  -12.764;13987.376
807.691; 8832.143;  -12.964;14038.674
808.258; 9347.438;  -11.134;14120.152
808.825; 9583.742;   -9.854;13860.111
809.392; 9300.798;  -10.504;13268.790
809.959; 8858.346;  -13.054;12680.389
810.526; 8654.554;   -8.294;12427.308
811.093; 8316.872;   -8.394;12030.105
811.659; 7519.063;  -12.304;11653.664
812.226; 7274.257;  -13.944;11637.183
812.793; 7816.039;  -10.484;11611.521
813.360; 7968.092;  -10.144;11885.181
813.926; 7216.835;  -11.684;12770.539
814.493; 6539.488;  -13.644;12677.638
815.060; 6391.014;   -9.724;11974.336
815.626; 6721.863;   -9.854;11594.715
816.193; 6798.956;  -13.254;11579.474
816.759; 6832.238;  -13.204;11666.972
817.325; 6622.541;   -9.434;11325.530
817.892; 6303.115;  -10.134;11105.369
818.458; 6214.702;  -13.474;10843.928
819.024; 6188.474;  -11.854;10714.406
819.591; 6446.285;  -10.244;10469.165
820.157; 6519.399;  -10.704;10235.523
820.723; 6758.920;  -12.324;10847.563
821.289; 7206.912;   -9.444;11040.980
821.855; 7336.232;   -8.374;10357.100
822.421; 6985.861;  -10.234; 9978.918
822.987; 6708.036;  -13.294; 9754.177
823.553; 6554.737;  -10.884;10065.755
824.119; 6087.137;   -8.884;10036.294
824.685; 5880.280;   -6.784;10029.192
825.251; 5834.737;  -12.004;10199.230
825.816; 5941.655;  -11.474; 9820.189
826.382; 5720.203;   -9.174; 9297.248
826.948; 5428.315;   -9.214; 9381.347
827.513; 5180.956;  -10.774; 9450.726
828.079; 5140.179;  -11.924; 9472.444
828.645; 5282.335;  -10.543; 9292.643
829.210; 5523.963;  -10.533; 9065.341
829.776; 5545.407;  -10.753; 9132.620
830.341; 5422.147;  -10.173; 9092.878
830.906; 5483.703;  -10.743; 9078.557
831.472; 5381.408;  -11.113; 8534.535
832.037; 4891.124;  -10.603; 8677.874
832.602; 4791.181;  -13.323; 8628.692
833.167; 5126.193;  -10.823; 8879.031
833.733; 5105.203;  -10.113; 9189.790
834.298; 4864.413;  -13.583; 9052.608
834.863; 4738.658;  -12.703; 8895.087
835.428; 4623.734;  -10.523; 8824.266
835.993; 4568.437;   -6.963; 8845.385
836.558; 4652.711;  -10.763; 8888.563
837.123; 4755.132;   -9.903; 8966.582
837.688; 4585.816;   -9.913; 8617.860
838.253; 4431.930;  -10.283; 8590.699
838.817; 4567.604;  -12.963; 8443.797
839.382; 4768.545;  -14.243; 8799.356
839.947; 4676.131;  -10.733; 8810.595
840.511; 4737.432;   -9.383; 8796.394
841.076; 4754.265;  -12.563; 8347.231
841.641; 4560.948;  -12.953; 8224.330
842.205; 4273.391;   -7.043; 8223.349
842.770; 4225.364;   -8.163; 8622.107
843.334; 4264.586;  -12.503; 8410.386
843.898; 4217.452;  -11.693; 8337.465
844.463; 4115.276;  -10.203; 8506.283
845.027; 4039.556;   -9.533; 8280.962
845.591; 4091.367;  -13.443; 8231.141
846.156; 4021.035;  -13.143; 7969.179
846.720; 3837.531;   -9.433; 7768.278
847.284; 3540.366;  -11.033; 7630.957
847.848; 3366.101;  -10.403; 7472.395
848.412; 3388.958;  -11.553; 7437.394
848.976; 3597.968;   -8.393; 7674.592
849.540; 3652.671;   -8.713; 7836.011
850.104; 3618.651;  -12.463; 7913.669
850.668; 3742.367;  -12.973; 7694.508
851.232; 3773.859;  -10.793; 7756.887
851.796; 3678.123;  -10.662; 7926.545
852.359; 3703.296;  -13.082; 7827.844
852.923; 3451.005;  -12.192; 7641.163
853.487; 3351.960;  -11.912; 7342.501
854.050; 3519.196;  -10.892; 7042.820
854.614; 3522.730;  -13.992; 7151.338
855.177; 3411.531;  -11.732; 7105.077
855.741; 3331.794;   -8.962; 6989.675
856.304; 3236.221;   -9.442; 6596.634
856.868; 2987.696;  -14.192; 6356.272
857.431; 2768.359;  -12.702; 6468.571
857.995; 2797.199;   -9.942; 6373.210
858.558; 2830.631;   -9.112; 6324.448
859.121; 2646.610;  -12.932; 6408.327
859.684; 2588.762;  -13.442; 6347.886
860.247; 3003.409;  -10.632; 6321.264
860.810; 3352.354;  -11.272; 6301.903
861.374; 3378.496;   -9.832; 6607.881
861.937; 3359.675;  -11.762; 6408.200
862.500; 3216.640;   -9.722; 6572.639
863.062; 2892.995;  -10.512; 6387.297
863.625; 2756.916;  -11.232; 6190.836
864.188; 2750.588;  -14.112; 5807.254
864.751; 2743.422;  -11.302; 5682.413
865.314; 2856.261;  -10.112; 5547.492
865.876; 2897.678;  -12.182; 5500.150
866.439; 2818.186;  -10.722; 5415.909
867.002; 2660.336;   -9.252; 5501.567
867.564; 2548.024;   -9.572; 5413.946
868.127; 2419.528;  -13.142; 5160.325
868.689; 2123.917;  -12.902; 5133.183
869.252; 1983.671;   -9.732; 5252.382
869.814; 2003.482;   -9.432; 5297.141
870.377; 2109.681;  -11.552; 5390.919
870.939; 2089.175;   -9.052; 5599.898
871.501; 2011.497;  -10.982; 5248.336
872.063; 2049.066;  -12.292; 4854.235
872.626; 2058.505;  -14.912; 4817.074
873.188; 2060.833;  -13.112; 4987.732
873.750; 2011.258;  -13.442; 4868.651
874.312; 2072.106;   -9.402; 4779.330
874.874; 2224.771;  -11.062; 4866.348
875.436; 2127.502;  -13.931; 4718.887
875.998; 1833.685;   -9.561; 4660.005
876.560; 1660.314;  -11.321; 4462.964
877.122; 1643.834;  -12.221; 4145.042
877.683; 1625.774;  -12.191; 4056.481
878.245; 1719.034;  -12.101; 3950.740
878.807; 1872.125;   -8.971; 4058.958
879.369; 1906.577;  -12.071; 3954.677
879.930; 1831.714;  -14.621; 3941.495
880.492; 1661.101;  -10.311; 4067.014
881.053; 1496.963;  -10.901; 3859.633
881.615; 1472.219;  -14.411; 3776.071
882.176; 1501.953;  -13.761; 3734.750
882.738; 1520.559;   -9.181; 3678.489
883.299; 1485.765;  -11.791; 3405.407
883.860; 1408.036;  -13.121; 3351.106
884.422; 1299.231;  -11.211; 3394.044
884.983; 1208.589;  -10.091; 3166.443
885.544; 1183.127;   -8.461; 3189.802
886.105; 1131.196;  -12.361; 3160.360
886.666; 1055.305;  -14.141; 3093.059
887.227; 1020.830;  -11.361; 2941.957
887.788; 1034.169;  -11.401; 2974.836
888.349;  990.006;  -13.791; 2721.214
888.910;  894.239;  -13.191; 2696.493
889.471;  790.518;   -9.881; 2560.172
890.032;  711.876;   -9.881; 2558.190
890.593;  706.415;  -10.371; 2567.669
891.153;  710.838;  -13.301; 2460.307
891.714;  653.093;  -11.431; 2372.046
892.275;  600.554;  -11.291; 2309.505
892.835;  581.827;  -11.471; 2382.543
893.396;  568.577;  -11.541; 2295.502
893.956;  565.197;  -11.181; 2162.420
894.517;  554.780;  -11.741; 2125.439
895.077;  509.613;  -11.671; 2086.978
895.638;  459.173;  -11.311; 2126.316
896.198;  437.886;   -9.831; 1838.275
896.758;  436.667;   -8.421; 1892.813
897.319;  429.324;  -12.351; 1792.232
897.879;  410.728;  -13.511; 1762.751
898.439;  385.470;  -12.001; 1661.149
898.999;  364.992;  -10.180; 1781.468
899.559;  351.405;  -12.030; 1703.347
900.119;  342.544;  -15.710; 1537.525
900.679;  323.364;   -8.900; 1638.384
901.239;  294.456;   -8.340; 1527.902
901.799;  277.370;  -13.910; 1456.441
902.359;  267.746;  -13.460; 1357.140
902.919;  262.513;  -11.490; 1331.118
903.479;  259.775;  -12.110; 1317.257
904.038;  250.945;  -11.720; 1262.595
904.598;  236.327;  -13.610; 1152.034
905.158;  224.303;  -11.040; 1240.893
905.717;  218.717;  -10.900; 1233.691
906.277;  214.144;  -15.080; 1217.330
906.836;  210.977;  -13.380; 1222.408
907.396;  208.164;  -10.780; 1193.047
907.955;  202.069;   -8.500; 1182.526
908.515;  193.849;  -12.760; 1099.364
909.074;  189.265;  -11.900; 1092.863
909.633;  186.153;   -8.950; 1069.121
910.192;  182.950;   -8.770; 1196.460
910.752;  178.374;  -12.390; 1029.960
911.311;  175.386;  -13.680; 1009.780
911.870;  170.962;  -12.370;  971.460
912.429;  166.906;  -10.900; 1094.080
912.988;  164.319;  -11.690; 1081.060
913.547;  159.935;  -13.240;  940.380
914.106;  159.166;  -11.990;  999.420
914.665;  159.300;   -9.990;  984.020
915.224;  158.059;  -12.880; 1035.760
915.782;  156.776;  -12.350;  922.560
916.341;  157.493;   -9.110; 1049.840
916.900;  155.077;   -9.270;  925.260
917.458;  152.174;  -13.240;  884.220
918.017;  149.817;  -13.550;  942.600
918.576;  150.031;  -12.320;  904.440
919.134;  149.814;  -11.490;  837.980
919.693;  147.675;  -13.670;  893.060
920.251;  147.007;  -15.470;  876.500
920.809;  145.617;  -11.290;  839.580
921.368;  146.193;  -10.210;  885.360
921.926;  145.313;  -12.140;  842.940
922.484;  143.827;  -13.080;  903.360
923.042;  144.189;  -11.720;  880.340
923.601;  145.610;   -7.480;  998.680
924.159;  143.605;  -11.570;  935.560
924.717;  142.075;  -13.840;  841.080
925.275;  144.500;  -10.640;  903.240
925.833;  143.554;  -11.540;  779.320
926.391;  143.349;  -12.960;  938.380
926.949;  143.892;  -14.130;  857.680
927.506;  144.995;  -11.750;  903.500
928.064;  143.159;  -10.250;  877.580
928.622;  141.552;  -13.030;  880.100
929.180;  143.467;  -13.400;  814.180
929.737;  145.921;  -10.700;  808.540
930.295;  146.095;  -10.070;  928.480
930.853;  145.799;  -11.960;  849.100
931.410;  145.751;  -13.120;  821.120
931.968;  147.033;  -10.770;  940.660
932.525;  148.831;  -10.680;  909.380
933.082;  150.842;  -13.130;  811.440
933.640;  157.021;  -13.210;  925.900
934.197;  157.275;  -11.060;  886.360
934.754;  157.931;   -9.580;  897.780
935.312;  158.993;  -14.000;  863.340
935.869;  161.830;  -10.710; 1012.980
936.426;  160.451;   -9.860;  872.800
936.983;  159.915;   -9.710;  889.020
937.540;  156.849;  -13.990;  838.280
938.097;  156.516;  -14.040;  940.120
938.654;  159.685;  -10.310;  898.860
939.211;  160.805;  -10.560;  952.480
939.768;  158.638;  -13.900;  915.420
940.324;  160.491;  -14.760;  904.200
940.881;  165.679;  -10.370;  878.500
941.438;  171.487;   -8.260; 1021.200
941.995;  173.541;  -12.540;  992.560
942.551;  171.282;  -14.670;  875.620
943.108;  172.061;  -10.450;  937.920
943.664;  173.743;  -10.750;  869.340
944.221;  177.819;  -11.550; 1088.140
944.777;  179.735;  -14.770;  869.680
945.334;  179.986;  -12.820;  884.840
945.890;  178.647;  -10.130;  946.480
946.446;  175.955;  -13.470;  947.020
947.003;  176.414;  -12.120;  964.940
947.559;  177.757;   -9.980; 1063.040
948.115;  173.650;   -9.080; 1026.540
948.671;  168.965;  -10.830;  967.300
949.227;  166.775;  -12.440;  859.560
949.783;  166.598;  -12.910;  858.900
950.339;  169.994;  -10.270;  991.000
950.895;  169.755;  -13.630; 1023.840
951.451;  169.269;  -15.100;  925.280
952.007;  169.417;  -11.330;  998.540
952.563;  168.009;  -10.580;  937.780
953.118;  162.971;  -13.440;  904.940
953.674;  160.312;  -12.710;  935.780
954.230;  163.087;  -10.350;  949.640
954.785;  166.678;   -9.190;  936.640
955.341;  167.935;  -11.200;  998.160
955.897;  164.261;  -16.560;  834.660
956.452;  162.228;  -12.570;  953.840
957.008;  159.331;   -7.970; 1083.640
957.563;  157.802;  -11.940; 1009.540
958.118;  156.209;  -13.450;  877.700
958.674;  157.123;  -12.030;  946.780
959.229;  156.651;   -9.410; 1013.980
959.784;  154.693;  -12.000;  832.400
960.339;  152.602;  -14.780; 1001.280
960.894;  147.584;   -9.860;  963.760
961.449;  142.551;   -9.970;  859.960
962.004;  141.653;  -10.900; 1212.840
962.559;  136.940;  -13.150;  860.140
963.114;  136.399;  -13.740;  742.480
963.669;  135.136;   -9.820;  915.500
964.224;  128.794;  -13.890;  874.340
964.779;  120.749;  -12.600;  828.420
965.334;  112.705;  -10.950; 1017.860
965.888;  103.722;  -11.170;  875.360
966.443;   98.141;  -12.540;  972.380
966.998;   96.626;  -15.780;  819.460
967.552;  100.074;   -9.760;  908.380
968.107;  100.213;   -9.060;  868.300
968.661;  103.431;  -11.950;  922.440
969.216;  104.853;  -12.800;  856.280
969.770;  106.660;  -11.210;  917.200
970.324;  105.650;  -11.610;  923.140
970.879;  104.789;  -11.370;  947.180
971.433;  105.152;  -12.540;  952.720
971.987;  104.399;  -11.320;  895.340
972.541;  103.738;  -10.720;  917.100
973.095;  105.454;   -9.680; 1009.460
973.649;  104.557;  -11.440;  809.480
974.203;  104.584;  -11.210;  829.040
974.757;  105.523;  -10.240;  855.220
975.311;  105.087;  -13.720;  872.600
975.865;  105.976;  -13.770;  881.820
976.419;  105.723;  -11.690;  857.400
976.973;  105.143;   -9.510;  849.620
977.526;  105.268;  -12.620;  949.920
978.080;  102.623;  -12.010;  796.780
978.634;  101.679;  -10.170;  921.320
979.187;   98.770;   -9.020;  905.400
979.741;   97.963;   -9.820; 1018.380
980.294;   93.813;  -14.870;  789.160
980.848;   90.340;  -12.380;  717.220
981.401;   90.028;  -10.350;  816.540
981.955;   89.368;  -13.720;  844.300
982.508;   86.578;  -11.490;  746.340
983.061;   87.901;  -10.000;  915.260
983.615;   86.353;  -11.480;  798.800
984.168;   85.478;  -13.220;  770.080
984.721;   86.488;  -13.960;  880.760
985.274;   84.067;  -10.870;  867.500
985.827;   83.049;   -9.790;  834.220
986.380;   81.631;  -13.120;  721.340
986.933;   81.896;  -12.450;  864.800
987.486;   81.187;  -10.210;  861.920
988.039;   80.741;   -8.430;  863.100
988.591;   77.095;  -10.520;  893.260
989.144;   74.235;  -14.860;  737.260
989.697;   73.039;  -13.080;  758.740
990.250;   71.643;  -10.150;  858.100
990.802;   69.365;  -13.430;  755.860
991.355;   69.315;  -12.750;  974.880
991.907;   66.921;  -12.040;  864.320
992.460;   64.527;  -11.330;  753.760
993.012;   63.367;  -13.610;  749.540
993.565;   62.158;  -13.460;  711.360
994.117;   64.330;   -9.360;  950.780
994.669;   61.661;  -11.300;  701.320
995.221;   60.598;  -13.540;  791.920
995.774;   59.590;  -13.430;  787.580
996.326;   59.087;  -12.520;  740.220
996.878;   59.618;  -10.950;  838.420
997.430;   57.059;  -14.300;  699.860
997.982;   55.462;  -13.760;  750.140
998.534;   56.076;  -11.530;  739.060
999.086;   54.094;  -10.310;  738.220
999.638;   53.079;  -12.530;  661.380
1000.190;   52.161;  -11.840;  699.320
1000.741;   51.432;  -10.260;  742.700
1001.293;   52.119;   -8.860;  686.020
1001.845;   50.179;  -13.700;  676.640
1002.396;   50.829;  -12.100;  743.400
1002.948;   50.213;  -12.760;  737.400
1003.500;   49.299;  -10.380;  723.780
1004.051;   49.391;  -11.900;  907.580
1004.603;   48.185;  -12.250;  791.820
1005.154;   45.405;  -13.210;  608.980
1005.705;   44.772;  -10.950;  723.960
1006.257;   43.296;  -13.880;  707.220
1006.808;   41.779;  -12.840;  685.460
1007.359;   42.449;  -10.570;  763.240
1007.910;   41.133;   -9.620;  646.640
1008.461;   40.767;  -13.630;  732.940
1009.013;   38.601;  -17.200;  588.340
1009.564;   40.582;  -10.200;  793.520
1010.115;   39.206;  -12.570;  597.040
1010.665;   38.727;  -15.150;  602.160
1011.216;   38.922;  -14.480;  667.920
1011.767;   38.330;  -11.340;  697.920
1012.318;   38.460;   -9.780;  736.980
1012.869;   36.853;  -12.380;  679.000
1013.419;   36.203;  -15.560;  603.120
1013.970;   36.785;  -11.010;  666.640
1014.521;   36.270;  -11.610;  620.620
1015.071;   36.233;  -13.450;  670.380
1015.622;   35.593;  -13.870;  635.460
1016.172;   35.223;  -11.610;  596.820
1016.723;   35.495;  -12.120;  614.380
1017.273;   34.439;  -13.620;  604.160
1017.823;   34.384;  -14.140;  650.340
1018.374;   34.480;  -12.800;  611.760
1018.924;   34.937;  -12.340;  716.880
1019.474;   34.276;  -11.410;  718.880
1020.024;   32.664;  -14.770;  657.580
1020.574;   33.917;   -9.780;  726.160
1021.124;   33.833;   -8.560;  673.580
1021.674;   32.668;  -15.190;  559.120
1022.224;   33.228;  -13.530;  708.940
1022.774;   33.149;  -13.280;  668.820
1023.324;   34.267;  -10.690;  753.520
1023.874;   34.181;  -10.240;  875.760
1024.423;   31.756;  -12.540;  613.700
1024.973;   31.790;  -10.010;  610.760
1025.523;   30.922;  -10.550;  620.960
1026.072;   30.360;  -13.560;  606.420
1026.622;   30.984;  -15.120;  675.740
1027.172;   31.897;  -11.260;  715.660
1027.721;   30.571;  -11.410;  601.220
1028.270;   31.016;  -13.530;  663.400
1028.820;   30.255;  -13.680;  638.080
1029.369;   30.505;  -13.520;  612.700
1029.918;   30.814;  -10.980;  649.840
1030.468;   29.260;  -13.530;  564.780
1031.017;   30.309;  -13.170;  634.800
1031.566;   28.711;  -12.200;  608.900
1032.115;   29.925;   -9.960;  694.500
1032.664;   27.811;  -13.210;  596.480
1033.213;   28.854;  -12.500;  735.420
1033.762;   28.135;  -11.910;  635.620
1034.311;   28.180;   -9.640;  677.220
1034.860;   28.721;  -13.310;  691.000
1035.408;   28.586;  -11.830;  722.720
1035.957;   28.794;  -12.000;  719.540
1036.506;   26.390;  -11.690;  530.800
1037.055;   28.714;  -10.990;  844.320
1037.603;   27.298;  -15.120;  664.000
1038.152;   26.247;  -12.450;  534.760
1038.700;   27.043;  -10.560;  585.740
1039.249;   25.810;  -11.080;  681.220
1039.797;   25.526;  -12.540;  633.360
1040.345;   26.555;  -11.920;  705.420
1040.894;   26.173;  -11.410;  625.300
1041.442;   25.219;  -14.320;  632.200
1041.990;   24.755;  -16.240;  559.160
1042.538;   25.028;  -11.680;  536.180
1043.087;   25.399;  -10.760;  570.860
1043.635;   26.140;  -11.850;  670.500
1044.183;   24.456;  -15.480;  586.400
1044.731;   24.133;  -11.770;  576.000
1045.279;   24.496;  -13.090;  674.920
1045.827;   25.991;  -12.440;  892.400
1046.374;   23.798;  -13.840;  515.420
1046.922;   23.336;  -13.220;  590.580
1047.470;   24.494;  -10.230;  691.300
1048.018;   24.149;  -14.590;  647.960
1048.565;   25.222;  -12.050;  708.600
1049.113;   22.889;  -11.650;  557.000
1049.660;   23.689;  -10.510;  629.660
1050.208;   24.060;  -13.310;  675.640
1050.755;   22.500;  -15.900;  606.580
1051.303;   23.999;  -11.430;  686.820
1051.850;   22.970;   -8.480;  635.120
1052.397;   20.635;  -15.010;  473.960
1052.945;   20.952;  -13.960;  617.760
1053.492;   23.512;  -13.150;  741.840
1054.039;   22.667;   -9.630;  720.180
1054.586;   21.174;  -13.680;  557.240
1055.133;   23.093;  -14.570;  693.140
1055.680;   22.732;  -13.820;  646.620
1056.227;   21.057;  -11.730;  542.780
1056.774;   23.719;  -12.480;  794.980
1057.321;   20.695;  -13.930;  523.260
1057.868;   21.298;  -11.690;  651.320
1058.415;   20.902;   -9.520;  651.980
1058.961;   21.121;  -13.160;  678.940
1059.508;   21.460;  -12.920;  643.820
1060.055;   20.570;  -11.920;  581.780
1060.601;   21.561;  -11.500;  624.300
1061.148;   19.648;  -14.330;  616.820
1061.694;   20.229;  -16.870;  592.580
1062.241;   20.261;  -10.330;  596.320
1062.787;   20.508;  -10.620;  663.140
1063.334;   22.291;  -10.110;  808.560
1063.880;   20.101;  -13.400;  668.360
1064.426;   20.474;  -10.680;  706.820
1064.972;   19.130;   -9.920;  601.340
1065.518;   18.173;  -10.980;  566.640
1066.065;   19.423;  -14.890;  624.460
1066.611;   18.427;  -12.870;  598.800
1067.157;   18.838;  -12.950;  641.860
1067.703;   19.062;  -13.540;  668.480
1068.249;   18.672;  -13.540;  605.220
1068.794;   18.837;  -12.600;  626.880
1069.340;   18.028;  -10.620;  578.960
1069.886;   18.052;  -12.830;  590.700
1070.432;   17.106;  -14.870;  541.720
1070.977;   17.193;  -11.980;  601.080
1071.523;   17.487;   -8.200;  573.060
1072.068;   17.755;  -12.330;  582.000
1072.614;   16.877;  -16.370;  527.760
1073.160;   18.659;  -11.100;  687.040
1073.705;   16.530;  -10.480;  572.520
1074.250;   17.045;  -14.520;  559.900
1074.796;   18.133;  -11.460;  655.160
1075.341;   17.819;  -11.950;  664.100
1075.886;   17.263;  -11.460;  594.240
1076.431;   16.333;  -13.770;  649.880
1076.976;   15.730;  -12.680;  639.220
1077.521;   15.593;  -13.170;  583.080
1078.067;   15.132;  -10.860;  579.400
1078.612;   15.522;  -13.920;  661.620
1079.156;   15.520;  -13.880;  601.540
1079.701;   16.474;  -13.120;  693.260
1080.246;   16.928;   -9.940;  696.300
1080.791;   15.346;  -14.740;  625.020
1081.336;   16.033;  -13.750;  659.320
1081.880;   16.407;  -13.400;  649.680
1082.425;   15.340;  -12.220;  573.480
1082.970;   17.114;  -11.610;  717.040
1083.514;   14.586;  -13.580;  597.000
1084.059;   14.464;  -12.810;  586.720
1084.603;   14.255;  -12.320;  565.840
1085.147;   14.559;  -13.190;  645.220
1085.692;   14.956;  -12.480;  716.800
1086.236;   13.103;  -13.020;  503.140
1086.780;   16.215;   -9.190;  751.440
1087.325;   14.424;  -12.480;  654.620
1087.869;   14.567;  -12.450;  610.700
1088.413;   14.753;  -12.240;  705.040
1088.957;   13.434;   -9.020;  543.400
1089.501;   14.219;  -10.320;  766.640
1090.045;   14.022;  -12.720;  726.480
1090.589;   11.823;  -13.690;  569.920
1091.133;   13.656;  -10.020;  673.340
1091.676;   12.877;  -12.330;  591.940
1092.220;   12.047;  -14.970;  600.920
1092.764;   14.451;  -12.430;  706.960
1093.307;   14.086;   -9.800;  673.780
1093.851;   11.970;  -14.970;  556.540
1094.395;   12.903;  -15.310;  683.140
1094.938;   12.966;  -10.370;  632.520
1095.482;   12.386;  -11.050;  559.800
1096.025;   12.645;  -11.840;  710.880
1096.568;   13.708;  -12.840;  779.280
1097.112;    9.530;  -14.700;  508.180
1097.655;   12.397;   -8.720;  603.000
1098.198;   10.389;  -13.610;  600.180
1098.741;   11.137;  -13.350;  612.860
1099.285;   11.839;  -11.230;  657.300
1099.828;   10.625;  -11.840;  439.400
1100.371;   11.829;  -10.840;  608.160
1100.914;   11.155;  -14.190;  682.660
1101.457;   11.691;  -11.240;  679.900
1101.999;   10.518;  -11.270;  584.680
1102.542;   11.374;  -11.480;  641.440
1103.085;   10.340;  -11.750;  658.500
1103.628;   11.550;  -11.400;  762.060
1104.170;   10.403;  -10.490;  588.280
1104.713;   10.268;  -10.600;  646.700
1105.256;    9.492;  -14.360;  557.440
1105.798;    9.338;  -13.210;  499.980
1106.341;   11.619;  -10.270;  728.900
1106.883;   10.291;  -12.200;  521.340
1107.425;   10.639;  -13.110;  668.180
1107.968;    9.661;  -12.840;  612.380
1108.510;   11.147;   -6.480;  684.960
1109.052;    8.567;  -13.940;  612.620
1109.594;    8.973;  -13.690;  554.440
1110.136;    9.350;  -11.880;  643.220
1110.679;    8.690;   -9.500;  633.080
1111.221;    9.417;  -14.160;  604.460
1111.763;    8.339;  -13.980;  559.220
1112.304;    9.353;  -13.880;  547.140
1112.846;    9.947;  -12.210;  666.240
1113.388;   11.129;  -11.390;  942.180
1113.930;    8.942;  -14.540;  694.200
1114.472;    8.714;  -12.640;  606.540
1115.013;    7.630;  -11.620;  551.280
1115.555;    7.259;  -13.640;  587.100
1116.097;    6.982;  -15.380;  579.480
1116.638;    8.329;  -12.640;  684.600
1117.180;    8.577;   -9.850;  667.740
1117.721;    7.170;  -13.690;  568.580
1118.262;    9.006;  -12.680;  677.960
1118.804;    8.808;  -12.530;  637.340
1119.345;    7.258;  -11.690;  578.400
1119.886;    8.571;  -13.380;  704.040
1120.427;    6.727;  -14.070;  589.020
1120.969;    7.093;  -13.500;  597.920
1121.510;    6.441;  -11.480;  563.060
1122.051;    7.052;  -12.830;  723.580
1122.592;    5.990;  -14.290;  655.420
1123.133;    5.613;  -12.400;  547.940
1123.673;    7.548;  -10.130;  706.480
1124.214;    6.164;  -12.930;  612.460
1124.755;    7.627;  -14.380;  639.460
1125.296;    6.605;  -14.000;  627.320
1125.836;    7.346;  -10.070;  691.500
1126.377;    6.314;  -12.640;  599.660
1126.918;    6.584;  -12.960;  614.980
1127.458;    5.598;  -13.350;  622.220
1127.999;    6.813;  -10.750;  656.980
1128.539;    6.560;  -12.350;  694.240
1129.079;    5.397;  -14.860;  632.720
1129.620;    5.425;  -13.840;  558.100
1130.160;    4.492;  -12.330;  539.480
1130.700;    5.588;  -14.530;  640.840
1131.240;    5.965;  -12.530;  643.700
1131.781;    6.146;  -14.450;  619.680
1132.321;    5.098;   -9.790;  599.120
1132.861;    4.692;  -14.860;  564.200
1133.401;    4.227;  -14.290;  593.940
1133.941;    5.156;  -11.750;  626.280
1134.481;    4.362;   -9.920;  597.580
1135.020;    4.585;  -12.290;  609.160
1135.560;    4.951;  -11.650;  674.940
1136.100;    4.159;  -16.270;  501.160
1136.640;    3.897;  -10.890;  510.480
1137.179;    4.382;  -14.180;  537.960
1137.719;    3.889;  -16.250;  605.400
1138.258;    4.512;  -14.230;  587.360
1138.798;    4.966;   -9.090;  663.780
1139.337;    2.745;  -15.130;  482.840
1139.877;    4.814;  -13.680;  642.360
1140.416;    5.591;  -11.320;  878.060
1140.955;    3.702;  -10.860;  535.380
1141.494;    3.707;  -12.920;  669.280
1142.034;    2.637;  -13.930;  583.520
1142.573;    4.856;  -11.440;  646.280
1143.112;    3.245;  -12.000;  553.480
1143.651;    2.801;  -13.670;  536.480
1144.190;    4.077;  -12.730;  691.640
1144.729;    3.448;  -14.560;  607.420
1145.267;    3.690;  -11.830;  584.900
1145.806;    3.771;  -12.230;  637.040
1146.345;    2.831;  -14.130;  635.020
1146.884;    2.633;  -11.590;  622.500
1147.422;    2.510;  -12.550;  533.060
1147.961;    3.972;  -11.180;  708.460
1148.500;    3.137;  -11.510;  669.720
1149.038;    3.418;  -11.640;  632.500
1149.577;    2.829;  -10.130;  698.640
1150.115;    1.572;  -13.970;  452.280
1150.653;    2.639;  -14.520;  607.340
1151.192;    2.705;  -12.810;  552.920
1151.730;    2.705;   -9.100;  652.560
1152.268;    1.720;  -12.220;  589.520
1152.806;    1.434;  -14.140;  571.180
1153.344;    0.972;  -12.350;  577.640
1153.882;    2.433;   -8.980;  600.060
1154.421;    0.113;  -15.190;  470.620
1154.958;    0.803;  -15.210;  595.240
1155.496;    2.695;  -12.850;  645.280
1156.034;    2.304;   -9.940;  721.880
1156.572;    3.132;  -13.570;  667.060
1157.110;    0.292;  -14.590;  473.940
1157.647;    2.397;  -13.030;  676.960
1158.185;    1.224;  -12.140;  564.320
1158.723;   -0.304;  -14.390;  509.200
1159.260;    1.448;  -14.090;  701.700
1159.798;    1.786;  -11.920;  658.160
1160.335;    1.099;  -11.110;  631.820

