gmr_left
Integration time [ms]: 4415.405
Averaging Nr. [scans]: 10
Smoothing Nr. [pixels]: 0
Data measured with spectrometer [name]: 7414430SP
Wave   ;Sample   ;Dark     ;Reference
[nm]   ;[counts] ;[counts] ;[counts] 

288.544; 5605.991; 5481.567;    6.613
289.143; 4553.173; 4445.805;   14.216
289.742; 5948.039; 5944.782;   11.816
290.341; 5703.273; 5549.822;   -4.936
290.940; 5194.842; 5126.334;    0.852
291.538; 6615.215; 6565.967;    1.792
292.137; 5808.215; 5724.192;    6.262
292.736; 7603.673; 7451.822;    8.164
293.335; 5334.940; 5236.041;   -6.418
293.934; 5753.895; 5668.136;   -2.904
294.532; 8228.821; 8170.262;   -5.162
295.131; 6431.714; 6327.777;  -10.283
295.730; 6241.507; 6165.880;  -16.141
296.328; 6039.604; 5919.741;  -14.740
296.927; 5948.061; 5823.527;   -8.768
297.525; 5949.453; 5870.784;  -15.255
298.124; 4812.103; 4719.534;  -22.063
298.722; 5788.953; 5667.405;  -14.796
299.321; 5323.550; 5160.111;  -10.466
299.919; 5726.591; 5655.808;  -10.979
300.518; 5203.048; 5062.438;  -12.077
301.116; 5209.527; 5088.125;  -13.509
301.715; 5530.133; 5476.557;  -11.939
302.313; 5349.081; 5256.375;  -15.424
302.911; 5695.399; 5621.171;  -19.833
303.509; 7537.357; 7470.388;   -3.567
304.108; 5865.044; 5754.438;   -9.553
304.706; 6309.308; 6182.500;   -8.582
305.304; 6411.221; 6357.468;  -12.348
305.902; 6069.971; 5985.563;  -14.411
306.500; 5666.544; 5621.059;   -7.194
307.098; 5843.937; 5766.937;   -9.322
307.696; 6289.368; 6148.666;  -19.192
308.294; 5758.618; 5652.933;   -9.736
308.892; 5990.040; 5935.455;  -15.482
309.490; 5508.685; 5442.755;  -14.107
310.088; 6386.200; 6295.396;  -15.862
310.686; 6556.369; 6399.270;  -10.781
311.284; 6150.421; 6134.692;  -14.878
311.882; 5673.419; 5647.399;   -9.948
312.480; 5465.334; 5377.040;  -15.503
313.078; 6601.034; 6571.419;  -17.262
313.675; 5438.544; 5344.059;   -3.694
314.273; 6496.843; 6491.006;  -18.246
314.871; 4433.824; 4387.228;  -15.190
315.468; 5136.299; 5086.171;  -12.633
316.066; 5499.415; 5378.019;   -5.765
316.664; 5161.447; 5124.990;  -14.317
317.261; 7584.384; 7501.531;   -8.677
317.859; 6379.739; 6383.247;  -11.804
318.456; 6936.752; 6947.801;   -3.107
319.054; 6515.132; 6478.350;   -3.062
319.651; 6191.547; 6074.594;   -6.706
320.249; 6792.348; 6764.594;   -5.206
320.846; 5849.125; 5767.831;   -4.679
321.443; 7075.062; 7003.613;   -7.920
322.041; 6947.510; 6863.432;  -14.105
322.638; 5821.337; 5873.557;   -6.263
323.235; 5382.980; 5353.375;   -7.424
323.833; 6171.349; 6144.042;  -14.765
324.430; 4906.529; 4823.814;  -10.550
325.027; 7495.568; 7492.045;   -9.951
325.624; 5088.076; 5037.771;   -3.712
326.221; 5521.493; 5515.481;   -9.368
326.818; 6789.755; 6752.095;   -5.637
327.415; 5944.434; 5883.005;   -6.699
328.012; 5400.084; 5293.117;   -5.713
328.609; 5716.782; 5667.824;   -9.983
329.206; 6289.414; 6302.553;   -7.154
329.803; 5797.806; 5770.431;   -1.682
330.400; 5402.673; 5373.857;   -2.741
330.997; 6478.465; 6398.510;   -4.339
331.594; 6304.253; 6309.646;  -10.278
332.191; 5571.025; 5513.435;   -6.967
332.787; 6669.265; 6623.131;   -0.480
333.384; 5858.301; 5864.241;  -10.333
333.981; 6450.250; 6493.301;  -19.900
334.578; 5329.839; 5197.644;  -19.816
335.174; 5561.566; 5451.614;  -15.844
335.771; 6587.279; 6559.961;  -12.670
336.367; 5483.490; 5394.394;  -21.124
336.964; 6284.700; 6137.810;  -18.226
337.561; 5668.380; 5655.582;  -13.311
338.157; 7461.356; 7429.612;  -19.006
338.754; 6308.263; 6305.286;  -19.418
339.350; 5613.847; 5531.421;  -29.433
339.946; 6008.680; 5908.979;  -16.622
340.543; 6833.375; 6726.633;  -16.744
341.139; 5657.462; 5622.079;  -21.841
341.735; 6267.997; 6137.947;  -25.012
342.332; 5446.612; 5311.191;  -19.156
342.928; 6424.803; 6365.379;  -20.443
343.524; 6209.781; 6140.857;  -14.397
344.120; 6001.035; 6034.729;  -20.654
344.716; 5667.395; 5567.636;   -5.730
345.313; 6528.927; 6491.590;  -10.929
345.909; 4837.705; 4700.448;  -19.843
346.505; 5999.582; 5954.910;  -19.645
347.101; 6730.759; 6646.147;   -9.618
347.697; 6391.787; 6396.497;  -10.305
348.293; 4824.696; 4852.084;  -23.189
348.889; 6060.895; 5965.240;  -18.418
349.485; 5425.657; 5374.457;  -10.476
350.081; 6262.835; 6229.540;  -17.320
350.676; 5540.426; 5471.969;  -21.088
351.272; 6648.976; 6672.840;  -12.821
351.868; 6248.726; 6170.107;  -13.165
352.464; 5751.651; 5717.784;  -12.464
353.059; 5090.860; 5013.372;  -22.547
353.655; 6368.469; 6246.942;   -9.379
354.251; 6147.931; 6029.314;   -8.266
354.846; 6012.021; 6051.520;  -17.705
355.442; 6082.822; 6058.985;   -9.317
356.038; 6050.667; 6001.648;  -11.049
356.633; 5824.426; 5753.728;  -10.006
357.229; 5796.068; 5792.494;  -13.120
357.824; 5672.690; 5618.256;  -15.647
358.420; 5390.550; 5342.335;  -19.204
359.015; 5491.212; 5433.553;  -12.263
359.610; 6226.641; 6199.748;  -16.421
360.206; 4679.212; 4613.949;  -20.074
360.801; 5073.227; 4989.573;  -13.277
361.396; 5836.680; 5775.979;   -5.822
361.992; 5321.190; 5307.256;  -11.247
362.587; 5373.604; 5357.827;  -21.502
363.182; 5541.538; 5457.229;   -7.461
363.777; 6039.200; 6069.447;   -8.719
364.372; 6001.303; 6050.361;  -14.590
364.967; 5517.781; 5475.840;  -15.145
365.563; 6693.911; 6697.708;   -7.192
366.158; 5475.644; 5421.507;   -5.662
366.753; 5132.598; 5143.757;   -8.378
367.348; 6119.533; 6005.246;  -14.990
367.942; 5591.887; 5506.497;   -6.005
368.537; 6186.479; 6153.150;  -11.504
369.132; 5714.288; 5757.342;  -10.576
369.727; 5069.141; 5037.765;  -12.573
370.322; 4649.534; 4595.091;  -11.560
370.917; 5858.426; 5842.969;  -10.388
371.511; 7319.639; 7311.299;   -9.161
372.106; 6545.980; 6524.840;  -10.245
372.701; 4676.123; 4616.606;  -10.158
373.296; 7243.666; 7212.424;   -4.719
373.890; 5262.404; 5243.827;  -11.802
374.485; 5737.062; 5755.458;  -13.500
375.079; 6210.086; 6165.272;   -6.276
375.674; 6833.626; 6819.348;   -0.447
376.268; 5647.485; 5693.824;   -6.916
376.863; 4749.801; 4784.930;  -14.483
377.457; 5476.711; 5440.104;   -6.903
378.052; 6452.409; 6456.656;   -9.844
378.646; 6310.367; 6323.666;  -12.601
379.240; 6071.912; 6030.570;  -14.715
379.835; 5302.837; 5223.005;  -12.331
380.429; 4554.510; 4499.880;   -9.074
381.023; 6668.558; 6686.475;   -1.729
381.617; 5726.405; 5705.293;  -13.714
382.212; 5743.033; 5704.022;   -7.060
382.806; 6482.611; 6396.104;   -2.303
383.400; 5745.944; 5801.524;   -0.815
383.994; 5691.290; 5653.428;   -4.429
384.588; 5990.702; 5945.137;   -6.261
385.182; 6242.109; 6274.639;    0.008
385.776; 6109.458; 6114.302;   -3.247
386.370; 5828.630; 5866.729;   -1.030
386.964; 5883.887; 5861.118;   -1.346
387.558; 5080.370; 5033.563;   -2.020
388.152; 5882.148; 5824.887;   -5.345
388.745; 7197.146; 7222.972;   -2.774
389.339; 6394.037; 6398.385;    3.510
389.933; 5871.405; 5911.655;    5.280
390.527; 7659.099; 7723.223;    2.610
391.120; 5129.643; 5074.455;   -7.914
391.714; 6110.542; 6149.989;   -1.903
392.308; 6886.391; 6811.480;    6.023
392.901; 5595.975; 5654.012;   -4.103
393.495; 5171.981; 5211.686;    3.284
394.089; 6822.515; 6843.864;    8.655
394.682; 6180.157; 6168.854;    2.312
395.275; 6389.738; 6403.851;   -7.402
395.869; 5943.938; 5942.626;   -1.072
396.462; 5417.584; 5435.979;    6.454
397.056; 6851.289; 6978.566;    8.494
397.649; 6546.201; 6572.689;    1.599
398.242; 6358.223; 6452.210;    3.153
398.836; 6826.551; 6924.404;   11.395
399.429; 5491.617; 5454.381;   14.695
400.022; 5945.871; 5910.649;    3.627
400.615; 7321.820; 7402.917;    8.383
401.208; 6121.653; 6070.474;   13.295
401.802; 6270.028; 6342.039;    6.211
402.395; 6179.971; 6126.649;    7.227
402.988; 6260.096; 6313.481;    2.700
403.581; 5630.252; 5668.250;   11.225
404.174; 6015.030; 6065.711;   18.922
404.767; 5544.669; 5544.959;   14.169
405.360; 5586.765; 5603.596;    8.999
405.953; 6802.210; 6861.483;   13.138
406.545; 6520.916; 6542.691;   13.937
407.138; 5467.903; 5510.982;   10.869
407.731; 5416.240; 5483.144;   12.768
408.324; 5835.705; 5857.034;   22.921
408.917; 6112.009; 6175.639;   15.308
409.509; 6698.670; 6749.184;   12.239
410.102; 5829.694; 5889.791;   13.741
410.695; 5937.645; 5923.110;   20.249
411.287; 5325.031; 5452.936;   21.793
411.880; 5178.623; 5246.813;   22.965
412.472; 5458.093; 5503.170;   15.082
413.065; 5707.059; 5735.526;   23.423
413.657; 5121.152; 5136.232;   21.077
414.250; 5743.046; 5801.180;   12.349
414.842; 6065.262; 6125.665;   20.423
415.434; 5135.721; 5145.124;   19.906
416.027; 5757.735; 5797.902;   26.574
416.619; 6449.090; 6455.239;   15.705
417.211; 5323.237; 5399.212;   17.791
417.804; 5577.900; 5649.034;   30.244
418.396; 5446.285; 5505.186;   24.177
418.988; 5908.331; 5929.539;   24.904
419.580; 5050.398; 5079.981;   20.692
420.172; 4791.493; 4804.532;   22.275
420.764; 5947.938; 6028.040;   26.773
421.356; 5722.010; 5735.846;   25.731
421.948; 6057.425; 6057.486;   24.876
422.540; 6021.576; 5988.426;   30.042
423.132; 5334.225; 5316.469;   32.728
423.724; 4943.355; 4990.750;   21.317
424.316; 5577.052; 5562.991;   29.359
424.908; 5264.728; 5306.763;   28.798
425.500; 5794.247; 5839.766;   30.512
426.092; 5740.719; 5813.795;   26.741
426.683; 6248.521; 6207.331;   27.029
427.275; 5687.255; 5706.112;   32.611
427.867; 5909.605; 5901.224;   33.796
428.458; 6540.948; 6570.214;   34.453
429.050; 6105.838; 6174.799;   34.255
429.642; 6652.685; 6702.152;   39.082
430.233; 4903.666; 4973.373;   41.138
430.825; 6573.188; 6574.290;   31.581
431.416; 6239.104; 6312.776;   35.755
432.008; 5725.308; 5785.518;   40.566
432.599; 5751.188; 5835.669;   46.322
433.190; 5643.265; 5673.924;   46.897
433.782; 4970.660; 5016.940;   41.069
434.373; 7895.469; 7932.891;   48.778
434.964; 5243.937; 5238.937;   50.078
435.556; 5568.122; 5643.313;   52.381
436.147; 6773.622; 6783.538;   38.251
436.738; 6189.339; 6216.626;   47.237
437.329; 6354.788; 6411.497;   61.304
437.920; 5811.353; 5909.043;   48.611
438.511; 4855.423; 4911.158;   44.910
439.103; 5418.385; 5442.359;   62.404
439.694; 5956.652; 6077.560;   63.075
440.285; 6511.689; 6606.342;   61.033
440.876; 7620.698; 7624.930;   57.249
441.466; 4921.546; 4938.128;   61.306
442.057; 5732.830; 5784.021;   65.773
442.648; 6581.447; 6629.352;   65.676
443.239; 5378.187; 5509.049;   55.963
443.830; 6168.135; 6119.850;   69.631
444.421; 5631.264; 5690.269;   69.943
445.011; 6033.696; 6044.240;   72.791
445.602; 6493.503; 6527.138;   68.848
446.193; 4005.224; 4025.969;   80.044
446.783; 5340.781; 5385.583;   82.599
447.374; 5898.404; 5929.362;   77.419
447.964; 6191.851; 6208.335;   72.605
448.555; 7115.840; 7223.662;   82.041
449.145; 5639.374; 5738.081;   76.230
449.736; 6969.654; 7014.854;   75.545
450.326; 6114.988; 6179.876;   67.945
450.917; 5693.886; 5723.790;   77.598
451.507; 5017.121; 5082.658;   68.027
452.097; 6428.638; 6490.368;   67.771
452.688; 6291.895; 6304.533;   62.884
453.278; 4497.302; 4527.655;   65.512
453.868; 6873.361; 6909.113;   71.796
454.458; 5473.758; 5508.596;   60.956
455.048; 6038.888; 6086.480;   62.356
455.639; 4643.576; 4670.133;   58.782
456.229; 5954.153; 6017.371;   65.209
456.819; 6295.229; 6310.384;   61.466
457.409; 6554.626; 6598.245;   59.967
457.999; 6138.042; 6187.713;   58.093
458.589; 5632.797; 5658.654;   59.536
459.179; 5993.337; 6018.506;   55.994
459.769; 5105.833; 5190.143;   43.624
460.358; 6706.892; 6708.826;   46.978
460.948; 5662.848; 5771.766;   49.821
461.538; 5356.960; 5352.872;   54.678
462.128; 5445.653; 5494.371;   49.309
462.717; 5775.378; 5833.634;   52.774
463.307; 5765.857; 5816.940;   48.101
463.897; 5279.600; 5357.948;   45.606
464.486; 7093.849; 7205.232;   45.010
465.076; 6011.627; 6073.297;   45.519
465.666; 5164.869; 5225.046;   50.058
466.255; 6519.480; 6590.100;   44.463
466.845; 5300.334; 5408.971;   41.206
467.434; 5918.434; 5963.350;   44.847
468.023; 5167.625; 5214.607;   46.760
468.613; 5778.797; 5777.654;   39.736
469.202; 5079.990; 5139.515;   46.461
469.791; 5858.516; 5905.020;   47.944
470.381; 5856.399; 5864.085;   47.529
470.970; 5615.887; 5605.980;   43.773
471.559; 5918.274; 5959.650;   41.646
472.148; 5226.983; 5252.221;   37.914
472.738; 6042.363; 6089.373;   48.071
473.327; 4839.293; 4874.257;   47.871
473.916; 5788.505; 5828.759;   37.716
474.505; 5897.413; 5974.484;   40.256
475.094; 6460.207; 6482.811;   43.269
475.683; 6237.337; 6371.471;   36.499
476.272; 5659.858; 5731.389;   44.542
476.861; 5350.247; 5407.887;   42.297
477.449; 5513.850; 5546.784;   46.878
478.038; 5165.078; 5151.392;   35.156
478.627; 5378.351; 5446.267;   42.514
479.216; 5826.048; 5893.335;   43.937
479.805; 5905.931; 5937.625;   51.393
480.393; 8082.238; 8145.920;   53.239
480.982; 6878.183; 6924.600;   38.955
481.571; 6617.557; 6654.682;   45.436
482.159; 5049.486; 5077.721;   51.007
482.748; 6192.554; 6295.164;   49.695
483.336; 6456.009; 6456.484;   48.280
483.925; 5445.351; 5467.250;   47.166
484.513; 5409.867; 5475.321;   55.404
485.102; 5866.909; 5977.104;   54.238
485.690; 7747.286; 7717.101;   55.748
486.278; 7468.767; 7496.097;   55.934
486.867; 5721.225; 5782.952;   57.106
487.455; 6494.980; 6500.668;   56.979
488.043; 5071.127; 5053.642;   57.564
488.631; 7453.173; 7444.375;   57.432
489.220; 6445.296; 6447.516;   63.646
489.808; 4801.147; 4790.870;   65.449
490.396; 6405.690; 6508.084;   61.977
490.984; 5407.732; 5490.074;   68.834
491.572; 6404.297; 6475.361;   70.775
492.160; 6029.627; 6070.642;   67.564
492.748; 5564.583; 5624.583;   66.808
493.336; 6480.258; 6545.354;   79.747
493.924; 5509.758; 5510.734;   88.688
494.512; 6359.012; 6351.001;   84.120
495.100; 6251.208; 6290.639;   86.250
495.687; 6628.037; 6684.661;  103.074
496.275; 5357.324; 5360.486;  108.717
496.863; 5553.726; 5635.797;  107.035
497.451; 5503.067; 5572.718;  117.993
498.038; 5833.632; 5881.833;  120.116
498.626; 5581.986; 5611.704;  143.059
499.214; 6008.867; 5977.097;  153.434
499.801; 5853.708; 5898.863;  175.121
500.389; 4740.993; 4766.602;  185.617
500.976; 6125.953; 6136.526;  215.789
501.564; 5849.274; 5944.840;  240.321
502.151; 4182.552; 4163.698;  267.007
502.738; 5509.078; 5479.358;  317.961
503.326; 5609.666; 5638.856;  361.216
503.913; 5890.938; 6019.282;  401.433
504.500; 6100.706; 6033.949;  446.492
505.088; 5141.269; 5161.012;  512.063
505.675; 5629.994; 5645.826;  586.387
506.262; 5573.771; 5691.702;  671.021
506.849; 5718.374; 5799.219;  759.062
507.436; 6500.291; 6604.688;  849.788
508.023; 5686.055; 5724.595;  944.288
508.610; 6352.846; 6444.249; 1020.690
509.197; 6147.433; 6140.315; 1089.052
509.784; 5769.726; 5717.176; 1133.776
510.371; 4748.016; 4775.968; 1165.501
510.958; 5878.294; 5882.843; 1251.735
511.545; 6779.018; 6857.054; 1350.248
512.132; 5707.103; 5698.793; 1525.945
512.719; 5091.038; 5104.282; 1834.933
513.305; 5254.083; 5310.962; 1965.349
513.892; 6710.892; 6702.550; 1963.265
514.479; 5834.196; 5832.516; 2046.446
515.066; 6433.303; 6464.414; 2252.803
515.652; 5830.992; 5881.377; 2567.247
516.239; 6276.081; 6313.117; 2636.919
516.825; 4827.633; 4921.298; 2482.304
517.412; 7241.145; 7283.559; 2427.031
517.998; 5609.134; 5628.919; 2540.463
518.585; 5521.452; 5531.698; 2609.007
519.171; 5867.658; 5920.734; 2842.088
519.758; 4926.672; 4972.529; 3090.703
520.344; 6406.625; 6431.176; 3176.076
520.930; 5099.352; 5097.474; 3295.037
521.516; 6095.820; 6125.727; 3500.959
522.103; 6750.867; 6779.321; 3736.704
522.689; 5573.069; 5566.632; 3971.022
523.275; 6554.583; 6608.807; 4213.778
523.861; 5641.308; 5668.242; 4190.361
524.447; 6513.243; 6462.714; 4070.602
525.033; 6574.570; 6618.856; 4088.892
525.619; 5303.140; 5328.593; 4416.851
526.205; 4930.928; 5023.866; 4836.835
526.791; 5582.104; 5627.483; 4885.903
527.377; 5356.884; 5337.652; 4544.907
527.963; 5882.257; 5968.302; 4321.995
528.549; 6047.479; 6039.599; 4473.979
529.135; 5242.635; 5226.988; 4788.663
529.721; 5800.853; 5866.922; 4888.577
530.306; 7923.878; 7995.599; 4775.779
530.892; 5515.357; 5557.906; 4793.906
531.478; 5405.188; 5415.170; 4956.948
532.063; 5140.690; 5180.705; 5136.936
532.649; 7204.015; 7262.157; 5336.867
533.235; 5177.135; 5212.764; 5748.092
533.820; 6643.268; 6608.546; 6456.875
534.406; 5629.949; 5666.180; 6590.167
534.991; 5212.704; 5289.655; 6179.622
535.576; 5674.872; 5694.926; 6098.691
536.162; 7987.165; 7974.028; 6441.234
536.747; 4917.790; 4940.101; 6816.224
537.333; 5265.496; 5302.154; 6889.752
537.918; 5698.739; 5755.368; 7154.280
538.503; 5311.686; 5371.101; 7150.848
539.088; 5982.013; 6099.467; 7253.308
539.673; 5486.605; 5513.345; 7625.180
540.259; 5308.801; 5372.741; 8226.793
540.844; 4667.870; 4634.856; 8745.092
541.429; 6994.693; 7120.016; 8762.553
542.014; 4841.377; 4949.771; 8871.497
542.599; 5947.883; 6063.583; 8886.008
543.184; 5001.375; 5041.082; 9079.139
543.769; 5317.365; 5326.045; 9076.182
544.354; 5518.400; 5529.138; 8354.081
544.938; 5946.544; 5998.352; 8236.809
545.523; 7017.114; 7062.691; 8222.179
546.108; 5708.397; 5738.999; 8114.082
546.693; 5683.225; 5653.590; 8535.912
547.278; 5687.366; 5769.494; 9238.322
547.862; 5671.959; 5704.975; 9034.405
548.447; 6403.866; 6339.890; 7795.011
549.031; 5491.069; 5521.425; 7485.099
549.616; 5930.379; 5912.444; 7626.308
550.201; 5352.308; 5297.260; 7627.909
550.785; 6176.887; 6214.963; 7859.125
551.370; 4960.420; 4994.762; 7990.654
551.954; 6384.776; 6431.926; 8196.468
552.538; 6254.589; 6355.256; 7959.495
553.123; 5305.750; 5310.801; 7964.826
553.707; 5549.173; 5611.185; 8515.957
554.291; 6706.222; 6768.055; 8724.024
554.876; 6352.398; 6346.844; 8524.211
555.460; 5344.113; 5443.484; 8704.456
556.044; 5299.019; 5278.934; 9141.473
556.628; 5737.976; 5740.702; 9250.197
557.212; 6585.484; 6627.428; 9444.237
557.796; 5586.557; 5621.699; 9379.783
558.380; 6033.302; 6056.000; 9353.658
558.964; 5847.405; 5879.121; 9210.310
559.548; 4887.895; 4817.085; 8475.153
560.132; 5491.550; 5477.422; 7954.084
560.716; 5053.431; 5065.040; 7489.529
561.300; 4961.298; 4919.223; 7211.952
561.884; 6209.159; 6281.613; 7141.313
562.467; 6112.441; 6136.076; 7155.386
563.051; 5758.537; 5819.092; 7323.158
563.635; 5646.151; 5635.267; 7709.114
564.219; 5680.117; 5793.623; 7678.855
564.802; 6157.606; 6082.983; 7376.187
565.386; 5832.324; 5788.142; 7054.372
565.969; 6723.616; 6725.002; 6589.196
566.553; 7424.963; 7384.373; 6279.371
567.136; 6663.129; 6652.970; 5967.930
567.720; 5832.685; 5855.687; 5660.703
568.303; 6054.780; 6024.082; 5648.615
568.887; 5916.255; 5900.250; 5618.443
569.470; 6030.575; 6009.495; 5411.875
570.053; 6343.944; 6312.610; 5149.274
570.637; 5359.806; 5194.587; 5122.798
571.220; 6395.070; 6360.649; 4957.369
571.803; 7477.731; 7391.436; 4933.018
572.386; 5725.350; 5532.818; 4840.973
572.969; 5734.811; 5597.191; 4592.886
573.552; 5854.040; 5723.006; 4348.387
574.135; 5294.323; 5165.314; 4002.290
574.718; 5519.083; 5343.841; 3654.773
575.301; 5541.382; 5304.195; 3502.288
575.884; 5563.681; 5264.548; 3349.803
576.467; 6862.484; 6533.687; 3191.403
577.050; 6374.132; 5972.505; 3062.418
577.633; 7601.530; 7248.194; 3214.200
578.216; 6034.230; 5558.591; 3284.889
578.799; 6095.400; 5724.172; 3189.777
579.381; 7988.519; 7434.709; 3064.502
579.964; 5870.573; 5321.185; 2888.357
580.547; 6602.790; 5915.515; 2905.760
581.129; 7593.825; 6835.004; 2966.849
581.712; 6937.211; 6015.829; 2887.292
582.294; 6768.989; 5849.670; 2771.631
582.877; 8513.520; 7448.779; 2711.602
583.459; 6876.522; 5788.865; 2577.049
584.042; 6867.198; 5660.878; 2454.707
584.624; 6654.844; 5359.783; 2305.893
585.206; 5871.873; 4502.581; 2189.546
585.789; 6866.029; 5443.987; 2112.577
586.371; 7567.267; 6153.545; 2153.065
586.953; 7911.436; 6358.040; 2197.806
587.536; 8398.229; 6688.591; 2105.489
588.118; 7434.541; 5611.886; 1963.911
588.700; 8780.955; 6837.664; 1843.179
589.282; 8351.478; 6205.185; 1813.834
589.864; 8201.253; 5914.974; 1777.620
590.446; 7074.382; 4743.410; 1733.780
591.028; 8481.290; 5847.532; 1676.008
591.610; 7710.724; 4786.935; 1631.649
592.192; 9003.815; 5910.192; 1632.362
592.774; 8168.627; 5196.694; 1569.507
593.356; 8471.816; 5367.054; 1524.539
593.937; 8816.423; 5418.089; 1569.720
594.519;10306.491; 6522.980; 1569.049
595.101; 8790.807; 4808.242; 1545.452
595.683; 9620.988; 5511.083; 1607.568
596.264;10163.768; 5733.994; 1615.506
596.846;10168.412; 5498.674; 1667.622
597.427;10168.483; 5333.876; 1670.469
598.009;10286.373; 5250.839; 1640.312
598.591;11318.679; 6341.651; 1541.022
599.172;10475.532; 5532.522; 1598.665
599.753;10260.751; 4953.922; 1619.068
600.335;12338.402; 6869.655; 1548.612
600.916;11631.346; 5819.093; 1607.510
601.498;12172.247; 6126.318; 1745.181
602.079;12160.509; 5848.932; 1801.011
602.660;12310.410; 5679.777; 1834.640
603.241;11389.682; 4596.565; 1787.351
603.823;12533.329; 5401.384; 1684.266
604.404;12188.042; 5057.730; 1654.241
604.985;12863.973; 5519.615; 1758.741
605.566;14157.688; 6349.618; 1697.679
606.147;13446.448; 5562.404; 1526.728
606.728;12883.521; 4921.279; 1484.086
607.309;13224.643; 5387.576; 1421.070
607.890;13336.424; 5481.176; 1369.867
608.471;13383.391; 5259.773; 1277.826
609.051;14372.815; 5983.847; 1180.416
609.632;14130.785; 5226.962; 1075.816
610.213;14941.802; 5714.655; 1053.313
610.794;15292.971; 5559.546;  979.442
611.374;16548.363; 6096.424;  917.414
611.955;15808.084; 4899.117;  819.987
612.536;16771.555; 5966.681;  752.627
613.116;16617.047; 5384.559;  690.799
613.697;16512.125; 5447.814;  674.974
614.277;15997.183; 5180.669;  663.846
614.858;15818.515; 5392.605;  665.898
615.438;16311.536; 5736.678;  660.712
616.019;17285.096; 6710.619;  632.732
616.599;15179.276; 4412.995;  551.759
617.179;16728.338; 5059.368;  512.871
617.760;19833.695; 7737.757;  473.655
618.340;18134.254; 5604.474;  440.004
618.920;19485.135; 7001.850;  429.731
619.500;17964.430; 5482.418;  441.361
620.080;17340.930; 5209.867;  425.202
620.660;17273.217; 5209.864;  408.164
621.241;18114.064; 5514.510;  387.161
621.821;18963.547; 5837.731;  378.017
622.401;19454.979; 6505.840;  379.188
622.980;17751.234; 4903.247;  350.019
623.560;18264.547; 5521.576;  336.446
624.140;18196.592; 5821.860;  336.473
624.720;18107.023; 6055.745;  334.974
625.300;17381.482; 5219.824;  325.717
625.880;18659.301; 5700.224;  308.519
626.459;20275.145; 5793.662;  307.117
627.039;20305.066; 4713.355;  290.890
627.619;22941.479; 7367.857;  286.635
628.198;21351.350; 6704.042;  282.535
628.778;20883.223; 6234.745;  285.474
629.357;20486.893; 4963.705;  284.103
629.937;21950.938; 5496.937;  292.178
630.516;22851.900; 7021.999;  290.749
631.096;21656.574; 5324.702;  285.489
631.675;23424.520; 6730.623;  287.022
632.254;21496.232; 5277.350;  286.038
632.834;21853.623; 5700.538;  276.451
633.413;22953.441; 6763.369;  279.447
633.992;22539.732; 6435.574;  264.508
634.571;21894.357; 6147.181;  271.010
635.151;21043.900; 5098.396;  277.338
635.730;22554.816; 5649.313;  289.305
636.309;24426.676; 6052.012;  285.306
636.888;24760.656; 6123.561;  254.051
637.467;22882.209; 4719.208;  230.324
638.046;24564.668; 6942.045;  253.349
638.625;24305.576; 6572.564;  246.866
639.204;24904.506; 5929.069;  240.825
639.782;24888.986; 5700.617;  261.970
640.361;24726.367; 6735.752;  277.780
640.940;22783.830; 5352.780;  270.101
641.519;23468.893; 5966.808;  248.622
642.097;24361.854; 6194.836;  239.843
642.676;25174.516; 5832.864;  244.264
643.255;25728.879; 5595.892;  234.985
643.833;26199.141; 6154.920;  244.406
644.412;25688.402; 5457.948;  244.927
644.990;26369.465; 5847.976;  249.948
645.569;27834.326; 6105.004;  249.569
646.147;29583.488; 6392.032;  243.290
646.726;27180.250; 5870.060;  249.511
647.304;25379.412; 5517.087;  228.032
647.882;24812.875; 4664.116;  214.552
648.461;26361.537; 6009.144;  214.973
649.039;26393.799; 6236.171;  223.394
649.617;26269.262; 6235.199;  261.415
650.195;26178.424; 5901.228;  298.736
650.773;25115.186; 5462.255;  309.557
651.352;23955.248; 4637.283;  297.978
651.930;23369.209; 4530.311;  289.399
652.508;25301.471; 6380.339;  285.620
653.086;25791.334; 6049.367;  272.241
653.663;26305.795; 5267.395;  265.062
654.241;26370.158; 4997.423;  286.083
654.819;26301.119; 5031.451;  286.404
655.397;25932.281; 5128.479;  291.825
655.975;25163.545; 5523.507;  299.145
656.553;26499.207; 6916.535;  288.866
657.130;25782.568; 5139.563;  304.087
657.708;27222.031; 5972.591;  302.908
658.286;26958.393; 5910.619;  294.629
658.863;26869.455; 5878.646;  293.350
659.441;27997.117; 5966.674;  318.671
660.018;27567.379; 5632.703;  333.692
660.596;26657.842; 4648.730;  335.013
661.173;27245.902; 5367.758;  371.534
661.750;26757.365; 5153.786;  365.155
662.328;27514.928; 6199.814;  349.976
662.905;25782.988; 5476.842;  332.997
663.482;24922.650; 5638.870;  321.717
664.060;24957.414; 5282.898;  314.438
664.637;27146.775; 6099.926;  306.259
665.214;27538.838; 5914.954;  314.580
665.791;27570.600; 5540.982;  334.501
666.368;27361.662; 5450.010;  329.222
666.945;27422.324; 6258.038;  342.143
667.522;25793.986; 5207.066;  370.964
668.099;26029.447; 5656.094;  396.885
668.676;26463.910; 5755.122;  391.706
669.253;28399.771; 6928.150;  369.627
669.830;27851.535; 6704.178;  360.348
670.407;26799.096; 5608.206;  344.769
670.984;25870.559; 5627.233;  322.890
671.560;25849.021; 6122.262;  316.910
672.137;25661.783; 5431.290;  322.531
672.714;26781.045; 6147.317;  318.552
673.290;27151.207; 5911.345;  324.473
673.867;27067.568; 5382.373;  340.594
674.443;27309.932; 4994.401;  319.515
675.020;28909.594; 5856.429;  286.336
675.596;27380.756; 5504.457;  247.557
676.173;26294.518; 4908.485;  227.778
676.749;26087.279; 4358.513;  224.399
677.326;26505.742; 4788.541;  230.520
677.902;26829.303; 5177.569;  241.841
678.478;26837.465; 4895.597;  239.762
679.054;30372.729; 8495.625;  248.583
679.631;27568.090; 5984.653;  237.503
680.207;28628.752; 7131.681;  245.924
680.783;26236.715; 4427.708;  224.845
681.359;27247.676; 5552.737;  209.666
681.935;27394.438; 5738.765;  191.687
682.511;26896.500; 5741.792;  210.008
683.087;27450.963; 6086.820;  213.329
683.663;26980.924; 5578.849;  216.850
684.239;26359.188; 4983.876;  229.471
684.815;28154.148; 6294.904;  248.792
685.390;28872.111; 7397.932;  231.813
685.966;26822.973; 5788.960;  221.234
686.542;25915.135; 5068.988;  214.255
687.118;27186.797; 5877.016;  212.276
687.693;27945.260; 6123.044;  233.096
688.269;27230.021; 5556.072;  246.917
688.844;27206.783; 5960.100;  236.938
689.420;26200.445; 5760.128;  242.059
689.995;28046.508; 7042.156;  245.480
690.571;27359.670; 6693.184;  244.701
691.146;25979.631; 5413.212;  251.922
691.722;26444.793; 5927.240;  284.743
692.297;25592.355; 5385.268;  320.664
692.872;26256.818; 5270.295;  313.885
693.448;26838.080; 5038.324;  290.106
694.023;27065.242; 5790.352;  304.327
694.598;26973.104; 5913.379;  319.648
695.173;26390.967; 5416.407;  323.169
695.748;24969.428; 4608.436;  376.389
696.323;25420.990; 5602.463;  397.610
696.898;26433.152; 6660.491;  430.231
697.473;25298.414; 4730.519;  454.952
698.048;26548.977; 5527.547;  478.973
698.623;26420.738; 4907.575;  477.094
699.198;26815.701; 5760.603;  496.915
699.773;25853.164; 5265.631;  490.236
700.348;25248.725; 5032.659;  519.957
700.922;26798.688; 5803.687;  575.678
701.497;26437.549; 5715.715;  621.399
702.072;26587.111; 6345.743;  664.420
702.646;26914.373; 6220.771;  690.541
703.221;26394.936; 5851.799;  748.862
703.795;25106.197; 5075.827;  774.282
704.370;23336.859; 4195.854;  799.803
704.944;23835.223; 5350.882;  875.824
705.519;23904.484; 5917.911;  902.945
706.093;23753.346; 5115.938;  889.266
706.668;25029.908; 5977.966;  903.487
707.242;25365.871; 6229.994;  881.708
707.816;24150.832; 5421.022;  892.329
708.390;24401.295; 5573.050;  970.250
708.965;24520.357; 5894.078;  984.671
709.539;23528.219; 5479.106; 1026.092
710.113;23628.381; 5717.134; 1067.913
710.687;24299.742; 6340.162; 1166.434
711.261;23055.506; 5046.190; 1190.854
711.835;23269.367; 5113.218; 1197.275
712.409;23480.029; 4673.246; 1308.096
712.983;23358.592; 4698.274; 1461.617
713.557;23234.553; 4738.302; 1611.838
714.131;23714.715; 5513.330; 1554.359
714.704;23340.277; 5052.357; 1520.780
715.278;23877.939; 5778.386; 1575.101
715.852;24311.602; 6195.414; 1689.822
716.425;25143.264; 7173.441; 1829.143
716.999;22389.227; 4602.469; 2008.664
717.573;24076.988; 6068.498; 2000.485
718.146;25576.951; 6993.525; 1914.506
718.720;25506.313; 5863.553; 1818.026
719.293;25550.275; 6102.581; 1734.147
719.867;24318.537; 5211.609; 1716.968
720.440;25331.799; 6702.637; 1918.589
721.013;24299.260; 5248.665; 1975.410
721.587;24703.322; 4707.693; 2073.331
722.160;26209.984; 6337.721; 2357.852
722.733;25394.447; 5699.749; 2657.073
723.306;25860.908; 5693.777; 2703.894
723.880;25499.371; 5874.805; 2549.415
724.453;26483.033; 6623.833; 2414.336
725.026;25522.695; 5414.861; 2298.557
725.599;25969.457; 5851.889; 2168.778
726.172;26117.119; 6048.917; 2106.099
726.745;25295.582; 5995.944; 2253.320
727.318;24807.543; 6349.973; 2404.740
727.891;24152.807; 5952.000; 2680.161
728.463;24524.668; 5874.028; 2838.882
729.036;24179.730; 5191.056; 2755.103
729.609;24263.191; 5164.084; 2731.824
730.182;25243.055; 6269.112; 2855.645
730.754;22862.117; 4264.140; 2946.866
731.327;24546.279; 6087.168; 2840.187
731.900;23823.041; 4722.196; 2647.608
732.472;25308.104; 5610.224; 2473.929
733.045;26475.766; 5415.252; 2445.750
733.617;25172.627; 4658.280; 2511.771
734.190;26057.389; 6048.308; 2581.592
734.762;25464.352; 5625.336; 2710.813
735.334;25070.313; 5705.364; 3005.733
735.907;25540.475; 5650.392; 3154.954
736.479;27216.037; 6477.420; 3171.675
737.051;27391.799; 6076.448; 3217.496
737.623;27785.961; 6125.476; 3246.217
738.195;27052.623; 5227.503; 2985.238
738.768;26977.186; 4413.532; 2727.559
739.340;27928.547; 5395.560; 2666.880
739.912;27608.910; 6154.587; 2769.601
740.484;26135.871; 6041.615; 2731.422
741.056;25535.033; 5406.643; 2963.043
741.628;25522.896; 5061.671; 3361.364
742.199;27344.658; 6600.699; 3641.185
742.771;25612.820; 4871.727; 3932.005
743.343;25900.582; 5107.755; 4319.926
743.915;26576.045; 5911.783; 4706.647
744.487;26372.307; 6027.811; 4874.968
745.058;25479.270; 6190.839; 4616.589
745.630;25101.932; 6120.867; 4253.410
746.201;25172.393; 5360.895; 4056.131
746.773;26880.256; 5970.923; 3772.952
747.344;26926.717; 5546.951; 3642.473
747.916;26479.379; 5867.979; 3752.294
748.487;26115.141; 6215.007; 4106.215
749.059;25258.703; 4925.035; 4457.835
749.630;26533.266; 5210.063; 4366.457
750.201;27224.428; 5596.090; 4600.078
750.773;27064.289; 5191.119; 4658.499
751.344;27372.252; 5646.146; 4609.319
751.915;27539.213; 5615.174; 4526.440
752.486;27511.676; 5290.202; 4536.061
753.057;28026.037; 5833.230; 4383.282
753.628;28008.600; 5134.258; 4296.503
754.199;27780.861; 5388.286; 4383.224
754.770;27266.625; 6050.314; 4653.545
755.341;27204.586; 6390.342; 4831.666
755.912;26276.848; 5515.370; 4831.387
756.483;27033.510; 6044.398; 4735.808
757.054;26531.172; 5429.426; 4685.029
757.625;26168.535; 4914.454; 4994.250
758.195;25898.297; 4772.482; 5051.471
758.766;27384.859; 5796.510; 5317.792
759.337;26716.121; 4685.538; 5646.512
759.907;27027.283; 4799.565; 5404.133
760.478;27217.045; 5292.594; 5090.954
761.048;28124.307; 6093.622; 4871.175
761.619;27182.570; 5987.649; 4589.396
762.189;27024.631; 5679.677; 4171.317
762.760;28652.994; 6186.706; 3872.538
763.330;29619.455; 6171.733; 3832.259
763.900;28667.818; 5877.761; 4150.180
764.471;27549.779; 5146.789; 4529.801
765.041;28255.742; 6472.817; 4715.922
765.611;28576.504; 6018.845; 4681.442
766.181;28718.865; 5600.873; 4717.063
766.751;27862.229; 5715.901; 4710.285
767.321;26556.990; 4850.929; 4450.305
767.891;27538.152; 5769.957; 4274.126
768.461;28330.514; 5538.985; 4215.047
769.031;28088.176; 5584.013; 4173.068
769.601;28938.838; 6515.041; 4174.689
770.171;27610.701; 4741.069; 4229.310
770.741;28722.764; 5430.097; 4352.031
771.311;29932.225; 5953.125; 4336.652
771.880;28596.887; 5107.152; 4300.873
772.450;27074.250; 5123.181; 4387.194
773.020;27047.611; 4730.208; 4220.415
773.589;27819.373; 5262.236; 4075.835
774.159;28687.436; 5286.264; 4105.756
774.729;28613.098; 5167.292; 4114.978
775.298;26849.359; 5219.320; 3693.298
775.867;26718.121; 5182.348; 3343.119
776.437;26597.584; 5672.376; 3062.040
777.006;26143.945; 4710.404; 2927.161
777.576;28664.207; 6039.432; 3046.482
778.145;28331.971; 5923.460; 3230.203
778.714;26885.332; 5528.488; 3253.324
779.283;26350.494; 5999.516; 3129.745
779.853;26476.457; 5550.544; 2983.566
780.422;26853.418; 5521.572; 2929.887
780.991;27196.580; 5881.600; 2863.908
781.560;27682.842; 6633.627; 2948.029
782.129;27011.105; 5883.656; 3074.149
782.698;27104.367; 6520.684; 2893.970
783.267;25193.129; 5196.711; 2721.391
783.836;26651.490; 5872.739; 2659.712
784.404;26711.652; 4896.768; 2622.233
784.973;25433.516; 4159.795; 2600.754
785.542;26617.178; 5541.823; 2528.475
786.111;27442.039; 6351.851; 2404.396
786.679;27266.102; 6007.879; 2365.717
787.248;25390.164; 4763.907; 2498.438
787.817;26276.227; 5303.935; 2645.659
788.385;27107.688; 6374.963; 2709.280
788.954;25487.650; 4857.991; 2620.500
789.522;26870.512; 6116.019; 2625.422
790.090;26766.574; 4816.047; 2743.843
790.659;27400.436; 5358.075; 2635.163
791.227;26273.197; 5509.103; 2495.484
791.795;27513.859; 5819.131; 2413.705
792.364;26810.223; 5044.159; 2345.326
792.932;27241.984; 5996.187; 2350.447
793.500;26572.547; 5421.214; 2429.768
794.068;26037.809; 4762.243; 2513.589
794.636;26370.670; 5129.271; 2664.310
795.204;24453.133; 4580.298; 2721.431
795.772;23719.795; 5100.326; 2802.052
796.340;24266.057; 5282.354; 2847.173
796.908;24574.119; 4563.382; 2997.194
797.476;25473.381; 4974.410; 3151.615
798.044;26503.844; 4456.438; 3110.735
798.612;27691.105; 5530.466; 2931.656
799.180;26924.467; 5639.494; 2785.777
799.747;26404.430; 5565.522; 2899.098
800.315;25233.791; 4923.550; 2955.519
800.883;24735.154; 4500.578; 2948.940
801.450;25559.615; 5537.606; 2965.361
802.018;25890.979; 5867.634; 3070.582
802.585;24963.340; 5644.662; 3156.103
803.153;23609.402; 5139.690; 3199.524
803.720;23700.064; 5170.718; 3168.845
804.287;24848.826; 5380.746; 3248.366
804.855;25934.088; 6321.773; 3406.187
805.422;25556.250; 5458.802; 3430.907
805.989;24869.313; 5009.830; 3453.528
806.556;25282.375; 5021.857; 3612.649
807.124;26967.037; 6214.885; 3736.570
807.691;25858.498; 4934.913; 3770.491
808.258;25711.660; 5577.941; 3705.012
808.825;26184.822; 6156.969; 3828.733
809.392;26160.984; 6660.997; 3986.754
809.959;25333.748; 5870.025; 4410.075
810.526;26153.109; 6678.053; 4774.996
811.093;25574.072; 6331.081; 4754.217
811.659;24324.133; 5531.109; 4661.238
812.226;24183.996; 5491.137; 4672.559
812.793;25378.457; 5759.165; 4822.979
813.360;24395.820; 5529.193; 5189.800
813.926;24783.281; 5868.221; 5310.622
814.493;24877.844; 4764.249; 5414.542
815.060;25119.807; 4516.277; 5548.963
815.626;25377.768; 4878.305; 5452.284
816.193;26765.230; 5715.333; 5339.305
816.759;24793.592; 5068.360; 5544.426
817.325;23164.754; 4486.389; 5706.547
817.892;24449.217; 6140.417; 5623.468
818.458;24180.479; 5899.444; 5586.689
819.024;24438.441; 6416.472; 5647.910
819.591;23932.502; 5628.500; 5762.031
820.157;22768.465; 4825.528; 6284.452
820.723;23509.127; 5904.556; 6906.973
821.289;25835.590; 8526.584; 7086.894
821.855;22884.852; 6078.612; 7054.915
822.421;22109.213; 5236.640; 7112.035
822.987;22175.975; 4891.668; 7256.156
823.553;22782.938; 5402.696; 7538.077
824.119;23317.400; 6121.724; 7594.298
824.685;23222.262; 6437.752; 7613.619
825.251;22609.123; 6140.780; 7644.140
825.816;23254.186; 6810.808; 7720.261
826.382;22031.549; 6051.835; 8014.282
826.948;21926.010; 6131.864; 8281.503
827.513;20528.172; 5517.892; 8289.624
828.079;19869.635; 4962.919; 8587.045
828.645;21304.297; 5791.947; 8821.865
829.210;20751.459; 4944.976; 9054.486
829.776;21491.221; 5965.003; 9054.607
830.341;20604.783; 6112.031; 9415.628
830.906;19995.244; 6304.059; 9932.449
831.472;18147.807; 5191.087;10150.271
832.037;19496.770; 6249.115; 9420.391
832.602;18874.031; 5259.143; 8664.912
833.167;19681.893; 5773.171; 8491.933
833.733;19924.055; 6187.199; 8872.854
834.298;18098.717; 4952.227; 9370.575
834.863;18936.979; 5789.255; 9610.695
835.428;18850.641; 5814.283; 9655.616
835.993;18857.104; 5997.311; 9437.838
836.558;18775.566; 6102.339; 9441.459
837.123;19498.428; 7443.367; 9600.979
837.688;17786.490; 5851.395; 9798.301
838.253;17550.252; 5924.422; 9902.921
838.817;17043.113; 5479.451;10339.742
839.382;17259.477; 6624.479;10548.363
839.947;16196.538; 5688.506;10252.484
840.511;17195.600; 6782.534;10040.005
841.076;15243.963; 4509.563;10099.926
841.641;16549.324; 6094.590;10347.347
842.205;16422.787; 5963.618;10817.368
842.770;17506.648; 6893.646;11435.289
843.334;16395.512; 5488.674;12072.409
843.898;15857.073; 5343.702;12635.431
844.463;17009.234; 6616.730;12537.252
845.027;15782.397; 5346.758;12759.673
845.591;16351.259; 6343.786;12821.993
846.156;15396.222; 5323.814;12520.914
846.720;16623.584; 6234.842;12390.436
847.284;16189.146; 5813.870;12956.456
847.848;15576.407; 6032.897;13240.177
848.412;15291.569; 5724.926;13216.998
848.976;16170.132; 6794.954;13014.619
849.540;15969.894; 7300.981;12355.740
850.104;15287.656; 6636.009;12208.761
850.668;13376.518; 4616.038;12106.882
851.232;13734.280; 4750.065;11862.103
851.796;14688.942; 5667.093;11700.523
852.359;15107.604; 6274.121;12375.944
852.923;15120.566; 6409.149;13087.966
853.487;14624.929; 6105.177;13297.187
854.050;12506.990; 3908.205;13851.207
854.614;13939.353; 5469.233;14854.229
855.177;14608.814; 5886.261;15802.149
855.741;14236.477; 6060.289;16603.570
856.304;14289.939; 6370.317;16359.891
856.868;12993.401; 5105.345;14365.512
857.431;13266.463; 5712.373;13361.333
857.995;13075.525; 5462.401;14130.554
858.558;13742.688; 5915.429;14883.175
859.121;14053.050; 6254.457;15754.195
859.684;12977.911; 5904.484;15995.017
860.247;12262.773; 5695.513;15149.537
860.810;11677.936; 5400.541;14640.358
861.374;13469.498; 7459.568;15551.079
861.937;11024.960; 4998.596;16519.801
862.500;11537.922; 5339.625;16796.521
863.062;11199.185; 5105.652;16538.742
863.625;12223.546; 5921.680;16716.764
864.188;11802.608; 5397.708;17055.084
864.751;11263.771; 5356.736;17197.705
865.314;11623.133; 5761.764;17151.625
865.876;12263.395; 6364.792;17783.547
866.439;12005.757; 6196.820;19283.467
867.002;12840.719; 7174.848;20256.389
867.564;11909.381; 6441.876;20485.410
868.127;11232.143; 5718.904;20789.730
868.689;11390.605; 5961.932;21981.951
869.252;11728.167; 6425.960;23803.771
869.814;10609.129; 5230.988;24974.094
870.377;11324.691; 5923.016;24690.314
870.939;13634.153; 8317.044;23963.436
871.501;11244.615; 5897.071;25167.156
872.063; 9636.577; 4221.100;26995.477
872.626;10189.040; 4647.127;27443.098
873.188;11325.202; 5921.155;26718.418
873.750;10974.264; 5674.183;26558.840
874.312;10548.226; 5388.211;26701.561
874.874;11921.388; 6898.239;27970.582
875.436;11452.650; 6221.267;29173.402
875.998;11706.513; 6734.295;30376.623
876.560;11163.175; 6397.323;32507.344
877.122; 9844.236; 5260.351;34833.066
877.683;10904.198; 6151.379;36458.285
878.245;10022.961; 5376.407;37248.207
878.807;10394.522; 6031.435;36758.027
879.369; 9310.285; 4942.463;35223.551
879.930; 9539.847; 5136.491;33824.969
880.492;10744.209; 6573.519;34436.492
881.053; 9317.871; 5102.547;37745.313
881.615; 9592.733; 5391.575;41184.633
882.176; 9532.495; 5567.603;42871.555
882.738; 9970.758; 6274.630;41693.074
883.299; 8190.220; 4460.659;40289.895
883.860; 8363.682; 4709.687;39231.215
884.422; 9678.443; 6181.714;38264.039
884.983; 8429.406; 5033.742;37171.859
885.544; 9157.868; 5855.770;35842.379
886.105; 8863.130; 5720.798;34810.000
886.666; 8517.792; 5336.826;34519.020
887.227; 7930.154; 4744.854;33905.641
887.788; 8987.116; 5936.882;34502.965
888.349; 7699.378; 4873.910;34241.785
888.910; 9071.641; 6124.938;33722.203
889.471; 8664.202; 5846.966;32539.625
890.032; 8254.465; 5702.994;31528.346
890.593; 8672.327; 6083.022;32655.068
891.153; 7935.589; 5645.050;33882.289
891.714; 7013.751; 4819.078;33318.711
892.275; 7139.113; 5036.105;31848.930
892.835; 8433.275; 6330.134;30339.752
893.396; 8254.137; 6260.162;30074.973
893.956; 7540.799; 5605.189;30338.393
894.517; 7808.161; 5858.217;30864.113
895.077; 7804.724; 5932.246;29766.734
895.638; 8577.285; 6897.273;26379.557
896.198; 6577.548; 5026.301;24056.277
896.758; 7884.410; 6261.329;22961.898
897.319; 7208.872; 5611.357;21772.020
897.879; 7255.634; 5714.385;20877.539
898.439; 6221.496; 4747.413;19509.461
898.999; 7557.558; 6119.441;17297.582
899.559; 7382.820; 6037.469;14712.002
900.119; 6397.482; 5084.497;12790.224
900.679; 8057.044; 6747.525;11586.744
901.239; 7418.106; 6168.553;10776.465
901.799; 6920.068; 5786.581; 9691.687
902.359; 6258.031; 5185.609; 8725.907
902.919; 6139.193; 5054.637; 8305.728
903.479; 6149.055; 5046.665; 8172.649
904.038; 5873.117; 4968.692; 7913.870
904.598; 5222.379; 4259.721; 7262.291
905.158; 6300.441; 5435.749; 6609.012
905.717; 6504.303; 5623.776; 6236.133
906.277; 6533.965; 5717.804; 5829.054
906.836; 6871.927; 6056.833; 5396.674
907.396; 6740.589; 6052.860; 4964.195
907.955; 6803.052; 5980.888; 4528.917
908.515; 6222.114; 5444.916; 4223.837
909.074; 6302.976; 5481.944; 4023.958
909.633; 6302.438; 5518.972; 4065.379
910.192; 7674.500; 6941.000; 4066.300
910.752; 6185.300; 5503.000; 3971.600
911.311; 6099.300; 5417.000; 3839.600
911.870; 5877.200; 5136.000; 3684.500
912.429; 7129.400; 6432.000; 3635.600
912.988; 6984.900; 6289.000; 3689.800
913.547; 5789.700; 5102.000; 3737.700
914.106; 6488.200; 5755.000; 3740.300
914.665; 6415.200; 5731.000; 3604.600
915.224; 7062.900; 6407.000; 3358.700
915.782; 6027.400; 5305.000; 3188.400
916.341; 7248.100; 6542.000; 3091.400
916.900; 6094.800; 5490.000; 3044.800
917.458; 5765.400; 5238.000; 2888.600
918.017; 6390.400; 5768.000; 2818.900
918.576; 6103.000; 5455.000; 2838.600
919.134; 5392.900; 4788.000; 2880.100
919.693; 6038.100; 5332.000; 2996.300
920.251; 5911.700; 5290.000; 3183.100
920.809; 5587.200; 4913.000; 3247.000
921.368; 5953.200; 5358.000; 3156.600
921.926; 5735.600; 5063.000; 2964.900
922.484; 6307.000; 5701.000; 2846.300
923.042; 6095.700; 5468.000; 2890.400
923.601; 7206.000; 6575.000; 2987.700
924.159; 6638.600; 6004.000; 3049.800
924.717; 5668.000; 5018.000; 3087.000
925.275; 6304.900; 5673.000; 3093.400
925.833; 5171.000; 4503.000; 3182.400
926.391; 6612.900; 5982.000; 3397.900
926.949; 5952.400; 5315.000; 3575.400
927.506; 6389.500; 5692.000; 3713.400
928.064; 6063.300; 5391.000; 3871.300
928.622; 6182.600; 5544.000; 4092.800
929.180; 5540.400; 4740.000; 4499.300
929.737; 5419.700; 4678.000; 4813.200
930.295; 6622.400; 5971.000; 5084.100
930.853; 5797.700; 5176.000; 5185.000
931.410; 5543.800; 4811.000; 5313.100
931.968; 6736.200; 5977.000; 5339.600
932.525; 6300.200; 5604.000; 5399.900
933.082; 5422.600; 4724.000; 5457.500
933.640; 6524.200; 5779.000; 5692.900
934.197; 6062.000; 5288.000; 5821.200
934.754; 6091.100; 5389.000; 5617.900
935.312; 5769.400; 5035.000; 5512.400
935.869; 7251.700; 6473.000; 5582.400
936.426; 5858.100; 5084.000; 5650.100
936.983; 6037.000; 5351.000; 5657.400
937.540; 5476.800; 4795.000; 5564.300
938.097; 6523.500; 5766.000; 5574.000
938.654; 6027.000; 5205.000; 5665.900
939.211; 6566.200; 5747.000; 5931.600
939.768; 6267.200; 5454.000; 6153.600
940.324; 6096.500; 5260.000; 6397.600
940.881; 5828.500; 5026.000; 6454.200
941.438; 7098.200; 6321.000; 6206.900
941.995; 6866.700; 6088.000; 6003.900
942.551; 5628.500; 4826.000; 6228.300
943.108; 6205.400; 5493.000; 6603.500
943.664; 5628.000; 4808.000; 7188.100
944.221; 7715.900; 6963.000; 7579.900
944.777; 5579.800; 4769.000; 7658.100
945.334; 5722.300; 4926.000; 7670.400
945.890; 6297.100; 5499.000; 7525.100
946.446; 6331.900; 5661.000; 7261.500
947.003; 6467.400; 5720.000; 6949.200
947.559; 7416.500; 6597.000; 6773.100
948.115; 7008.800; 6184.000; 6668.400
948.671; 6465.300; 5716.000; 6488.400
949.227; 5404.300; 4637.000; 6236.600
949.783; 5292.800; 4555.000; 6008.900
950.339; 6553.500; 5763.000; 5934.100
950.895; 6911.500; 6155.000; 5933.500
951.451; 5977.900; 5281.000; 6074.700
952.007; 6650.600; 5873.000; 6066.400
952.563; 6065.400; 5328.000; 5884.100
953.118; 5826.400; 5100.000; 5733.800
953.674; 6195.900; 5522.000; 5734.300
954.230; 6208.300; 5449.000; 6039.700
954.785; 6156.100; 5377.000; 6383.500
955.341; 6741.500; 5957.000; 6568.200
955.897; 5274.800; 4541.000; 6488.600
956.452; 6423.100; 5608.000; 6239.200
957.008; 7801.700; 7065.000; 5954.600
957.563; 7027.800; 6359.000; 5816.700
958.118; 5754.500; 5037.000; 5828.200
958.674; 6294.400; 5597.000; 5717.400
959.229; 7073.200; 6411.000; 5506.800
959.784; 5377.300; 4679.000; 5292.200
960.339; 7085.200; 6396.000; 5101.900
960.894; 6702.800; 5933.000; 5093.200
961.449; 5658.900; 4985.000; 5227.900
962.004; 9130.100; 8506.000; 5349.300
962.559; 5725.300; 5074.000; 5514.900
963.114; 4643.900; 3947.000; 5717.300
963.669; 6210.400; 5523.000; 5841.400
964.224; 5865.200; 5243.000; 5805.900
964.779; 5462.600; 4846.000; 5723.400
965.334; 7038.000; 6456.000; 5779.500
965.888; 5797.600; 5158.000; 5948.500
966.443; 6770.000; 6152.000; 6344.200
966.998; 5230.000; 4528.000; 6666.300
967.552; 6133.100; 5558.000; 6710.100
968.107; 5762.200; 5157.000; 6593.500
968.661; 6351.100; 5652.000; 6344.100
969.216; 5690.500; 5033.000; 6062.400
969.770; 6325.700; 5711.000; 5785.500
970.324; 6356.500; 5736.000; 5426.800
970.879; 6684.400; 6085.000; 5016.800
971.433; 6710.700; 6137.000; 4904.500
971.987; 6194.100; 5551.000; 4991.000
972.541; 6424.300; 5804.000; 4978.500
973.095; 7292.300; 6695.000; 4832.000
973.649; 5340.100; 4743.000; 4767.900
974.203; 5542.800; 4999.000; 4881.200
974.757; 5801.600; 5146.000; 4969.500
975.311; 6030.300; 5507.000; 4953.000
975.865; 6055.800; 5512.000; 4884.300
976.419; 5867.800; 5308.000; 4739.800
976.973; 5789.200; 5164.000; 4698.100
977.526; 6781.900; 6270.000; 4631.100
978.080; 5307.300; 4752.000; 4621.600
978.634; 6483.700; 5983.000; 4650.200
979.187; 6393.900; 5837.000; 4669.200
979.741; 7456.000; 6893.000; 4658.000
980.294; 5327.100; 4800.000; 4579.100
980.848; 4639.800; 4141.000; 4452.800
981.401; 5687.700; 5098.000; 4271.900
981.955; 6023.400; 5559.000; 4087.800
982.508; 5050.500; 4589.000; 3973.900
983.061; 6724.800; 6233.000; 3928.600
983.615; 5506.700; 5011.000; 3851.200
984.168; 5284.700; 4774.000; 3734.800
984.721; 6336.800; 5824.000; 3628.300
985.274; 6216.700; 5695.000; 3564.300
985.827; 5950.900; 5545.000; 3558.100
986.380; 4886.400; 4362.000; 3559.900
986.933; 6215.000; 5820.000; 3688.700
987.486; 6237.500; 5769.000; 3778.500
988.039; 6177.300; 5766.000; 3559.900
988.591; 6615.900; 6199.000; 3219.300
989.144; 5122.600; 4702.000; 2902.900
989.697; 5377.000; 4951.000; 2722.600
990.250; 6407.600; 5977.000; 2618.000
990.802; 5375.200; 4954.000; 2523.900
991.355; 7628.100; 7290.000; 2436.500
991.907; 6574.000; 6210.000; 2412.200
992.460; 5519.900; 5130.000; 2387.900
993.012; 5495.400; 5177.000; 2365.800
993.565; 5143.800; 4838.000; 2311.100
994.117; 7435.600; 7118.000; 2308.700
994.669; 5158.000; 4789.000; 2249.300
995.221; 6088.800; 5730.000; 2158.100
995.774; 5961.400; 5661.000; 2085.600
996.326; 5568.900; 5310.000; 2068.100
996.878; 6580.300; 6288.000; 1975.300
997.430; 5249.500; 5001.000; 1929.500
997.982; 5779.900; 5514.000; 1861.900
998.534; 5726.100; 5395.000; 1830.200
999.086; 5690.000; 5486.000; 1823.200
999.638; 4936.900; 4617.000; 1815.000
1000.190; 5413.000; 5201.000; 1796.600
1000.741; 5789.400; 5618.000; 1738.800
1001.293; 5278.200; 4958.000; 1666.200
1001.845; 5256.800; 4936.000; 1566.500
1002.396; 5871.200; 5683.000; 1471.900
1002.948; 5815.500; 5585.000; 1398.000
1003.500; 5712.800; 5384.000; 1356.500
1004.051; 7621.700; 7408.000; 1294.200
1004.603; 6485.800; 6321.000; 1190.000
1005.154; 4752.800; 4622.000; 1063.900
1005.705; 5871.700; 5715.000;  968.300
1006.257; 5755.400; 5621.000;  889.800
1006.808; 5579.500; 5409.000;  801.500
1007.359; 6434.700; 6277.000;  716.400
1007.910; 5280.700; 5166.000;  639.100
1008.461; 6126.200; 6046.000;  561.600
1009.013; 4761.800; 4631.000;  500.400
1009.564; 6746.800; 6641.000;  476.100
1010.115; 4803.100; 4749.000;  431.600
1010.665; 4942.300; 4862.000;  409.300
1011.216; 5583.800; 5486.000;  399.700
1011.767; 5806.900; 5682.000;  388.100
1012.318; 6049.400; 5979.000;  381.400
1012.869; 5583.900; 5469.000;  375.400
1013.419; 4924.200; 4882.000;  357.600
1013.970; 5591.900; 5508.000;  358.300
1014.521; 5067.500; 4920.000;  344.100
1015.071; 5631.600; 5526.000;  322.800
1015.622; 5263.500; 5173.000;  320.600
1016.172; 4889.400; 4798.000;  301.700
1016.723; 5060.400; 4985.000;  289.800
1017.273; 4997.900; 4919.000;  287.600
1017.823; 5411.500; 5266.000;  278.700
1018.374; 5069.100; 5017.000;  274.400
1018.924; 6070.200; 6026.000;  283.200
1019.474; 5975.700; 5935.000;  278.500
1020.024; 5453.200; 5446.000;  274.700
1020.574; 6172.800; 6046.000;  272.700
1021.124; 5700.200; 5659.000;  278.400
1021.674; 4604.800; 4550.000;  269.200
1022.224; 6061.200; 6058.000;  267.800
1022.774; 5593.400; 5508.000;  258.100
1023.324; 6465.700; 6390.000;  260.000
1023.874; 7671.900; 7690.000;  260.700
1024.423; 5090.800; 5024.000;  252.700
1024.973; 4968.400; 4838.000;  234.700
1025.523; 5211.600; 5137.000;  226.500
1026.072; 5060.400; 5038.000;  225.500
1026.622; 5729.700; 5608.000;  210.100
1027.172; 6082.300; 6037.000;  213.000
1027.721; 4995.500; 4936.000;  207.700
1028.270; 5696.600; 5591.000;  205.400
1028.820; 5405.700; 5374.000;  201.000
1029.369; 5171.100; 5199.000;  201.000
1029.918; 5451.800; 5341.000;  198.400
1030.468; 4690.600; 4593.000;  199.200
1031.017; 5393.200; 5332.000;  192.600
1031.566; 5140.300; 5112.000;  197.400
1032.115; 5942.800; 5870.000;  188.300
1032.664; 5063.700; 4961.000;  193.700
1033.213; 6327.000; 6321.000;  191.900
1033.762; 5406.300; 5365.000;  184.500
1034.311; 5777.500; 5729.000;  194.300
1034.860; 5895.900; 5882.000;  192.300
1035.408; 6279.600; 6205.000;  182.600
1035.957; 6173.600; 6129.000;  173.900
1036.506; 4390.500; 4341.000;  185.200
1037.055; 7370.000; 7433.000;  182.500
1037.603; 5702.400; 5562.000;  167.600
1038.152; 4418.300; 4363.000;  168.200
1038.700; 4886.600; 4879.000;  169.600
1039.249; 5783.400; 5805.000;  164.300
1039.797; 5436.800; 5351.000;  169.600
1040.345; 6061.600; 6042.000;  167.100
1040.894; 5379.100; 5358.000;  164.400
1041.442; 5443.300; 5318.000;  158.300
1041.990; 4739.900; 4711.000;  160.000
1042.538; 4512.200; 4442.000;  156.800
1043.087; 4751.400; 4622.000;  146.600
1043.635; 5865.600; 5900.000;  162.400
1044.183; 5057.100; 4946.000;  156.300
1044.731; 4887.600; 4900.000;  158.100
1045.279; 5814.600; 5836.000;  154.500
1045.827; 7958.800; 7934.000;  146.200
1046.374; 4288.300; 4281.000;  154.000
1046.922; 5010.200; 5002.000;  149.000
1047.470; 6000.200; 5941.000;  154.900
1048.018; 5659.000; 5569.000;  148.400
1048.565; 6236.100; 6230.000;  146.300
1049.113; 4700.300; 4693.000;  156.100
1049.660; 5372.700; 5334.000;  154.300
1050.208; 5840.300; 5811.000;  149.400
1050.755; 5216.300; 5115.000;  157.500
1051.303; 5961.100; 5906.000;  157.700
1051.850; 5442.600; 5349.000;  152.800
1052.397; 3949.900; 3904.000;  146.300
1052.945; 5327.400; 5306.000;  149.500
1053.492; 6523.000; 6448.000;  149.300
1054.039; 6351.800; 6276.000;  163.100
1054.586; 4738.600; 4669.000;  150.400
1055.133; 6072.800; 6065.000;  153.500
1055.680; 5585.800; 5558.000;  155.600
1056.227; 4571.200; 4517.000;  148.700
1056.774; 7007.100; 7027.000;  151.500
1057.321; 4437.300; 4417.000;  143.700
1057.868; 5619.600; 5537.000;  145.300
1058.415; 5650.800; 5620.000;  153.500
1058.961; 5895.100; 5887.000;  149.900
1059.508; 5573.300; 5514.000;  147.300
1060.055; 5028.600; 4957.000;  151.000
1060.601; 5354.600; 5313.000;  148.700
1061.148; 5403.000; 5405.000;  153.800
1061.694; 5111.400; 5146.000;  150.500
1062.241; 5140.700; 5032.000;  149.100
1062.787; 5813.700; 5747.000;  153.000
1063.334; 7091.500; 7001.000;  153.200
1063.880; 5877.600; 5827.000;  148.400
1064.426; 6237.500; 6202.000;  149.200
1064.972; 5194.600; 5161.000;  156.400
1065.518; 4874.300; 4912.000;  144.700
1066.065; 5495.600; 5581.000;  139.400
1066.611; 5228.100; 5178.000;  139.300
1067.157; 5589.700; 5532.000;  138.400
1067.703; 5873.900; 5887.000;  142.700
1068.249; 5152.500; 5113.000;  136.700
1068.794; 5451.800; 5423.000;  139.400
1069.340; 4981.600; 5006.000;  142.700
1069.886; 5163.700; 5117.000;  135.600
1070.432; 4622.200; 4606.000;  133.400
1070.977; 5252.900; 5135.000;  138.200
1071.523; 4855.200; 4894.000;  132.400
1072.068; 4984.300; 4936.000;  132.700
1072.614; 4506.800; 4503.000;  127.000
1073.160; 6075.200; 6090.000;  131.300
1073.705; 5006.500; 5030.000;  135.700
1074.250; 4836.800; 4904.000;  133.000
1074.796; 5782.000; 5771.000;  138.000
1075.341; 5792.800; 5822.000;  137.300
1075.886; 5094.600; 4986.000;  134.300
1076.431; 5780.700; 5812.000;  138.200
1076.976; 5646.800; 5633.000;  132.200
1077.521; 5058.400; 5046.000;  138.900
1078.067; 5056.600; 5050.000;  128.600
1078.612; 5880.800; 5886.000;  138.900
1079.156; 5273.300; 5189.000;  128.900
1079.701; 6137.600; 6155.000;  129.700
1080.246; 6184.900; 6178.000;  128.600
1080.791; 5526.000; 5562.000;  122.600
1081.336; 5772.000; 5852.000;  122.000
1081.880; 5763.300; 5717.000;  123.900
1082.425; 4962.700; 4948.000;  120.600
1082.970; 6364.600; 6384.000;  124.500
1083.514; 5205.800; 5162.000;  112.000
1084.059; 5125.200; 5063.000;  120.700
1084.603; 4966.000; 4893.000;  116.000
1085.147; 5722.500; 5713.000;  116.300
1085.692; 6418.700; 6383.000;  108.200
1086.236; 4345.700; 4346.000;  114.600
1086.780; 6726.300; 6644.000;  118.900
1087.325; 5783.800; 5849.000;  120.400
1087.869; 5427.900; 5459.000;  110.500
1088.413; 6233.400; 6238.000;  114.000
1088.957; 4668.900; 4614.000;  114.300
1089.501; 6912.300; 6857.000;  114.600
1090.045; 6510.200; 6559.000;  114.200
1090.589; 4969.900; 4966.000;  105.500
1091.133; 5949.600; 5902.000;  111.800
1091.676; 5132.300; 5140.000;  110.900
1092.220; 5308.800; 5377.000;  110.100
1092.764; 6286.000; 6290.000;  108.100
1093.307; 5983.500; 5998.000;  109.900
1093.851; 4850.700; 4870.000;  107.500
1094.395; 6121.200; 6119.000;   96.200
1094.938; 5577.500; 5617.000;   99.300
1095.482; 4897.800; 4918.000;   97.700
1096.025; 6334.600; 6310.000;   84.900
1096.568; 6928.100; 6932.000;   88.500
1097.112; 4375.400; 4354.000;   95.700
1097.655; 5234.200; 5181.000;   97.300
1098.198; 5278.600; 5278.000;   92.600
1098.741; 5473.500; 5520.000;   91.800
1099.285; 5814.000; 5763.000;   88.000
1099.828; 3805.100; 3796.000;   91.700
1100.371; 5430.000; 5383.000;   89.900
1100.914; 6136.000; 6094.000;   91.500
1101.457; 6081.300; 6083.000;   88.100
1101.999; 5133.100; 5084.000;   86.400
1102.542; 5628.900; 5645.000;   90.800
1103.085; 5881.400; 5802.000;   95.400
1103.628; 6917.800; 6918.000;   97.700
1104.170; 5146.800; 5102.000;   84.000
1104.713; 5740.100; 5745.000;   93.900
1105.256; 4880.300; 4875.000;   93.000
1105.798; 4391.000; 4434.000;   85.600
1106.341; 6522.900; 6532.000;   87.100
1106.883; 4583.500; 4570.000;   85.200
1107.425; 6009.200; 6045.000;   85.000
1107.968; 5523.700; 5472.000;   84.300
1108.510; 6108.500; 6108.000;   88.200
1109.052; 5516.500; 5533.000;   86.600
1109.594; 4925.500; 4946.000;   79.400
1110.136; 5775.000; 5831.000;   81.700
1110.679; 5603.800; 5623.000;   75.500
1111.221; 5420.300; 5411.000;   88.500
1111.763; 4908.200; 4911.000;   87.700
1112.304; 4850.800; 4854.000;   89.700
1112.846; 5977.500; 5956.000;   81.900
1113.388; 8680.700; 8762.000;   86.400
1113.930; 6259.200; 6282.000;   84.700
1114.472; 5446.800; 5366.000;   78.900
1115.013; 4891.800; 4872.000;   78.100
1115.555; 5275.600; 5271.000;   84.900
1116.097; 5122.200; 5162.000;   79.200
1116.638; 6188.800; 6142.000;   83.700
1117.180; 5922.800; 5892.000;   85.500
1117.721; 5106.300; 5089.000;   78.800
1118.262; 6123.300; 6168.000;   77.400
1118.804; 5688.900; 5668.000;   81.400
1119.345; 5199.700; 5154.000;   77.800
1119.886; 6368.500; 6365.000;   81.200
1120.427; 5283.500; 5263.000;   77.200
1120.969; 5390.400; 5361.000;   75.200
1121.510; 5021.100; 5095.000;   80.900
1122.051; 6534.800; 6478.000;   77.300
1122.592; 5947.800; 5955.000;   73.300
1123.133; 4848.900; 4880.000;   90.100
1123.673; 6425.700; 6445.000;   75.000
1124.214; 5522.500; 5548.000;   80.600
1124.755; 5823.100; 5830.000;   78.000
1125.296; 5619.600; 5628.000;   77.500
1125.836; 6250.900; 6237.000;   80.400
1126.377; 5366.800; 5435.000;   75.600
1126.918; 5524.000; 5571.000;   78.900
1127.458; 5617.100; 5616.000;   78.000
1127.999; 5947.900; 5905.000;   76.100
1128.539; 6279.500; 6283.000;   81.400
1129.079; 5744.300; 5794.000;   77.400
1129.620; 5006.200; 5066.000;   68.000
1130.160; 4872.800; 4819.000;   77.500
1130.700; 5773.200; 5809.000;   76.300
1131.240; 5817.700; 5810.000;   66.800
1131.781; 5607.300; 5572.000;   70.600
1132.321; 5427.100; 5434.000;   77.200
1132.861; 5051.200; 4954.000;   70.400
1133.401; 5405.900; 5415.000;   68.700
1133.941; 5684.000; 5752.000;   68.500
1134.481; 5454.900; 5399.000;   75.900
1135.020; 5497.900; 5478.000;   66.600
1135.560; 6065.600; 6106.000;   68.100
1136.100; 4461.000; 4466.000;   64.900
1136.640; 4579.700; 4595.000;   72.500
1137.179; 4768.400; 4772.000;   69.700
1137.719; 5498.300; 5456.000;   68.400
1138.258; 5322.400; 5364.000;   67.000
1138.798; 5966.300; 5978.000;   69.600
1139.337; 4287.900; 4292.000;   64.000
1139.877; 5788.200; 5855.000;   64.500
1140.416; 8027.800; 8129.000;   74.900
1140.955; 4765.500; 4763.000;   67.200
1141.494; 6167.800; 6114.000;   69.900
1142.034; 5281.200; 5349.000;   59.100
1142.573; 5858.000; 5846.000;   65.900
1143.112; 4985.400; 4973.000;   70.600
1143.651; 4805.600; 4810.000;   67.100
1144.190; 6348.600; 6414.000;   56.700
1144.729; 5491.600; 5553.000;   61.800
1145.267; 5244.100; 5202.000;   62.500
1145.806; 5782.000; 5715.000;   68.500
1146.345; 5831.000; 5888.000;   58.300
1146.884; 5712.500; 5660.000;   63.100
1147.422; 4795.100; 4811.000;   54.800
1147.961; 6487.200; 6432.000;   67.600
1148.500; 6082.100; 6104.000;   64.700
1149.038; 5814.900; 5811.000;   61.000
1149.577; 6407.000; 6411.000;   65.100
1150.115; 4012.200; 3998.000;   58.100
1150.653; 5565.000; 5591.000;   60.500
1151.192; 5013.900; 5061.000;   56.600
1151.730; 5977.900; 5962.000;   62.300
1152.268; 5300.000; 5302.000;   55.500
1152.806; 5211.700; 5130.000;   58.200
1153.344; 5203.300; 5204.000;   55.000
1153.882; 5383.500; 5389.000;   64.200
1154.421; 4186.400; 4188.000;   60.300
1154.958; 5451.900; 5482.000;   58.100
1155.496; 5875.300; 5874.000;   55.800
1156.034; 6603.300; 6597.000;   61.000
1156.572; 6105.500; 6053.000;   56.200
1157.110; 4249.400; 4289.000;   53.200
1157.647; 6190.100; 6224.000;   57.400
1158.185; 5185.500; 5144.000;   55.500
1158.723; 4603.700; 4643.000;   58.000
1159.260; 6400.600; 6461.000;   53.700
1159.798; 6011.900; 6045.000;   51.700
1160.335; 5785.300; 5797.000;   59.600

