source
Integration time [ms]: 4415.405
Averaging Nr. [scans]: 10
Smoothing Nr. [pixels]: 0
Data measured with spectrometer [name]: 7414430SP
Wave   ;Sample   ;Dark     ;Reference
[nm]   ;[counts] ;[counts] ;[counts] 

288.544; 5631.466; 5481.567;    6.613
289.143; 4569.505; 4445.805;   14.216
289.742; 6022.258; 5944.782;   11.816
290.341; 5744.277; 5549.822;   -4.936
290.940; 5226.249; 5126.334;    0.852
291.538; 6652.132; 6565.967;    1.792
292.137; 5860.834; 5724.192;    6.262
292.736; 7677.377; 7451.822;    8.164
293.335; 5375.905; 5236.041;   -6.418
293.934; 5815.629; 5668.136;   -2.904
294.532; 8262.972; 8170.262;   -5.162
295.131; 6492.274; 6327.777;  -10.283
295.730; 6290.269; 6165.880;  -16.141
296.328; 6034.885; 5919.741;  -14.740
296.927; 6005.889; 5823.527;   -8.768
297.525; 5985.345; 5870.784;  -15.255
298.124; 4849.455; 4719.534;  -22.063
298.722; 5853.182; 5667.405;  -14.796
299.321; 5373.138; 5160.111;  -10.466
299.919; 5764.388; 5655.808;  -10.979
300.518; 5284.631; 5062.438;  -12.077
301.116; 5230.979; 5088.125;  -13.509
301.715; 5589.607; 5476.557;  -11.939
302.313; 5407.264; 5256.375;  -15.424
302.911; 5747.869; 5621.171;  -19.833
303.509; 7587.805; 7470.388;   -3.567
304.108; 5897.535; 5754.438;   -9.553
304.706; 6392.307; 6182.500;   -8.582
305.304; 6448.049; 6357.468;  -12.348
305.902; 6150.478; 5985.563;  -14.411
306.500; 5671.672; 5621.059;   -7.194
307.098; 5890.166; 5766.937;   -9.322
307.696; 6290.769; 6148.666;  -19.192
308.294; 5783.730; 5652.933;   -9.736
308.892; 6060.512; 5935.455;  -15.482
309.490; 5573.722; 5442.755;  -14.107
310.088; 6447.972; 6295.396;  -15.862
310.686; 6604.534; 6399.270;  -10.781
311.284; 6198.151; 6134.692;  -14.878
311.882; 5717.907; 5647.399;   -9.948
312.480; 5527.856; 5377.040;  -15.503
313.078; 6695.719; 6571.419;  -17.262
313.675; 5447.973; 5344.059;   -3.694
314.273; 6556.603; 6491.006;  -18.246
314.871; 4476.870; 4387.228;  -15.190
315.468; 5186.869; 5086.171;  -12.633
316.066; 5520.449; 5378.019;   -5.765
316.664; 5180.726; 5124.990;  -14.317
317.261; 7636.520; 7501.531;   -8.677
317.859; 6438.882; 6383.247;  -11.804
318.456; 6991.917; 6947.801;   -3.107
319.054; 6530.377; 6478.350;   -3.062
319.651; 6206.691; 6074.594;   -6.706
320.249; 6839.491; 6764.594;   -5.206
320.846; 5874.035; 5767.831;   -4.679
321.443; 7094.003; 7003.613;   -7.920
322.041; 6955.060; 6863.432;  -14.105
322.638; 5871.203; 5873.557;   -6.263
323.235; 5413.764; 5353.375;   -7.424
323.833; 6195.396; 6144.042;  -14.765
324.430; 4943.858; 4823.814;  -10.550
325.027; 7510.331; 7492.045;   -9.951
325.624; 5151.104; 5037.771;   -3.712
326.221; 5570.594; 5515.481;   -9.368
326.818; 6849.961; 6752.095;   -5.637
327.415; 5975.412; 5883.005;   -6.699
328.012; 5407.713; 5293.117;   -5.713
328.609; 5778.568; 5667.824;   -9.983
329.206; 6338.872; 6302.553;   -7.154
329.803; 5817.365; 5770.431;   -1.682
330.400; 5453.922; 5373.857;   -2.741
330.997; 6498.313; 6398.510;   -4.339
331.594; 6319.256; 6309.646;  -10.278
332.191; 5607.800; 5513.435;   -6.967
332.787; 6718.450; 6623.131;   -0.480
333.384; 5874.211; 5864.241;  -10.333
333.981; 6457.243; 6493.301;  -19.900
334.578; 5395.317; 5197.644;  -19.816
335.174; 5549.399; 5451.614;  -15.844
335.771; 6660.204; 6559.961;  -12.670
336.367; 5520.228; 5394.394;  -21.124
336.964; 6316.679; 6137.810;  -18.226
337.561; 5728.141; 5655.582;  -13.311
338.157; 7520.155; 7429.612;  -19.006
338.754; 6387.657; 6305.286;  -19.418
339.350; 5663.206; 5531.421;  -29.433
339.946; 6063.276; 5908.979;  -16.622
340.543; 6870.362; 6726.633;  -16.744
341.139; 5703.327; 5622.079;  -21.841
341.735; 6277.814; 6137.947;  -25.012
342.332; 5518.128; 5311.191;  -19.156
342.928; 6441.642; 6365.379;  -20.443
343.524; 6252.260; 6140.857;  -14.397
344.120; 6027.982; 6034.729;  -20.654
344.716; 5719.098; 5567.636;   -5.730
345.313; 6543.903; 6491.590;  -10.929
345.909; 4890.984; 4700.448;  -19.843
346.505; 6017.430; 5954.910;  -19.645
347.101; 6793.973; 6646.147;   -9.618
347.697; 6469.618; 6396.497;  -10.305
348.293; 4877.902; 4852.084;  -23.189
348.889; 6070.862; 5965.240;  -18.418
349.485; 5433.694; 5374.457;  -10.476
350.081; 6307.777; 6229.540;  -17.320
350.676; 5582.166; 5471.969;  -21.088
351.272; 6667.592; 6672.840;  -12.821
351.868; 6271.454; 6170.107;  -13.165
352.464; 5816.191; 5717.784;  -12.464
353.059; 5128.476; 5013.372;  -22.547
353.655; 6409.288; 6246.942;   -9.379
354.251; 6190.080; 6029.314;   -8.266
354.846; 6038.565; 6051.520;  -17.705
355.442; 6087.042; 6058.985;   -9.317
356.038; 6109.943; 6001.648;  -11.049
356.633; 5889.091; 5753.728;  -10.006
357.229; 5869.383; 5792.494;  -13.120
357.824; 5713.539; 5618.256;  -15.647
358.420; 5410.887; 5342.335;  -19.204
359.015; 5564.918; 5433.553;  -12.263
359.610; 6284.703; 6199.748;  -16.421
360.206; 4724.654; 4613.949;  -20.074
360.801; 5107.831; 4989.573;  -13.277
361.396; 5888.576; 5775.979;   -5.822
361.992; 5375.139; 5307.256;  -11.247
362.587; 5406.747; 5357.827;  -21.502
363.182; 5596.356; 5457.229;   -7.461
363.777; 6093.888; 6069.447;   -8.719
364.372; 6038.370; 6050.361;  -14.590
364.967; 5584.388; 5475.840;  -15.145
365.563; 6770.979; 6697.708;   -7.192
366.158; 5509.424; 5421.507;   -5.662
366.753; 5204.209; 5143.757;   -8.378
367.348; 6167.533; 6005.246;  -14.990
367.942; 5643.118; 5506.497;   -6.005
368.537; 6202.108; 6153.150;  -11.504
369.132; 5798.558; 5757.342;  -10.576
369.727; 5104.875; 5037.765;  -12.573
370.322; 4674.173; 4595.091;  -11.560
370.917; 5880.966; 5842.969;  -10.388
371.511; 7386.298; 7311.299;   -9.161
372.106; 6560.088; 6524.840;  -10.245
372.701; 4726.180; 4616.606;  -10.158
373.296; 7288.541; 7212.424;   -4.719
373.890; 5290.546; 5243.827;  -11.802
374.485; 5779.490; 5755.458;  -13.500
375.079; 6216.216; 6165.272;   -6.276
375.674; 6913.928; 6819.348;   -0.447
376.268; 5697.411; 5693.824;   -6.916
376.863; 4806.537; 4784.930;  -14.483
377.457; 5503.714; 5440.104;   -6.903
378.052; 6530.209; 6456.656;   -9.844
378.646; 6352.416; 6323.666;  -12.601
379.240; 6144.791; 6030.570;  -14.715
379.835; 5342.554; 5223.005;  -12.331
380.429; 4582.512; 4499.880;   -9.074
381.023; 6719.267; 6686.475;   -1.729
381.617; 5767.523; 5705.293;  -13.714
382.212; 5799.131; 5704.022;   -7.060
382.806; 6510.214; 6396.104;   -2.303
383.400; 5762.096; 5801.524;   -0.815
383.994; 5714.972; 5653.428;   -4.429
384.588; 6010.667; 5945.137;   -6.261
385.182; 6295.937; 6274.639;    0.008
385.776; 6196.833; 6114.302;   -3.247
386.370; 5878.887; 5866.729;   -1.030
386.964; 5938.155; 5861.118;   -1.346
387.558; 5087.425; 5033.563;   -2.020
388.152; 5936.583; 5824.887;   -5.345
388.745; 7237.201; 7222.972;   -2.774
389.339; 6407.017; 6398.385;    3.510
389.933; 5918.014; 5911.655;    5.280
390.527; 7703.486; 7723.223;    2.610
391.120; 5155.254; 5074.455;   -7.914
391.714; 6167.578; 6149.989;   -1.903
392.308; 6944.441; 6811.480;    6.023
392.901; 5621.025; 5654.012;   -4.103
393.495; 5241.728; 5211.686;    3.284
394.089; 6908.935; 6843.864;    8.655
394.682; 6203.329; 6168.854;    2.312
395.275; 6430.394; 6403.851;   -7.402
395.869; 6002.892; 5942.626;   -1.072
396.462; 5455.171; 5435.979;    6.454
397.056; 6894.160; 6978.566;    8.494
397.649; 6609.463; 6572.689;    1.599
398.242; 6408.245; 6452.210;    3.153
398.836; 6888.329; 6924.404;   11.395
399.429; 5533.782; 5454.381;   14.695
400.022; 5972.339; 5910.649;    3.627
400.615; 7347.601; 7402.917;    8.383
401.208; 6125.171; 6070.474;   13.295
401.802; 6299.908; 6342.039;    6.211
402.395; 6202.639; 6126.649;    7.227
402.988; 6256.337; 6313.481;    2.700
403.581; 5647.168; 5668.250;   11.225
404.174; 6052.515; 6065.711;   18.922
404.767; 5605.160; 5544.959;   14.169
405.360; 5580.374; 5603.596;    8.999
405.953; 6812.677; 6861.483;   13.138
406.545; 6549.703; 6542.691;   13.937
407.138; 5486.207; 5510.982;   10.869
407.731; 5455.038; 5483.144;   12.768
408.324; 5864.276; 5857.034;   22.921
408.917; 6153.437; 6175.639;   15.308
409.509; 6707.362; 6749.184;   12.239
410.102; 5841.758; 5889.791;   13.741
410.695; 5967.489; 5923.110;   20.249
411.287; 5363.517; 5452.936;   21.793
411.880; 5215.510; 5246.813;   22.965
412.472; 5485.420; 5503.170;   15.082
413.065; 5731.836; 5735.526;   23.423
413.657; 5139.396; 5136.232;   21.077
414.250; 5766.131; 5801.180;   12.349
414.842; 6075.820; 6125.665;   20.423
415.434; 5140.030; 5145.124;   19.906
416.027; 5789.068; 5797.902;   26.574
416.619; 6471.767; 6455.239;   15.705
417.211; 5343.984; 5399.212;   17.791
417.804; 5579.381; 5649.034;   30.244
418.396; 5476.001; 5505.186;   24.177
418.988; 5922.582; 5929.539;   24.904
419.580; 5083.511; 5079.981;   20.692
420.172; 4836.411; 4804.532;   22.275
420.764; 5960.152; 6028.040;   26.773
421.356; 5749.167; 5735.846;   25.731
421.948; 6086.617; 6057.486;   24.876
422.540; 6044.985; 5988.426;   30.042
423.132; 5338.344; 5316.469;   32.728
423.724; 4953.243; 4990.750;   21.317
424.316; 5567.122; 5562.991;   29.359
424.908; 5287.289; 5306.763;   28.798
425.500; 5814.724; 5839.766;   30.512
426.092; 5771.342; 5813.795;   26.741
426.683; 6255.261; 6207.331;   27.029
427.275; 5716.933; 5706.112;   32.611
427.867; 5915.334; 5901.224;   33.796
428.458; 6588.729; 6570.214;   34.453
429.050; 6123.077; 6174.799;   34.255
429.642; 6696.857; 6702.152;   39.082
430.233; 4898.824; 4973.373;   41.138
430.825; 6603.241; 6574.290;   31.581
431.416; 6241.430; 6312.776;   35.755
432.008; 5751.679; 5785.518;   40.566
432.599; 5758.604; 5835.669;   46.322
433.190; 5630.520; 5673.924;   46.897
433.782; 4976.796; 5016.940;   41.069
434.373; 7898.971; 7932.891;   48.778
434.964; 5240.166; 5238.937;   50.078
435.556; 5588.288; 5643.313;   52.381
436.147; 6782.690; 6783.538;   38.251
436.738; 6173.544; 6216.626;   47.237
437.329; 6335.871; 6411.497;   61.304
437.920; 5787.292; 5909.043;   48.611
438.511; 4851.928; 4911.158;   44.910
439.103; 5418.387; 5442.359;   62.404
439.694; 5956.542; 6077.560;   63.075
440.285; 6535.710; 6606.342;   61.033
440.876; 7593.595; 7624.930;   57.249
441.466; 4930.915; 4938.128;   61.306
442.057; 5740.588; 5784.021;   65.773
442.648; 6596.017; 6629.352;   65.676
443.239; 5366.867; 5509.049;   55.963
443.830; 6166.951; 6119.850;   69.631
444.421; 5629.338; 5690.269;   69.943
445.011; 6028.815; 6044.240;   72.791
445.602; 6495.720; 6527.138;   68.848
446.193; 4004.823; 4025.969;   80.044
446.783; 5327.594; 5385.583;   82.599
447.374; 5904.423; 5929.362;   77.419
447.964; 6209.740; 6208.335;   72.605
448.555; 7126.642; 7223.662;   82.041
449.145; 5633.824; 5738.081;   76.230
449.736; 6986.387; 7014.854;   75.545
450.326; 6145.834; 6179.876;   67.945
450.917; 5731.820; 5723.790;   77.598
451.507; 5021.707; 5082.658;   68.027
452.097; 6462.198; 6490.368;   67.771
452.688; 6312.164; 6304.533;   62.884
453.278; 4513.971; 4527.655;   65.512
453.868; 6877.982; 6909.113;   71.796
454.458; 5489.835; 5508.596;   60.956
455.048; 6057.799; 6086.480;   62.356
455.639; 4642.094; 4670.133;   58.782
456.229; 5967.737; 6017.371;   65.209
456.819; 6307.079; 6310.384;   61.466
457.409; 6591.695; 6598.245;   59.967
457.999; 6140.512; 6187.713;   58.093
458.589; 5622.576; 5658.654;   59.536
459.179; 6032.286; 6018.506;   55.994
459.769; 5125.300; 5190.143;   43.624
460.358; 6726.113; 6708.826;   46.978
460.948; 5685.277; 5771.766;   49.821
461.538; 5388.107; 5352.872;   54.678
462.128; 5466.638; 5494.371;   49.309
462.717; 5801.568; 5833.634;   52.774
463.307; 5772.954; 5816.940;   48.101
463.897; 5303.120; 5357.948;   45.606
464.486; 7092.954; 7205.232;   45.010
465.076; 6039.965; 6073.297;   45.519
465.666; 5163.584; 5225.046;   50.058
466.255; 6559.445; 6590.100;   44.463
466.845; 5303.367; 5408.971;   41.206
467.434; 5882.630; 5963.350;   44.847
468.023; 5135.686; 5214.607;   46.760
468.613; 5790.875; 5777.654;   39.736
469.202; 5086.196; 5139.515;   46.461
469.791; 5883.802; 5905.020;   47.944
470.381; 5858.308; 5864.085;   47.529
470.970; 5640.478; 5605.980;   43.773
471.559; 5895.045; 5959.650;   41.646
472.148; 5201.756; 5252.221;   37.914
472.738; 6022.481; 6089.373;   48.071
473.327; 4850.845; 4874.257;   47.871
473.916; 5849.011; 5828.759;   37.716
474.505; 5923.583; 5974.484;   40.256
475.094; 6469.280; 6482.811;   43.269
475.683; 6275.841; 6371.471;   36.499
476.272; 5634.358; 5731.389;   44.542
476.861; 5365.593; 5407.887;   42.297
477.449; 5526.502; 5546.784;   46.878
478.038; 5153.694; 5151.392;   35.156
478.627; 5409.151; 5446.267;   42.514
479.216; 5840.297; 5893.335;   43.937
479.805; 5900.506; 5937.625;   51.393
480.393; 8098.746; 8145.920;   53.239
480.982; 6895.020; 6924.600;   38.955
481.571; 6636.107; 6654.682;   45.436
482.159; 5063.831; 5077.721;   51.007
482.748; 6192.561; 6295.164;   49.695
483.336; 6474.387; 6456.484;   48.280
483.925; 5654.879; 5467.250;   47.166
484.513; 5431.661; 5475.321;   55.404
485.102; 5934.424; 5977.104;   54.238
485.690; 7794.494; 7717.101;   55.748
486.278; 7520.958; 7496.097;   55.934
486.867; 5719.704; 5782.952;   57.106
487.455; 6545.366; 6500.668;   56.979
488.043; 5046.283; 5053.642;   57.564
488.631; 7473.226; 7444.375;   57.432
489.220; 6506.945; 6447.516;   63.646
489.808; 4812.521; 4790.870;   65.449
490.396; 6435.517; 6508.084;   61.977
490.984; 5440.111; 5490.074;   68.834
491.572; 6423.285; 6475.361;   70.775
492.160; 6074.183; 6070.642;   67.564
492.748; 5579.347; 5624.583;   66.808
493.336; 6510.614; 6545.354;   79.747
493.924; 5553.077; 5510.734;   88.688
494.512; 6428.434; 6351.001;   84.120
495.100; 6263.448; 6290.639;   86.250
495.687; 6674.000; 6684.661;  103.074
496.275; 5373.227; 5360.486;  108.717
496.863; 5592.343; 5635.797;  107.035
497.451; 5517.496; 5572.718;  117.993
498.038; 5857.836; 5881.833;  120.116
498.626; 5593.659; 5611.704;  143.059
499.214; 6010.558; 5977.097;  153.434
499.801; 5864.350; 5898.863;  175.121
500.389; 4771.764; 4766.602;  185.617
500.976; 6135.451; 6136.526;  215.789
501.564; 5886.103; 5944.840;  240.321
502.151; 4202.284; 4163.698;  267.007
502.738; 5559.049; 5479.358;  317.961
503.326; 5649.384; 5638.856;  361.216
503.913; 5922.137; 6019.282;  401.433
504.500; 6122.968; 6033.949;  446.492
505.088; 5159.340; 5161.012;  512.063
505.675; 5672.566; 5645.826;  586.387
506.262; 5606.619; 5691.702;  671.021
506.849; 5763.766; 5799.219;  759.062
507.436; 6554.382; 6604.688;  849.788
508.023; 5728.493; 5724.595;  944.288
508.610; 6387.383; 6444.249; 1020.690
509.197; 6182.286; 6140.315; 1089.052
509.784; 5789.906; 5717.176; 1133.776
510.371; 4788.585; 4775.968; 1165.501
510.958; 5913.038; 5882.843; 1251.735
511.545; 6795.999; 6857.054; 1350.248
512.132; 5774.112; 5698.793; 1525.945
512.719; 5108.137; 5104.282; 1834.933
513.305; 5297.810; 5310.962; 1965.349
513.892; 6760.494; 6702.550; 1963.265
514.479; 5911.145; 5832.516; 2046.446
515.066; 6517.250; 6464.414; 2252.803
515.652; 5887.261; 5881.377; 2567.247
516.239; 6254.870; 6313.117; 2636.919
516.825; 4883.413; 4921.298; 2482.304
517.412; 7271.504; 7283.559; 2427.031
517.998; 5640.351; 5628.919; 2540.463
518.585; 5558.184; 5531.698; 2609.007
519.171; 5915.977; 5920.734; 2842.088
519.758; 4973.286; 4972.529; 3090.703
520.344; 6427.606; 6431.176; 3176.076
520.930; 5110.281; 5097.474; 3295.037
521.516; 6152.506; 6125.727; 3500.959
522.103; 6779.661; 6779.321; 3736.704
522.689; 5585.777; 5566.632; 3971.022
523.275; 6588.250; 6608.807; 4213.778
523.861; 5662.113; 5668.242; 4190.361
524.447; 6537.465; 6462.714; 4070.602
525.033; 6620.679; 6618.856; 4088.892
525.619; 5334.253; 5328.593; 4416.851
526.205; 4968.385; 5023.866; 4836.835
526.791; 5610.292; 5627.483; 4885.903
527.377; 5369.589; 5337.652; 4544.907
527.963; 5923.144; 5968.302; 4321.995
528.549; 6053.424; 6039.599; 4473.979
529.135; 5272.292; 5226.988; 4788.663
529.721; 5830.186; 5866.922; 4888.577
530.306; 7964.824; 7995.599; 4775.779
530.892; 5513.809; 5557.906; 4793.906
531.478; 5420.436; 5415.170; 4956.948
532.063; 5145.454; 5180.705; 5136.936
532.649; 7171.390; 7262.157; 5336.867
533.235; 5215.590; 5212.764; 5748.092
533.820; 6678.063; 6608.546; 6456.875
534.406; 5663.537; 5666.180; 6590.167
534.991; 5242.824; 5289.655; 6179.622
535.576; 5716.821; 5694.926; 6098.691
536.162; 8030.316; 7974.028; 6441.234
536.747; 4929.489; 4940.101; 6816.224
537.333; 5254.054; 5302.154; 6889.752
537.918; 5748.751; 5755.368; 7154.280
538.503; 5346.594; 5371.101; 7150.848
539.088; 6026.311; 6099.467; 7253.308
539.673; 5528.704; 5513.345; 7625.180
540.259; 5340.743; 5372.741; 8226.793
540.844; 4660.879; 4634.856; 8745.092
541.429; 7064.271; 7120.016; 8762.553
542.014; 4889.556; 4949.771; 8871.497
542.599; 6000.947; 6063.583; 8886.008
543.184; 5026.377; 5041.082; 9079.139
543.769; 5363.389; 5326.045; 9076.182
544.354; 5547.578; 5529.138; 8354.081
544.938; 6002.574; 5998.352; 8236.809
545.523; 7010.913; 7062.691; 8222.179
546.108; 5752.394; 5738.999; 8114.082
546.693; 5712.913; 5653.590; 8535.912
547.278; 5731.093; 5769.494; 9238.322
547.862; 5715.351; 5704.975; 9034.405
548.447; 6480.128; 6339.890; 7795.011
549.031; 5542.447; 5521.425; 7485.099
549.616; 5940.663; 5912.444; 7626.308
550.201; 5377.585; 5297.260; 7627.909
550.785; 6235.805; 6214.963; 7859.125
551.370; 4983.950; 4994.762; 7990.654
551.954; 6442.617; 6431.926; 8196.468
552.538; 6288.250; 6355.256; 7959.495
553.123; 5348.974; 5310.801; 7964.826
553.707; 5593.368; 5611.185; 8515.957
554.291; 6742.194; 6768.055; 8724.024
554.876; 6375.233; 6346.844; 8524.211
555.460; 5372.983; 5443.484; 8704.456
556.044; 5352.083; 5278.934; 9141.473
556.628; 5762.214; 5740.702; 9250.197
557.212; 6606.287; 6627.428; 9444.237
557.796; 5612.979; 5621.699; 9379.783
558.380; 6079.390; 6056.000; 9353.658
558.964; 5896.901; 5879.121; 9210.310
559.548; 4915.112; 4817.085; 8475.153
560.132; 5537.812; 5477.422; 7954.084
560.716; 5080.113; 5065.040; 7489.529
561.300; 4977.896; 4919.223; 7211.952
561.884; 6244.761; 6281.613; 7141.313
562.467; 6171.802; 6136.076; 7155.386
563.051; 5803.079; 5819.092; 7323.158
563.635; 5680.251; 5635.267; 7709.114
564.219; 5726.867; 5793.623; 7678.855
564.802; 6196.413; 6082.983; 7376.187
565.386; 5892.208; 5788.142; 7054.372
565.969; 6786.929; 6725.002; 6589.196
566.553; 7465.481; 7384.373; 6279.371
567.136; 6696.972; 6652.970; 5967.930
567.720; 5913.833; 5855.687; 5660.703
568.303; 6126.273; 6024.082; 5648.615
568.887; 5966.375; 5900.250; 5618.443
569.470; 6098.685; 6009.495; 5411.875
570.053; 6392.821; 6312.610; 5149.274
570.637; 5434.978; 5194.587; 5122.798
571.220; 6504.849; 6360.649; 4957.369
571.803; 7561.048; 7391.436; 4933.018
572.386; 5810.247; 5532.818; 4840.973
572.969; 5824.739; 5597.191; 4592.886
573.552; 5942.860; 5723.006; 4348.387
574.135; 5418.341; 5165.314; 4002.290
574.718; 5646.994; 5343.841; 3654.773
575.301; 5655.822; 5304.195; 3502.288
575.884; 5664.649; 5264.548; 3349.803
576.467; 7029.833; 6533.687; 3191.403
577.050; 6548.090; 5972.505; 3062.418
577.633; 7830.374; 7248.194; 3214.200
578.216; 6288.309; 5558.591; 3284.889
578.799; 6342.522; 5724.172; 3189.777
579.381; 8242.780; 7434.709; 3064.502
579.964; 6202.568; 5321.185; 2888.357
580.547; 6947.996; 5915.515; 2905.760
581.129; 7974.221; 6835.004; 2966.849
581.712; 7288.248; 6015.829; 2887.292
582.294; 7235.557; 5849.670; 2771.631
582.877; 9049.223; 7448.779; 2711.602
583.459; 7425.837; 5788.865; 2577.049
584.042; 7488.778; 5660.878; 2454.707
584.624; 7257.454; 5359.783; 2305.893
585.206; 6490.803; 4502.581; 2189.546
585.789; 7531.744; 5443.987; 2112.577
586.371; 8320.510; 6153.545; 2153.065
586.953; 8684.409; 6358.040; 2197.806
587.536; 9230.209; 6688.591; 2105.489
588.118; 8293.844; 5611.886; 1963.911
588.700; 9691.882; 6837.664; 1843.179
589.282; 9332.363; 6205.185; 1813.834
589.864; 9202.303; 5914.974; 1777.620
590.446; 8236.361; 4743.410; 1733.780
591.028; 9700.368; 5847.532; 1676.008
591.610; 8983.778; 4786.935; 1631.649
592.192;10442.534; 5910.192; 1632.362
592.774; 9657.300; 5196.694; 1569.507
593.356; 9970.946; 5367.054; 1524.539
593.937;10427.039; 5418.089; 1569.720
594.519;12114.474; 6522.980; 1569.049
595.101;10775.460; 4808.242; 1545.452
595.683;11705.964; 5511.083; 1607.568
596.264;12430.814; 5733.994; 1615.506
596.846;12599.888; 5498.674; 1667.622
597.427;12624.538; 5333.876; 1670.469
598.009;12766.550; 5250.839; 1640.312
598.591;13792.341; 6341.651; 1541.022
599.172;12952.362; 5532.522; 1598.665
599.753;12921.732; 4953.922; 1619.068
600.335;15083.271; 6869.655; 1548.612
600.916;14448.170; 5819.093; 1607.510
601.498;15042.473; 6126.318; 1745.181
602.079;15368.139; 5848.932; 1801.011
602.660;15721.979; 5679.777; 1834.640
603.241;14930.622; 4596.565; 1787.351
603.823;16247.479; 5401.384; 1684.266
604.404;15839.983; 5057.730; 1654.241
604.985;16705.646; 5519.615; 1758.741
605.566;18189.787; 6349.618; 1697.679
606.147;17549.387; 5562.404; 1526.728
606.728;16983.645; 4921.279; 1484.086
607.309;17023.123; 5387.576; 1421.070
607.890;17207.754; 5481.176; 1369.867
608.471;17590.844; 5259.773; 1277.826
609.051;18842.217; 5983.847; 1180.416
609.632;18772.852; 5226.962; 1075.816
610.213;19719.471; 5714.655; 1053.313
610.794;20075.205; 5559.546;  979.442
611.374;21639.699; 6096.424;  917.414
611.955;21164.412; 4899.117;  819.987
612.536;22152.854; 5966.681;  752.627
613.116;22281.848; 5384.559;  690.799
613.697;21935.063; 5447.814;  674.974
614.277;21369.809; 5180.669;  663.846
614.858;20921.041; 5392.605;  665.898
615.438;21557.520; 5736.678;  660.712
616.019;22556.078; 6710.619;  632.732
616.599;20555.105; 4412.995;  551.759
617.179;22595.697; 5059.368;  512.871
617.760;26037.166; 7737.757;  473.655
618.340;24252.225; 5604.474;  440.004
618.920;25659.352; 7001.850;  429.731
619.500;24017.223; 5482.418;  441.361
620.080;23183.127; 5209.867;  425.202
620.660;23149.789; 5209.864;  408.164
621.241;24151.713; 5514.510;  387.161
621.821;25007.479; 5837.731;  378.017
622.401;25705.846; 6505.840;  379.188
622.980;24172.086; 4903.247;  350.019
623.560;24756.818; 5521.576;  336.446
624.140;24584.258; 5821.860;  336.473
624.720;24224.420; 6055.745;  334.974
625.300;23542.168; 5219.824;  325.717
625.880;25225.439; 5700.224;  308.519
626.459;27495.938; 5793.662;  307.117
627.039;28155.553; 4713.355;  290.890
627.619;31137.717; 7367.857;  286.635
628.198;29185.996; 6704.042;  282.535
628.778;28627.121; 6234.745;  285.474
629.357;28488.896; 4963.705;  284.103
629.937;29966.166; 5496.937;  292.178
630.516;30744.037; 7021.999;  290.749
631.096;29715.361; 5324.702;  285.489
631.675;31354.109; 6730.623;  287.022
632.254;29094.977; 5277.350;  286.038
632.834;29302.291; 5700.538;  276.451
633.413;30644.893; 6763.369;  279.447
633.992;30240.680; 6435.574;  264.508
634.571;29491.375; 6147.181;  271.010
635.151;28860.471; 5098.396;  277.338
635.730;30974.293; 5649.313;  289.305
636.309;33258.680; 6052.012;  285.306
636.888;33673.438; 6123.561;  254.051
637.467;31448.857; 4719.208;  230.324
638.046;32994.531; 6942.045;  253.349
638.625;33138.672; 6572.564;  246.866
639.204;34599.176; 5929.069;  240.825
639.782;34479.734; 5700.617;  261.970
640.361;33756.492; 6735.752;  277.780
640.940;31341.490; 5352.780;  270.101
641.519;31989.689; 5966.808;  248.622
642.097;33175.891; 6194.836;  239.843
642.676;34334.590; 5832.864;  244.264
643.255;35180.688; 5595.892;  234.985
643.833;36310.188; 6154.920;  244.406
644.412;35916.086; 5457.948;  244.927
644.990;36032.387; 5847.976;  249.948
645.569;37657.785; 6105.004;  249.569
646.147;40271.086; 6392.032;  243.290
646.726;37563.883; 5870.060;  249.511
647.304;35201.582; 5517.087;  228.032
647.882;34834.383; 4664.116;  214.552
648.461;36927.184; 6009.144;  214.973
649.039;36995.180; 6236.171;  223.394
649.617;36684.082; 6235.199;  261.415
650.195;36708.180; 5901.228;  298.736
650.773;35408.781; 5462.255;  309.557
651.352;34098.379; 4637.283;  297.978
651.930;33144.879; 4530.311;  289.399
652.508;34863.680; 6380.339;  285.620
653.086;35354.277; 6049.367;  272.241
653.663;36477.477; 5267.395;  265.062
654.241;36888.277; 4997.423;  286.083
654.819;36908.676; 5031.451;  286.404
655.397;36309.676; 5128.479;  291.825
655.975;34955.676; 5523.507;  299.145
656.553;35996.473; 6916.535;  288.866
657.130;35696.371; 5139.563;  304.087
657.708;37747.473; 5972.591;  302.908
658.286;37428.473; 5910.619;  294.629
658.863;37655.570; 5878.646;  293.350
659.441;39115.172; 5966.674;  318.671
660.018;38257.371; 5632.703;  333.692
660.596;37172.570; 4648.730;  335.013
661.173;37907.469; 5367.758;  371.534
661.750;37628.668; 5153.786;  365.155
662.328;38431.668; 6199.814;  349.976
662.905;36049.867; 5476.842;  332.997
663.482;34755.367; 5638.870;  321.717
664.060;34319.367; 5282.898;  314.438
664.637;36464.664; 6099.926;  306.259
665.214;37696.164; 5914.954;  314.580
665.791;38050.266; 5540.982;  334.501
666.368;38155.465; 5450.010;  329.222
666.945;38112.563; 6258.038;  342.143
667.522;36248.063; 5207.066;  370.964
668.099;36623.160; 5656.094;  396.885
668.676;37161.262; 5755.122;  391.706
669.253;39426.559; 6928.150;  369.627
669.830;38541.758; 6704.178;  360.348
670.407;37667.160; 5608.206;  344.769
670.984;36801.656; 5627.233;  322.890
671.560;36303.758; 6122.262;  316.910
672.137;35773.355; 5431.290;  322.531
672.714;36989.055; 6147.317;  318.552
673.290;38020.855; 5911.345;  324.473
673.867;38274.656; 5382.373;  340.594
674.443;38416.355; 4994.401;  319.515
675.020;40288.254; 5856.429;  286.336
675.596;38304.852; 5504.457;  247.557
676.173;37265.652; 4908.485;  227.778
676.749;37376.352; 4358.513;  224.399
677.326;37914.352; 4788.541;  230.520
677.902;37917.250; 5177.569;  241.841
678.478;38333.852; 4895.597;  239.762
679.054;42004.449; 8495.625;  248.583
679.631;39061.750; 5984.653;  237.503
680.207;40478.047; 7131.681;  245.924
680.783;38199.047; 4427.708;  224.845
681.359;38970.348; 5552.737;  209.666
681.935;39534.648; 5738.765;  191.687
682.511;38805.445; 5741.792;  210.008
683.087;39795.645; 6086.820;  213.329
683.663;39606.344; 5578.849;  216.850
684.239;38426.742; 4983.876;  229.471
684.815;41048.844; 6294.904;  248.792
685.390;41969.344; 7397.932;  231.813
685.966;40005.742; 5788.960;  221.234
686.542;38563.441; 5068.988;  214.255
687.118;39346.941; 5877.016;  212.276
687.693;39896.742; 6123.044;  233.096
688.269;39761.441; 5556.072;  246.917
688.844;39961.238; 5960.100;  236.938
689.420;38855.340; 5760.128;  242.059
689.995;41255.039; 7042.156;  245.480
690.571;40483.238; 6693.184;  244.701
691.146;38197.438; 5413.212;  251.922
691.722;39241.336; 5927.240;  284.743
692.297;38968.035; 5385.268;  320.664
692.872;39971.434; 5270.295;  313.885
693.448;40857.133; 5038.324;  290.106
694.023;41185.234; 5790.352;  304.327
694.598;41132.133; 5913.379;  319.648
695.173;40644.832; 5416.407;  323.169
695.748;39486.434; 4608.436;  376.389
696.323;39495.930; 5602.463;  397.610
696.898;40006.230; 6660.491;  430.231
697.473;39408.629; 4730.519;  454.952
698.048;40935.930; 5527.547;  478.973
698.623;40740.430; 4907.575;  477.094
699.198;40841.527; 5760.603;  496.915
699.773;40304.227; 5265.631;  490.236
700.348;40052.328; 5032.659;  519.957
700.922;42147.426; 5803.687;  575.678
701.497;41450.426; 5715.715;  621.399
702.072;40992.625; 6345.743;  664.420
702.646;41735.523; 6220.771;  690.541
703.221;41821.023; 5851.799;  748.862
703.795;40515.223; 5075.827;  774.282
704.370;38598.121; 4195.854;  799.803
704.944;38902.922; 5350.882;  875.824
705.519;38695.223; 5917.911;  902.945
706.093;38128.520; 5115.938;  889.266
706.668;39434.820; 5977.966;  903.487
707.242;39721.219; 6229.994;  881.708
707.816;39119.719; 5421.022;  892.329
708.390;40242.719; 5573.050;  970.250
708.965;40651.617; 5894.078;  984.671
709.539;39072.516; 5479.106; 1026.092
710.113;39494.215; 5717.134; 1067.913
710.687;40277.316; 6340.162; 1166.434
711.261;39275.414; 5046.190; 1190.854
711.835;39290.016; 5113.218; 1197.275
712.409;39472.516; 4673.246; 1308.096
712.983;39560.813; 4698.274; 1461.617
713.557;39565.914; 4738.302; 1611.838
714.131;39470.512; 5513.330; 1554.359
714.704;38740.711; 5052.357; 1520.780
715.278;39459.410; 5778.386; 1575.101
715.852;39617.609; 6195.414; 1689.822
716.425;40419.910; 7173.441; 1829.143
716.999;37683.008; 4602.469; 2008.664
717.573;39387.609; 6068.498; 2000.485
718.146;41522.406; 6993.525; 1914.506
718.720;41569.707; 5863.553; 1818.026
719.293;41649.105; 6102.581; 1734.147
719.867;40609.305; 5211.609; 1716.968
720.440;41473.004; 6702.637; 1918.589
721.013;40594.004; 5248.665; 1975.410
721.587;41458.004; 4707.693; 2073.331
722.160;43423.902; 6337.721; 2357.852
722.733;42654.703; 5699.749; 2657.073
723.306;43408.801; 5693.777; 2703.894
723.880;42624.500; 5874.805; 2549.415
724.453;43752.301; 6623.833; 2414.336
725.026;42981.402; 5414.861; 2298.557
725.599;42954.102; 5851.889; 2168.778
726.172;42792.098; 6048.917; 2106.099
726.745;41488.297; 5995.944; 2253.320
727.318;41440.297; 6349.973; 2404.740
727.891;40512.598; 5952.000; 2680.161
728.463;40450.297; 5874.028; 2838.882
729.036;40168.297; 5191.056; 2755.103
729.609;40559.195; 5164.084; 2731.824
730.182;41801.297; 6269.112; 2855.645
730.754;40133.094; 4264.140; 2946.866
731.327;41778.992; 6087.168; 2840.187
731.900;40549.691; 4722.196; 2647.608
732.472;42286.992; 5610.224; 2473.929
733.045;43928.094; 5415.252; 2445.750
733.617;43302.992; 4658.280; 2511.771
734.190;44197.090; 6048.308; 2581.592
734.762;43218.191; 5625.336; 2710.813
735.334;42954.289; 5705.364; 3005.733
735.907;43577.488; 5650.392; 3154.954
736.479;45160.988; 6477.420; 3171.675
737.051;44923.086; 6076.448; 3217.496
737.623;46204.586; 6125.476; 3246.217
738.195;46066.285; 5227.503; 2985.238
738.768;45729.984; 4413.532; 2727.559
739.340;46896.984; 5395.560; 2666.880
739.912;46299.184; 6154.587; 2769.601
740.484;44220.383; 6041.615; 2731.422
741.056;42977.984; 5406.643; 2963.043
741.628;43193.883; 5061.671; 3361.364
742.199;45006.383; 6600.699; 3641.185
742.771;43774.281; 4871.727; 3932.005
743.343;44758.582; 5107.755; 4319.926
743.915;45331.680; 5911.783; 4706.647
744.487;45240.180; 6027.811; 4874.968
745.058;44272.980; 6190.839; 4616.589
745.630;43775.277; 6120.867; 4253.410
746.201;44030.777; 5360.895; 4056.131
746.773;46037.277; 5970.923; 3772.952
747.344;45760.977; 5546.951; 3642.473
747.916;45077.277; 5867.979; 3752.294
748.487;44795.875; 6215.007; 4106.215
749.059;43343.574; 4925.035; 4457.835
749.630;44200.273; 5210.063; 4366.457
750.201;45695.074; 5596.090; 4600.078
750.773;45926.172; 5191.119; 4658.499
751.344;46489.473; 5646.146; 4609.319
751.915;45631.871; 5615.174; 4526.440
752.486;44855.672; 5290.202; 4536.061
753.057;46211.270; 5833.230; 4383.282
753.628;45866.570; 5134.258; 4296.503
754.199;46206.570; 5388.286; 4383.224
754.770;46798.770; 6050.314; 4653.545
755.341;46221.566; 6390.342; 4831.666
755.912;45259.066; 5515.370; 4831.387
756.483;45765.168; 6044.398; 4735.808
757.054;44346.266; 5429.426; 4685.029
757.625;44466.266; 4914.454; 4994.250
758.195;44865.965; 4772.482; 5051.471
758.766;45909.664; 5796.510; 5317.792
759.337;45067.863; 4685.538; 5646.512
759.907;45237.164; 4799.565; 5404.133
760.478;46198.863; 5292.594; 5090.954
761.048;48085.863; 6093.622; 4871.175
761.619;47158.359; 5987.649; 4589.396
762.189;45786.262; 5679.677; 4171.317
762.760;46577.160; 6186.706; 3872.538
763.330;46810.859; 6171.733; 3832.259
763.900;45872.957; 5877.761; 4150.180
764.471;44817.258; 5146.789; 4529.801
765.041;45348.258; 6472.817; 4715.922
765.611;46435.059; 6018.845; 4681.442
766.181;46022.055; 5600.873; 4717.063
766.751;45433.355; 5715.901; 4710.285
767.321;45587.656; 4850.929; 4450.305
767.891;46816.254; 5769.957; 4274.126
768.461;46822.055; 5538.985; 4215.047
769.031;46795.254; 5584.013; 4173.068
769.601;48381.254; 6515.041; 4174.689
770.171;46790.254; 4741.069; 4229.310
770.741;47282.152; 5430.097; 4352.031
771.311;47973.852; 5953.125; 4336.652
771.880;46904.148; 5107.152; 4300.873
772.450;46736.449; 5123.181; 4387.194
773.020;47319.750; 4730.208; 4220.415
773.589;45903.648; 5262.236; 4075.835
774.159;44860.348; 5286.264; 4105.756
774.729;45524.445; 5167.292; 4114.978
775.298;45264.047; 5219.320; 3693.298
775.867;44559.547; 5182.348; 3343.119
776.437;45858.047; 5672.376; 3062.040
777.006;45633.145; 4710.404; 2927.161
777.576;47375.543; 6039.432; 3046.482
778.145;47303.145; 5923.460; 3230.203
778.714;45692.941; 5528.488; 3253.324
779.283;44892.141; 5999.516; 3129.745
779.853;43774.742; 5550.544; 2983.566
780.422;44576.441; 5521.572; 2929.887
780.991;45377.039; 5881.600; 2863.908
781.560;45542.641; 6633.627; 2948.029
782.129;45497.938; 5883.656; 3074.149
782.698;45675.840; 6520.684; 2893.970
783.267;43070.438; 5196.711; 2721.391
783.836;44266.238; 5872.739; 2659.712
784.404;44305.836; 4896.768; 2622.233
784.973;44828.535; 4159.795; 2600.754
785.542;46606.637; 5541.823; 2528.475
786.111;46609.535; 6351.851; 2404.396
786.679;45198.633; 6007.879; 2365.717
787.248;42534.734; 4763.907; 2498.438
787.817;43183.734; 5303.935; 2645.659
788.385;44898.031; 6374.963; 2709.280
788.954;42818.332; 4857.991; 2620.500
789.522;44768.332; 6116.019; 2625.422
790.090;44668.332; 4816.047; 2743.843
790.659;45051.531; 5358.075; 2635.163
791.227;44291.328; 5509.103; 2495.484
791.795;44684.629; 5819.131; 2413.705
792.364;43009.328; 5044.159; 2345.326
792.932;43389.527; 5996.187; 2350.447
793.500;42926.828; 5421.214; 2429.768
794.068;42358.727; 4762.243; 2513.589
794.636;42355.027; 5129.271; 2664.310
795.204;40705.824; 4580.298; 2721.431
795.772;39660.125; 5100.326; 2802.052
796.340;40069.523; 5282.354; 2847.173
796.908;41165.922; 4563.382; 2997.194
797.476;41961.723; 4974.410; 3151.615
798.044;41584.723; 4456.438; 3110.735
798.612;42098.922; 5530.466; 2931.656
799.180;41997.422; 5639.494; 2785.777
799.747;41625.520; 5565.522; 2899.098
800.315;41071.320; 4923.550; 2955.519
800.883;41409.418; 4500.578; 2948.940
801.450;42508.719; 5537.606; 2965.361
802.018;43724.020; 5867.634; 3070.582
802.585;42696.816; 5644.662; 3156.103
803.153;40558.418; 5139.690; 3199.524
803.720;40196.316; 5170.718; 3168.845
804.287;40330.316; 5380.746; 3248.366
804.855;40844.516; 6321.773; 3406.187
805.422;40883.016; 5458.802; 3430.907
805.989;40242.113; 5009.830; 3453.528
806.556;40150.211; 5021.857; 3612.649
807.124;42083.414; 6214.885; 3736.570
807.691;41507.012; 4934.913; 3770.491
808.258;43281.109; 5577.941; 3705.012
808.825;42773.711; 6156.969; 3828.733
809.392;41726.211; 6660.997; 3986.754
809.959;41488.609; 5870.025; 4410.075
810.526;42242.109; 6678.053; 4774.996
811.093;41449.809; 6331.081; 4754.217
811.659;39964.207; 5531.109; 4661.238
812.226;39363.809; 5491.137; 4672.559
812.793;40284.906; 5759.165; 4822.979
813.360;40696.605; 5529.193; 5189.800
813.926;40979.105; 5868.221; 5310.622
814.493;39483.105; 4764.249; 5414.542
815.060;39146.703; 4516.277; 5548.963
815.626;37993.305; 4878.305; 5452.284
816.193;39523.004; 5715.333; 5339.305
816.759;39176.703; 5068.360; 5544.426
817.325;38434.602; 4486.389; 5706.547
817.892;39938.102; 6140.417; 5623.468
818.458;39776.898; 5899.444; 5586.689
819.024;38981.098; 6416.472; 5647.910
819.591;37882.898; 5628.500; 5762.031
820.157;37327.500; 4825.528; 6284.452
820.723;38867.797; 5904.556; 6906.973
821.289;41657.695; 8526.584; 7086.894
821.855;38610.496; 6078.612; 7054.915
822.421;37366.695; 5236.640; 7112.035
822.987;36070.895; 4891.668; 7256.156
823.553;36440.793; 5402.696; 7538.077
824.119;37287.492; 6121.724; 7594.298
824.685;36794.094; 6437.752; 7613.619
825.251;36199.191; 6140.780; 7644.140
825.816;36552.992; 6810.808; 7720.261
826.382;36064.391; 6051.835; 8014.282
826.948;35574.191; 6131.864; 8281.503
827.513;34115.988; 5517.892; 8289.624
828.079;34062.789; 4962.919; 8587.045
828.645;35956.988; 5791.947; 8821.865
829.210;34485.590; 4944.976; 9054.486
829.776;33986.586; 5965.003; 9054.607
830.341;32836.688; 6112.031; 9415.628
830.906;32484.287; 6304.059; 9932.449
831.472;31021.285; 5191.087;10150.271
832.037;32758.484; 6249.115; 9420.391
832.602;31100.584; 5259.143; 8664.912
833.167;30999.584; 5773.171; 8491.933
833.733;31152.383; 6187.199; 8872.854
834.298;28955.684; 4952.227; 9370.575
834.863;29707.281; 5789.255; 9610.695
835.428;29498.281; 5814.283; 9655.616
835.993;29799.682; 5997.311; 9437.838
836.558;29505.881; 6102.339; 9441.459
837.123;31584.180; 7443.367; 9600.979
837.688;29716.479; 5851.395; 9798.301
838.253;29052.479; 5924.422; 9902.921
838.817;27666.377; 5479.451;10339.742
839.382;28436.178; 6624.479;10548.363
839.947;26889.076; 5688.506;10252.484
840.511;27678.977; 6782.534;10040.005
841.076;25036.475; 4509.563;10099.926
841.641;26625.375; 6094.590;10347.347
842.205;27123.074; 5963.618;10817.368
842.770;27999.074; 6893.646;11435.289
843.334;26173.572; 5488.674;12072.409
843.898;26033.873; 5343.702;12635.431
844.463;26624.072; 6616.730;12537.252
845.027;24844.271; 5346.758;12759.673
845.591;25395.371; 6343.786;12821.993
846.156;25439.270; 5323.814;12520.914
846.720;25722.170; 6234.842;12390.436
847.284;24694.068; 5813.870;12956.456
847.848;24383.768; 6032.897;13240.177
848.412;23419.568; 5724.926;13216.998
848.976;24716.268; 6794.954;13014.619
849.540;24611.266; 7300.981;12355.740
850.104;23443.465; 6636.009;12208.761
850.668;21200.564; 4616.038;12106.882
851.232;21113.465; 4750.065;11862.103
851.796;22160.863; 5667.093;11700.523
852.359;22723.063; 6274.121;12375.944
852.923;22623.563; 6409.149;13087.966
853.487;22448.361; 6105.177;13297.187
854.050;20163.461; 3908.205;13851.207
854.614;21468.361; 5469.233;14854.229
855.177;21703.760; 5886.261;15802.149
855.741;21423.660; 6060.289;16603.570
856.304;21216.959; 6370.317;16359.891
856.868;19356.658; 5105.345;14365.512
857.431;19486.059; 5712.373;13361.333
857.995;19602.156; 5462.401;14130.554
858.558;19925.957; 5915.429;14883.175
859.121;20362.955; 6254.457;15754.195
859.684;20430.654; 5904.484;15995.017
860.247;19743.154; 5695.513;15149.537
860.810;18738.154; 5400.541;14640.358
861.374;20576.053; 7459.568;15551.079
861.937;18452.652; 4998.596;16519.801
862.500;18806.553; 5339.625;16796.521
863.062;18500.252; 5105.652;16538.742
863.625;19019.051; 5921.680;16716.764
864.188;18346.951; 5397.708;17055.084
864.751;17860.949; 5356.736;17197.705
865.314;17847.449; 5761.764;17151.625
865.876;17965.549; 6364.792;17783.547
866.439;17597.748; 6196.820;19283.467
867.002;18730.848; 7174.848;20256.389
867.564;18080.346; 6441.876;20485.410
868.127;17272.047; 5718.904;20789.730
868.689;17676.145; 5961.932;21981.951
869.252;17861.346; 6425.960;23803.771
869.814;16341.944; 5230.988;24974.094
870.377;16746.443; 5923.016;24690.314
870.939;19108.242; 8317.044;23963.436
871.501;16414.543; 5897.071;25167.156
872.063;14928.441; 4221.100;26995.477
872.626;15063.041; 4647.127;27443.098
873.188;16144.940; 5921.155;26718.418
873.750;15694.439; 5674.183;26558.840
874.312;15324.039; 5388.211;26701.561
874.874;16704.039; 6898.239;27970.582
875.436;16118.938; 6221.267;29173.402
875.998;16431.838; 6734.295;30376.623
876.560;15835.137; 6397.323;32507.344
877.122;14639.736; 5260.351;34833.066
877.683;15232.535; 6151.379;36458.285
878.245;14091.835; 5376.407;37248.207
878.807;14588.935; 6031.435;36758.027
879.369;13564.834; 4942.463;35223.551
879.930;13494.133; 5136.491;33824.969
880.492;14666.933; 6573.519;34436.492
881.053;13072.832; 5102.547;37745.313
881.615;13220.432; 5391.575;41184.633
882.176;13364.631; 5567.603;42871.555
882.738;13986.130; 6274.630;41693.074
883.299;12224.029; 4460.659;40289.895
883.860;11938.629; 4709.687;39231.215
884.422;13153.128; 6181.714;38264.039
884.983;11858.827; 5033.742;37171.859
885.544;12567.927; 5855.770;35842.379
886.105;12105.427; 5720.798;34810.000
886.666;11532.126; 5336.826;34519.020
887.227;10690.325; 4744.854;33905.641
887.788;11693.425; 5936.882;34502.965
888.349;10451.824; 4873.910;34241.785
888.910;11601.423; 6124.938;33722.203
889.471;11087.022; 5846.966;32539.625
890.032;10762.622; 5702.994;31528.346
890.593;11060.722; 6083.022;32655.068
891.153;10358.721; 5645.050;33882.289
891.714; 9458.521; 4819.078;33318.711
892.275; 9431.420; 5036.105;31848.930
892.835;10548.019; 6330.134;30339.752
893.396;10293.519; 6260.162;30074.973
893.956; 9365.118; 5605.189;30338.393
894.517; 9489.018; 5858.217;30864.113
895.077; 9468.517; 5932.246;29766.734
895.638;10216.316; 6897.273;26379.557
896.198; 8152.615; 5026.301;24056.277
896.758; 9221.114; 6261.329;22961.898
897.319; 8437.814; 5611.357;21772.020
897.879; 8346.014; 5714.385;20877.539
898.439; 7320.313; 4747.413;19509.461
898.999; 8702.612; 6119.441;17297.582
899.559; 8567.812; 6037.469;14712.002
900.119; 7446.511; 5084.497;12790.224
900.679; 8971.311; 6747.525;11586.744
901.239; 8256.010; 6168.553;10776.465
901.799; 7768.009; 5786.581; 9691.687
902.359; 7102.509; 5185.609; 8725.907
902.919; 6920.908; 5054.637; 8305.728
903.479; 6916.807; 5046.665; 8172.649
904.038; 6579.507; 4968.692; 7913.870
904.598; 5871.206; 4259.721; 7262.291
905.158; 6910.306; 5435.749; 6609.012
905.717; 7126.905; 5623.776; 6236.133
906.277; 7188.304; 5717.804; 5829.054
906.836; 7504.104; 6056.833; 5396.674
907.396; 7332.403; 6052.860; 4964.195
907.955; 7398.103; 5980.888; 4528.917
908.515; 6770.402; 5444.916; 4223.837
909.074; 6799.901; 5481.944; 4023.958
909.633; 6766.301; 5518.972; 4065.379
910.192; 8148.500; 6941.000; 4066.300
910.752; 6690.100; 5503.000; 3971.600
911.311; 6596.700; 5417.000; 3839.600
911.870; 6363.700; 5136.000; 3684.500
912.429; 7545.900; 6432.000; 3635.600
912.988; 7428.000; 6289.000; 3689.800
913.547; 6217.900; 5102.000; 3737.700
914.106; 6892.400; 5755.000; 3740.300
914.665; 6811.100; 5731.000; 3604.600
915.224; 7461.400; 6407.000; 3358.700
915.782; 6389.100; 5305.000; 3188.400
916.341; 7641.100; 6542.000; 3091.400
916.900; 6442.800; 5490.000; 3044.800
917.458; 6181.000; 5238.000; 2888.600
918.017; 6783.900; 5768.000; 2818.900
918.576; 6473.600; 5455.000; 2838.600
919.134; 5807.700; 4788.000; 2880.100
919.693; 6446.000; 5332.000; 2996.300
920.251; 6344.700; 5290.000; 3183.100
920.809; 5977.600; 4913.000; 3247.000
921.368; 6327.200; 5358.000; 3156.600
921.926; 6119.300; 5063.000; 2964.900
922.484; 6677.200; 5701.000; 2846.300
923.042; 6482.600; 5468.000; 2890.400
923.601; 7637.500; 6575.000; 2987.700
924.159; 7040.800; 6004.000; 3049.800
924.717; 6098.600; 5018.000; 3087.000
925.275; 6742.700; 5673.000; 3093.400
925.833; 5580.800; 4503.000; 3182.400
926.391; 7053.700; 5982.000; 3397.900
926.949; 6393.700; 5315.000; 3575.400
927.506; 6843.300; 5692.000; 3713.400
928.064; 6511.700; 5391.000; 3871.300
928.622; 6637.000; 5544.000; 4092.800
929.180; 5990.800; 4740.000; 4499.300
929.737; 5907.100; 4678.000; 4813.200
930.295; 7136.800; 5971.000; 5084.100
930.853; 6322.800; 5176.000; 5185.000
931.410; 6033.300; 4811.000; 5313.100
931.968; 7227.900; 5977.000; 5339.600
932.525; 6815.300; 5604.000; 5399.900
933.082; 5962.500; 4724.000; 5457.500
933.640; 7077.600; 5779.000; 5692.900
934.197; 6602.600; 5288.000; 5821.200
934.754; 6668.400; 5389.000; 5617.900
935.312; 6416.400; 5035.000; 5512.400
935.869; 7836.400; 6473.000; 5582.400
936.426; 6436.400; 5084.000; 5650.100
936.983; 6605.200; 5351.000; 5657.400
937.540; 6078.400; 4795.000; 5564.300
938.097; 7125.400; 5766.000; 5574.000
938.654; 6614.500; 5205.000; 5665.900
939.211; 7165.200; 5747.000; 5931.600
939.768; 6828.300; 5454.000; 6153.600
940.324; 6656.200; 5260.000; 6397.600
940.881; 6410.900; 5026.000; 6454.200
941.438; 7724.700; 6321.000; 6206.900
941.995; 7487.400; 6088.000; 6003.900
942.551; 6240.600; 4826.000; 6228.300
943.108; 6773.000; 5493.000; 6603.500
943.664; 6243.400; 4808.000; 7188.100
944.221; 8320.500; 6963.000; 7579.900
944.777; 6216.500; 4769.000; 7658.100
945.334; 6350.400; 4926.000; 7670.400
945.890; 6903.900; 5499.000; 7525.100
946.446; 6970.500; 5661.000; 7261.500
947.003; 7178.100; 5720.000; 6949.200
947.559; 8025.000; 6597.000; 6773.100
948.115; 7629.800; 6184.000; 6668.400
948.671; 7123.200; 5716.000; 6488.400
949.227; 6026.600; 4637.000; 6236.600
949.783; 5911.000; 4555.000; 6008.900
950.339; 7138.800; 5763.000; 5934.100
950.895; 7527.300; 6155.000; 5933.500
951.451; 6598.200; 5281.000; 6074.700
952.007; 7264.900; 5873.000; 6066.400
952.563; 6592.700; 5328.000; 5884.100
953.118; 6395.300; 5100.000; 5733.800
953.674; 6802.800; 5522.000; 5734.300
954.230; 6802.200; 5449.000; 6039.700
954.785; 6752.700; 5377.000; 6383.500
955.341; 7313.300; 5957.000; 6568.200
955.897; 5867.800; 4541.000; 6488.600
956.452; 7014.900; 5608.000; 6239.200
957.008; 8391.300; 7065.000; 5954.600
957.563; 7642.000; 6359.000; 5816.700
958.118; 6314.800; 5037.000; 5828.200
958.674; 6889.800; 5597.000; 5717.400
959.229; 7672.700; 6411.000; 5506.800
959.784; 6002.700; 4679.000; 5292.200
960.339; 7680.300; 6396.000; 5101.900
960.894; 7264.300; 5933.000; 5093.200
961.449; 6233.600; 4985.000; 5227.900
962.004; 9705.800; 8506.000; 5349.300
962.559; 6334.800; 5074.000; 5514.900
963.114; 5218.900; 3947.000; 5717.300
963.669; 6799.400; 5523.000; 5841.400
964.224; 6479.300; 5243.000; 5805.900
964.779; 6050.400; 4846.000; 5723.400
965.334; 7615.700; 6456.000; 5779.500
965.888; 6389.900; 5158.000; 5948.500
966.443; 7359.300; 6152.000; 6344.200
966.998; 5775.800; 4528.000; 6666.300
967.552; 6649.100; 5558.000; 6710.100
968.107; 6327.800; 5157.000; 6593.500
968.661; 6852.200; 5652.000; 6344.100
969.216; 6222.000; 5033.000; 6062.400
969.770; 6847.600; 5711.000; 5785.500
970.324; 6862.700; 5736.000; 5426.800
970.879; 7168.500; 6085.000; 5016.800
971.433; 7216.500; 6137.000; 4904.500
971.987; 6701.300; 5551.000; 4991.000
972.541; 6925.500; 5804.000; 4978.500
973.095; 7741.800; 6695.000; 4832.000
973.649; 5830.700; 4743.000; 4767.900
974.203; 5997.300; 4999.000; 4881.200
974.757; 6221.100; 5146.000; 4969.500
975.311; 6474.500; 5507.000; 4953.000
975.865; 6511.800; 5512.000; 4884.300
976.419; 6322.300; 5308.000; 4739.800
976.973; 6220.100; 5164.000; 4698.100
977.526; 7249.100; 6270.000; 4631.100
978.080; 5732.400; 4752.000; 4621.600
978.634; 6923.500; 5983.000; 4650.200
979.187; 6789.500; 5837.000; 4669.200
979.741; 7891.400; 6893.000; 4658.000
980.294; 5746.900; 4800.000; 4579.100
980.848; 5074.800; 4141.000; 4452.800
981.401; 6088.100; 5098.000; 4271.900
981.955; 6388.400; 5559.000; 4087.800
982.508; 5421.500; 4589.000; 3973.900
983.061; 7101.300; 6233.000; 3928.600
983.615; 5840.900; 5011.000; 3851.200
984.168; 5641.600; 4774.000; 3734.800
984.721; 6703.000; 5824.000; 3628.300
985.274; 6560.100; 5695.000; 3564.300
985.827; 6300.600; 5545.000; 3558.100
986.380; 5220.600; 4362.000; 3559.900
986.933; 6546.900; 5820.000; 3688.700
987.486; 6561.600; 5769.000; 3778.500
988.039; 6513.100; 5766.000; 3559.900
988.591; 6911.600; 6199.000; 3219.300
989.144; 5425.800; 4702.000; 2902.900
989.697; 5708.300; 4951.000; 2722.600
990.250; 6677.300; 5977.000; 2618.000
990.802; 5699.000; 4954.000; 2523.900
991.355; 7881.400; 7290.000; 2436.500
991.907; 6817.900; 6210.000; 2412.200
992.460; 5754.400; 5130.000; 2387.900
993.012; 5764.900; 5177.000; 2365.800
993.565; 5413.900; 4838.000; 2311.100
994.117; 7671.100; 7118.000; 2308.700
994.669; 5434.700; 4789.000; 2249.300
995.221; 6300.200; 5730.000; 2158.100
995.774; 6226.300; 5661.000; 2085.600
996.326; 5785.900; 5310.000; 2068.100
996.878; 6810.100; 6288.000; 1975.300
997.430; 5479.600; 5001.000; 1929.500
997.982; 6005.000; 5514.000; 1861.900
998.534; 5938.200; 5395.000; 1830.200
999.086; 5907.600; 5486.000; 1823.200
999.638; 5148.400; 4617.000; 1815.000
1000.190; 5625.500; 5201.000; 1796.600
1000.741; 6006.700; 5618.000; 1738.800
1001.293; 5458.600; 4958.000; 1666.200
1001.845; 5455.200; 4936.000; 1566.500
1002.396; 6050.900; 5683.000; 1471.900
1002.948; 6009.400; 5585.000; 1398.000
1003.500; 5890.300; 5384.000; 1356.500
1004.051; 7809.500; 7408.000; 1294.200
1004.603; 6677.800; 6321.000; 1190.000
1005.154; 4901.500; 4622.000; 1063.900
1005.705; 6000.900; 5715.000;  968.300
1006.257; 5903.300; 5621.000;  889.800
1006.808; 5751.600; 5409.000;  801.500
1007.359; 6536.700; 6277.000;  716.400
1007.910; 5404.000; 5166.000;  639.100
1008.461; 6271.400; 6046.000;  561.600
1009.013; 4859.500; 4631.000;  500.400
1009.564; 6850.700; 6641.000;  476.100
1010.115; 4925.500; 4749.000;  431.600
1010.665; 5032.900; 4862.000;  409.300
1011.216; 5653.400; 5486.000;  399.700
1011.767; 5909.000; 5682.000;  388.100
1012.318; 6157.100; 5979.000;  381.400
1012.869; 5687.500; 5469.000;  375.400
1013.419; 5018.600; 4882.000;  357.600
1013.970; 5671.500; 5508.000;  358.300
1014.521; 5176.400; 4920.000;  344.100
1015.071; 5726.800; 5526.000;  322.800
1015.622; 5344.900; 5173.000;  320.600
1016.172; 4991.600; 4798.000;  301.700
1016.723; 5164.200; 4985.000;  289.800
1017.273; 5099.600; 4919.000;  287.600
1017.823; 5524.000; 5266.000;  278.700
1018.374; 5185.500; 5017.000;  274.400
1018.924; 6202.300; 6026.000;  283.200
1019.474; 6067.400; 5935.000;  278.500
1020.024; 5559.300; 5446.000;  274.700
1020.574; 6240.600; 6046.000;  272.700
1021.124; 5795.200; 5659.000;  278.400
1021.674; 4686.100; 4550.000;  269.200
1022.224; 6147.300; 6058.000;  267.800
1022.774; 5677.200; 5508.000;  258.100
1023.324; 6572.900; 6390.000;  260.000
1023.874; 7788.900; 7690.000;  260.700
1024.423; 5227.800; 5024.000;  252.700
1024.973; 5060.700; 4838.000;  234.700
1025.523; 5279.600; 5137.000;  226.500
1026.072; 5193.000; 5038.000;  225.500
1026.622; 5802.500; 5608.000;  210.100
1027.172; 6175.600; 6037.000;  213.000
1027.721; 5094.600; 4936.000;  207.700
1028.270; 5754.400; 5591.000;  205.400
1028.820; 5502.200; 5374.000;  201.000
1029.369; 5257.100; 5199.000;  201.000
1029.918; 5545.000; 5341.000;  198.400
1030.468; 4769.700; 4593.000;  199.200
1031.017; 5464.500; 5332.000;  192.600
1031.566; 5214.000; 5112.000;  197.400
1032.115; 6048.800; 5870.000;  188.300
1032.664; 5151.700; 4961.000;  193.700
1033.213; 6426.200; 6321.000;  191.900
1033.762; 5499.400; 5365.000;  184.500
1034.311; 5831.700; 5729.000;  194.300
1034.860; 6000.800; 5882.000;  192.300
1035.408; 6346.800; 6205.000;  182.600
1035.957; 6249.000; 6129.000;  173.900
1036.506; 4462.000; 4341.000;  185.200
1037.055; 7486.800; 7433.000;  182.500
1037.603; 5765.300; 5562.000;  167.600
1038.152; 4473.200; 4363.000;  168.200
1038.700; 4968.000; 4879.000;  169.600
1039.249; 5902.000; 5805.000;  164.300
1039.797; 5513.800; 5351.000;  169.600
1040.345; 6132.700; 6042.000;  167.100
1040.894; 5438.800; 5358.000;  164.400
1041.442; 5506.700; 5318.000;  158.300
1041.990; 4831.200; 4711.000;  160.000
1042.538; 4580.900; 4442.000;  156.800
1043.087; 4847.600; 4622.000;  146.600
1043.635; 5958.000; 5900.000;  162.400
1044.183; 5113.100; 4946.000;  156.300
1044.731; 4946.200; 4900.000;  158.100
1045.279; 5916.200; 5836.000;  154.500
1045.827; 8035.000; 7934.000;  146.200
1046.374; 4354.000; 4281.000;  154.000
1046.922; 5090.400; 5002.000;  149.000
1047.470; 6071.200; 5941.000;  154.900
1048.018; 5716.500; 5569.000;  148.400
1048.565; 6306.200; 6230.000;  146.300
1049.113; 4768.600; 4693.000;  156.100
1049.660; 5446.100; 5334.000;  154.300
1050.208; 5928.400; 5811.000;  149.400
1050.755; 5280.600; 5115.000;  157.500
1051.303; 6063.900; 5906.000;  157.700
1051.850; 5517.200; 5349.000;  152.800
1052.397; 4021.500; 3904.000;  146.300
1052.945; 5408.200; 5306.000;  149.500
1053.492; 6564.900; 6448.000;  149.300
1054.039; 6404.900; 6276.000;  163.100
1054.586; 4828.100; 4669.000;  150.400
1055.133; 6173.900; 6065.000;  153.500
1055.680; 5669.400; 5558.000;  155.600
1056.227; 4652.400; 4517.000;  148.700
1056.774; 7105.800; 7027.000;  151.500
1057.321; 4485.800; 4417.000;  143.700
1057.868; 5694.900; 5537.000;  145.300
1058.415; 5775.800; 5620.000;  153.500
1058.961; 5950.200; 5887.000;  149.900
1059.508; 5649.200; 5514.000;  147.300
1060.055; 5110.100; 4957.000;  151.000
1060.601; 5417.200; 5313.000;  148.700
1061.148; 5504.600; 5405.000;  153.800
1061.694; 5215.400; 5146.000;  150.500
1062.241; 5199.000; 5032.000;  149.100
1062.787; 5898.600; 5747.000;  153.000
1063.334; 7196.000; 7001.000;  153.200
1063.880; 5957.800; 5827.000;  148.400
1064.426; 6313.100; 6202.000;  149.200
1064.972; 5237.900; 5161.000;  156.400
1065.518; 4945.500; 4912.000;  144.700
1066.065; 5565.200; 5581.000;  139.400
1066.611; 5280.500; 5178.000;  139.300
1067.157; 5650.000; 5532.000;  138.400
1067.703; 5968.500; 5887.000;  142.700
1068.249; 5214.700; 5113.000;  136.700
1068.794; 5536.500; 5423.000;  139.400
1069.340; 5072.400; 5006.000;  142.700
1069.886; 5238.100; 5117.000;  135.600
1070.432; 4692.800; 4606.000;  133.400
1070.977; 5313.800; 5135.000;  138.200
1071.523; 4929.700; 4894.000;  132.400
1072.068; 5067.700; 4936.000;  132.700
1072.614; 4547.000; 4503.000;  127.000
1073.160; 6182.000; 6090.000;  131.300
1073.705; 5046.900; 5030.000;  135.700
1074.250; 4905.800; 4904.000;  133.000
1074.796; 5835.600; 5771.000;  138.000
1075.341; 5866.200; 5822.000;  137.300
1075.886; 5156.600; 4986.000;  134.300
1076.431; 5851.900; 5812.000;  138.200
1076.976; 5742.700; 5633.000;  132.200
1077.521; 5116.700; 5046.000;  138.900
1078.067; 5129.100; 5050.000;  128.600
1078.612; 5934.200; 5886.000;  138.900
1079.156; 5322.900; 5189.000;  128.900
1079.701; 6203.700; 6155.000;  129.700
1080.246; 6236.600; 6178.000;  128.600
1080.791; 5611.900; 5562.000;  122.600
1081.336; 5881.300; 5852.000;  122.000
1081.880; 5807.200; 5717.000;  123.900
1082.425; 5039.500; 4948.000;  120.600
1082.970; 6422.800; 6384.000;  124.500
1083.514; 5284.000; 5162.000;  112.000
1084.059; 5179.900; 5063.000;  120.700
1084.603; 5024.800; 4893.000;  116.000
1085.147; 5779.300; 5713.000;  116.300
1085.692; 6486.200; 6383.000;  108.200
1086.236; 4442.000; 4346.000;  114.600
1086.780; 6801.600; 6644.000;  118.900
1087.325; 5859.500; 5849.000;  120.400
1087.869; 5479.000; 5459.000;  110.500
1088.413; 6302.300; 6238.000;  114.000
1088.957; 4728.300; 4614.000;  114.300
1089.501; 6964.900; 6857.000;  114.600
1090.045; 6582.200; 6559.000;  114.200
1090.589; 5030.300; 4966.000;  105.500
1091.133; 6020.400; 5902.000;  111.800
1091.676; 5240.200; 5140.000;  110.900
1092.220; 5352.800; 5377.000;  110.100
1092.764; 6354.000; 6290.000;  108.100
1093.307; 6072.400; 5998.000;  109.900
1093.851; 4957.800; 4870.000;  107.500
1094.395; 6167.000; 6119.000;   96.200
1094.938; 5654.900; 5617.000;   99.300
1095.482; 4958.200; 4918.000;   97.700
1096.025; 6416.800; 6310.000;   84.900
1096.568; 7033.600; 6932.000;   88.500
1097.112; 4427.500; 4354.000;   95.700
1097.655; 5307.300; 5181.000;   97.300
1098.198; 5309.200; 5278.000;   92.600
1098.741; 5543.700; 5520.000;   91.800
1099.285; 5874.100; 5763.000;   88.000
1099.828; 3845.400; 3796.000;   91.700
1100.371; 5501.300; 5383.000;   89.900
1100.914; 6184.400; 6094.000;   91.500
1101.457; 6104.500; 6083.000;   88.100
1101.999; 5177.100; 5084.000;   86.400
1102.542; 5699.200; 5645.000;   90.800
1103.085; 5982.100; 5802.000;   95.400
1103.628; 6963.600; 6918.000;   97.700
1104.170; 5229.100; 5102.000;   84.000
1104.713; 5795.000; 5745.000;   93.900
1105.256; 4929.400; 4875.000;   93.000
1105.798; 4449.600; 4434.000;   85.600
1106.341; 6613.200; 6532.000;   87.100
1106.883; 4656.300; 4570.000;   85.200
1107.425; 6059.400; 6045.000;   85.000
1107.968; 5576.000; 5472.000;   84.300
1108.510; 6180.900; 6108.000;   88.200
1109.052; 5596.100; 5533.000;   86.600
1109.594; 5056.500; 4946.000;   79.400
1110.136; 5839.600; 5831.000;   81.700
1110.679; 5651.800; 5623.000;   75.500
1111.221; 5490.800; 5411.000;   88.500
1111.763; 4979.800; 4911.000;   87.700
1112.304; 4893.600; 4854.000;   89.700
1112.846; 6051.900; 5956.000;   81.900
1113.388; 8743.900; 8762.000;   86.400
1113.930; 6300.800; 6282.000;   84.700
1114.472; 5518.600; 5366.000;   78.900
1115.013; 4947.600; 4872.000;   78.100
1115.555; 5337.300; 5271.000;   84.900
1116.097; 5193.500; 5162.000;   79.200
1116.638; 6275.300; 6142.000;   83.700
1117.180; 6019.600; 5892.000;   85.500
1117.721; 5144.500; 5089.000;   78.800
1118.262; 6160.600; 6168.000;   77.400
1118.804; 5753.900; 5668.000;   81.400
1119.345; 5255.400; 5154.000;   77.800
1119.886; 6419.800; 6365.000;   81.200
1120.427; 5333.600; 5263.000;   77.200
1120.969; 5447.700; 5361.000;   75.200
1121.510; 5077.900; 5095.000;   80.900
1122.051; 6598.100; 6478.000;   77.300
1122.592; 6005.500; 5955.000;   73.300
1123.133; 4933.900; 4880.000;   90.100
1123.673; 6472.000; 6445.000;   75.000
1124.214; 5552.200; 5548.000;   80.600
1124.755; 5899.300; 5830.000;   78.000
1125.296; 5641.900; 5628.000;   77.500
1125.836; 6290.200; 6237.000;   80.400
1126.377; 5460.300; 5435.000;   75.600
1126.918; 5575.700; 5571.000;   78.900
1127.458; 5695.100; 5616.000;   78.000
1127.999; 6015.100; 5905.000;   76.100
1128.539; 6343.300; 6283.000;   81.400
1129.079; 5786.900; 5794.000;   77.400
1129.620; 5053.200; 5066.000;   68.000
1130.160; 4875.300; 4819.000;   77.500
1130.700; 5830.300; 5809.000;   76.300
1131.240; 5879.100; 5810.000;   66.800
1131.781; 5684.600; 5572.000;   70.600
1132.321; 5470.700; 5434.000;   77.200
1132.861; 5077.500; 4954.000;   70.400
1133.401; 5417.100; 5415.000;   68.700
1133.941; 5715.100; 5752.000;   68.500
1134.481; 5477.600; 5399.000;   75.900
1135.020; 5536.800; 5478.000;   66.600
1135.560; 6156.100; 6106.000;   68.100
1136.100; 4512.100; 4466.000;   64.900
1136.640; 4631.400; 4595.000;   72.500
1137.179; 4827.100; 4772.000;   69.700
1137.719; 5545.800; 5456.000;   68.400
1138.258; 5323.000; 5364.000;   67.000
1138.798; 6013.600; 5978.000;   69.600
1139.337; 4336.100; 4292.000;   64.000
1139.877; 5843.000; 5855.000;   64.500
1140.416; 8062.200; 8129.000;   74.900
1140.955; 4817.200; 4763.000;   67.200
1141.494; 6193.900; 6114.000;   69.900
1142.034; 5351.200; 5349.000;   59.100
1142.573; 5914.000; 5846.000;   65.900
1143.112; 5033.500; 4973.000;   70.600
1143.651; 4867.700; 4810.000;   67.100
1144.190; 6377.600; 6414.000;   56.700
1144.729; 5538.000; 5553.000;   61.800
1145.267; 5306.900; 5202.000;   62.500
1145.806; 5818.400; 5715.000;   68.500
1146.345; 5889.900; 5888.000;   58.300
1146.884; 5757.100; 5660.000;   63.100
1147.422; 4826.600; 4811.000;   54.800
1147.961; 6529.500; 6432.000;   67.600
1148.500; 6131.800; 6104.000;   64.700
1149.038; 5851.800; 5811.000;   61.000
1149.577; 6436.300; 6411.000;   65.100
1150.115; 4065.600; 3998.000;   58.100
1150.653; 5576.300; 5591.000;   60.500
1151.192; 5064.100; 5061.000;   56.600
1151.730; 6036.600; 5962.000;   62.300
1152.268; 5383.200; 5302.000;   55.500
1152.806; 5266.100; 5130.000;   58.200
1153.344; 5250.300; 5204.000;   55.000
1153.882; 5434.400; 5389.000;   64.200
1154.421; 4226.800; 4188.000;   60.300
1154.958; 5529.000; 5482.000;   58.100
1155.496; 5908.900; 5874.000;   55.800
1156.034; 6664.200; 6597.000;   61.000
1156.572; 6162.700; 6053.000;   56.200
1157.110; 4288.400; 4289.000;   53.200
1157.647; 6220.600; 6224.000;   57.400
1158.185; 5195.500; 5144.000;   55.500
1158.723; 4651.200; 4643.000;   58.000
1159.260; 6423.200; 6461.000;   53.700
1159.798; 6073.000; 6045.000;   51.700
1160.335; 5823.500; 5797.000;   59.600

