
Integration time [ms]:   3.276
Averaging Nr. [scans]: 1000
Smoothing Nr. [pixels]: 0
Data measured with spectrometer [name]: 7414430SP
Wave   ;Sample   ;Dark     ;Reference
[nm]   ;[counts] ;[counts] ;[counts] 

288.544;  161.127;    7.793;  793.890
289.143;  165.040;    7.462;  681.602
289.742;  164.964;    8.602;  828.814
290.341;  150.055;    1.321;  789.841
290.940;  141.690;   -0.709;  730.702
291.538;  145.566;    0.881;  881.108
292.137;  144.399;    0.122;  792.581
292.736;  145.131;   -1.929;  975.101
293.335;  140.792;   -8.229;  735.086
293.934;  143.387;   -5.279;  781.677
294.532;  142.807;   -1.369; 1031.958
295.131;  129.948;   -7.641;  834.394
295.730;  130.132;   -8.420;  809.588
296.328;  127.597;   -5.611;  783.442
296.927;  125.763;   -5.781;  779.652
297.525;  126.574;   -6.361;  781.236
298.124;  118.574;  -11.382;  654.009
298.722;  124.837;   -7.641;  761.933
299.321;  120.592;   -6.811;  708.597
299.919;  116.389;   -6.991;  751.918
300.518;  112.592;  -10.362;  689.338
301.116;  116.073;   -9.581;  691.381
301.715;  117.111;   -4.891;  730.222
302.313;  115.100;   -8.801;  704.943
302.911;  109.483;   -8.522;  733.830
303.509;  115.495;   -6.171;  925.627
304.108;  113.068;   -7.311;  760.383
304.706;  112.940;   -8.321;  801.664
305.304;  106.229;  -10.222;  796.707
305.902;  111.088;   -6.021;  784.484
306.500;  107.467;   -4.971;  728.200
307.098;  105.683;   -7.061;  746.560
307.696;  103.992;   -8.801;  780.432
308.294;  104.875;   -6.411;  731.359
308.892;  105.827;   -2.901;  759.769
309.490;  101.225;   -5.041;  712.161
310.088;  100.347;   -5.002;  788.444
310.686;  105.678;   -2.041;  821.749
311.284;   99.966;   -2.351;  766.040
311.882;   97.562;   -4.422;  731.225
312.480;   94.886;   -4.192;  697.167
313.078;   96.676;   -1.172;  808.331
313.675;   96.767;   -2.601;  691.600
314.273;   91.952;   -1.312;  797.837
314.871;   90.583;   -3.942;  589.829
315.468;   89.863;   -2.802;  652.090
316.066;   92.054;   -0.701;  694.427
316.664;   84.842;   -4.362;  656.351
317.261;   89.151;   -2.872;  910.128
317.859;   84.259;   -2.022;  768.735
318.456;   85.881;   -0.531;  830.096
319.054;   80.204;   -3.912;  787.828
319.651;   78.997;   -4.752;  759.928
320.249;   77.965;   -2.602;  810.188
320.846;   75.740;   -0.821;  714.286
321.443;   73.163;   -4.642;  832.135
322.041;   70.253;   -5.002;  812.315
322.638;   68.234;   -3.982;  701.456
323.235;   68.645;   -3.411;  665.683
323.833;   65.504;   -7.361;  740.354
324.430;   60.014;   -8.611;  615.900
325.027;   62.432;   -4.061;  876.855
325.624;   61.918;   -4.031;  644.532
326.221;   57.577;   -7.481;  689.717
326.818;   57.957;   -5.281;  818.332
327.415;   60.646;   -7.460;  748.828
328.012;   60.114;   -5.510;  690.585
328.609;   58.387;   -7.880;  731.389
329.206;   56.532;   -8.331;  778.621
329.803;   57.716;   -5.121;  737.841
330.400;   59.355;   -4.510;  704.260
330.997;   60.323;   -6.441;  817.147
331.594;   58.414;   -8.831;  788.185
332.191;   63.788;   -7.621;  728.722
332.787;   67.658;   -4.591;  844.463
333.384;   66.495;   -7.412;  763.093
333.981;   65.054;   -8.293;  815.687
334.578;   69.107;   -7.052;  708.378
335.174;   71.450;   -3.102;  731.469
335.771;   70.580;   -5.943;  836.456
336.367;   67.507;   -7.393;  710.631
336.964;   72.795;   -4.063;  793.266
337.561;   70.638;   -3.813;  731.112
338.157;   65.346;   -4.654;  911.916
338.754;   63.172;   -7.934;  796.589
339.350;   64.638;   -4.414;  722.493
339.946;   64.337;   -4.664;  773.135
340.543;   55.221;   -6.375;  846.136
341.139;   49.562;   -9.815;  720.836
341.735;   48.904;   -4.526;  772.593
342.332;   47.831;   -4.895;  691.472
342.928;   45.481;   -4.295;  795.394
343.524;   39.417;   -5.476;  761.684
344.120;   37.164;   -5.856;  738.562
344.716;   39.819;   -2.155;  723.717
345.313;   36.492;   -6.275;  795.342
345.909;   31.061;   -8.815;  627.336
346.505;   33.887;   -5.305;  740.247
347.101;   32.982;   -2.674;  827.864
347.697;   32.966;   -4.344;  785.398
348.293;   27.796;   -9.975;  627.244
348.889;   28.904;   -5.774;  745.914
349.485;   28.198;   -5.004;  688.205
350.081;   28.259;   -4.704;  772.592
350.676;   23.447;   -6.635;  691.606
351.272;   28.044;   -4.504;  809.530
351.868;   27.015;   -3.914;  780.497
352.464;   24.571;   -9.044;  723.932
353.059;   20.785;   -8.314;  646.017
353.655;   24.927;   -7.024;  777.063
354.251;   25.357;   -5.343;  759.845
354.846;   19.641;   -8.604;  740.646
355.442;   17.401;   -6.945;  753.071
356.038;   19.861;   -7.564;  751.708
356.633;   19.996;   -5.814;  728.594
357.229;   16.819;   -7.364;  724.757
357.824;   15.151;   -8.024;  703.600
358.420;   14.391;   -9.384;  679.726
359.015;   15.324;   -5.104;  695.357
359.610;   16.057;   -6.854;  763.920
360.206;    9.447;  -10.185;  603.240
360.801;   13.342;   -7.054;  646.503
361.396;   14.653;   -5.034;  725.975
361.992;    9.707;   -8.284;  668.220
362.587;    6.935;   -8.625;  670.160
363.182;    9.891;   -7.674;  689.631
363.777;   10.609;   -5.164;  738.242
364.372;    9.252;   -8.604;  737.314
364.967;    6.177;   -9.055;  680.744
365.563;   10.666;   -6.114;  815.567
366.158;    7.601;   -5.814;  685.161
366.753;    7.657;   -7.854;  649.263
367.348;    7.066;   -7.804;  746.056
367.942;    6.726;   -7.954;  697.298
368.537;    5.155;   -4.984;  754.245
369.132;    5.091;   -8.564;  703.428
369.727;    1.026;   -8.855;  638.079
370.322;    3.499;   -6.245;  580.186
370.917;    2.269;   -6.425;  710.646
371.511;    4.738;   -6.294;  861.834
372.106;    1.519;   -7.685;  776.964
372.701;   -2.213;   -7.335;  585.988
373.296;    3.978;   -4.564;  863.135
373.890;   -1.881;  -10.235;  647.840
374.485;   -3.592;   -7.885;  691.199
375.079;    0.655;   -7.324;  738.685
375.674;    1.932;   -3.494;  812.970
376.268;   -2.889;   -8.525;  691.759
376.863;   -8.766;  -10.086;  580.327
377.457;   -1.631;   -7.025;  662.490
378.052;   -3.674;   -3.585;  764.884
378.646;   -4.891;   -7.595;  741.167
379.240;   -4.753;   -8.335;  721.176
379.835;   -3.477;   -5.785;  636.978
380.429;   -6.225;   -4.335;  562.557
381.023;   -6.944;   -6.805;  779.205
381.617;   -9.020;   -9.195;  680.106
382.212;   -4.653;   -6.905;  685.303
382.806;   -4.715;   -3.745;  760.690
383.400;   -8.615;   -7.745;  672.281
383.994;  -10.257;   -9.765;  664.870
384.588;   -5.737;   -6.564;  697.701
385.182;   -4.828;   -5.344;  726.624
385.776;   -7.366;   -8.514;  706.875
386.370;   -9.773;   -9.555;  681.968
386.964;   -8.136;   -8.715;  684.155
387.558;   -6.377;   -6.174;  598.360
388.152;  -10.666;   -8.725;  681.959
388.745;   -8.440;   -7.965;  814.707
389.339;   -5.781;   -5.924;  747.642
389.933;   -5.901;   -5.524;  695.370
390.527;   -7.683;   -7.114;  859.029
391.120;  -13.259;  -10.725;  595.318
391.714;  -10.061;   -8.035;  711.633
392.308;   -7.030;   -3.574;  780.253
392.901;  -11.534;   -7.245;  642.460
393.495;  -12.962;   -9.285;  595.414
394.089;  -10.489;   -5.895;  760.452
394.682;  -11.495;   -4.295;  697.188
395.275;  -11.985;   -9.875;  719.927
395.869;  -13.450;   -8.485;  667.314
396.462;  -11.264;   -7.455;  616.609
397.056;   -7.291;   -5.424;  776.621
397.649;  -12.550;   -6.605;  731.575
398.242;  -10.416;   -8.224;  712.645
398.836;   -8.855;   -7.474;  766.408
399.429;   -9.861;   -7.094;  631.041
400.022;  -13.766;   -9.475;  665.902
400.615;  -11.457;   -7.145;  805.609
401.208;   -9.106;   -7.174;  691.451
401.802;  -11.223;   -5.515;  699.329
402.395;  -13.010;   -9.875;  683.502
402.988;  -14.149;   -8.845;  696.627
403.581;   -9.843;   -8.874;  646.878
404.174;   -7.774;   -5.324;  686.568
404.767;  -11.826;   -9.575;  638.583
405.360;  -13.628;  -10.965;  621.445
405.953;   -7.211;   -8.764;  759.034
406.545;   -7.369;   -7.514;  725.342
407.138;  -12.139;  -10.025;  618.350
407.731;  -11.000;  -10.034;  613.303
408.324;   -5.843;   -9.374;  660.554
408.917;   -7.624;   -6.534;  681.864
409.509;   -9.792;   -8.004;  740.396
410.102;  -11.739;   -9.875;  643.948
410.695;   -5.599;   -8.604;  665.758
411.287;   -6.033;   -6.794;  599.821
411.880;   -8.153;   -9.334;  585.421
412.472;  -11.511;  -10.254;  613.092
413.065;   -7.610;   -6.714;  629.408
413.657;   -5.583;   -7.234;  576.678
414.250;   -6.090;  -10.544;  646.681
414.842;   -7.907;   -9.744;  676.353
415.434;   -4.898;   -6.994;  570.463
416.027;   -1.507;   -5.893;  652.196
416.619;   -3.807;   -7.264;  713.400
417.211;   -3.997;  -10.374;  599.352
417.804;    0.358;   -7.993;  628.499
418.396;   -3.512;   -7.234;  607.643
418.988;   -2.626;   -9.443;  659.238
419.580;   -5.476;  -10.724;  568.276
420.172;   -3.674;  -10.323;  536.196
420.764;    0.751;   -8.793;  672.482
421.356;    0.096;  -11.143;  636.898
421.948;   -2.211;   -8.293;  677.661
422.540;    4.450;   -7.893;  680.027
423.132;    3.771;   -7.082;  600.641
423.724;   -0.608;   -8.653;  561.267
424.316;    1.069;  -10.213;  621.345
424.908;    6.330;   -9.762;  591.517
425.500;    6.678;   -5.572;  647.978
426.092;    6.172;   -8.422;  648.268
426.683;    5.088;   -9.283;  684.836
427.275;    8.605;   -7.852;  641.471
427.867;    9.843;   -5.272;  668.948
428.458;    9.691;   -7.682;  732.344
429.050;    8.022;  -10.612;  680.749
429.642;   11.826;   -9.882;  743.124
430.233;   11.877;   -6.962;  569.356
430.825;   12.239;   -6.842;  724.809
431.416;   10.222;   -9.672;  698.241
432.008;   13.993;   -6.552;  651.723
432.599;   15.127;   -6.891;  656.073
433.190;   11.446;  -10.912;  637.670
433.782;   10.262;  -11.172;  590.395
434.373;   19.060;   -6.061;  884.765
434.964;   17.681;   -8.251;  602.920
435.556;   13.801;   -9.722;  634.537
436.147;   16.994;   -9.082;  758.490
436.738;   18.189;   -8.041;  701.099
437.329;   23.125;   -7.341;  721.723
437.920;   14.339;   -8.162;  666.688
438.511;   14.970;  -11.802;  564.526
439.103;   22.612;  -10.191;  623.998
439.694;   24.175;   -7.601;  681.583
440.285;   25.108;   -8.541;  764.432
440.876;   22.102;   -9.751;  845.738
441.466;   22.804;   -9.401;  575.162
442.057;   27.773;   -7.760;  665.814
442.648;   25.463;   -9.971;  746.255
443.239;   24.249;  -11.001;  620.477
443.830;   30.412;   -7.990;  704.958
444.421;   32.190;   -7.910;  655.474
445.011;   27.902;   -8.131;  693.619
445.602;   27.651;   -7.111;  743.126
446.193;   29.639;  -10.920;  488.117
446.783;   33.998;   -6.500;  640.397
447.374;   28.968;   -8.671;  692.759
447.964;   29.751;  -10.781;  713.770
448.555;   39.039;   -9.650;  822.742
449.145;   35.358;   -8.660;  662.853
449.736;   35.589;   -8.990;  803.179
450.326;   35.375;   -9.500;  713.626
450.917;   40.888;   -8.680;  675.324
451.507;   40.704;   -7.520;  600.661
452.097;   40.404;   -8.590;  746.267
452.688;   41.709;  -11.340;  742.160
453.278;   42.107;  -10.100;  566.840
453.868;   46.390;   -6.019;  793.550
454.458;   43.271;   -9.440;  651.141
455.048;   43.146;  -10.560;  711.783
455.639;   45.416;  -11.799;  567.096
456.229;   49.142;   -6.899;  710.694
456.819;   51.253;   -7.389;  751.158
457.409;   50.893;  -11.119;  773.993
457.999;   55.069;   -9.289;  737.505
458.589;   54.661;   -6.139;  686.606
459.179;   53.487;   -8.729;  717.658
459.769;   51.914;   -9.789;  627.099
460.358;   56.415;  -10.259;  797.262
460.948;   56.874;   -7.299;  689.503
461.538;   57.920;  -10.289;  660.677
462.128;   56.369;  -11.269;  664.934
462.717;   63.069;   -9.368;  710.326
463.307;   66.500;   -7.908;  705.846
463.897;   62.027;   -9.599;  656.942
464.486;   61.257;   -9.769;  837.128
465.076;   66.551;   -8.048;  733.776
465.666;   69.891;   -9.358;  652.900
466.255;   66.405;   -7.919;  785.651
466.845;   65.126;  -11.689;  666.749
467.434;   68.987;   -7.818;  725.873
468.023;   70.296;   -7.678;  658.357
468.613;   67.055;  -10.939;  713.946
469.202;   71.717;  -10.118;  646.507
469.791;   76.451;   -9.108;  737.811
470.381;   79.114;   -6.058;  742.813
470.970;   77.093;  -10.428;  711.099
471.559;   77.706;  -10.268;  733.291
472.148;   81.120;   -8.448;  675.737
472.738;   84.803;   -6.917;  765.466
473.327;   82.864;  -11.978;  637.529
473.916;   82.607;  -11.888;  737.446
474.505;   87.500;   -9.437;  751.703
475.094;   90.580;   -6.747;  806.570
475.683;   88.981;   -9.367;  797.699
476.272;   89.540;  -12.637;  730.632
476.861;   93.283;  -10.027;  706.754
477.449;   99.960;   -8.716;  728.487
478.038;   93.819;   -9.577;  692.513
478.627;   94.533;   -9.718;  714.852
479.216;  103.002;   -8.947;  769.441
479.805;  105.277;   -6.256;  783.375
480.393;  104.800;   -7.937; 1008.945
480.982;  103.585;   -7.717;  874.501
481.571;  110.078;   -9.266;  858.333
482.159;  111.430;   -7.636;  705.386
482.748;  110.214;   -9.667;  821.385
483.336;  114.694;  -10.376;  858.209
483.925;  115.795;   -7.147;  774.373
484.513;  123.057;   -7.996;  758.962
485.102;  120.178;  -10.027;  810.965
485.690;  128.340;  -10.446; 1011.050
486.278;  130.833;   -8.446;  979.329
486.867;  131.116;   -6.356;  809.662
487.455;  132.636;   -9.136;  898.229
488.043;  135.160;  -10.646;  748.361
488.631;  143.674;   -7.456; 1005.079
489.220;  148.128;   -6.636;  908.626
489.808;  147.412;  -11.036;  741.415
490.396;  155.630;  -10.246;  914.645
490.984;  161.821;   -8.556;  830.161
491.572;  173.798;   -5.886;  940.315
492.160;  179.304;   -9.486;  919.081
492.748;  192.318;  -10.976;  884.341
493.336;  216.228;   -8.776; 1019.693
493.924;  241.011;   -5.465;  958.077
494.512;  271.674;   -9.986; 1066.638
495.100;  312.336;  -10.636; 1103.280
495.687;  370.317;  -10.885; 1206.373
496.275;  434.840;   -8.126; 1150.796
496.863;  522.802;  -10.586; 1281.171
497.451;  632.931;  -11.926; 1386.805
498.038;  749.956;  -10.885; 1556.729
498.626;  875.934;   -6.315; 1741.407
499.214; 1031.460;   -7.326; 2016.609
499.801; 1213.811;  -11.906; 2220.633
500.389; 1411.775;  -10.466; 2312.494
500.976; 1663.549;   -5.236; 2744.849
501.564; 2065.868;   -8.936; 3148.565
502.151; 2635.286;  -13.176; 3515.999
502.738; 3221.052;  -10.646; 3971.274
503.326; 3668.076;   -9.525; 4403.796
503.913; 3959.018;  -10.856; 5161.749
504.500; 4411.846;  -11.586; 5986.420
505.088; 5046.439;  -10.336; 6381.201
505.675; 5325.908;   -6.355; 6925.547
506.262; 5804.387;   -9.046; 7619.060
506.849; 6281.655;  -10.416; 8733.969
507.436; 6533.111;  -10.305; 9790.121
508.023; 7212.326;   -5.496; 9985.472
508.610; 8024.912;   -7.856;10434.618
509.197; 9413.779;  -10.097;11198.435
509.784;10755.885;  -10.886;12391.194
510.371;11779.055;   -9.315;13603.713
510.958;12508.904;   -9.936;14426.586
511.545;12560.982;   -9.326;15243.775
512.132;13283.250;  -10.075;15945.876
512.719;14783.729;   -7.796;16340.369
513.305;17221.779;  -10.606;18011.766
513.892;18043.213;  -11.486;19754.971
514.479;19027.186;   -9.126;20967.805
515.066;19977.252;   -6.026;22299.793
515.652;19545.502;   -8.466;22908.660
516.239;20331.266;  -10.886;23798.875
516.825;22247.727;  -11.496;25567.275
517.412;23566.355;   -5.796;28154.959
517.998;23684.090;  -10.506;28344.111
518.585;23344.980;  -10.076;27134.219
519.171;23544.250;   -8.315;27268.576
519.758;24422.994;   -8.596;28964.129
520.344;25687.881;   -8.466;30664.494
520.930;27645.043;  -11.006;32550.605
521.516;28417.738;  -10.495;35422.895
522.103;29093.186;   -5.526;38280.004
522.689;29921.262;   -8.746;37835.117
523.275;28704.818;  -11.376;37288.613
523.861;27002.205;  -11.156;37281.395
524.447;27234.697;   -8.135;37846.949
525.033;30665.439;   -7.896;38321.949
525.619;36286.410;  -12.476;38579.285
526.205;38650.488;   -9.516;40622.875
526.791;38886.535;   -6.926;42258.836
527.377;39880.184;   -8.346;42966.902
527.963;41150.238;   -8.717;42018.949
528.549;40659.035;  -11.016;42476.828
529.135;39618.965;   -8.536;41854.852
529.721;38931.676;   -9.666;41237.711
530.306;38548.641;  -10.066;41259.445
530.892;36669.387;  -11.356;41506.047
531.478;37825.969;   -6.596;43559.613
532.063;40291.273;   -8.836;47695.563
532.649;42064.336;  -10.047;50808.324
533.235;43295.039;   -9.746;51787.500
533.820;45208.926;   -6.566;52145.035
534.406;47201.160;  -10.817;51133.488
534.991;48803.188;   -9.416;49996.805
535.576;44165.113;   -9.036;48882.852
536.162;43420.039;   -6.156;46942.285
536.747;44324.219;  -11.607;45711.746
537.333;45764.680;  -11.787;48510.180
537.918;46208.918;  -12.437;50439.891
538.503;44637.152;   -7.196;50863.711
539.088;45601.387;  -10.556;50906.922
539.673;46683.063;   -8.767;52621.965
540.259;44290.480;  -10.026;52368.094
540.844;42594.047;   -7.416;50879.109
541.429;42852.121;   -9.467;52077.777
542.014;42556.543;   -9.527;52716.695
542.599;41059.555;   -9.946;52363.281
543.184;37278.262;   -7.927;53187.137
543.769;36960.305;   -9.297;54697.605
544.354;39269.195;  -10.127;53913.914
544.938;42182.629;   -9.267;49680.164
545.523;45184.293;   -6.506;47386.277
546.108;47975.793;   -9.787;49151.949
546.693;48965.227;  -11.587;51384.637
547.278;48107.492;  -10.986;51853.254
547.862;45109.121;   -8.206;51173.750
548.447;44695.066;  -10.067;51691.395
549.031;48870.648;   -9.637;52456.703
549.616;50057.781;   -9.926;52714.516
550.201;48472.867;   -6.347;52414.598
550.785;46417.898;   -7.917;52355.059
551.370;41185.063;  -10.867;54589.453
551.954;44333.750;   -9.047;58267.348
552.538;48306.309;   -7.827;59062.176
553.123;47399.004;  -10.287;58115.285
553.707;46326.055;  -12.178;56556.285
554.291;47347.848;   -8.717;56201.668
554.876;47574.922;   -7.457;55335.762
555.460;47319.832;  -10.387;54155.703
556.044;46735.656;   -9.618;53721.484
556.628;46062.262;  -11.567;53731.016
557.212;47953.570;   -8.097;54312.531
557.796;47051.324;  -11.077;53797.773
558.380;45348.098;  -11.108;56145.984
558.964;42762.023;   -9.057;57277.930
559.548;41050.863;   -6.977;56459.641
560.132;41575.484;  -11.457;54434.543
560.716;42036.250;  -11.378;54800.617
561.300;42965.895;   -9.577;57606.945
561.884;44169.457;   -7.127;58972.445
562.467;46382.949;   -7.118;57327.570
563.051;45319.531;  -13.358;54962.434
563.635;45577.914;  -10.178;52594.473
564.219;46613.230;   -7.837;50610.410
564.802;45570.594;  -11.398;49551.180
565.386;44061.219;  -12.788;48370.953
565.969;42834.945;   -9.077;48178.871
566.553;43669.133;   -6.207;49957.305
567.136;44053.195;   -8.568;50369.594
567.720;44191.574;  -11.868;49492.004
568.303;43909.063;   -8.268;50616.352
568.887;42209.137;   -8.698;50727.148
569.470;41991.500;   -6.808;51698.379
570.053;39625.250;  -13.188;52122.078
570.637;37200.094;  -12.037;52536.438
571.220;37396.637;   -8.577;51186.098
571.803;39010.492;   -8.498;51032.762
572.386;38563.836;  -10.498;49609.887
572.969;38722.137;   -9.388;48285.926
573.552;38497.734;   -8.338;47624.285
574.135;39071.984;   -8.518;45498.641
574.718;39305.559;  -13.628;41970.434
575.301;36363.027;  -10.893;41447.137
575.884;33420.496;   -8.158;40923.836
576.467;36217.984;  -10.328;45267.723
577.050;36890.824;  -13.058;48175.543
577.633;37582.734;   -9.458;47729.328
578.216;36477.813;   -8.928;47579.793
578.799;34766.887;   -9.358;47820.996
579.381;34095.574;  -11.388;48115.551
579.964;33409.578;  -11.718;47333.766
580.547;34768.227;   -8.588;46668.969
581.129;35739.090;   -8.859;44466.141
581.712;34249.469;  -10.729;44164.922
582.294;34604.660;  -11.118;46477.855
582.877;34801.773;   -5.218;48244.254
583.459;35302.266;   -8.679;47437.895
584.042;34690.035;  -10.709;46943.219
584.624;34946.816;  -11.669;46792.227
585.206;38299.293;   -8.218;46557.250
585.789;37280.555;  -10.569;45793.773
586.371;35807.195;  -11.859;43836.391
586.953;33008.887;  -10.719;42972.492
587.536;31499.523;   -7.198;42487.211
588.118;33646.270;   -8.720;42086.414
588.700;34891.832;  -10.439;43389.930
589.282;33850.605;   -9.198;43646.039
589.864;33388.043;   -9.199;43438.109
590.446;32551.119;  -11.319;43151.926
591.028;33537.949;  -11.159;42781.867
591.610;33931.023;  -11.779;42839.098
592.192;30662.250;   -7.668;42820.402
592.774;29832.150;  -11.949;40724.277
593.356;29529.074;  -12.129;39874.789
593.937;30188.043;  -10.669;39980.648
594.519;30715.432;   -6.509;42069.633
595.101;33237.297;  -10.849;42976.031
595.683;35449.656;  -11.679;44084.441
596.264;34168.656;   -9.049;43478.797
596.846;35195.246;   -8.849;43803.672
597.427;36655.539;   -9.570;42986.934
598.009;34302.449;  -12.620;42832.219
598.591;31515.512;  -10.039;42580.086
599.172;30869.730;  -10.369;43061.805
599.753;32087.227;   -9.140;41691.469
600.335;32305.420;  -11.430;40692.520
600.916;31114.551;   -9.939;39982.422
601.498;33201.773;   -8.479;40318.617
602.079;33211.859;  -10.920;40670.609
602.660;32401.725;  -11.480;41450.898
603.241;32594.729;  -11.699;41137.738
603.823;32770.461;   -9.579;38868.797
604.404;32132.045;  -10.620;38182.785
604.985;30873.457;  -10.450;38078.047
605.566;30516.783;   -9.129;38056.633
606.147;32019.352;   -7.510;37020.418
606.728;31895.014;  -10.660;37883.359
607.309;31151.736;  -11.740;38748.273
607.890;30225.725;   -9.759;38850.230
608.471;28935.750;   -8.250;37457.918
609.051;29980.393;   -9.240;36066.457
609.632;30020.721;  -12.120;35991.074
610.213;28776.461;   -9.110;37402.641
610.794;29246.906;   -8.030;38383.363
611.374;29956.646;   -8.110;40562.387
611.955;30718.561;  -13.560;38533.727
612.536;30381.947;  -11.400;36951.789
613.116;31573.605;   -8.070;37197.891
613.697;31416.830;  -10.830;38411.125
614.277;29827.471;  -11.641;38673.938
614.858;28609.945;  -13.310;37075.863
615.438;29002.596;   -7.460;35092.906
616.019;29023.982;   -7.601;33666.301
616.599;28685.430;  -12.020;34189.023
617.179;28974.494;  -11.780;36952.047
617.760;31556.893;   -8.570;39582.574
618.340;33493.957;  -11.471;38943.977
618.920;31897.361;  -11.170;37594.156
619.500;30361.910;  -11.071;37866.938
620.080;30740.084;   -7.750;37869.043
620.660;31933.145;  -12.711;36868.617
621.241;29769.629;  -10.211;36352.309
621.821;28632.055;  -10.961;35459.520
622.401;29961.912;   -7.720;35207.414
622.980;31382.576;   -8.981;35980.422
623.560;32326.697;   -9.331;37351.328
624.140;28750.414;   -9.850;34388.582
624.720;24760.156;   -7.451;32368.764
625.300;23165.529;   -9.070;32638.629
625.880;26119.920;  -12.601;34599.035
626.459;30260.045;  -11.751;36831.738
627.039;31658.211;   -9.281;38299.098
627.619;31898.383;   -8.801;38289.574
628.198;32253.963;  -12.071;37220.695
628.778;32717.314;   -9.461;37632.563
629.357;33593.438;   -8.491;38003.012
629.937;32973.398;   -9.721;38402.039
630.516;32847.730;   -9.951;37868.801
631.096;31883.738;  -11.731;35760.410
631.675;32281.445;   -8.572;35225.219
632.254;33055.938;  -11.282;35130.289
632.834;33018.273;  -13.322;35794.570
633.413;33589.180;  -10.301;35788.922
633.992;33652.395;   -8.582;34532.863
634.571;32024.055;   -8.352;33590.113
635.151;31953.098;  -11.912;34943.863
635.730;31158.891;  -10.511;35352.523
636.309;31464.523;   -7.731;35366.605
636.888;31642.014;   -9.952;36165.637
637.467;31249.734;  -11.672;37515.902
638.046;32670.412;   -8.901;39288.695
638.625;31688.926;   -7.912;38279.699
639.204;32217.945;  -10.022;37741.598
639.782;31662.020;  -12.252;38364.551
640.361;29097.543;  -10.041;36740.621
640.940;27342.291;  -11.161;34950.082
641.519;27932.428;   -9.701;34137.398
642.097;30205.781;  -11.271;35654.258
642.676;30139.496;   -8.651;35637.957
643.255;32951.953;   -8.711;36567.074
643.833;35146.707;   -9.581;37809.434
644.412;33605.398;  -13.711;37337.293
644.990;31515.811;  -11.811;37018.531
645.569;31351.648;   -9.411;36518.469
646.147;32064.322;  -10.291;36186.430
646.726;31210.150;  -12.401;36267.688
647.304;29604.094;  -10.411;36647.625
647.882;30917.287;   -9.651;39286.742
648.461;33363.754;   -9.631;39157.703
649.039;33755.418;  -11.881;35412.883
649.617;33711.684;   -9.661;34744.918
650.195;34132.520;   -9.301;35403.098
650.773;33038.441;  -10.511;35053.797
651.352;32464.455;  -11.521;33756.816
651.930;30587.453;  -12.211;31868.773
652.508;25228.049;   -9.171;33121.551
653.086;24338.043;   -9.371;33564.793
653.663;29126.320;  -13.161;34054.668
654.241;30574.795;  -13.031;35693.309
654.819;32718.959;   -9.371;36422.906
655.397;32000.398;  -10.511;38213.484
655.975;31708.998;  -10.371;39507.625
656.553;32817.461;  -10.051;39498.223
657.130;31857.563;  -10.061;40395.480
657.708;30002.326;   -9.561;39242.020
658.286;29564.582;  -11.511;38920.020
658.863;28361.586;  -10.261;40202.898
659.441;29945.701;   -7.531;39677.938
660.018;31718.193;   -9.501;40413.355
660.596;31674.129;  -13.301;39931.414
661.173;29727.809;  -11.211;39604.531
661.750;29509.580;   -9.951;39700.070
662.328;31279.418;   -9.390;39292.809
662.905;30385.641;  -11.330;38235.648
663.482;26413.520;   -9.050;36212.305
664.060;23930.418;   -8.240;35944.945
664.637;28063.293;  -10.050;35170.785
665.214;31191.398;  -11.760;34197.523
665.791;32177.512;  -10.530;34549.520
666.368;32607.719;   -9.690;35118.578
666.945;32819.348;   -9.320;36019.418
667.522;30846.352;  -11.860;36048.438
668.099;30312.180;  -10.770;36243.914
668.676;32707.330;   -6.260;35958.875
669.253;34011.539;   -7.000;37384.730
669.830;34652.668;  -10.190;36779.629
670.407;34118.680;   -9.550;35231.289
670.984;32756.357;   -9.260;35544.270
671.560;29767.914;   -9.280;35466.867
672.137;26359.570;  -11.810;34280.863
672.714;25518.592;  -11.490;34632.863
673.290;30274.500;   -7.740;35135.422
673.867;34020.449;  -10.660;36114.480
674.443;33093.676;  -12.230;36152.859
675.020;30826.445;  -10.450;35327.238
675.596;29346.928;   -9.260;35795.176
676.173;29854.490;  -10.780;35430.355
676.749;30726.672;  -13.690;33549.516
677.326;29637.045;  -11.980;32210.012
677.902;28031.412;   -8.630;32068.871
678.478;28063.625;  -10.730;32583.891
679.054;29529.266;  -10.520;32088.928
679.631;30686.293;  -11.920;30978.848
680.207;30694.658;   -7.490;33160.887
680.783;30665.197;   -9.860;35570.363
681.359;32796.844;  -13.380;36125.184
681.935;32823.617;  -12.480;35240.922
682.511;30292.902;   -7.900;34429.961
683.087;29050.068;   -7.710;34463.680
683.663;29952.045;  -11.480;34648.898
684.239;31015.385;  -14.090;34546.457
684.815;30358.750;   -7.560;35586.375
685.390;28389.891;   -9.910;35821.895
685.966;28571.023;  -11.159;35085.871
686.542;27678.643;  -11.169;34198.230
687.118;28337.594;   -5.959;32847.707
687.693;31763.336;  -10.329;32794.027
688.269;32446.305;  -12.059;33072.367
688.844;32565.322;  -10.909;33141.664
689.420;34341.160;   -8.019;33965.742
689.995;32515.484;   -8.399;34655.523
690.571;30247.771;  -10.949;33576.742
691.146;29659.043;   -9.619;32657.219
691.722;31274.805;   -8.999;32526.979
692.297;31230.367;  -11.589;33014.617
692.872;30084.420;  -11.739;34012.254
693.448;30317.592;  -11.059;34237.434
694.023;29993.266;  -10.139;34142.672
694.598;27257.068;   -9.029;34132.031
695.173;27386.576;  -13.319;34205.250
695.748;29517.285;  -10.169;32882.488
696.323;28809.746;   -8.339;32864.906
696.898;27594.273;   -8.169;33170.004
697.473;28205.129;  -12.309;32432.984
698.048;28459.691;  -10.989;31649.303
698.623;28201.924;   -9.329;30778.141
699.198;28163.975;   -9.849;31140.119
699.773;28599.633;  -12.329;31764.299
700.348;30860.502;  -10.389;31780.816
700.922;30693.979;   -9.269;32046.375
701.497;28210.412;   -9.329;32603.574
702.072;29071.453;  -10.789;34799.871
702.646;28709.191;  -10.839;35793.172
703.221;29885.773;   -9.099;35201.590
703.795;30729.398;  -10.939;34764.527
704.370;31332.305;  -12.859;34307.367
704.944;31563.904;  -11.559;33509.887
705.519;30925.311;   -7.939;31388.584
706.093;32526.455;  -10.499;31340.104
706.668;31554.482;  -11.289;32630.281
707.242;30971.707;  -11.509;32728.779
707.816;29523.740;   -9.639;32947.238
708.390;27608.186;  -11.429;33277.855
708.965;27177.496;  -11.869;33834.336
709.539;28679.340;  -11.689;33709.273
710.113;29154.367;  -10.478;33044.313
710.687;29138.891;  -10.228;31953.992
711.261;28733.232;  -13.698;30505.949
711.835;28600.832;  -13.378;30262.369
712.409;28664.895;   -9.698;31254.447
712.983;27779.895;  -11.898;32754.986
713.557;27437.135;  -15.138;34018.824
714.131;25253.844;  -14.098;34579.625
714.704;23626.852;   -9.958;33890.262
715.278;24481.023;  -10.028;33531.102
715.852;24911.746;  -11.148;33601.660
716.425;25964.773;   -9.068;33515.117
716.999;25819.895;  -10.038;33185.555
717.573;25163.451;   -9.798;33905.996
718.146;26022.945;  -12.378;35199.293
718.720;27248.990;  -11.918;35060.551
719.293;28729.381;   -8.088;34973.230
719.867;29233.088;  -10.888;36394.449
720.440;28831.029;  -11.938;36663.008
721.013;29435.664;  -12.818;35102.426
721.587;28453.025;  -10.298;33985.266
722.160;27658.545;  -10.048;33524.965
722.733;27409.721;  -12.108;32987.043
723.306;26912.246;  -10.818;33066.301
723.880;27791.398;   -8.908;33399.500
724.453;26956.492;   -9.878;33468.297
725.026;25616.467;  -11.188;33816.637
725.599;26576.703;  -11.678;32797.996
726.172;28263.160;   -9.618;33187.434
726.745;27411.246;   -8.258;35136.613
727.318;26549.674;  -12.978;35751.730
727.891;25427.115;  -12.148;35890.430
728.463;25198.297;   -8.968;34822.090
729.036;25311.418;  -10.188;32895.086
729.609;26703.520;  -11.788;31823.225
730.182;26821.316;  -11.788;31445.283
730.754;24749.650;  -10.268;32373.223
731.327;23142.313;   -9.998;33676.820
731.900;22766.547;  -12.228;33417.000
732.472;23997.949;  -13.848;31978.498
733.045;25339.350;   -8.698;30368.777
733.617;24196.291;  -10.607;30574.215
734.190;25221.162;  -11.507;31280.975
734.762;26902.479;  -13.647;31674.412
735.334;24892.809;   -9.767;31247.291
735.907;23944.820;   -9.897;29876.211
736.479;24545.768;  -11.637;29808.488
737.051;25958.213;   -9.567;30233.547
737.623;26320.982;   -8.187;31469.086
738.195;26093.609;  -11.187;31784.225
738.768;26245.816;  -12.337;32120.523
739.340;24990.820;  -12.227;32094.342
739.912;24038.033;  -11.057;31312.680
740.484;23757.225;  -10.207;31946.238
741.056;22065.959;  -10.047;32984.059
741.628;21027.768;  -13.627;33897.715
742.199;21621.098;   -7.177;33213.016
742.771;24473.350;  -10.797;31369.113
743.343;26895.965;  -11.997;31865.473
743.915;26863.902;  -12.867;32388.631
744.487;24912.121;   -7.617;31079.568
745.058;23492.123;   -9.557;30570.107
745.630;23667.180;   -9.877;29970.127
746.201;23452.914;  -14.177;29186.766
746.773;22337.557;   -9.237;28805.723
747.344;22746.541;   -9.847;29591.223
747.916;23402.463;  -11.657;31412.201
748.487;23078.883;  -10.587;32194.898
749.059;22779.439;   -8.707;32533.719
749.630;22491.590;  -10.537;32158.518
750.201;23328.400;  -11.687;30855.395
750.773;23876.516;  -11.647;28622.555
751.344;23157.045;   -7.147;28405.732
751.915;22130.023;   -9.757;28461.551
752.486;21703.332;  -12.427;27842.850
753.057;21057.951;  -12.227;27845.008
753.628;20249.650;  -10.417;27728.107
754.199;19249.596;  -11.767;27381.086
754.770;19311.574;  -11.187;25882.203
755.341;20515.910;  -10.507;25886.184
755.912;20539.943;   -9.387;26050.861
756.483;18918.389;  -10.647;26798.779
757.054;18693.348;  -11.837;27048.238
757.625;19584.023;  -12.716;26294.838
758.195;20271.162;   -9.666;26142.076
758.766;21547.988;   -8.656;26392.234
759.337;21356.969;  -12.856;26334.594
759.907;20876.760;  -13.366;27579.652
760.478;21253.369;   -8.576;28352.770
761.048;20740.021;  -10.526;27325.088
761.619;20719.467;  -11.116;26460.428
762.189;20778.902;  -12.136;26029.826
762.760;19965.320;   -9.456;26430.145
763.330;19448.463;   -7.136;26670.902
763.900;20338.279;  -11.786;26603.021
764.471;19790.852;  -11.546;25542.740
765.041;17928.418;   -8.096;24358.459
765.611;16583.717;   -8.876;23991.297
766.181;16025.636;  -12.196;24470.236
766.751;16307.483;  -11.636;24845.975
767.321;17359.307;  -10.156;24533.633
767.891;18102.510;  -11.766;24916.492
768.461;17723.906;  -14.936;24776.771
769.031;17356.600;  -12.356;24757.988
769.601;17615.449;   -7.526;24181.088
770.171;18176.939;  -10.766;23670.387
770.741;17442.666;  -13.176;22960.045
771.311;16370.566;  -10.616;22917.523
771.880;16208.661;   -9.576;23562.941
772.450;16087.312;  -10.336;24216.500
773.020;16576.131;  -13.516;24140.398
773.589;16753.490;  -13.466;24414.857
774.159;16354.431;   -8.686;23858.717
774.729;16488.232;   -9.476;22942.135
775.298;16073.093;  -13.666;22324.033
775.867;15062.899;  -11.716;21140.313
776.437;14367.401;   -9.906;20838.092
777.006;14492.316;  -12.166;20599.510
777.576;13755.125;  -12.356;20508.809
778.145;13639.547;  -11.646;20732.947
778.714;13613.665;   -8.226;21062.465
779.283;13674.918;   -9.556;20949.664
779.853;14072.297;  -14.116;20508.623
780.422;13871.099;  -11.506;20649.082
780.991;13876.937;   -9.556;21527.520
781.560;13562.847;   -9.095;22632.658
782.129;12083.960;  -12.135;23048.277
782.698;11444.848;  -10.865;23438.555
783.267;11631.892;   -9.335;23267.734
783.836;12322.795;  -11.045;22415.133
784.404;13229.797;  -13.865;20443.152
784.973;13055.155;  -13.095;19699.150
785.542;12490.744;  -11.575;19763.828
786.111;12279.761;   -9.705;20341.408
786.679;12127.864;  -12.105;20207.967
787.248;11889.473;  -12.455;19516.465
787.817;11127.039;  -11.535;18900.363
788.385;11418.832;   -9.765;17879.121
788.954;12440.023;  -14.005;17658.301
789.522;12921.139;  -11.955;17788.879
790.090;12418.743;  -10.135;18118.277
790.659;12383.427;  -10.975;18338.736
791.227;12507.782;  -13.375;18508.615
791.795;12217.813;  -12.375;17898.254
792.364;12136.648;  -10.725;17295.133
792.932;12297.908;   -9.715;16822.051
793.500;12330.468;  -12.675;17040.148
794.068;12107.476;  -13.495;17179.787
794.636;10770.122;  -10.885;16664.246
795.204; 9864.659;  -11.045;16524.545
795.772; 9782.482;  -13.175;17274.564
796.340;10802.164;  -12.445;17891.002
796.908;11025.215;   -9.735;17648.561
797.476;10958.451;   -9.815;17064.080
798.044;10858.132;  -13.985;16672.777
798.612;10560.106;  -13.115;17023.996
799.180;10152.601;  -10.185;16561.615
799.747; 9472.138;   -9.055;15962.773
800.315; 8435.742;  -12.385;15296.992
800.883; 8049.560;  -15.035;14801.771
801.450; 8605.668;  -10.365;14534.430
802.018; 9500.943;   -9.855;14173.248
802.585;10250.631;  -11.905;14029.547
803.153;10072.188;  -11.585;13836.846
803.720; 9373.154;   -9.095;13567.324
804.287; 8962.125;   -9.135;13360.622
804.855; 9214.401;  -11.604;13681.981
805.422; 9689.729;  -11.794;13536.560
805.989; 8959.281;  -10.734;13355.958
806.556; 8661.548;  -10.444;13747.896
807.124; 8820.349;  -12.764;13987.376
807.691; 9023.269;  -12.964;14038.674
808.258; 9408.820;  -11.134;14120.152
808.825; 9509.813;   -9.854;13860.111
809.392; 8881.861;  -10.504;13268.790
809.959; 8386.975;  -13.054;12680.389
810.526; 8111.531;   -8.294;12427.308
811.093; 8204.964;   -8.394;12030.105
811.659; 8007.601;  -12.304;11653.664
812.226; 7415.828;  -13.944;11637.183
812.793; 7264.063;  -10.484;11611.521
813.360; 7429.707;  -10.144;11885.181
813.926; 7356.475;  -11.684;12770.539
814.493; 7163.915;  -13.644;12677.638
815.060; 6768.125;   -9.724;11974.336
815.626; 6309.886;   -9.854;11594.715
816.193; 6330.778;  -13.254;11579.474
816.759; 6330.007;  -13.204;11666.972
817.325; 6607.938;   -9.434;11325.530
817.892; 6642.533;  -10.134;11105.369
818.458; 6295.163;  -13.474;10843.928
819.024; 6010.711;  -11.854;10714.406
819.591; 5933.195;  -10.244;10469.165
820.157; 5813.136;  -10.704;10235.523
820.723; 5946.191;  -12.324;10847.563
821.289; 6393.049;   -9.444;11040.980
821.855; 6633.433;   -8.374;10357.100
822.421; 6555.324;  -10.234; 9978.918
822.987; 6486.185;  -13.294; 9754.177
823.553; 6666.910;  -10.884;10065.755
824.119; 6648.978;   -8.884;10036.294
824.685; 6395.339;   -6.784;10029.192
825.251; 5955.854;  -12.004;10199.230
825.816; 5949.513;  -11.474; 9820.189
826.382; 6126.061;   -9.174; 9297.248
826.948; 6111.729;   -9.214; 9381.347
827.513; 5857.617;  -10.774; 9450.726
828.079; 5573.321;  -11.924; 9472.444
828.645; 5437.665;  -10.543; 9292.643
829.210; 5424.769;  -10.533; 9065.341
829.776; 5223.607;  -10.753; 9132.620
830.341; 5056.274;  -10.173; 9092.878
830.906; 4963.760;  -10.743; 9078.557
831.472; 5070.948;  -11.113; 8534.535
832.037; 5103.278;  -10.603; 8677.874
832.602; 5098.192;  -13.323; 8628.692
833.167; 5146.772;  -10.823; 8879.031
833.733; 4854.498;  -10.113; 9189.790
834.298; 4721.392;  -13.583; 9052.608
834.863; 4874.031;  -12.703; 8895.087
835.428; 4938.637;  -10.523; 8824.266
835.993; 4838.979;   -6.963; 8845.385
836.558; 4638.079;  -10.763; 8888.563
837.123; 4563.213;   -9.903; 8966.582
837.688; 4473.282;   -9.913; 8617.860
838.253; 4507.288;  -10.283; 8590.699
838.817; 4786.348;  -12.963; 8443.797
839.382; 4870.368;  -14.243; 8799.356
839.947; 4763.076;  -10.733; 8810.595
840.511; 4512.659;   -9.383; 8796.394
841.076; 4463.346;  -12.563; 8347.231
841.641; 4468.811;  -12.953; 8224.330
842.205; 4073.881;   -7.043; 8223.349
842.770; 3856.866;   -8.163; 8622.107
843.334; 3957.599;  -12.503; 8410.386
843.898; 4179.535;  -11.693; 8337.465
844.463; 4237.529;  -10.203; 8506.283
845.027; 4110.380;   -9.533; 8280.962
845.591; 3990.598;  -13.443; 8231.141
846.156; 3932.398;  -13.143; 7969.179
846.720; 3832.455;   -9.433; 7768.278
847.284; 3397.376;  -11.033; 7630.957
847.848; 3047.096;  -10.403; 7472.395
848.412; 3139.233;  -11.553; 7437.394
848.976; 3520.836;   -8.393; 7674.592
849.540; 3802.027;   -8.713; 7836.011
850.104; 3781.751;  -12.463; 7913.669
850.668; 3711.738;  -12.973; 7694.508
851.232; 3496.231;  -10.793; 7756.887
851.796; 3336.059;  -10.662; 7926.545
852.359; 3473.614;  -13.082; 7827.844
852.923; 3499.457;  -12.192; 7641.163
853.487; 3477.643;  -11.912; 7342.501
854.050; 3580.895;  -10.892; 7042.820
854.614; 3547.667;  -13.992; 7151.338
855.177; 3347.733;  -11.732; 7105.077
855.741; 3181.085;   -8.962; 6989.675
856.304; 3176.320;   -9.442; 6596.634
856.868; 3175.289;  -14.192; 6356.272
857.431; 3211.928;  -12.702; 6468.571
857.995; 3473.781;   -9.942; 6373.210
858.558; 3592.810;   -9.112; 6324.448
859.121; 3205.057;  -12.932; 6408.327
859.684; 2871.006;  -13.442; 6347.886
860.247; 2789.982;  -10.632; 6321.264
860.810; 2939.785;  -11.272; 6301.903
861.374; 3099.563;   -9.832; 6607.881
861.937; 3102.091;  -11.762; 6408.200
862.500; 3102.307;   -9.722; 6572.639
863.062; 3048.512;  -10.512; 6387.297
863.625; 2929.180;  -11.232; 6190.836
864.188; 2781.947;  -14.112; 5807.254
864.751; 2573.537;  -11.302; 5682.413
865.314; 2482.089;  -10.112; 5547.492
865.876; 2632.040;  -12.182; 5500.150
866.439; 2857.372;  -10.722; 5415.909
867.002; 2904.860;   -9.252; 5501.567
867.564; 2737.441;   -9.572; 5413.946
868.127; 2489.759;  -13.142; 5160.325
868.689; 2362.403;  -12.902; 5133.183
869.252; 2263.762;   -9.732; 5252.382
869.814; 2180.281;   -9.432; 5297.141
870.377; 2269.906;  -11.552; 5390.919
870.939; 2373.001;   -9.052; 5599.898
871.501; 2348.236;  -10.982; 5248.336
872.063; 2428.023;  -12.292; 4854.235
872.626; 2527.602;  -14.912; 4817.074
873.188; 2628.046;  -13.112; 4987.732
873.750; 2631.524;  -13.442; 4868.651
874.312; 2398.986;   -9.402; 4779.330
874.874; 1986.078;  -11.062; 4866.348
875.436; 1585.264;  -13.931; 4718.887
875.998; 1222.365;   -9.561; 4660.005
876.560; 1023.525;  -11.321; 4462.964
877.122; 1018.924;  -12.221; 4145.042
877.683; 1102.388;  -12.191; 4056.481
878.245; 1225.727;  -12.101; 3950.740
878.807; 1358.705;   -8.971; 4058.958
879.369; 1429.462;  -12.071; 3954.677
879.930; 1397.777;  -14.621; 3941.495
880.492; 1395.442;  -10.311; 4067.014
881.053; 1390.197;  -10.901; 3859.633
881.615; 1375.781;  -14.411; 3776.071
882.176; 1369.494;  -13.761; 3734.750
882.738; 1391.806;   -9.181; 3678.489
883.299; 1361.942;  -11.791; 3405.407
883.860; 1284.911;  -13.121; 3351.106
884.422; 1200.426;  -11.211; 3394.044
884.983; 1149.881;  -10.091; 3166.443
885.544; 1126.226;   -8.461; 3189.802
886.105; 1084.968;  -12.361; 3160.360
886.666; 1025.299;  -14.141; 3093.059
887.227; 1009.375;  -11.361; 2941.957
887.788;  996.954;  -11.401; 2974.836
888.349;  926.492;  -13.791; 2721.214
888.910;  859.333;  -13.191; 2696.493
889.471;  813.023;   -9.881; 2560.172
890.032;  765.166;   -9.881; 2558.190
890.593;  732.539;  -10.371; 2567.669
891.153;  713.907;  -13.301; 2460.307
891.714;  692.102;  -11.431; 2372.046
892.275;  648.115;  -11.291; 2309.505
892.835;  643.041;  -11.471; 2382.543
893.396;  642.332;  -11.541; 2295.502
893.956;  610.374;  -11.181; 2162.420
894.517;  547.410;  -11.741; 2125.439
895.077;  480.447;  -11.671; 2086.978
895.638;  437.990;  -11.311; 2126.316
896.198;  429.850;   -9.831; 1838.275
896.758;  430.774;   -8.421; 1892.813
897.319;  413.474;  -12.351; 1792.232
897.879;  380.267;  -13.511; 1762.751
898.439;  357.353;  -12.001; 1661.149
898.999;  346.801;  -10.180; 1781.468
899.559;  337.126;  -12.030; 1703.347
900.119;  330.560;  -15.710; 1537.525
900.679;  324.827;   -8.900; 1638.384
901.239;  306.071;   -8.340; 1527.902
901.799;  282.575;  -13.910; 1456.441
902.359;  266.539;  -13.460; 1357.140
902.919;  259.477;  -11.490; 1331.118
903.479;  255.364;  -12.110; 1317.257
904.038;  248.910;  -11.720; 1262.595
904.598;  237.156;  -13.610; 1152.034
905.158;  226.273;  -11.040; 1240.893
905.717;  217.564;  -10.900; 1233.691
906.277;  210.888;  -15.080; 1217.330
906.836;  206.987;  -13.380; 1222.408
907.396;  205.323;  -10.780; 1193.047
907.955;  200.009;   -8.500; 1182.526
908.515;  192.803;  -12.760; 1099.364
909.074;  187.770;  -11.900; 1092.863
909.633;  185.974;   -8.950; 1069.121
910.192;  182.966;   -8.770; 1196.460
910.752;  177.220;  -12.390; 1029.960
911.311;  173.964;  -13.680; 1009.780
911.870;  172.535;  -12.370;  971.460
912.429;  170.109;  -10.900; 1094.080
912.988;  165.576;  -11.690; 1081.060
913.547;  160.992;  -13.240;  940.380
914.106;  161.302;  -11.990;  999.420
914.665;  159.123;   -9.990;  984.020
915.224;  155.085;  -12.880; 1035.760
915.782;  154.474;  -12.350;  922.560
916.341;  156.649;   -9.110; 1049.840
916.900;  153.105;   -9.270;  925.260
917.458;  149.005;  -13.240;  884.220
918.017;  146.701;  -13.550;  942.600
918.576;  143.453;  -12.320;  904.440
919.134;  140.889;  -11.490;  837.980
919.693;  139.322;  -13.670;  893.060
920.251;  139.412;  -15.470;  876.500
920.809;  139.846;  -11.290;  839.580
921.368;  140.627;  -10.210;  885.360
921.926;  137.671;  -12.140;  842.940
922.484;  136.552;  -13.080;  903.360
923.042;  137.732;  -11.720;  880.340
923.601;  138.277;   -7.480;  998.680
924.159;  136.733;  -11.570;  935.560
924.717;  135.633;  -13.840;  841.080
925.275;  138.334;  -10.640;  903.240
925.833;  138.083;  -11.540;  779.320
926.391;  138.765;  -12.960;  938.380
926.949;  138.621;  -14.130;  857.680
927.506;  140.553;  -11.750;  903.500
928.064;  139.908;  -10.250;  877.580
928.622;  136.720;  -13.030;  880.100
929.180;  137.972;  -13.400;  814.180
929.737;  139.293;  -10.700;  808.540
930.295;  139.832;  -10.070;  928.480
930.853;  139.252;  -11.960;  849.100
931.410;  142.314;  -13.120;  821.120
931.968;  143.635;  -10.770;  940.660
932.525;  143.405;  -10.680;  909.380
933.082;  144.163;  -13.130;  811.440
933.640;  149.943;  -13.210;  925.900
934.197;  155.719;  -11.060;  886.360
934.754;  158.684;   -9.580;  897.780
935.312;  156.491;  -14.000;  863.340
935.869;  156.460;  -10.710; 1012.980
936.426;  154.349;   -9.860;  872.800
936.983;  155.029;   -9.710;  889.020
937.540;  154.919;  -13.990;  838.280
938.097;  155.820;  -14.040;  940.120
938.654;  157.494;  -10.310;  898.860
939.211;  156.657;  -10.560;  952.480
939.768;  153.272;  -13.900;  915.420
940.324;  153.535;  -14.760;  904.200
940.881;  158.709;  -10.370;  878.500
941.438;  163.655;   -8.260; 1021.200
941.995;  162.791;  -12.540;  992.560
942.551;  161.978;  -14.670;  875.620
943.108;  161.276;  -10.450;  937.920
943.664;  161.451;  -10.750;  869.340
944.221;  165.473;  -11.550; 1088.140
944.777;  167.307;  -14.770;  869.680
945.334;  172.179;  -12.820;  884.840
945.890;  176.192;  -10.130;  946.480
946.446;  176.068;  -13.470;  947.020
947.003;  176.245;  -12.120;  964.940
947.559;  179.738;   -9.980; 1063.040
948.115;  179.605;   -9.080; 1026.540
948.671;  181.299;  -10.830;  967.300
949.227;  178.770;  -12.440;  859.560
949.783;  172.185;  -12.910;  858.900
950.339;  167.911;  -10.270;  991.000
950.895;  164.341;  -13.630; 1023.840
951.451;  164.644;  -15.100;  925.280
952.007;  165.040;  -11.330;  998.540
952.563;  164.459;  -10.580;  937.780
953.118;  163.424;  -13.440;  904.940
953.674;  160.615;  -12.710;  935.780
954.230;  161.044;  -10.350;  949.640
954.785;  162.211;   -9.190;  936.640
955.341;  160.263;  -11.200;  998.160
955.897;  153.834;  -16.560;  834.660
956.452;  149.415;  -12.570;  953.840
957.008;  145.917;   -7.970; 1083.640
957.563;  144.856;  -11.940; 1009.540
958.118;  145.679;  -13.450;  877.700
958.674;  149.101;  -12.030;  946.780
959.229;  147.968;   -9.410; 1013.980
959.784;  145.450;  -12.000;  832.400
960.339;  144.217;  -14.780; 1001.280
960.894;  137.402;   -9.860;  963.760
961.449;  130.828;   -9.970;  859.960
962.004;  130.700;  -10.900; 1212.840
962.559;  126.676;  -13.150;  860.140
963.114;  125.553;  -13.740;  742.480
963.669;  128.003;   -9.820;  915.500
964.224;  128.927;  -13.890;  874.340
964.779;  130.170;  -12.600;  828.420
965.334;  129.694;  -10.950; 1017.860
965.888;  122.505;  -11.170;  875.360
966.443;  118.229;  -12.540;  972.380
966.998;  117.841;  -15.780;  819.460
967.552;  119.628;   -9.760;  908.380
968.107;  117.140;   -9.060;  868.300
968.661;  115.316;  -11.950;  922.440
969.216;  114.032;  -12.800;  856.280
969.770;  114.542;  -11.210;  917.200
970.324;  111.604;  -11.610;  923.140
970.879;  109.480;  -11.370;  947.180
971.433;  108.588;  -12.540;  952.720
971.987;  108.129;  -11.320;  895.340
972.541;  106.942;  -10.720;  917.100
973.095;  108.580;   -9.680; 1009.460
973.649;  107.596;  -11.440;  809.480
974.203;  107.675;  -11.210;  829.040
974.757;  107.312;  -10.240;  855.220
975.311;  105.121;  -13.720;  872.600
975.865;  105.341;  -13.770;  881.820
976.419;  107.557;  -11.690;  857.400
976.973;  107.567;   -9.510;  849.620
977.526;  105.837;  -12.620;  949.920
978.080;  101.128;  -12.010;  796.780
978.634;   99.959;  -10.170;  921.320
979.187;   96.505;   -9.020;  905.400
979.741;   96.063;   -9.820; 1018.380
980.294;   93.485;  -14.870;  789.160
980.848;   92.803;  -12.380;  717.220
981.401;   93.082;  -10.350;  816.540
981.955;   93.062;  -13.720;  844.300
982.508;   90.842;  -11.490;  746.340
983.061;   91.880;  -10.000;  915.260
983.615;   89.724;  -11.480;  798.800
984.168;   86.859;  -13.220;  770.080
984.721;   85.220;  -13.960;  880.760
985.274;   82.936;  -10.870;  867.500
985.827;   80.287;   -9.790;  834.220
986.380;   77.427;  -13.120;  721.340
986.933;   77.728;  -12.450;  864.800
987.486;   78.283;  -10.210;  861.920
988.039;   77.670;   -8.430;  863.100
988.591;   75.419;  -10.520;  893.260
989.144;   74.258;  -14.860;  737.260
989.697;   73.790;  -13.080;  758.740
990.250;   74.043;  -10.150;  858.100
990.802;   70.804;  -13.430;  755.860
991.355;   70.914;  -12.750;  974.880
991.907;   68.409;  -12.040;  864.320
992.460;   65.904;  -11.330;  753.760
993.012;   62.988;  -13.610;  749.540
993.565;   61.133;  -13.460;  711.360
994.117;   62.997;   -9.360;  950.780
994.669;   60.643;  -11.300;  701.320
995.221;   58.888;  -13.540;  791.920
995.774;   58.512;  -13.430;  787.580
996.326;   57.979;  -12.520;  740.220
996.878;   58.742;  -10.950;  838.420
997.430;   56.710;  -14.300;  699.860
997.982;   54.760;  -13.760;  750.140
998.534;   56.145;  -11.530;  739.060
999.086;   54.254;  -10.310;  738.220
999.638;   52.432;  -12.530;  661.380
1000.190;   51.287;  -11.840;  699.320
1000.741;   52.343;  -10.260;  742.700
1001.293;   50.729;   -8.860;  686.020
1001.845;   49.380;  -13.700;  676.640
1002.396;   50.042;  -12.100;  743.400
1002.948;   50.796;  -12.760;  737.400
1003.500;   49.324;  -10.380;  723.780
1004.051;   48.614;  -11.900;  907.580
1004.603;   47.364;  -12.250;  791.820
1005.154;   44.330;  -13.210;  608.980
1005.705;   43.508;  -10.950;  723.960
1006.257;   42.709;  -13.880;  707.220
1006.808;   41.473;  -12.840;  685.460
1007.359;   42.395;  -10.570;  763.240
1007.910;   40.429;   -9.620;  646.640
1008.461;   39.874;  -13.630;  732.940
1009.013;   38.376;  -17.200;  588.340
1009.564;   40.332;  -10.200;  793.520
1010.115;   37.757;  -12.570;  597.040
1010.665;   37.501;  -15.150;  602.160
1011.216;   38.014;  -14.480;  667.920
1011.767;   38.426;  -11.340;  697.920
1012.318;   37.658;   -9.780;  736.980
1012.869;   35.831;  -12.380;  679.000
1013.419;   35.441;  -15.560;  603.120
1013.970;   36.839;  -11.010;  666.640
1014.521;   36.625;  -11.610;  620.620
1015.071;   35.575;  -13.450;  670.380
1015.622;   34.674;  -13.870;  635.460
1016.172;   35.292;  -11.610;  596.820
1016.723;   34.684;  -12.120;  614.380
1017.273;   34.090;  -13.620;  604.160
1017.823;   34.484;  -14.140;  650.340
1018.374;   34.123;  -12.800;  611.760
1018.924;   33.657;  -12.340;  716.880
1019.474;   33.185;  -11.410;  718.880
1020.024;   32.368;  -14.770;  657.580
1020.574;   33.995;   -9.780;  726.160
1021.124;   33.809;   -8.560;  673.580
1021.674;   31.011;  -15.190;  559.120
1022.224;   32.877;  -13.530;  708.940
1022.774;   33.115;  -13.280;  668.820
1023.324;   33.200;  -10.690;  753.520
1023.874;   33.669;  -10.240;  875.760
1024.423;   31.477;  -12.540;  613.700
1024.973;   32.023;  -10.010;  610.760
1025.523;   30.977;  -10.550;  620.960
1026.072;   29.501;  -13.560;  606.420
1026.622;   29.140;  -15.120;  675.740
1027.172;   31.602;  -11.260;  715.660
1027.721;   29.379;  -11.410;  601.220
1028.270;   29.457;  -13.530;  663.400
1028.820;   29.561;  -13.680;  638.080
1029.369;   29.580;  -13.520;  612.700
1029.918;   30.056;  -10.980;  649.840
1030.468;   28.835;  -13.530;  564.780
1031.017;   29.141;  -13.170;  634.800
1031.566;   29.259;  -12.200;  608.900
1032.115;   29.135;   -9.960;  694.500
1032.664;   27.910;  -13.210;  596.480
1033.213;   28.194;  -12.500;  735.420
1033.762;   28.511;  -11.910;  635.620
1034.311;   27.222;   -9.640;  677.220
1034.860;   27.914;  -13.310;  691.000
1035.408;   27.881;  -11.830;  722.720
1035.957;   28.802;  -12.000;  719.540
1036.506;   25.772;  -11.690;  530.800
1037.055;   28.055;  -10.990;  844.320
1037.603;   25.918;  -15.120;  664.000
1038.152;   25.662;  -12.450;  534.760
1038.700;   25.845;  -10.560;  585.740
1039.249;   25.513;  -11.080;  681.220
1039.797;   25.666;  -12.540;  633.360
1040.345;   26.037;  -11.920;  705.420
1040.894;   25.843;  -11.410;  625.300
1041.442;   25.591;  -14.320;  632.200
1041.990;   24.215;  -16.240;  559.160
1042.538;   24.914;  -11.680;  536.180
1043.087;   24.385;  -10.760;  570.860
1043.635;   25.085;  -11.850;  670.500
1044.183;   23.906;  -15.480;  586.400
1044.731;   25.005;  -11.770;  576.000
1045.279;   24.039;  -13.090;  674.920
1045.827;   25.364;  -12.440;  892.400
1046.374;   22.630;  -13.840;  515.420
1046.922;   22.906;  -13.220;  590.580
1047.470;   24.604;  -10.230;  691.300
1048.018;   22.864;  -14.590;  647.960
1048.565;   24.356;  -12.050;  708.600
1049.113;   23.622;  -11.650;  557.000
1049.660;   23.408;  -10.510;  629.660
1050.208;   23.328;  -13.310;  675.640
1050.755;   21.842;  -15.900;  606.580
1051.303;   23.315;  -11.430;  686.820
1051.850;   22.204;   -8.480;  635.120
1052.397;   19.656;  -15.010;  473.960
1052.945;   21.128;  -13.960;  617.760
1053.492;   23.113;  -13.150;  741.840
1054.039;   22.590;   -9.630;  720.180
1054.586;   20.691;  -13.680;  557.240
1055.133;   21.652;  -14.570;  693.140
1055.680;   22.590;  -13.820;  646.620
1056.227;   20.840;  -11.730;  542.780
1056.774;   21.568;  -12.480;  794.980
1057.321;   19.952;  -13.930;  523.260
1057.868;   21.064;  -11.690;  651.320
1058.415;   20.839;   -9.520;  651.980
1058.961;   20.461;  -13.160;  678.940
1059.508;   20.116;  -12.920;  643.820
1060.055;   20.192;  -11.920;  581.780
1060.601;   20.908;  -11.500;  624.300
1061.148;   19.692;  -14.330;  616.820
1061.694;   19.264;  -16.870;  592.580
1062.241;   20.718;  -10.330;  596.320
1062.787;   20.302;  -10.620;  663.140
1063.334;   21.121;  -10.110;  808.560
1063.880;   20.080;  -13.400;  668.360
1064.426;   20.224;  -10.680;  706.820
1064.972;   19.057;   -9.920;  601.340
1065.518;   17.229;  -10.980;  566.640
1066.065;   18.610;  -14.890;  624.460
1066.611;   18.455;  -12.870;  598.800
1067.157;   18.891;  -12.950;  641.860
1067.703;   18.662;  -13.540;  668.480
1068.249;   18.419;  -13.540;  605.220
1068.794;   18.704;  -12.600;  626.880
1069.340;   17.228;  -10.620;  578.960
1069.886;   17.424;  -12.830;  590.700
1070.432;   16.801;  -14.870;  541.720
1070.977;   16.945;  -11.980;  601.080
1071.523;   16.890;   -8.200;  573.060
1072.068;   16.443;  -12.330;  582.000
1072.614;   16.203;  -16.370;  527.760
1073.160;   18.674;  -11.100;  687.040
1073.705;   16.492;  -10.480;  572.520
1074.250;   15.832;  -14.520;  559.900
1074.796;   17.642;  -11.460;  655.160
1075.341;   17.933;  -11.950;  664.100
1075.886;   16.200;  -11.460;  594.240
1076.431;   15.814;  -13.770;  649.880
1076.976;   15.664;  -12.680;  639.220
1077.521;   15.515;  -13.170;  583.080
1078.067;   15.260;  -10.860;  579.400
1078.612;   15.474;  -13.920;  661.620
1079.156;   15.190;  -13.880;  601.540
1079.701;   15.852;  -13.120;  693.260
1080.246;   16.410;   -9.940;  696.300
1080.791;   15.257;  -14.740;  625.020
1081.336;   15.306;  -13.750;  659.320
1081.880;   15.261;  -13.400;  649.680
1082.425;   14.319;  -12.220;  573.480
1082.970;   15.927;  -11.610;  717.040
1083.514;   13.650;  -13.580;  597.000
1084.059;   14.624;  -12.810;  586.720
1084.603;   14.348;  -12.320;  565.840
1085.147;   13.858;  -13.190;  645.220
1085.692;   14.767;  -12.480;  716.800
1086.236;   13.319;  -13.020;  503.140
1086.780;   15.338;   -9.190;  751.440
1087.325;   14.129;  -12.480;  654.620
1087.869;   13.792;  -12.450;  610.700
1088.413;   14.852;  -12.240;  705.040
1088.957;   13.051;   -9.020;  543.400
1089.501;   14.665;  -10.320;  766.640
1090.045;   13.298;  -12.720;  726.480
1090.589;   12.344;  -13.690;  569.920
1091.133;   13.557;  -10.020;  673.340
1091.676;   12.912;  -12.330;  591.940
1092.220;   12.636;  -14.970;  600.920
1092.764;   14.159;  -12.430;  706.960
1093.307;   13.130;   -9.800;  673.780
1093.851;   11.529;  -14.970;  556.540
1094.395;   12.460;  -15.310;  683.140
1094.938;   12.477;  -10.370;  632.520
1095.482;   12.171;  -11.050;  559.800
1096.025;   12.145;  -11.840;  710.880
1096.568;   12.677;  -12.840;  779.280
1097.112;   10.790;  -14.700;  508.180
1097.655;   12.485;   -8.720;  603.000
1098.198;   10.001;  -13.610;  600.180
1098.741;   10.460;  -13.350;  612.860
1099.285;   12.672;  -11.230;  657.300
1099.828;   10.103;  -11.840;  439.400
1100.371;   10.698;  -10.840;  608.160
1100.914;   10.630;  -14.190;  682.660
1101.457;   11.715;  -11.240;  679.900
1101.999;    9.564;  -11.270;  584.680
1102.542;   10.689;  -11.480;  641.440
1103.085;    9.880;  -11.750;  658.500
1103.628;   11.954;  -11.400;  762.060
1104.170;   10.056;  -10.490;  588.280
1104.713;    9.924;  -10.600;  646.700
1105.256;    9.912;  -14.360;  557.440
1105.798;    9.493;  -13.210;  499.980
1106.341;   11.749;  -10.270;  728.900
1106.883;    9.147;  -12.200;  521.340
1107.425;    9.838;  -13.110;  668.180
1107.968;    9.899;  -12.840;  612.380
1108.510;   10.904;   -6.480;  684.960
1109.052;    7.701;  -13.940;  612.620
1109.594;    8.066;  -13.690;  554.440
1110.136;    9.716;  -11.880;  643.220
1110.679;    8.576;   -9.500;  633.080
1111.221;    9.425;  -14.160;  604.460
1111.763;    8.034;  -13.980;  559.220
1112.304;    9.180;  -13.880;  547.140
1112.846;    8.930;  -12.210;  666.240
1113.388;   11.286;  -11.390;  942.180
1113.930;    8.444;  -14.540;  694.200
1114.472;    8.747;  -12.640;  606.540
1115.013;    7.369;  -11.620;  551.280
1115.555;    6.742;  -13.640;  587.100
1116.097;    6.497;  -15.380;  579.480
1116.638;    8.160;  -12.640;  684.600
1117.180;    8.382;   -9.850;  667.740
1117.721;    7.253;  -13.690;  568.580
1118.262;    8.221;  -12.680;  677.960
1118.804;    8.225;  -12.530;  637.340
1119.345;    7.229;  -11.690;  578.400
1119.886;    7.166;  -13.380;  704.040
1120.427;    6.563;  -14.070;  589.020
1120.969;    6.691;  -13.500;  597.920
1121.510;    6.217;  -11.480;  563.060
1122.051;    7.096;  -12.830;  723.580
1122.592;    5.229;  -14.290;  655.420
1123.133;    5.263;  -12.400;  547.940
1123.673;    7.538;  -10.130;  706.480
1124.214;    6.466;  -12.930;  612.460
1124.755;    6.205;  -14.380;  639.460
1125.296;    6.950;  -14.000;  627.320
1125.836;    7.244;  -10.070;  691.500
1126.377;    5.307;  -12.640;  599.660
1126.918;    6.053;  -12.960;  614.980
1127.458;    5.154;  -13.350;  622.220
1127.999;    6.640;  -10.750;  656.980
1128.539;    6.145;  -12.350;  694.240
1129.079;    4.612;  -14.860;  632.720
1129.620;    4.972;  -13.840;  558.100
1130.160;    5.163;  -12.330;  539.480
1130.700;    5.573;  -14.530;  640.840
1131.240;    5.240;  -12.530;  643.700
1131.781;    5.707;  -14.450;  619.680
1132.321;    5.372;   -9.790;  599.120
1132.861;    3.896;  -14.860;  564.200
1133.401;    4.287;  -14.290;  593.940
1133.941;    5.475;  -11.750;  626.280
1134.481;    5.334;   -9.920;  597.580
1135.020;    2.808;  -12.290;  609.160
1135.560;    4.628;  -11.650;  674.940
1136.100;    3.967;  -16.270;  501.160
1136.640;    3.926;  -10.890;  510.480
1137.179;    3.322;  -14.180;  537.960
1137.719;    3.658;  -16.250;  605.400
1138.258;    4.450;  -14.230;  587.360
1138.798;    4.677;   -9.090;  663.780
1139.337;    2.368;  -15.130;  482.840
1139.877;    3.277;  -13.680;  642.360
1140.416;    6.086;  -11.320;  878.060
1140.955;    3.004;  -10.860;  535.380
1141.494;    3.278;  -12.920;  669.280
1142.034;    2.270;  -13.930;  583.520
1142.573;    4.055;  -11.440;  646.280
1143.112;    2.928;  -12.000;  553.480
1143.651;    2.236;  -13.670;  536.480
1144.190;    3.503;  -12.730;  691.640
1144.729;    3.176;  -14.560;  607.420
1145.267;    4.018;  -11.830;  584.900
1145.806;    3.631;  -12.230;  637.040
1146.345;    1.896;  -14.130;  635.020
1146.884;    3.403;  -11.590;  622.500
1147.422;    2.569;  -12.550;  533.060
1147.961;    3.239;  -11.180;  708.460
1148.500;    2.810;  -11.510;  669.720
1149.038;    3.890;  -11.640;  632.500
1149.577;    3.113;  -10.130;  698.640
1150.115;    0.714;  -13.970;  452.280
1150.653;    1.965;  -14.520;  607.340
1151.192;    2.752;  -12.810;  552.920
1151.730;    2.309;   -9.100;  652.560
1152.268;    1.475;  -12.220;  589.520
1152.806;    1.528;  -14.140;  571.180
1153.344;    1.349;  -12.350;  577.640
1153.882;    2.394;   -8.980;  600.060
1154.421;   -0.463;  -15.190;  470.620
1154.958;   -0.010;  -15.210;  595.240
1155.496;    2.380;  -12.850;  645.280
1156.034;    2.378;   -9.940;  721.880
1156.572;    2.862;  -13.570;  667.060
1157.110;   -0.586;  -14.590;  473.940
1157.647;    2.706;  -13.030;  676.960
1158.185;    0.780;  -12.140;  564.320
1158.723;   -0.809;  -14.390;  509.200
1159.260;    0.172;  -14.090;  701.700
1159.798;    2.065;  -11.920;  658.160
1160.335;    0.927;  -11.110;  631.820

