
Integration time [ms]:   3.882
Averaging Nr. [scans]: 1000
Smoothing Nr. [pixels]: 0
Data measured with spectrometer [name]: 7414430SP
Wave   ;Sample   ;Dark     ;Reference
[nm]   ;[counts] ;[counts] ;[counts] 

288.544;  140.986;    7.153;  793.890
289.143;  143.555;    8.402;  681.602
289.742;  145.545;    7.062;  828.814
290.341;  133.012;    0.191;  789.841
290.940;  122.256;    0.321;  730.702
291.538;  123.860;    3.811;  881.108
292.137;  122.900;   -3.438;  792.581
292.736;  124.986;   -2.809;  975.101
293.335;  121.774;   -5.239;  735.086
293.934;  122.380;   -4.939;  781.677
294.532;  123.631;   -2.199; 1031.958
295.131;  109.321;   -6.831;  834.394
295.730;  108.715;   -6.620;  809.588
296.328;  106.243;   -6.471;  783.442
296.927;  106.128;   -6.571;  779.652
297.525;  107.615;   -7.391;  781.236
298.124;   97.808;   -9.402;  654.009
298.722;  102.647;   -5.781;  761.933
299.321;  100.867;   -6.351;  708.597
299.919;   98.622;   -8.661;  751.918
300.518;   95.585;  -11.922;  689.338
301.116;   95.707;   -6.941;  691.381
301.715;   96.678;   -5.471;  730.222
302.313;   96.294;   -8.361;  704.943
302.911;   91.217;   -9.082;  733.830
303.509;   96.226;   -4.571;  925.627
304.108;   93.926;   -7.111;  760.383
304.706;   93.297;   -7.681;  801.664
305.304;   87.993;   -9.162;  796.707
305.902;   92.506;   -6.761;  784.484
306.500;   89.228;   -6.921;  728.200
307.098;   88.785;   -6.491;  746.560
307.696;   85.489;   -6.941;  780.432
308.294;   85.970;   -6.301;  731.359
308.892;   87.924;   -4.771;  759.769
309.490;   84.019;   -5.141;  712.161
310.088;   82.217;   -2.912;  788.444
310.686;   86.726;   -0.421;  821.749
311.284;   82.402;   -3.461;  766.040
311.882;   80.708;   -6.282;  731.225
312.480;   77.602;   -3.632;  697.167
313.078;   79.968;   -2.112;  808.331
313.675;   80.507;   -1.931;  691.600
314.273;   75.534;   -1.442;  797.837
314.871;   74.852;   -3.002;  589.829
315.468;   72.480;   -2.252;  652.090
316.066;   75.692;   -1.091;  694.427
316.664;   69.480;   -4.512;  656.351
317.261;   72.984;   -0.062;  910.128
317.859;   67.806;   -0.952;  768.735
318.456;   69.926;    0.719;  830.096
319.054;   65.500;   -4.002;  787.828
319.651;   65.284;   -4.972;  759.928
320.249;   63.494;   -1.162;  810.188
320.846;   62.055;   -2.651;  714.286
321.443;   59.917;   -3.832;  832.135
322.041;   56.474;   -4.312;  812.315
322.638;   53.785;   -3.872;  701.456
323.235;   56.671;   -4.361;  665.683
323.833;   54.175;   -4.821;  740.354
324.430;   49.149;   -6.971;  615.900
325.027;   49.896;   -4.361;  876.855
325.624;   50.467;   -5.581;  644.532
326.221;   47.903;   -6.601;  689.717
326.818;   46.612;   -7.301;  818.332
327.415;   49.861;   -6.180;  748.828
328.012;   49.940;   -5.920;  690.585
328.609;   46.918;   -8.390;  731.389
329.206;   45.002;   -6.121;  778.621
329.803;   45.536;   -5.241;  737.841
330.400;   48.557;   -7.420;  704.260
330.997;   48.991;   -5.931;  817.147
331.594;   47.573;   -5.641;  788.185
332.191;   51.578;   -6.451;  728.722
332.787;   55.129;   -4.651;  844.463
333.384;   52.988;   -5.472;  763.093
333.981;   51.117;   -6.303;  815.687
334.578;   53.944;   -5.892;  708.378
335.174;   56.044;   -4.102;  731.469
335.771;   54.842;   -8.053;  836.456
336.367;   51.438;   -7.363;  710.631
336.964;   57.028;   -6.243;  793.266
337.561;   54.895;   -5.653;  731.112
338.157;   50.452;   -7.074;  911.916
338.754;   48.222;   -5.474;  796.589
339.350;   46.295;   -5.624;  722.493
339.946;   48.781;   -5.054;  773.135
340.543;   42.107;   -6.695;  846.136
341.139;   35.098;   -6.215;  720.836
341.735;   33.402;   -5.746;  772.593
342.332;   32.853;   -7.335;  691.472
342.928;   32.930;   -4.835;  795.394
343.524;   26.942;   -4.586;  761.684
344.120;   24.563;   -3.946;  738.562
344.716;   27.905;   -4.835;  723.717
345.313;   26.270;   -5.325;  795.342
345.909;   20.745;   -6.535;  627.336
346.505;   22.439;   -4.725;  740.247
347.101;   23.625;   -4.164;  827.864
347.697;   24.078;   -5.274;  785.398
348.293;   17.750;   -7.145;  627.244
348.889;   19.073;   -4.364;  745.914
349.485;   19.394;   -6.404;  688.205
350.081;   19.816;   -7.534;  772.592
350.676;   15.087;   -6.995;  691.606
351.272;   18.991;   -3.544;  809.530
351.868;   18.753;   -5.324;  780.497
352.464;   16.210;   -7.204;  723.932
353.059;   12.410;   -6.894;  646.017
353.655;   15.564;   -3.754;  777.063
354.251;   17.081;   -6.143;  759.845
354.846;   11.826;   -9.464;  740.646
355.442;    9.821;   -7.555;  753.071
356.038;   10.865;   -5.474;  751.708
356.633;   11.823;   -5.914;  728.594
357.229;   10.093;   -8.944;  724.757
357.824;    8.150;   -6.794;  703.600
358.420;    6.846;   -5.754;  679.726
359.015;    7.968;   -5.664;  695.357
359.610;    9.681;   -8.004;  763.920
360.206;    2.631;   -8.815;  603.240
360.801;    5.782;   -8.834;  646.503
361.396;    8.377;   -6.274;  725.975
361.992;    3.287;   -8.574;  668.220
362.587;    0.377;   -9.265;  670.160
363.182;    2.779;   -5.484;  689.631
363.777;    4.549;   -5.164;  738.242
364.372;    3.999;   -6.954;  737.314
364.967;   -1.180;   -7.065;  680.744
365.563;    3.879;   -5.684;  815.567
366.158;    0.637;   -6.484;  685.161
366.753;    1.822;   -8.004;  649.263
367.348;   -0.032;  -10.114;  746.056
367.942;   -0.445;   -7.764;  697.298
368.537;   -0.994;   -4.554;  754.245
369.132;   -0.278;   -7.664;  703.428
369.727;   -4.169;   -8.905;  638.079
370.322;   -3.539;   -4.945;  580.186
370.917;   -3.540;   -7.095;  710.646
371.511;    0.073;   -6.574;  861.834
372.106;   -3.217;   -6.515;  776.964
372.701;   -7.739;   -8.225;  585.988
373.296;   -1.962;   -4.494;  863.135
373.890;   -5.526;   -7.965;  647.840
374.485;   -7.948;   -9.745;  691.199
375.079;   -4.801;   -5.554;  738.685
375.674;   -3.181;   -4.724;  812.970
376.268;   -7.533;   -8.365;  691.759
376.863;  -12.830;   -8.126;  580.327
377.457;   -6.803;   -6.045;  662.490
378.052;   -8.179;   -6.835;  764.884
378.646;   -8.275;   -9.375;  741.167
379.240;   -9.969;   -6.185;  721.176
379.835;   -8.230;   -6.135;  636.978
380.429;  -10.950;   -8.365;  562.557
381.023;  -10.538;   -7.935;  779.205
381.617;  -12.460;   -8.325;  680.106
382.212;   -9.633;   -7.405;  685.303
382.806;   -8.246;   -4.155;  760.690
383.400;  -12.487;   -8.945;  672.281
383.994;  -13.170;   -8.365;  664.870
384.588;   -9.350;   -7.824;  697.701
385.182;   -7.987;   -7.984;  726.624
385.776;   -9.538;  -10.404;  706.875
386.370;  -12.957;   -7.335;  681.968
386.964;  -12.437;   -7.485;  684.155
387.558;   -9.913;   -8.174;  598.360
388.152;  -13.478;  -10.415;  681.959
388.745;  -11.249;   -9.595;  814.707
389.339;  -10.269;   -6.454;  747.642
389.933;   -9.199;   -5.804;  695.370
390.527;   -9.394;   -6.854;  859.029
391.120;  -16.121;   -7.665;  595.318
391.714;  -13.385;   -7.245;  711.633
392.308;   -9.802;   -4.514;  780.253
392.901;  -13.338;   -7.935;  642.460
393.495;  -16.007;   -8.585;  595.414
394.089;  -13.343;   -5.245;  760.452
394.682;  -13.579;   -6.305;  697.188
395.275;  -14.052;   -9.335;  719.927
395.869;  -16.049;   -7.375;  667.314
396.462;  -14.454;   -7.055;  616.609
397.056;  -10.640;   -5.434;  776.621
397.649;  -14.905;   -9.525;  731.575
398.242;  -11.535;   -7.574;  712.645
398.836;  -11.589;   -5.134;  766.408
399.429;  -11.915;   -6.544;  631.041
400.022;  -15.430;   -9.215;  665.902
400.615;  -12.978;   -8.105;  805.609
401.208;  -12.322;   -7.614;  691.451
401.802;  -12.479;   -8.085;  699.329
402.395;  -14.291;   -9.575;  683.502
402.988;  -15.545;   -9.285;  696.627
403.581;  -12.846;   -7.514;  646.878
404.174;   -9.866;   -6.404;  686.568
404.767;  -13.016;   -8.775;  638.583
405.360;  -15.524;   -7.415;  621.445
405.953;   -9.640;   -5.624;  759.034
406.545;   -9.395;   -6.474;  725.342
407.138;  -13.641;   -8.445;  618.350
407.731;  -12.210;  -10.044;  613.303
408.324;   -9.190;   -8.484;  660.554
408.917;   -9.005;   -7.624;  681.864
409.509;  -10.842;   -8.304;  740.396
410.102;  -12.762;   -8.495;  643.948
410.695;   -7.100;   -7.824;  665.758
411.287;   -8.196;   -7.754;  599.821
411.880;   -8.889;   -9.294;  585.421
412.472;  -11.810;   -8.814;  613.092
413.065;   -9.762;   -6.674;  629.408
413.657;   -7.124;   -9.664;  576.678
414.250;   -6.771;  -10.264;  646.681
414.842;   -9.335;   -8.664;  676.353
415.434;   -6.430;   -8.584;  570.463
416.027;   -1.750;   -9.423;  652.196
416.619;   -4.173;  -10.764;  713.400
417.211;   -5.827;   -7.404;  599.352
417.804;   -1.627;   -7.383;  628.499
418.396;   -5.026;   -8.334;  607.643
418.988;   -2.702;   -9.633;  659.238
419.580;   -6.474;  -10.554;  568.276
420.172;   -4.535;   -8.683;  536.196
420.764;    0.287;   -9.713;  672.482
421.356;   -0.744;  -11.303;  636.898
421.948;   -1.443;   -8.453;  677.661
422.540;    2.643;   -5.793;  680.027
423.132;    1.962;   -7.162;  600.641
423.724;   -1.507;   -7.933;  561.267
424.316;    1.065;   -9.083;  621.345
424.908;    4.017;   -8.392;  591.517
425.500;    5.688;   -8.062;  647.978
426.092;    5.854;   -9.692;  648.268
426.683;    4.409;   -8.223;  684.836
427.275;    7.646;   -8.602;  641.471
427.867;    9.561;   -8.382;  668.948
428.458;    9.560;  -10.472;  732.344
429.050;    7.711;   -9.112;  680.749
429.642;   10.263;   -7.752;  743.124
430.233;   10.591;   -8.832;  569.356
430.825;   12.704;   -8.292;  724.809
431.416;    9.418;   -7.522;  698.241
432.008;   12.586;   -9.262;  651.723
432.599;   14.472;   -6.441;  656.073
433.190;   10.874;   -9.222;  637.670
433.782;    9.668;  -11.832;  590.395
434.373;   18.194;   -7.121;  884.765
434.964;   16.650;   -9.141;  602.920
435.556;   13.697;   -9.332;  634.537
436.147;   16.669;   -8.892;  758.490
436.738;   16.896;   -8.151;  701.099
437.329;   22.100;   -8.281;  721.723
437.920;   15.144;   -9.062;  666.688
438.511;   14.439;  -11.182;  564.526
439.103;   22.022;   -7.461;  623.998
439.694;   23.480;   -8.541;  681.583
440.285;   25.013;   -7.351;  764.432
440.876;   23.057;   -8.201;  845.738
441.466;   21.052;  -10.381;  575.162
442.057;   26.715;   -7.620;  665.814
442.648;   26.599;   -8.461;  746.255
443.239;   23.952;   -8.991;  620.477
443.830;   28.559;   -7.910;  704.958
444.421;   30.427;   -7.340;  655.474
445.011;   27.974;   -8.981;  693.619
445.602;   28.038;   -9.341;  743.126
446.193;   28.019;  -11.390;  488.117
446.783;   33.930;  -11.240;  640.397
447.374;   29.132;   -8.471;  692.759
447.964;   30.038;   -8.471;  713.770
448.555;   38.325;   -6.590;  822.742
449.145;   35.083;   -8.200;  662.853
449.736;   35.165;  -11.040;  803.179
450.326;   35.224;   -9.640;  713.626
450.917;   39.957;   -9.480;  675.324
451.507;   39.664;   -8.020;  600.661
452.097;   41.095;  -10.210;  746.267
452.688;   41.285;   -7.810;  742.160
453.278;   41.561;   -9.360;  566.840
453.868;   46.453;   -8.669;  793.550
454.458;   43.812;  -10.950;  651.141
455.048;   43.912;  -10.200;  711.783
455.639;   45.047;   -9.369;  567.096
456.229;   48.657;   -7.739;  710.694
456.819;   51.448;   -8.939;  751.158
457.409;   50.664;   -7.169;  773.993
457.999;   53.002;   -7.779;  737.505
458.589;   54.695;   -7.039;  686.606
459.179;   54.028;   -9.019;  717.658
459.769;   51.660;   -8.909;  627.099
460.358;   56.729;   -8.659;  797.262
460.948;   56.808;   -8.209;  689.503
461.538;   57.692;   -9.879;  660.677
462.128;   56.649;   -9.379;  664.934
462.717;   63.454;   -9.158;  710.326
463.307;   66.551;   -8.638;  705.846
463.897;   61.612;   -8.869;  656.942
464.486;   61.252;   -7.409;  837.128
465.076;   64.961;   -9.618;  733.776
465.666;   69.112;   -7.578;  652.900
466.255;   67.130;   -9.369;  785.651
466.845;   65.853;  -10.049;  666.749
467.434;   69.165;   -8.168;  725.873
468.023;   70.948;   -9.188;  658.357
468.613;   68.028;   -9.849;  713.946
469.202;   72.592;  -12.958;  646.507
469.791;   75.533;   -9.488;  737.811
470.381;   78.314;   -6.468;  742.813
470.970;   78.522;  -10.248;  711.099
471.559;   77.505;  -11.428;  733.291
472.148;   81.164;   -9.738;  675.737
472.738;   83.368;   -7.877;  765.466
473.327;   83.266;  -11.868;  637.529
473.916;   83.014;   -8.578;  737.446
474.505;   87.156;  -11.137;  751.703
475.094;   90.156;   -9.407;  806.570
475.683;   89.327;   -9.977;  797.699
476.272;   90.131;  -10.807;  730.632
476.861;   91.939;  -11.017;  706.754
477.449;  100.281;  -10.316;  728.487
478.038;   94.214;  -10.187;  692.513
478.627;   94.719;  -12.458;  714.852
479.216;  101.095;  -10.127;  769.441
479.805;  105.350;   -6.256;  783.375
480.393;  104.854;   -8.737; 1008.945
480.982;  103.337;   -9.087;  874.501
481.571;  109.956;   -7.806;  858.333
482.159;  110.587;  -10.596;  705.386
482.748;  110.443;  -11.507;  821.385
483.336;  114.958;   -8.366;  858.209
483.925;  114.954;   -7.497;  774.373
484.513;  122.276;   -8.326;  758.962
485.102;  118.705;  -10.277;  810.965
485.690;  127.300;   -8.256; 1011.050
486.278;  129.495;   -7.146;  979.329
486.867;  129.503;   -7.986;  809.662
487.455;  131.960;   -9.926;  898.229
488.043;  132.467;  -10.026;  748.361
488.631;  142.255;   -7.226; 1005.079
489.220;  146.088;   -8.696;  908.626
489.808;  145.608;  -12.276;  741.415
490.396;  152.262;   -9.386;  914.645
490.984;  157.693;   -8.506;  830.161
491.572;  167.881;   -8.226;  940.315
492.160;  173.951;   -9.836;  919.081
492.748;  184.214;  -10.316;  884.341
493.336;  203.928;   -7.146; 1019.693
493.924;  226.081;   -7.965;  958.077
494.512;  251.612;  -10.316; 1066.638
495.100;  288.405;  -10.186; 1103.280
495.687;  340.616;   -7.805; 1206.373
496.275;  404.255;   -9.686; 1150.796
496.863;  479.808;  -11.566; 1281.171
497.451;  577.123;  -11.406; 1386.805
498.038;  710.353;   -8.235; 1556.729
498.626;  822.720;   -7.485; 1741.407
499.214;  977.343;   -8.646; 2016.609
499.801; 1222.218;   -9.936; 2220.633
500.389; 1411.746;   -8.056; 2312.494
500.976; 1586.582;   -6.166; 2744.849
501.564; 1784.626;   -9.126; 3148.565
502.151; 2072.653;  -12.456; 3515.999
502.738; 2495.319;  -10.056; 3971.274
503.326; 2939.159;  -10.605; 4403.796
503.913; 3309.202;  -10.576; 5161.749
504.500; 3819.170;   -9.056; 5986.420
505.088; 4337.035;  -10.136; 6381.201
505.675; 5101.247;   -9.075; 6925.547
506.262; 5661.223;  -11.346; 7619.060
506.849; 6407.762;   -9.376; 8733.969
507.436; 6993.575;   -7.365; 9790.121
508.023; 7340.657;   -8.686; 9985.472
508.610; 7726.014;   -8.846;10434.618
509.197; 8739.429;   -9.077;11198.435
509.784;10081.431;  -10.246;12391.194
510.371;10435.795;   -9.825;13603.713
510.958;11070.387;  -10.896;14426.586
511.545;11944.193;   -9.006;15243.775
512.132;12924.025;   -8.765;15945.876
512.719;13974.985;   -8.286;16340.369
513.305;16062.132;   -9.256;18011.766
513.892;18432.473;  -11.106;19754.971
514.479;20096.793;   -8.576;20967.805
515.066;21319.244;   -9.046;22299.793
515.652;21859.748;  -10.676;22908.660
516.239;23377.479;  -10.166;23798.875
516.825;23851.305;  -11.266;25567.275
517.412;23591.352;   -7.446;28154.959
517.998;24267.461;  -10.916;28344.111
518.585;23476.299;   -9.166;27134.219
519.171;23166.910;  -10.135;27268.576
519.758;25060.871;   -8.806;28964.129
520.344;28112.930;   -6.716;30664.494
520.930;29635.713;  -10.166;32550.605
521.516;30132.299;   -9.615;35422.895
522.103;31729.969;   -8.656;38280.004
522.689;34367.215;   -9.646;37835.117
523.275;35135.402;  -10.786;37288.613
523.861;36056.926;   -9.266;37281.395
524.447;36100.328;   -8.285;37846.949
525.033;36255.496;   -9.426;38321.949
525.619;35243.305;   -9.836;38579.285
526.205;35758.172;   -8.136;40622.875
526.791;36935.719;   -9.986;42258.836
527.377;38769.336;   -8.236;42966.902
527.963;37556.273;  -12.117;42018.949
528.549;36371.637;   -8.376;42476.828
529.135;37592.660;   -8.696;41854.852
529.721;39272.945;   -9.686;41237.711
530.306;41595.613;   -8.616;41259.445
530.892;44733.992;   -9.396;41506.047
531.478;45182.215;   -9.926;43559.613
532.063;47083.316;  -10.236;47695.563
532.649;49458.652;   -8.257;50808.324
533.235;50944.367;  -11.476;51787.500
533.820;49617.430;   -8.156;52145.035
534.406;47345.664;  -12.257;51133.488
534.991;45297.652;   -8.686;49996.805
535.576;43343.141;   -9.426;48882.852
536.162;43327.367;   -8.436;46942.285
536.747;41815.496;  -10.957;45711.746
537.333;41168.824;  -13.147;48510.180
537.918;44124.316;   -9.027;50439.891
538.503;45725.063;   -8.256;50863.711
539.088;49840.313;  -10.576;50906.922
539.673;52205.977;  -10.907;52621.965
540.259;52086.098;   -9.126;52368.094
540.844;48854.926;   -9.026;50879.109
541.429;49677.184;   -9.597;52077.777
542.014;53758.934;  -11.447;52716.695
542.599;54766.063;   -9.236;52363.281
543.184;52960.922;  -12.267;53187.137
543.769;54417.859;  -10.367;54697.605
544.354;54632.371;  -10.887;53913.914
544.938;48266.398;  -11.687;49680.164
545.523;43258.824;   -8.286;47386.277
546.108;44553.309;   -9.317;49151.949
546.693;46743.324;  -10.187;51384.637
547.278;46196.934;   -9.926;51853.254
547.862;45484.547;   -9.196;51173.750
548.447;44141.684;   -9.657;51691.395
549.031;43737.410;   -9.127;52456.703
549.616;47931.531;  -10.836;52714.516
550.201;51871.621;   -8.507;52414.598
550.785;52121.789;  -10.537;52355.059
551.370;51667.332;  -11.727;54589.453
551.954;52637.094;   -9.457;58267.348
552.538;52421.414;   -8.147;59062.176
553.123;50399.699;   -9.397;58115.285
553.707;47670.184;   -9.558;56556.285
554.291;48934.016;   -9.417;56201.668
554.876;48804.691;   -7.627;55335.762
555.460;46530.250;  -10.457;54155.703
556.044;44535.305;  -10.078;53721.484
556.628;45367.789;   -9.407;53731.016
557.212;45410.027;   -7.957;54312.531
557.796;45050.070;  -11.327;53797.773
558.380;49763.805;  -10.868;56145.984
558.964;50963.828;   -9.637;57277.930
559.548;49062.961;   -8.807;56459.641
560.132;49831.336;  -10.187;54434.543
560.716;49184.164;   -9.868;54800.617
561.300;49703.770;  -10.217;57606.945
561.884;49994.176;   -4.947;58972.445
562.467;49383.371;   -9.588;57327.570
563.051;47823.520;  -11.138;54962.434
563.635;45727.656;   -9.358;52594.473
564.219;45538.078;   -9.797;50610.410
564.802;46096.957;   -9.918;49551.180
565.386;43674.352;  -10.838;48370.953
565.969;42895.543;   -8.037;48178.871
566.553;42536.387;   -5.667;49957.305
567.136;40817.785;   -8.258;50369.594
567.720;40293.457;  -11.278;49492.004
568.303;43416.852;   -9.028;50616.352
568.887;43059.492;   -7.508;50727.148
569.470;41687.938;  -11.068;51698.379
570.053;41634.066;  -10.028;52122.078
570.637;40007.203;  -11.077;52536.438
571.220;39392.523;   -8.747;51186.098
571.803;40815.266;   -8.868;51032.762
572.386;42968.305;  -10.608;49609.887
572.969;43011.246;  -10.548;48285.926
573.552;40945.723;   -7.898;47624.285
574.135;41897.727;   -9.918;45498.641
574.718;37956.367;  -10.328;41970.434
575.301;35070.535;   -9.548;41447.137
575.884;32184.703;   -8.768;40923.836
576.467;35399.535;   -9.858;45267.723
577.050;35365.723;  -11.018;48175.543
577.633;36099.047;  -10.048;47729.328
578.216;35539.852;  -10.268;47579.793
578.799;32744.029;  -11.808;47820.996
579.381;32918.223;   -7.338;48115.551
579.964;36017.797;   -9.728;47333.766
580.547;37425.281;   -8.928;46668.969
581.129;38767.910;   -9.149;44466.141
581.712;39087.309;  -11.359;44164.922
582.294;36588.570;  -10.738;46477.855
582.877;34965.414;   -8.788;48244.254
583.459;35265.824;   -9.859;47437.895
584.042;37807.840;   -9.649;46943.219
584.624;37556.137;  -10.529;46792.227
585.206;35809.148;  -10.298;46557.250
585.789;35288.441;  -11.029;45793.773
586.371;33252.234;   -9.359;43836.391
586.953;32556.193;   -8.799;42972.492
587.536;32286.803;   -8.928;42487.211
588.118;32035.945;   -9.180;42086.414
588.700;31660.869;  -10.519;43389.930
589.282;30914.258;   -8.098;43646.039
589.864;31244.994;   -8.139;43438.109
590.446;32861.734;  -10.509;43151.926
591.028;33067.574;  -11.119;42781.867
591.610;34819.871;  -10.019;42839.098
592.192;34985.465;   -8.838;42820.402
592.774;31622.920;  -11.549;40724.277
593.356;28451.727;  -11.609;39874.789
593.937;27590.961;  -10.019;39980.648
594.519;30113.924;   -7.839;42069.633
595.101;32722.545;  -10.779;42976.031
595.683;33999.035;  -10.049;44084.441
596.264;33834.957;   -9.969;43478.797
596.846;33291.180;   -9.699;43803.672
597.427;32098.494;  -10.970;42986.934
598.009;31503.691;  -13.090;42832.219
598.591;30980.904;   -9.509;42580.086
599.172;31537.043;   -9.019;43061.805
599.753;32317.814;  -13.310;41691.469
600.335;33135.867;  -11.010;40692.520
600.916;32487.721;  -10.309;39982.422
601.498;31259.713;   -8.209;40318.617
602.079;30946.885;  -11.440;40670.609
602.660;32615.549;   -8.690;41450.898
603.241;33769.984;  -12.759;41137.738
603.823;32266.113;  -10.409;38868.797
604.404;31681.223;  -11.790;38182.785
604.985;33879.906;  -10.280;38078.047
605.566;35378.336;   -8.059;38056.633
606.147;32355.783;   -8.960;37020.418
606.728;29827.217;  -10.710;37883.359
607.309;29226.387;  -12.760;38748.273
607.890;27809.555;   -9.959;38850.230
608.471;27933.285;   -9.780;37457.918
609.051;29599.502;   -8.940;36066.457
609.632;30399.857;  -12.070;35991.074
610.213;30508.150;   -9.610;37402.641
610.794;30951.432;   -8.750;38383.363
611.374;31490.826;  -11.100;40562.387
611.955;32008.154;  -12.200;38533.727
612.536;32094.975;  -10.410;36951.789
613.116;31097.918;  -10.010;37197.891
613.697;29496.121;  -10.480;38411.125
614.277;29565.064;  -12.751;38673.938
614.858;28793.213;  -11.600;37075.863
615.438;28600.684;   -8.190;35092.906
616.019;27149.428;   -8.941;33666.301
616.599;29106.961;  -13.540;34189.023
617.179;32264.826;  -10.890;36952.047
617.760;31611.443;   -7.610;39582.574
618.340;29398.045;  -14.441;38943.977
618.920;28859.963;   -9.180;37594.156
619.500;31103.820;  -11.881;37866.938
620.080;32799.879;   -9.870;37869.043
620.660;31363.070;  -13.211;36868.617
621.241;29992.863;  -11.921;36352.309
621.821;29729.135;  -10.271;35459.520
622.401;31001.791;   -8.200;35207.414
622.980;32325.225;  -11.141;35980.422
623.560;31359.246;  -14.321;37351.328
624.140;29814.201;   -9.360;34388.582
624.720;25949.453;   -7.481;32368.764
625.300;23519.539;  -12.730;32638.629
625.880;27263.607;  -11.441;34599.035
626.459;30714.686;  -10.971;36831.738
627.039;34533.391;   -9.011;38299.098
627.619;35146.262;   -8.521;38289.574
628.198;33197.148;   -9.861;37220.695
628.778;31975.838;   -8.841;37632.563
629.357;32263.070;   -9.891;38003.012
629.937;32671.219;  -11.871;38402.039
630.516;32187.006;  -10.641;37868.801
631.096;33937.730;  -11.391;35760.410
631.675;35427.355;   -6.622;35225.219
632.254;32408.217;  -13.002;35130.289
632.834;31209.012;  -11.622;35794.570
633.413;32123.203;   -8.321;35788.922
633.992;30349.506;   -7.732;34532.863
634.571;30270.414;  -10.992;33590.113
635.151;29810.385;  -10.422;34943.863
635.730;31079.303;  -11.511;35352.523
636.309;31606.498;   -7.901;35366.605
636.888;30586.146;  -11.452;36165.637
637.467;29333.318;  -10.672;37515.902
638.046;29749.949;   -9.301;39288.695
638.625;31188.422;  -11.452;38279.699
639.204;31919.219;  -12.262;37741.598
639.782;32156.189;  -11.892;38364.551
640.361;30931.656;  -11.411;36740.621
640.940;26001.211;  -11.501;34950.082
641.519;28075.865;  -10.921;34137.398
642.097;31794.553;  -10.101;35654.258
642.676;30627.279;  -10.821;35637.957
643.255;31709.684;   -8.631;36567.074
643.833;34070.441;  -11.411;37809.434
644.412;36882.633;  -12.021;37337.293
644.990;37296.418;  -12.271;37018.531
645.569;36051.203;   -9.741;36518.469
646.147;33397.020;   -9.051;36186.430
646.726;33239.195;  -13.861;36267.688
647.304;33608.070;   -9.461;36647.625
647.882;33384.035;  -13.171;39286.742
648.461;33902.434;  -11.911;39157.703
649.039;32449.412;   -9.541;35412.883
649.617;31431.449;   -8.901;34744.918
650.195;29411.068;   -8.591;35403.098
650.773;28817.848;  -13.031;35053.797
651.352;27859.547;  -12.211;33756.816
651.930;25707.750;  -11.361;31868.773
652.508;22626.887;   -8.601;33121.551
653.086;25207.471;   -9.991;33564.793
653.663;29730.195;  -11.931;34054.668
654.241;32037.727;  -10.821;35693.309
654.819;33560.473;   -9.341;36422.906
655.397;31287.564;  -10.851;38213.484
655.975;29926.938;  -11.461;39507.625
656.553;30032.328;   -8.841;39498.223
657.130;29591.260;  -10.371;40395.480
657.708;30252.021;  -11.071;39242.020
658.286;29779.984;  -11.141;38920.020
658.863;30671.826;  -10.861;40202.898
659.441;34741.574;  -11.181;39677.938
660.018;35044.664;  -10.851;40413.355
660.596;34756.816;  -12.571;39931.414
661.173;35092.289;  -12.141;39604.531
661.750;34942.480;  -11.571;39700.070
662.328;32336.883;  -10.780;39292.809
662.905;29753.842;  -10.750;38235.648
663.482;26554.723;  -11.320;36212.305
664.060;25893.867;  -10.160;35944.945
664.637;30722.209;  -13.120;35170.785
665.214;32806.496;  -11.500;34197.523
665.791;31014.908;  -12.430;34549.520
666.368;28705.412;   -9.840;35118.578
666.945;27980.285;  -11.290;36019.418
667.522;28645.008;  -13.540;36048.438
668.099;29076.227;  -10.250;36243.914
668.676;28177.566;  -11.270;35958.875
669.253;27226.092;   -8.210;37384.730
669.830;26477.104;   -9.710;36779.629
670.407;25758.902;   -9.700;35231.289
670.984;26336.662;   -9.190;35544.270
671.560;25727.623;   -9.560;35466.867
672.137;25423.168;  -11.820;34280.863
672.714;28109.613;  -12.460;34632.863
673.290;32511.805;  -10.940;35135.422
673.867;33229.203;  -10.510;36114.480
674.443;29843.898;  -12.110;36152.859
675.020;31040.473;  -11.760;35327.238
675.596;31834.584;   -9.380;35795.176
676.173;30364.139;  -11.120;35430.355
676.749;29352.598;  -13.390;33549.516
677.326;28751.777;  -12.600;32210.012
677.902;27728.277;  -10.830;32068.871
678.478;27787.873;  -12.400;32583.891
679.054;29823.410;   -8.610;32088.928
679.631;29965.955;  -11.640;30978.848
680.207;29792.809;   -8.140;33160.887
680.783;30765.279;  -12.300;35570.363
681.359;29658.498;  -10.910;36125.184
681.935;29794.025;  -11.040;35240.922
682.511;30748.006;  -11.130;34429.961
683.087;31148.563;  -11.080;34463.680
683.663;33423.441;  -10.530;34648.898
684.239;33056.891;  -12.120;34546.457
684.815;30366.107;   -8.870;35586.375
685.390;29566.807;   -8.940;35821.895
685.966;29565.621;  -12.109;35085.871
686.542;28464.434;  -13.539;34198.230
687.118;28317.990;  -10.379;32847.707
687.693;28623.908;  -10.189;32794.027
688.269;27458.539;  -12.939;33072.367
688.844;26405.314;   -8.679;33141.664
689.420;27208.014;  -10.919;33965.742
689.995;27484.215;   -7.489;34655.523
690.571;26931.453;  -12.199;33576.742
691.146;26941.977;   -8.979;32657.219
691.722;28287.279;   -9.119;32526.979
692.297;26849.709;  -10.519;33014.617
692.872;26607.326;  -10.629;34012.254
693.448;27332.291;  -12.119;34237.434
694.023;28010.475;   -8.219;34142.672
694.598;26060.350;  -13.209;34132.031
695.173;25057.613;  -11.879;34205.250
695.748;25875.535;  -12.039;32882.488
696.323;25531.555;  -11.779;32864.906
696.898;26297.336;  -10.219;33170.004
697.473;27352.406;  -13.639;32432.984
698.048;27808.809;  -11.239;31649.303
698.623;30058.545;  -10.859;30778.141
699.198;31930.094;  -13.379;31140.119
699.773;32575.547;  -13.409;31764.299
700.348;32955.227;  -12.329;31780.816
700.922;33446.527;   -8.749;32046.375
701.497;33600.629;  -12.449;32603.574
702.072;32531.965;   -8.879;34799.871
702.646;30381.629;  -10.719;35793.172
703.221;28872.738;   -8.469;35201.590
703.795;28691.904;  -11.389;34764.527
704.370;28791.504;  -12.499;34307.367
704.944;28603.916;  -11.449;33509.887
705.519;27769.623;  -10.659;31388.584
706.093;27125.338;  -12.909;31340.104
706.668;27198.266;  -13.509;32630.281
707.242;26369.910;  -10.049;32728.779
707.816;24485.510;  -10.629;32947.238
708.390;24083.684;  -11.829;33277.855
708.965;24431.916;  -11.159;33834.336
709.539;25361.631;  -11.069;33709.273
710.113;24872.311;  -10.908;33044.313
710.687;23515.758;   -9.488;31953.992
711.261;23572.168;  -13.068;30505.949
711.835;26322.098;  -12.748;30262.369
712.409;27364.268;  -10.678;31254.447
712.983;26539.447;  -11.658;32754.986
713.557;27285.988;  -13.718;34018.824
714.131;27954.029;  -13.388;34579.625
714.704;27992.355;   -9.818;33890.262
715.278;28356.811;  -11.818;33531.102
715.852;29279.236;  -11.328;33601.660
716.425;29525.350;   -9.118;33515.117
716.999;29622.674;  -10.188;33185.555
717.573;30026.572;   -9.808;33905.996
718.146;32788.148;  -11.478;35199.293
718.720;32983.547;  -10.998;35060.551
719.293;30971.496;   -9.508;34973.230
719.867;30174.242;  -12.138;36394.449
720.440;28834.383;  -11.288;36663.008
721.013;31117.463;  -11.428;35102.426
721.587;32034.336;  -11.698;33985.266
722.160;32791.578;  -11.608;33524.965
722.733;31938.107;  -11.428;32987.043
723.306;31314.066;  -12.518;33066.301
723.880;31682.492;   -7.408;33399.500
724.453;30690.430;  -11.048;33468.297
725.026;29189.828;  -11.678;33816.637
725.599;27763.105;  -10.978;32797.996
726.172;26954.535;   -8.838;33187.434
726.745;27791.863;  -11.438;35136.613
727.318;28267.574;   -9.828;35751.730
727.891;26606.834;  -10.868;35890.430
728.463;24922.814;  -11.348;34822.090
729.036;23760.037;  -11.608;32895.086
729.609;23986.445;  -14.738;31823.225
730.182;24979.672;   -8.448;31445.283
730.754;26017.000;  -11.228;32373.223
731.327;26106.150;  -12.018;33676.820
731.900;27800.477;  -13.748;33417.000
732.472;27815.791;  -10.928;31978.498
733.045;26442.930;   -9.478;30368.777
733.617;24994.193;  -12.967;30574.215
734.190;24071.879;  -11.707;31280.975
734.762;22775.223;  -11.067;31674.412
735.334;22233.379;  -10.587;31247.291
735.907;21649.373;  -11.947;29876.211
736.479;22161.303;  -11.667;29808.488
737.051;24561.498;  -10.187;30233.547
737.623;26819.023;   -6.887;31469.086
738.195;29434.805;  -12.117;31784.225
738.768;31245.988;  -14.077;32120.523
739.340;30888.166;  -12.207;32094.342
739.912;27891.717;   -8.977;31312.680
740.484;25798.256;  -11.017;31946.238
741.056;26410.369;  -13.517;32984.059
741.628;28364.627;  -11.507;33897.715
742.199;28683.688;   -7.597;33213.016
742.771;29293.467;  -12.227;31369.113
743.343;28884.432;  -12.427;31865.473
743.915;27540.813;   -9.827;32388.631
744.487;26637.836;  -10.007;31079.568
745.058;25040.811;  -11.887;30570.107
745.630;24171.633;  -10.787;29970.127
746.201;23371.643;  -10.887;29186.766
746.773;23023.611;   -9.707;28805.723
747.344;23734.732;  -11.137;29591.223
747.916;24076.262;  -11.887;31412.201
748.487;23565.139;   -9.707;32194.898
749.059;23023.568;  -10.027;32533.719
749.630;22845.344;  -11.787;32158.518
750.201;21774.994;  -12.767;30855.395
750.773;21393.049;  -11.497;28622.555
751.344;22165.006;   -9.937;28405.732
751.915;22684.508;  -11.567;28461.551
752.486;22188.934;  -13.267;27842.850
753.057;20162.275;  -10.627;27845.008
753.628;18703.578;  -11.657;27728.107
754.199;20932.150;  -12.097;27381.086
754.770;22586.637;  -11.447;25882.203
755.341;22498.457;  -11.997;25886.184
755.912;20272.697;  -10.207;26050.861
756.483;18562.967;  -10.937;26798.779
757.054;18392.877;  -11.527;27048.238
757.625;18697.428;  -12.886;26294.838
758.195;19179.068;  -11.226;26142.076
758.766;19275.078;  -12.366;26392.234
759.337;18171.975;  -11.946;26334.594
759.907;18272.486;  -13.856;27579.652
760.478;19139.197;   -9.606;28352.770
761.048;18842.627;  -11.606;27325.088
761.619;18831.959;  -11.036;26460.428
762.189;18388.232;  -12.206;26029.826
762.760;19753.803;   -9.666;26430.145
763.330;20714.900;   -9.796;26670.902
763.900;18893.729;  -10.896;26603.021
764.471;17358.006;  -11.726;25542.740
765.041;17812.959;   -9.656;24358.459
765.611;18684.295;  -11.276;23991.297
766.181;18435.197;  -12.116;24470.236
766.751;17927.734;  -12.376;24845.975
767.321;17906.043;  -11.626;24533.633
767.891;18154.473;  -10.426;24916.492
768.461;17136.465;  -13.456;24776.771
769.031;15120.017;  -11.616;24757.988
769.601;14862.259;  -11.356;24181.088
770.171;15154.417;  -11.586;23670.387
770.741;15593.313;  -12.696;22960.045
771.311;15577.451;  -10.226;22917.523
771.880;15297.859;  -11.146;23562.941
772.450;16106.845;  -11.716;24216.500
773.020;16527.100;  -13.226;24140.398
773.589;16255.767;  -12.586;24414.857
774.159;16001.084;  -10.246;23858.717
774.729;15478.063;  -11.586;22942.135
775.298;14546.288;  -15.926;22324.033
775.867;14468.403;  -10.426;21140.313
776.437;14384.754;  -11.416;20838.092
777.006;13129.990;  -12.766;20599.510
777.576;13103.759;  -13.666;20508.809
778.145;13508.250;  -10.066;20732.947
778.714;13221.387;  -10.276;21062.465
779.283;13574.354;  -12.086;20949.664
779.853;14916.105;  -14.016;20508.623
780.422;15381.803;  -12.376;20649.082
780.991;14236.743;   -9.246;21527.520
781.560;13217.744;   -9.775;22632.658
782.129;13032.626;  -12.495;23048.277
782.698;12792.791;  -11.775;23438.555
783.267;13098.279;  -10.065;23267.734
783.836;13767.195;  -12.455;22415.133
784.404;14557.834;  -13.385;20443.152
784.973;15290.588;  -11.045;19699.150
785.542;14766.807;   -9.505;19763.828
786.111;13783.232;   -9.385;20341.408
786.679;13703.143;  -13.475;20207.967
787.248;13719.467;  -11.245;19516.465
787.817;11807.202;  -12.485;18900.363
788.385;10095.305;  -11.165;17879.121
788.954;10785.950;  -11.755;17658.301
789.522;11740.388;   -9.625;17788.879
790.090;11439.437;   -9.665;18118.277
790.659;10962.662;   -9.295;18338.736
791.227;11897.202;  -12.175;18508.615
791.795;13337.402;  -12.145;17898.254
792.364;13207.265;  -11.575;17295.133
792.932;11896.778;  -11.085;16822.051
793.500;10746.251;  -11.345;17040.148
794.068;10541.159;  -12.565;17179.787
794.636;11425.440;  -12.105;16664.246
795.204;11912.671;  -11.995;16524.545
795.772;11391.301;  -12.615;17274.564
796.340;11055.295;  -12.425;17891.002
796.908;10874.509;  -11.455;17648.561
797.476;10372.575;  -12.165;17064.080
798.044;10056.889;  -15.795;16672.777
798.612;10115.052;  -10.985;17023.996
799.180;10720.660;  -12.055;16561.615
799.747;11080.955;  -12.525;15962.773
800.315;10002.598;  -14.765;15296.992
800.883; 8773.374;  -12.435;14801.771
801.450; 8599.003;  -11.295;14534.430
802.018; 9049.469;  -11.185;14173.248
802.585; 9038.719;  -11.625;14029.547
803.153; 8102.749;  -10.665;13836.846
803.720; 7738.790;  -10.275;13567.324
804.287; 7662.978;  -12.865;13360.622
804.855; 7873.991;  -12.324;13681.981
805.422; 8158.910;  -11.574;13536.560
805.989; 8022.067;  -11.004;13355.958
806.556; 8258.950;  -12.214;13747.896
807.124; 8672.450;  -13.304;13987.376
807.691; 8402.674;  -12.034;14038.674
808.258; 7712.827;  -11.014;14120.152
808.825; 7595.060;  -11.804;13860.111
809.392; 7527.072;  -11.544;13268.790
809.959; 7380.582;  -14.954;12680.389
810.526; 7745.213;  -10.214;12427.308
811.093; 8274.302;  -10.754;12030.105
811.659; 7911.417;  -12.194;11653.664
812.226; 6742.104;   -9.194;11637.183
812.793; 6394.820;   -9.644;11611.521
813.360; 7169.192;  -11.544;11885.181
813.926; 7993.340;  -12.814;12770.539
814.493; 7982.240;  -11.524;12677.638
815.060; 7686.858;  -12.254;11974.336
815.626; 7255.286;  -12.114;11594.715
816.193; 6907.799;  -11.994;11579.474
816.759; 6778.287;  -11.464;11666.972
817.325; 6473.063;  -10.444;11325.530
817.892; 6143.038;  -11.124;11105.369
818.458; 5985.329;  -11.864;10843.928
819.024; 6215.158;  -10.634;10714.406
819.591; 6311.684;  -10.554;10469.165
820.157; 6586.686;  -13.334;10235.523
820.723; 6889.367;  -13.044;10847.563
821.289; 7025.502;   -9.664;11040.980
821.855; 7203.775;  -10.994;10357.100
822.421; 7202.466;  -11.784; 9978.918
822.987; 7136.520;  -12.554; 9754.177
823.553; 7533.958;  -12.554;10065.755
824.119; 7404.151;   -8.544;10036.294
824.685; 6462.052;  -12.144;10029.192
825.251; 5891.205;  -12.754;10199.230
825.816; 5481.297;  -11.354; 9820.189
826.382; 5265.665;  -11.004; 9297.248
826.948; 5343.695;  -11.004; 9381.347
827.513; 5260.018;  -12.474; 9450.726
828.079; 5208.559;  -13.084; 9472.444
828.645; 5346.009;  -10.813; 9292.643
829.210; 5095.177;  -11.593; 9065.341
829.776; 4995.944;  -12.633; 9132.620
830.341; 5033.106;  -10.473; 9092.878
830.906; 4851.503;   -8.763; 9078.557
831.472; 4583.609;  -13.453; 8534.535
832.037; 4017.882;  -12.173; 8677.874
832.602; 3797.829;  -14.093; 8628.692
833.167; 4032.835;  -13.593; 8879.031
833.733; 4533.333;  -10.793; 9189.790
834.298; 4921.931;  -14.783; 9052.608
834.863; 4574.296;  -11.023; 8895.087
835.428; 4337.417;  -11.113; 8824.266
835.993; 4759.848;   -9.983; 8845.385
836.558; 4985.589;  -13.003; 8888.563
837.123; 4789.366;  -10.733; 8966.582
837.688; 4408.874;   -9.683; 8617.860
838.253; 4249.875;  -12.253; 8590.699
838.817; 4239.136;  -11.643; 8443.797
839.382; 4173.615;  -11.953; 8799.356
839.947; 4274.631;  -11.443; 8810.595
840.511; 4647.850;  -10.843; 8796.394
841.076; 4919.918;  -13.533; 8347.231
841.641; 4741.193;  -11.743; 8224.330
842.205; 4190.944;  -10.013; 8223.349
842.770; 3864.598;  -11.023; 8622.107
843.334; 3942.910;  -14.273; 8410.386
843.898; 4324.216;  -11.323; 8337.465
844.463; 4695.270;  -10.263; 8506.283
845.027; 4853.710;  -10.353; 8280.962
845.591; 4793.093;  -12.163; 8231.141
846.156; 4638.951;  -12.263; 7969.179
846.720; 4597.728;  -11.553; 7768.278
847.284; 4405.013;  -12.393; 7630.957
847.848; 3674.066;  -12.623; 7472.395
848.412; 3103.035;  -11.863; 7437.394
848.976; 3044.355;  -10.203; 7674.592
849.540; 3252.014;  -10.603; 7836.011
850.104; 3468.655;  -12.423; 7913.669
850.668; 3500.863;  -14.613; 7694.508
851.232; 3538.422;  -12.873; 7756.887
851.796; 3773.131;  -14.192; 7926.545
852.359; 3938.312;  -13.652; 7827.844
852.923; 3847.069;  -11.402; 7641.163
853.487; 3530.175;  -12.022; 7342.501
854.050; 3350.185;  -15.202; 7042.820
854.614; 3357.407;  -14.592; 7151.338
855.177; 3319.034;  -12.572; 7105.077
855.741; 3317.029;   -9.932; 6989.675
856.304; 3228.054;  -12.192; 6596.634
856.868; 3086.512;  -13.462; 6356.272
857.431; 3097.768;  -11.542; 6468.571
857.995; 3217.020;  -12.062; 6373.210
858.558; 3073.640;  -11.142; 6324.448
859.121; 2932.255;  -11.742; 6408.327
859.684; 2962.804;  -10.332; 6347.886
860.247; 3039.755;  -11.962; 6321.264
860.810; 3085.406;  -12.332; 6301.903
861.374; 2976.830;  -10.292; 6607.881
861.937; 2824.751;  -12.062; 6408.200
862.500; 2867.107;  -11.702; 6572.639
863.062; 3007.806;  -13.852; 6387.297
863.625; 3082.148;  -12.972; 6190.836
864.188; 3048.606;  -10.292; 5807.254
864.751; 3006.236;  -12.382; 5682.413
865.314; 2809.630;  -13.232; 5547.492
865.876; 2475.809;  -12.772; 5500.150
866.439; 2206.198;  -11.952; 5415.909
867.002; 2257.161;   -9.332; 5501.567
867.564; 2570.681;  -11.712; 5413.946
868.127; 2727.388;  -12.012; 5160.325
868.689; 2424.979;  -11.882; 5133.183
869.252; 2084.782;  -11.572; 5252.382
869.814; 1985.534;  -10.692; 5297.141
870.377; 2031.250;  -12.392; 5390.919
870.939; 2084.058;  -10.582; 5599.898
871.501; 2109.217;  -12.782; 5248.336
872.063; 2129.940;  -15.612; 4854.235
872.626; 2190.970;  -13.922; 4817.074
873.188; 2185.883;  -13.832; 4987.732
873.750; 2141.585;  -10.962; 4868.651
874.312; 2185.082;  -11.022; 4779.330
874.874; 2226.159;  -13.152; 4866.348
875.436; 2160.098;  -13.401; 4718.887
875.998; 2065.821;   -8.891; 4660.005
876.560; 1983.672;  -12.591; 4462.964
877.122; 1911.965;  -14.531; 4145.042
877.683; 1860.403;  -10.781; 4056.481
878.245; 1762.823;  -14.281; 3950.740
878.807; 1707.933;  -10.311; 4058.958
879.369; 1661.019;  -13.201; 3954.677
879.930; 1617.010;  -12.061; 3941.495
880.492; 1610.149;   -9.181; 4067.014
881.053; 1631.414;  -12.051; 3859.633
881.615; 1609.854;  -11.501; 3776.071
882.176; 1524.502;  -12.221; 3734.750
882.738; 1421.854;   -8.931; 3678.489
883.299; 1350.896;  -13.571; 3405.407
883.860; 1351.333;  -12.331; 3351.106
884.422; 1293.824;  -10.201; 3394.044
884.983; 1168.009;  -12.521; 3166.443
885.544; 1052.989;  -12.291; 3189.802
886.105;  993.273;  -12.991; 3160.360
886.666;  976.324;  -12.901; 3093.059
887.227;  970.098;  -12.061; 2941.957
887.788;  944.129;  -11.641; 2974.836
888.349;  896.029;  -14.691; 2721.214
888.910;  849.764;   -9.681; 2696.493
889.471;  844.572;   -9.971; 2560.172
890.032;  858.318;  -13.151; 2558.190
890.593;  839.357;  -12.051; 2567.669
891.153;  794.130;  -12.841; 2460.307
891.714;  759.190;  -13.561; 2372.046
892.275;  726.595;  -12.401; 2309.505
892.835;  691.977;  -13.191; 2382.543
893.396;  653.522;  -12.551; 2295.502
893.956;  633.214;  -11.981; 2162.420
894.517;  618.341;  -12.221; 2125.439
895.077;  584.252;  -12.021; 2086.978
895.638;  528.238;  -10.891; 2126.316
896.198;  475.563;  -13.171; 1838.275
896.758;  441.689;  -11.891; 1892.813
897.319;  420.580;  -12.491; 1792.232
897.879;  406.738;  -12.401; 1762.751
898.439;  379.047;  -13.431; 1661.149
898.999;  358.801;  -11.340; 1781.468
899.559;  348.284;  -13.930; 1703.347
900.119;  330.148;  -13.730; 1537.525
900.679;  312.272;   -9.210; 1638.384
901.239;  295.637;  -10.860; 1527.902
901.799;  277.945;  -11.450; 1456.441
902.359;  258.929;  -13.800; 1357.140
902.919;  253.857;  -12.130; 1331.118
903.479;  255.291;  -12.650; 1317.257
904.038;  250.184;  -16.110; 1262.595
904.598;  236.375;  -13.690; 1152.034
905.158;  224.850;  -10.290; 1240.893
905.717;  217.592;  -10.670; 1233.691
906.277;  217.519;  -14.040; 1217.330
906.836;  217.718;  -13.510; 1222.408
907.396;  211.791;  -11.530; 1193.047
907.955;  202.316;  -13.190; 1182.526
908.515;  189.507;  -12.950; 1099.364
909.074;  181.304;  -12.390; 1092.863
909.633;  177.102;  -10.340; 1069.121
910.192;  175.987;  -11.170; 1196.460
910.752;  170.740;  -14.200; 1029.960
911.311;  165.123;  -13.810; 1009.780
911.870;  162.512;  -12.750;  971.460
912.429;  161.927;  -12.380; 1094.080
912.988;  158.955;  -11.930; 1081.060
913.547;  153.992;  -10.990;  940.380
914.106;  150.483;  -11.200;  999.420
914.665;  148.975;  -13.150;  984.020
915.224;  146.938;  -13.310; 1035.760
915.782;  145.482;  -13.340;  922.560
916.341;  144.773;  -10.710; 1049.840
916.900;  142.280;  -12.980;  925.260
917.458;  139.828;  -13.060;  884.220
918.017;  138.644;  -10.900;  942.600
918.576;  137.364;  -11.630;  904.440
919.134;  138.360;  -12.860;  837.980
919.693;  137.171;  -15.160;  893.060
920.251;  137.341;  -13.470;  876.500
920.809;  136.543;  -13.700;  839.580
921.368;  136.784;  -13.420;  885.360
921.926;  137.036;  -14.710;  842.940
922.484;  137.156;  -12.560;  903.360
923.042;  136.762;  -11.930;  880.340
923.601;  137.686;  -10.270;  998.680
924.159;  135.824;  -12.960;  935.560
924.717;  135.544;  -13.040;  841.080
925.275;  137.093;  -12.560;  903.240
925.833;  138.687;  -13.040;  779.320
926.391;  140.579;  -13.360;  938.380
926.949;  138.635;  -13.940;  857.680
927.506;  139.607;   -9.400;  903.500
928.064;  139.930;  -10.940;  877.580
928.622;  139.287;  -13.180;  880.100
929.180;  139.293;  -12.730;  814.180
929.737;  139.903;  -12.840;  808.540
930.295;  143.576;  -11.810;  928.480
930.853;  145.825;  -13.650;  849.100
931.410;  148.793;  -13.580;  821.120
931.968;  150.014;  -12.020;  940.660
932.525;  150.388;  -13.320;  909.380
933.082;  151.610;  -13.800;  811.440
933.640;  156.988;  -11.380;  925.900
934.197;  159.250;  -11.480;  886.360
934.754;  163.278;  -13.220;  897.780
935.312;  161.941;  -14.950;  863.340
935.869;  158.583;  -10.940; 1012.980
936.426;  153.371;  -12.100;  872.800
936.983;  154.109;  -12.930;  889.020
937.540;  154.196;  -14.250;  838.280
938.097;  159.668;  -12.600;  940.120
938.654;  166.184;  -11.260;  898.860
939.211;  169.905;  -13.020;  952.480
939.768;  171.679;  -15.760;  915.420
940.324;  172.286;  -13.920;  904.200
940.881;  168.587;  -11.620;  878.500
941.438;  165.533;   -9.870; 1021.200
941.995;  163.642;  -13.920;  992.560
942.551;  160.916;  -12.830;  875.620
943.108;  163.017;  -11.980;  937.920
943.664;  166.507;  -13.740;  869.340
944.221;  171.011;  -12.670; 1088.140
944.777;  167.828;  -13.250;  869.680
945.334;  166.406;  -13.000;  884.840
945.890;  168.011;  -13.020;  946.480
946.446;  168.647;  -13.880;  947.020
947.003;  171.093;  -12.660;  964.940
947.559;  172.132;   -8.730; 1063.040
948.115;  168.720;  -11.960; 1026.540
948.671;  165.056;  -12.360;  967.300
949.227;  161.735;  -12.700;  859.560
949.783;  158.344;  -13.450;  858.900
950.339;  157.988;  -10.620;  991.000
950.895;  154.168;  -14.770; 1023.840
951.451;  151.148;  -13.650;  925.280
952.007;  151.156;  -11.180;  998.540
952.563;  150.203;  -11.680;  937.780
953.118;  150.251;  -13.280;  904.940
953.674;  152.041;  -12.510;  935.780
954.230;  151.973;  -12.220;  949.640
954.785;  148.362;  -12.190;  936.640
955.341;  142.089;  -12.270;  998.160
955.897;  137.094;  -14.900;  834.660
956.452;  136.454;  -12.520;  953.840
957.008;  137.914;   -9.410; 1083.640
957.563;  135.200;  -11.280; 1009.540
958.118;  133.041;  -13.470;  877.700
958.674;  134.992;  -12.190;  946.780
959.229;  135.604;  -12.760; 1013.980
959.784;  141.574;  -15.710;  832.400
960.339;  147.478;  -12.540; 1001.280
960.894;  149.026;  -11.680;  963.760
961.449;  145.128;  -11.410;  859.960
962.004;  143.647;  -10.430; 1212.840
962.559;  136.357;  -14.040;  860.140
963.114;  134.308;  -14.270;  742.480
963.669;  136.115;  -11.320;  915.500
964.224;  135.083;  -14.620;  874.340
964.779;  132.386;  -14.150;  828.420
965.334;  132.384;  -10.850; 1017.860
965.888;  132.244;  -14.530;  875.360
966.443;  133.367;  -13.520;  972.380
966.998;  129.290;  -13.370;  819.460
967.552;  125.579;   -9.960;  908.380
968.107;  122.338;  -12.360;  868.300
968.661;  121.985;  -12.270;  922.440
969.216;  120.838;  -12.140;  856.280
969.770;  122.711;  -11.860;  917.200
970.324;  122.680;  -12.170;  923.140
970.879;  120.835;  -14.160;  947.180
971.433;  118.051;  -12.940;  952.720
971.987;  115.500;  -10.180;  895.340
972.541;  114.075;  -12.130;  917.100
973.095;  113.871;  -14.980; 1009.460
973.649;  111.725;  -14.480;  809.480
974.203;  113.184;  -13.530;  829.040
974.757;  114.340;  -12.060;  855.220
975.311;  112.791;  -13.240;  872.600
975.865;  110.461;  -12.550;  881.820
976.419;  109.715;  -13.180;  857.400
976.973;  109.185;  -14.100;  849.620
977.526;  109.108;  -13.330;  949.920
978.080;  105.282;  -15.390;  796.780
978.634;  105.418;  -11.670;  921.320
979.187;  102.617;  -10.640;  905.400
979.741;  102.194;  -13.330; 1018.380
980.294;   98.782;  -14.480;  789.160
980.848;   96.636;  -13.420;  717.220
981.401;   94.486;  -12.360;  816.540
981.955;   92.302;  -12.480;  844.300
982.508;   88.350;  -14.000;  746.340
983.061;   88.464;  -10.440;  915.260
983.615;   86.019;  -14.340;  798.800
984.168;   82.505;  -14.950;  770.080
984.721;   82.989;  -13.270;  880.760
985.274;   80.849;  -12.240;  867.500
985.827;   78.762;  -12.720;  834.220
986.380;   74.390;  -14.920;  721.340
986.933;   73.862;  -12.860;  864.800
987.486;   73.421;  -10.440;  861.920
988.039;   73.232;  -11.820;  863.100
988.591;   70.636;  -13.760;  893.260
989.144;   69.791;  -14.080;  737.260
989.697;   70.226;  -13.440;  758.740
990.250;   71.882;  -12.050;  858.100
990.802;   69.574;  -14.550;  755.860
991.355;   70.086;  -10.770;  974.880
991.907;   67.795;  -11.710;  864.320
992.460;   65.503;  -12.650;  753.760
993.012;   63.808;  -13.860;  749.540
993.565;   61.675;  -14.310;  711.360
994.117;   62.019;   -9.920;  950.780
994.669;   59.215;  -13.420;  701.320
995.221;   58.449;  -14.200;  791.920
995.774;   57.474;  -13.400;  787.580
996.326;   56.792;  -11.850;  740.220
996.878;   56.654;  -12.230;  838.420
997.430;   54.323;  -14.260;  699.860
997.982;   53.854;  -11.430;  750.140
998.534;   53.896;  -11.590;  739.060
999.086;   53.264;  -11.960;  738.220
999.638;   52.382;  -13.640;  661.380
1000.190;   50.915;  -13.660;  699.320
1000.741;   51.399;   -9.980;  742.700
1001.293;   50.473;  -11.860;  686.020
1001.845;   49.065;  -14.280;  676.640
1002.396;   50.391;  -12.270;  743.400
1002.948;   48.902;  -13.670;  737.400
1003.500;   48.311;  -12.010;  723.780
1004.051;   48.972;  -11.890;  907.580
1004.603;   47.500;  -11.220;  791.820
1005.154;   44.267;  -13.210;  608.980
1005.705;   43.507;  -11.850;  723.960
1006.257;   43.013;  -13.670;  707.220
1006.808;   42.524;  -12.060;  685.460
1007.359;   42.361;  -10.250;  763.240
1007.910;   40.726;  -13.440;  646.640
1008.461;   40.328;  -13.170;  732.940
1009.013;   39.288;  -14.590;  588.340
1009.564;   39.932;  -12.100;  793.520
1010.115;   37.707;  -14.000;  597.040
1010.665;   38.199;  -15.020;  602.160
1011.216;   38.256;  -12.560;  667.920
1011.767;   37.811;  -11.330;  697.920
1012.318;   38.904;  -11.450;  736.980
1012.869;   37.196;  -11.000;  679.000
1013.419;   36.198;  -11.760;  603.120
1013.970;   36.929;  -11.800;  666.640
1014.521;   36.805;  -14.750;  620.620
1015.071;   36.108;  -14.430;  670.380
1015.622;   35.685;  -14.170;  635.460
1016.172;   34.680;  -11.700;  596.820
1016.723;   34.541;  -13.230;  614.380
1017.273;   34.483;  -16.120;  604.160
1017.823;   34.780;  -13.360;  650.340
1018.374;   34.434;  -13.710;  611.760
1018.924;   34.054;  -11.050;  716.880
1019.474;   34.401;  -14.120;  718.880
1020.024;   32.690;  -12.990;  657.580
1020.574;   33.205;  -12.010;  726.160
1021.124;   33.848;  -12.080;  673.580
1021.674;   31.941;  -15.860;  559.120
1022.224;   32.808;  -11.710;  708.940
1022.774;   32.080;  -13.030;  668.820
1023.324;   33.889;  -11.000;  753.520
1023.874;   34.759;  -13.270;  875.760
1024.423;   31.082;  -14.570;  613.700
1024.973;   31.337;  -12.620;  610.760
1025.523;   30.966;  -12.630;  620.960
1026.072;   30.330;  -14.110;  606.420
1026.622;   29.846;  -15.390;  675.740
1027.172;   31.193;   -9.090;  715.660
1027.721;   29.695;  -12.250;  601.220
1028.270;   30.418;  -15.590;  663.400
1028.820;   30.136;  -13.840;  638.080
1029.369;   29.673;  -13.170;  612.700
1029.918;   30.093;  -14.080;  649.840
1030.468;   28.640;  -13.860;  564.780
1031.017;   29.046;  -12.970;  634.800
1031.566;   28.122;  -12.320;  608.900
1032.115;   29.737;  -13.140;  694.500
1032.664;   28.086;  -14.560;  596.480
1033.213;   29.068;  -11.620;  735.420
1033.762;   27.652;  -13.190;  635.620
1034.311;   28.422;  -13.460;  677.220
1034.860;   28.527;  -15.770;  691.000
1035.408;   27.911;  -13.100;  722.720
1035.957;   28.300;  -12.880;  719.540
1036.506;   26.107;  -13.640;  530.800
1037.055;   29.115;  -12.420;  844.320
1037.603;   27.220;  -13.740;  664.000
1038.152;   25.861;  -13.840;  534.760
1038.700;   26.540;  -10.770;  585.740
1039.249;   25.978;  -13.520;  681.220
1039.797;   26.074;  -13.060;  633.360
1040.345;   26.629;  -11.760;  705.420
1040.894;   25.840;  -10.790;  625.300
1041.442;   24.577;  -15.420;  632.200
1041.990;   24.864;  -14.550;  559.160
1042.538;   23.849;  -15.620;  536.180
1043.087;   23.872;  -14.940;  570.860
1043.635;   25.852;  -12.100;  670.500
1044.183;   23.960;  -13.200;  586.400
1044.731;   23.827;  -11.630;  576.000
1045.279;   23.939;  -14.200;  674.920
1045.827;   26.316;  -12.510;  892.400
1046.374;   23.355;  -14.960;  515.420
1046.922;   22.850;  -11.850;  590.580
1047.470;   24.530;  -13.770;  691.300
1048.018;   23.899;  -15.380;  647.960
1048.565;   24.177;  -14.010;  708.600
1049.113;   21.935;  -14.620;  557.000
1049.660;   23.827;  -14.940;  629.660
1050.208;   23.333;  -14.540;  675.640
1050.755;   21.982;  -13.710;  606.580
1051.303;   23.397;  -11.880;  686.820
1051.850;   22.494;  -12.160;  635.120
1052.397;   20.498;  -15.110;  473.960
1052.945;   20.847;  -14.770;  617.760
1053.492;   22.572;  -12.320;  741.840
1054.039;   22.904;  -13.290;  720.180
1054.586;   20.794;  -15.210;  557.240
1055.133;   22.294;  -12.920;  693.140
1055.680;   21.915;  -12.610;  646.620
1056.227;   20.496;  -12.620;  542.780
1056.774;   22.470;  -13.010;  794.980
1057.321;   19.714;  -16.180;  523.260
1057.868;   20.501;  -11.230;  651.320
1058.415;   20.237;  -10.890;  651.980
1058.961;   20.912;  -12.530;  678.940
1059.508;   20.597;  -14.120;  643.820
1060.055;   19.785;  -13.340;  581.780
1060.601;   20.674;  -12.920;  624.300
1061.148;   20.010;  -14.430;  616.820
1061.694;   19.029;  -14.140;  592.580
1062.241;   18.925;  -12.550;  596.320
1062.787;   20.410;  -13.370;  663.140
1063.334;   21.405;  -12.260;  808.560
1063.880;   19.498;  -10.800;  668.360
1064.426;   19.493;   -9.920;  706.820
1064.972;   18.401;  -12.970;  601.340
1065.518;   17.575;  -14.440;  566.640
1066.065;   18.743;  -12.680;  624.460
1066.611;   17.386;  -13.520;  598.800
1067.157;   18.795;  -11.100;  641.860
1067.703;   18.582;  -14.100;  668.480
1068.249;   17.895;  -13.750;  605.220
1068.794;   17.515;  -11.070;  626.880
1069.340;   17.148;  -13.210;  578.960
1069.886;   17.420;  -14.850;  590.700
1070.432;   16.332;  -14.580;  541.720
1070.977;   16.465;  -12.930;  601.080
1071.523;   16.911;  -11.970;  573.060
1072.068;   17.415;  -13.730;  582.000
1072.614;   16.053;  -14.550;  527.760
1073.160;   17.490;  -13.690;  687.040
1073.705;   15.635;  -14.780;  572.520
1074.250;   15.978;  -15.430;  559.900
1074.796;   16.627;  -11.620;  655.160
1075.341;   17.165;  -11.580;  664.100
1075.886;   16.490;  -13.190;  594.240
1076.431;   16.550;  -13.630;  649.880
1076.976;   15.649;  -11.670;  639.220
1077.521;   14.782;  -11.600;  583.080
1078.067;   15.041;  -13.920;  579.400
1078.612;   15.380;  -12.910;  661.620
1079.156;   14.711;  -15.340;  601.540
1079.701;   14.898;  -12.560;  693.260
1080.246;   16.506;  -12.490;  696.300
1080.791;   15.241;  -14.550;  625.020
1081.336;   15.801;  -15.210;  659.320
1081.880;   14.904;  -11.280;  649.680
1082.425;   14.120;  -12.830;  573.480
1082.970;   16.354;  -11.680;  717.040
1083.514;   14.254;  -15.500;  597.000
1084.059;   13.372;  -11.770;  586.720
1084.603;   13.939;  -13.480;  565.840
1085.147;   14.224;  -13.940;  645.220
1085.692;   14.423;  -13.170;  716.800
1086.236;   12.564;  -15.740;  503.140
1086.780;   15.494;  -10.750;  751.440
1087.325;   14.247;  -14.900;  654.620
1087.869;   13.565;  -15.160;  610.700
1088.413;   14.198;  -11.030;  705.040
1088.957;   13.123;  -15.210;  543.400
1089.501;   14.893;  -12.310;  766.640
1090.045;   13.914;  -12.790;  726.480
1090.589;   11.058;  -14.040;  569.920
1091.133;   13.374;  -12.800;  673.340
1091.676;   13.084;  -13.600;  591.940
1092.220;   12.581;  -12.960;  600.920
1092.764;   13.225;  -10.830;  706.960
1093.307;   13.516;  -12.390;  673.780
1093.851;   11.761;  -15.850;  556.540
1094.395;   11.408;  -12.980;  683.140
1094.938;   11.970;  -13.670;  632.520
1095.482;   11.865;  -12.740;  559.800
1096.025;   12.353;  -13.340;  710.880
1096.568;   13.154;  -10.500;  779.280
1097.112;    9.749;  -13.500;  508.180
1097.655;   12.142;  -13.060;  603.000
1098.198;   10.098;  -13.240;  600.180
1098.741;   10.663;  -15.490;  612.860
1099.285;   11.561;  -13.410;  657.300
1099.828;    9.540;  -15.640;  439.400
1100.371;   10.679;  -13.980;  608.160
1100.914;   11.131;  -13.990;  682.660
1101.457;   10.657;  -15.030;  679.900
1101.999;    9.907;  -12.480;  584.680
1102.542;   10.680;  -12.410;  641.440
1103.085;   10.656;  -14.730;  658.500
1103.628;   10.687;  -12.190;  762.060
1104.170;    9.758;  -12.360;  588.280
1104.713;   10.032;  -13.350;  646.700
1105.256;    9.485;  -14.930;  557.440
1105.798;    8.035;  -15.150;  499.980
1106.341;   10.886;  -13.230;  728.900
1106.883;    8.785;  -14.680;  521.340
1107.425;    9.199;  -14.810;  668.180
1107.968;    8.868;  -12.940;  612.380
1108.510;    9.455;  -10.550;  684.960
1109.052;    8.243;  -15.640;  612.620
1109.594;    8.370;  -14.440;  554.440
1110.136;    9.161;  -11.380;  643.220
1110.679;    8.241;  -13.090;  633.080
1111.221;    8.670;  -14.230;  604.460
1111.763;    8.081;  -14.260;  559.220
1112.304;    7.379;  -14.510;  547.140
1112.846;    8.713;  -14.700;  666.240
1113.388;   11.736;  -12.270;  942.180
1113.930;    8.083;  -13.340;  694.200
1114.472;    7.164;  -12.560;  606.540
1115.013;    7.158;  -14.280;  551.280
1115.555;    7.125;  -14.010;  587.100
1116.097;    6.417;  -14.730;  579.480
1116.638;    7.275;  -12.160;  684.600
1117.180;    7.391;  -14.320;  667.740
1117.721;    6.974;  -15.730;  568.580
1118.262;    7.833;  -13.480;  677.960
1118.804;    7.703;  -11.530;  637.340
1119.345;    6.949;  -13.540;  578.400
1119.886;    8.373;  -14.470;  704.040
1120.427;    5.505;  -13.030;  589.020
1120.969;    6.225;  -13.150;  597.920
1121.510;    5.855;  -13.940;  563.060
1122.051;    7.603;  -12.310;  723.580
1122.592;    5.637;  -13.870;  655.420
1123.133;    4.415;  -12.890;  547.940
1123.673;    6.841;  -13.300;  706.480
1124.214;    6.337;  -14.000;  612.460
1124.755;    6.472;  -13.210;  639.460
1125.296;    5.864;  -13.450;  627.320
1125.836;    6.851;  -12.610;  691.500
1126.377;    5.716;  -15.840;  599.660
1126.918;    6.297;  -11.830;  614.980
1127.458;    4.775;  -11.830;  622.220
1127.999;    6.522;  -11.490;  656.980
1128.539;    5.802;  -12.900;  694.240
1129.079;    5.123;  -14.910;  632.720
1129.620;    4.244;  -12.920;  558.100
1130.160;    4.209;  -14.640;  539.480
1130.700;    5.289;  -13.270;  640.840
1131.240;    5.326;  -14.110;  643.700
1131.781;    4.489;  -13.130;  619.680
1132.321;    4.853;  -15.220;  599.120
1132.861;    3.279;  -15.670;  564.200
1133.401;    3.463;  -13.970;  593.940
1133.941;    4.591;  -13.740;  626.280
1134.481;    4.345;  -13.200;  597.580
1135.020;    3.671;  -14.830;  609.160
1135.560;    4.743;  -14.590;  674.940
1136.100;    2.531;  -13.730;  501.160
1136.640;    3.282;  -15.240;  510.480
1137.179;    3.372;  -14.710;  537.960
1137.719;    3.509;  -14.090;  605.400
1138.258;    3.463;  -12.470;  587.360
1138.798;    3.986;  -12.580;  663.780
1139.337;    2.741;  -16.480;  482.840
1139.877;    3.735;  -13.970;  642.360
1140.416;    6.180;   -9.870;  878.060
1140.955;    3.005;  -14.860;  535.380
1141.494;    3.699;  -14.530;  669.280
1142.034;    3.074;  -13.940;  583.520
1142.573;    3.089;  -11.160;  646.280
1143.112;    2.509;  -15.050;  553.480
1143.651;    2.745;  -15.390;  536.480
1144.190;    3.143;  -12.990;  691.640
1144.729;    2.434;  -12.220;  607.420
1145.267;    3.169;  -14.020;  584.900
1145.806;    4.179;  -12.740;  637.040
1146.345;    2.593;  -14.810;  635.020
1146.884;    2.525;  -12.920;  622.500
1147.422;    1.735;  -13.930;  533.060
1147.961;    3.725;  -11.830;  708.460
1148.500;    2.560;  -12.710;  669.720
1149.038;    2.274;  -14.420;  632.500
1149.577;    3.631;  -13.920;  698.640
1150.115;    0.968;  -17.050;  452.280
1150.653;    1.929;  -14.890;  607.340
1151.192;    2.697;  -15.270;  552.920
1151.730;    2.233;  -13.160;  652.560
1152.268;    1.931;  -15.430;  589.520
1152.806;    1.007;  -15.880;  571.180
1153.344;    0.097;  -13.240;  577.640
1153.882;    1.979;  -13.010;  600.060
1154.421;    0.249;  -16.180;  470.620
1154.958;    0.347;  -13.880;  595.240
1155.496;    2.034;  -13.590;  645.280
1156.034;    1.121;  -11.910;  721.880
1156.572;    2.470;  -12.010;  667.060
1157.110;   -0.297;  -16.250;  473.940
1157.647;    1.453;  -15.230;  676.960
1158.185;    0.622;  -13.770;  564.320
1158.723;   -0.525;  -15.300;  509.200
1159.260;    0.965;  -13.130;  701.700
1159.798;    1.481;  -11.300;  658.160
1160.335;    0.234;  -13.210;  631.820

