
Integration time [ms]:   3.276
Averaging Nr. [scans]: 1000
Smoothing Nr. [pixels]: 0
Data measured with spectrometer [name]: 7414430SP
Wave   ;Sample   ;Dark     ;Reference
[nm]   ;[counts] ;[counts] ;[counts] 

288.544;  149.351;    7.793;  793.890
289.143;  153.949;    7.462;  681.602
289.742;  154.773;    8.602;  828.814
290.341;  139.669;    1.321;  789.841
290.940;  128.183;   -0.709;  730.702
291.538;  129.123;    0.881;  881.108
292.137;  130.316;    0.122;  792.581
292.736;  134.451;   -1.929;  975.101
293.335;  130.380;   -8.229;  735.086
293.934;  131.024;   -5.279;  781.677
294.532;  130.323;   -1.369; 1031.958
295.131;  116.049;   -7.641;  834.394
295.730;  115.969;   -8.420;  809.588
296.328;  114.694;   -5.611;  783.442
296.927;  115.922;   -5.781;  779.652
297.525;  116.470;   -6.361;  781.236
298.124;  107.200;  -11.382;  654.009
298.722;  109.942;   -7.641;  761.933
299.321;  108.117;   -6.811;  708.597
299.919;  106.334;   -6.991;  751.918
300.518;  103.479;  -10.362;  689.338
301.116;  104.904;   -9.581;  691.381
301.715;  105.369;   -4.891;  730.222
302.313;  103.971;   -8.801;  704.943
302.911;   99.473;   -8.522;  733.830
303.509;  104.237;   -6.171;  925.627
304.108;  102.163;   -7.311;  760.383
304.706;  101.969;   -8.321;  801.664
305.304;   95.757;  -10.222;  796.707
305.902;  101.389;   -6.021;  784.484
306.500;   97.693;   -4.971;  728.200
307.098;   95.722;   -7.061;  746.560
307.696;   93.471;   -8.801;  780.432
308.294;   94.107;   -6.411;  731.359
308.892;   96.465;   -2.901;  759.769
309.490;   92.240;   -5.041;  712.161
310.088;   89.991;   -5.002;  788.444
310.686;   94.504;   -2.041;  821.749
311.284;   90.775;   -2.351;  766.040
311.882;   87.911;   -4.422;  731.225
312.480;   85.828;   -4.192;  697.167
313.078;   85.567;   -1.172;  808.331
313.675;   87.663;   -2.601;  691.600
314.273;   82.179;   -1.312;  797.837
314.871;   81.141;   -3.942;  589.829
315.468;   80.005;   -2.802;  652.090
316.066;   82.504;   -0.701;  694.427
316.664;   75.857;   -4.362;  656.351
317.261;   78.870;   -2.872;  910.128
317.859;   74.905;   -2.022;  768.735
318.456;   75.167;   -0.531;  830.096
319.054;   71.143;   -3.912;  787.828
319.651;   70.453;   -4.752;  759.928
320.249;   68.925;   -2.602;  810.188
320.846;   66.667;   -0.821;  714.286
321.443;   64.315;   -4.642;  832.135
322.041;   61.357;   -5.002;  812.315
322.638;   58.740;   -3.982;  701.456
323.235;   60.888;   -3.411;  665.683
323.833;   57.185;   -7.361;  740.354
324.430;   53.309;   -8.611;  615.900
325.027;   54.200;   -4.061;  876.855
325.624;   53.483;   -4.031;  644.532
326.221;   51.275;   -7.481;  689.717
326.818;   50.361;   -5.281;  818.332
327.415;   53.249;   -7.460;  748.828
328.012;   52.791;   -5.510;  690.585
328.609;   51.626;   -7.880;  731.389
329.206;   49.340;   -8.331;  778.621
329.803;   49.173;   -5.121;  737.841
330.400;   52.780;   -4.510;  704.260
330.997;   53.913;   -6.441;  817.147
331.594;   52.787;   -8.831;  788.185
332.191;   57.659;   -7.621;  728.722
332.787;   61.619;   -4.591;  844.463
333.384;   58.813;   -7.412;  763.093
333.981;   57.899;   -8.293;  815.687
334.578;   60.651;   -7.052;  708.378
335.174;   63.449;   -3.102;  731.469
335.771;   62.031;   -5.943;  836.456
336.367;   59.599;   -7.393;  710.631
336.964;   63.575;   -4.063;  793.266
337.561;   62.253;   -3.813;  731.112
338.157;   56.637;   -4.654;  911.916
338.754;   54.441;   -7.934;  796.589
339.350;   52.849;   -4.414;  722.493
339.946;   55.427;   -4.664;  773.135
340.543;   47.005;   -6.375;  846.136
341.139;   42.897;   -9.815;  720.836
341.735;   38.789;   -4.526;  772.593
342.332;   38.410;   -4.895;  691.472
342.928;   38.910;   -4.295;  795.394
343.524;   33.002;   -5.476;  761.684
344.120;   29.582;   -5.856;  738.562
344.716;   32.839;   -2.155;  723.717
345.313;   30.588;   -6.275;  795.342
345.909;   24.512;   -8.815;  627.336
346.505;   27.050;   -5.305;  740.247
347.101;   28.211;   -2.674;  827.864
347.697;   27.295;   -4.344;  785.398
348.293;   21.999;   -9.975;  627.244
348.889;   22.787;   -5.774;  745.914
349.485;   22.404;   -5.004;  688.205
350.081;   21.973;   -4.704;  772.592
350.676;   17.946;   -6.635;  691.606
351.272;   22.360;   -4.504;  809.530
351.868;   22.654;   -3.914;  780.497
352.464;   19.386;   -9.044;  723.932
353.059;   14.980;   -8.314;  646.017
353.655;   18.245;   -7.024;  777.063
354.251;   19.947;   -5.343;  759.845
354.846;   14.433;   -8.604;  740.646
355.442;   11.590;   -6.945;  753.071
356.038;   14.225;   -7.564;  751.708
356.633;   14.829;   -5.814;  728.594
357.229;   12.181;   -7.364;  724.757
357.824;   10.225;   -8.024;  703.600
358.420;    9.304;   -9.384;  679.726
359.015;   10.720;   -5.104;  695.357
359.610;   11.213;   -6.854;  763.920
360.206;    5.430;  -10.185;  603.240
360.801;    7.659;   -7.054;  646.503
361.396;    9.974;   -5.034;  725.975
361.992;    5.817;   -8.284;  668.220
362.587;    3.480;   -8.625;  670.160
363.182;    4.576;   -7.674;  689.631
363.777;    5.213;   -5.164;  738.242
364.372;    5.202;   -8.604;  737.314
364.967;    1.410;   -9.055;  680.744
365.563;    5.889;   -6.114;  815.567
366.158;    3.243;   -5.814;  685.161
366.753;    3.117;   -7.854;  649.263
367.348;    2.053;   -7.804;  746.056
367.942;    1.726;   -7.954;  697.298
368.537;    1.531;   -4.984;  754.245
369.132;    1.342;   -8.564;  703.428
369.727;   -3.074;   -8.855;  638.079
370.322;   -1.960;   -6.245;  580.186
370.917;   -1.921;   -6.425;  710.646
371.511;    0.577;   -6.294;  861.834
372.106;   -2.661;   -7.685;  776.964
372.701;   -5.935;   -7.335;  585.988
373.296;   -0.336;   -4.564;  863.135
373.890;   -5.467;  -10.235;  647.840
374.485;   -7.699;   -7.885;  691.199
375.079;   -3.281;   -7.324;  738.685
375.674;   -2.035;   -3.494;  812.970
376.268;   -6.110;   -8.525;  691.759
376.863;  -12.008;  -10.086;  580.327
377.457;   -6.160;   -7.025;  662.490
378.052;   -7.860;   -3.585;  764.884
378.646;   -8.403;   -7.595;  741.167
379.240;   -8.558;   -8.335;  721.176
379.835;   -7.950;   -5.785;  636.978
380.429;   -9.882;   -4.335;  562.557
381.023;   -9.903;   -6.805;  779.205
381.617;  -12.993;   -9.195;  680.106
382.212;   -8.923;   -6.905;  685.303
382.806;   -7.876;   -3.745;  760.690
383.400;  -12.827;   -7.745;  672.281
383.994;  -13.584;   -9.765;  664.870
384.588;   -9.510;   -6.564;  697.701
385.182;   -7.662;   -5.344;  726.624
385.776;   -9.757;   -8.514;  706.875
386.370;  -12.715;   -9.555;  681.968
386.964;  -12.031;   -8.715;  684.155
387.558;  -10.092;   -6.174;  598.360
388.152;  -12.975;   -8.725;  681.959
388.745;  -11.501;   -7.965;  814.707
389.339;  -10.182;   -5.924;  747.642
389.933;   -8.915;   -5.524;  695.370
390.527;   -9.839;   -7.114;  859.029
391.120;  -16.605;  -10.725;  595.318
391.714;  -13.419;   -8.035;  711.633
392.308;  -10.244;   -3.574;  780.253
392.901;  -13.749;   -7.245;  642.460
393.495;  -15.629;   -9.285;  595.414
394.089;  -13.618;   -5.895;  760.452
394.682;  -14.366;   -4.295;  697.188
395.275;  -14.917;   -9.875;  719.927
395.869;  -15.708;   -8.485;  667.314
396.462;  -14.542;   -7.455;  616.609
397.056;  -10.030;   -5.424;  776.621
397.649;  -14.644;   -6.605;  731.575
398.242;  -12.956;   -8.224;  712.645
398.836;  -11.648;   -7.474;  766.408
399.429;  -13.067;   -7.094;  631.041
400.022;  -16.884;   -9.475;  665.902
400.615;  -14.283;   -7.145;  805.609
401.208;  -13.098;   -7.174;  691.451
401.802;  -14.255;   -5.515;  699.329
402.395;  -15.173;   -9.875;  683.502
402.988;  -16.253;   -8.845;  696.627
403.581;  -13.752;   -8.874;  646.878
404.174;  -11.053;   -5.324;  686.568
404.767;  -13.750;   -9.575;  638.583
405.360;  -17.002;  -10.965;  621.445
405.953;  -11.239;   -8.764;  759.034
406.545;  -10.826;   -7.514;  725.342
407.138;  -15.028;  -10.025;  618.350
407.731;  -13.558;  -10.034;  613.303
408.324;   -9.729;   -9.374;  660.554
408.917;  -10.146;   -6.534;  681.864
409.509;  -12.241;   -8.004;  740.396
410.102;  -14.273;   -9.875;  643.948
410.695;   -8.433;   -8.604;  665.758
411.287;   -8.956;   -6.794;  599.821
411.880;   -9.761;   -9.334;  585.421
412.472;  -13.807;  -10.254;  613.092
413.065;  -11.146;   -6.714;  629.408
413.657;   -9.145;   -7.234;  576.678
414.250;   -8.909;  -10.544;  646.681
414.842;  -10.855;   -9.744;  676.353
415.434;   -8.147;   -6.994;  570.463
416.027;   -3.787;   -5.893;  652.196
416.619;   -6.308;   -7.264;  713.400
417.211;   -6.989;  -10.374;  599.352
417.804;   -3.384;   -7.993;  628.499
418.396;   -6.486;   -7.234;  607.643
418.988;   -4.738;   -9.443;  659.238
419.580;   -8.217;  -10.724;  568.276
420.172;   -5.515;  -10.323;  536.196
420.764;   -2.499;   -8.793;  672.482
421.356;   -3.311;  -11.143;  636.898
421.948;   -3.997;   -8.293;  677.661
422.540;    0.977;   -7.893;  680.027
423.132;    0.381;   -7.082;  600.641
423.724;   -3.081;   -8.653;  561.267
424.316;   -1.502;  -10.213;  621.345
424.908;    2.495;   -9.762;  591.517
425.500;    3.926;   -5.572;  647.978
426.092;    3.979;   -8.422;  648.268
426.683;    2.542;   -9.283;  684.836
427.275;    5.173;   -7.852;  641.471
427.867;    6.808;   -5.272;  668.948
428.458;    7.521;   -7.682;  732.344
429.050;    5.333;  -10.612;  680.749
429.642;    8.144;   -9.882;  743.124
430.233;    8.213;   -6.962;  569.356
430.825;    9.902;   -6.842;  724.809
431.416;    7.281;   -9.672;  698.241
432.008;   10.840;   -6.552;  651.723
432.599;   11.551;   -6.891;  656.073
433.190;    8.457;  -10.912;  637.670
433.782;    7.191;  -11.172;  590.395
434.373;   14.846;   -6.061;  884.765
434.964;   13.552;   -8.251;  602.920
435.556;   11.696;   -9.722;  634.537
436.147;   13.608;   -9.082;  758.490
436.738;   13.843;   -8.041;  701.099
437.329;   19.229;   -7.341;  721.723
437.920;   12.004;   -8.162;  666.688
438.511;   11.868;  -11.802;  564.526
439.103;   18.954;  -10.191;  623.998
439.694;   20.451;   -7.601;  681.583
440.285;   21.231;   -8.541;  764.432
440.876;   20.400;   -9.751;  845.738
441.466;   18.512;   -9.401;  575.162
442.057;   23.985;   -7.760;  665.814
442.648;   23.357;   -9.971;  746.255
443.239;   20.934;  -11.001;  620.477
443.830;   26.498;   -7.990;  704.958
444.421;   28.538;   -7.910;  655.474
445.011;   24.007;   -8.131;  693.619
445.602;   24.224;   -7.111;  743.126
446.193;   26.240;  -10.920;  488.117
446.783;   30.415;   -6.500;  640.397
447.374;   26.348;   -8.671;  692.759
447.964;   26.652;  -10.781;  713.770
448.555;   35.284;   -9.650;  822.742
449.145;   31.575;   -8.660;  662.853
449.736;   32.351;   -8.990;  803.179
450.326;   31.926;   -9.500;  713.626
450.917;   37.312;   -8.680;  675.324
451.507;   36.811;   -7.520;  600.661
452.097;   36.423;   -8.590;  746.267
452.688;   38.180;  -11.340;  742.160
453.278;   38.084;  -10.100;  566.840
453.868;   41.976;   -6.019;  793.550
454.458;   39.667;   -9.440;  651.141
455.048;   40.696;  -10.560;  711.783
455.639;   42.261;  -11.799;  567.096
456.229;   45.988;   -6.899;  710.694
456.819;   47.035;   -7.389;  751.158
457.409;   47.387;  -11.119;  773.993
457.999;   50.210;   -9.289;  737.505
458.589;   50.330;   -6.139;  686.606
459.179;   49.893;   -8.729;  717.658
459.769;   47.718;   -9.789;  627.099
460.358;   53.271;  -10.259;  797.262
460.948;   52.383;   -7.299;  689.503
461.538;   54.047;  -10.289;  660.677
462.128;   51.708;  -11.269;  664.934
462.717;   59.392;   -9.368;  710.326
463.307;   61.844;   -7.908;  705.846
463.897;   57.309;   -9.599;  656.942
464.486;   56.644;   -9.769;  837.128
465.076;   62.070;   -8.048;  733.776
465.666;   64.633;   -9.358;  652.900
466.255;   62.263;   -7.919;  785.651
466.845;   61.803;  -11.689;  666.749
467.434;   64.940;   -7.818;  725.873
468.023;   65.584;   -7.678;  658.357
468.613;   63.497;  -10.939;  713.946
469.202;   67.606;  -10.118;  646.507
469.791;   71.100;   -9.108;  737.811
470.381;   73.913;   -6.058;  742.813
470.970;   72.829;  -10.428;  711.099
471.559;   73.147;  -10.268;  733.291
472.148;   76.441;   -8.448;  675.737
472.738;   79.271;   -6.917;  765.466
473.327;   78.799;  -11.978;  637.529
473.916;   77.406;  -11.888;  737.446
474.505;   81.826;   -9.437;  751.703
475.094;   85.296;   -6.747;  806.570
475.683;   84.497;   -9.367;  797.699
476.272;   85.788;  -12.637;  730.632
476.861;   88.201;  -10.027;  706.754
477.449;   94.776;   -8.716;  728.487
478.038;   88.710;   -9.577;  692.513
478.627;   90.301;   -9.718;  714.852
479.216;   96.261;   -8.947;  769.441
479.805;  100.674;   -6.256;  783.375
480.393;   98.923;   -7.937; 1008.945
480.982;   99.028;   -7.717;  874.501
481.571;  105.510;   -9.266;  858.333
482.159;  105.435;   -7.636;  705.386
482.748;  105.405;   -9.667;  821.385
483.336;  109.529;  -10.376;  858.209
483.925;  110.226;   -7.147;  774.373
484.513;  117.764;   -7.996;  758.962
485.102;  114.075;  -10.027;  810.965
485.690;  121.874;  -10.446; 1011.050
486.278;  123.817;   -8.446;  979.329
486.867;  124.599;   -6.356;  809.662
487.455;  127.294;   -9.136;  898.229
488.043;  128.532;  -10.646;  748.361
488.631;  136.598;   -7.456; 1005.079
489.220;  140.761;   -6.636;  908.626
489.808;  141.557;  -11.036;  741.415
490.396;  147.533;  -10.246;  914.645
490.984;  153.533;   -8.556;  830.161
491.572;  164.098;   -5.886;  940.315
492.160;  169.722;   -9.486;  919.081
492.748;  181.256;  -10.976;  884.341
493.336;  203.932;   -8.776; 1019.693
493.924;  229.370;   -5.465;  958.077
494.512;  257.226;   -9.986; 1066.638
495.100;  296.719;  -10.636; 1103.280
495.687;  350.075;  -10.885; 1206.373
496.275;  408.357;   -8.126; 1150.796
496.863;  475.549;  -10.586; 1281.171
497.451;  576.918;  -11.926; 1386.805
498.038;  724.931;  -10.885; 1556.729
498.626;  838.401;   -6.315; 1741.407
499.214;  961.585;   -7.326; 2016.609
499.801; 1175.767;  -11.906; 2220.633
500.389; 1432.958;  -10.466; 2312.494
500.976; 1790.799;   -5.236; 2744.849
501.564; 2174.420;   -8.936; 3148.565
502.151; 2553.938;  -13.176; 3515.999
502.738; 3056.965;  -10.646; 3971.274
503.326; 3427.133;   -9.525; 4403.796
503.913; 3882.346;  -10.856; 5161.749
504.500; 4252.428;  -11.586; 5986.420
505.088; 4648.564;  -10.336; 6381.201
505.675; 5122.140;   -6.355; 6925.547
506.262; 5687.508;   -9.046; 7619.060
506.849; 6440.601;  -10.416; 8733.969
507.436; 6948.700;  -10.305; 9790.121
508.023; 7333.582;   -5.496; 9985.472
508.610; 7641.103;   -7.856;10434.618
509.197; 8368.157;  -10.097;11198.435
509.784; 9814.256;  -10.886;12391.194
510.371;10928.226;   -9.315;13603.713
510.958;11636.392;   -9.936;14426.586
511.545;12308.811;   -9.326;15243.775
512.132;12950.551;  -10.075;15945.876
512.719;13642.120;   -7.796;16340.369
513.305;14798.209;  -10.606;18011.766
513.892;15717.847;  -11.486;19754.971
514.479;17120.051;   -9.126;20967.805
515.066;18095.990;   -6.026;22299.793
515.652;18899.283;   -8.466;22908.660
516.239;20248.887;  -10.886;23798.875
516.825;20765.975;  -11.496;25567.275
517.412;21989.016;   -5.796;28154.959
517.998;22966.117;  -10.506;28344.111
518.585;22666.996;  -10.076;27134.219
519.171;22617.393;   -8.315;27268.576
519.758;24276.463;   -8.596;28964.129
520.344;25609.371;   -8.466;30664.494
520.930;25665.189;  -11.006;32550.605
521.516;27676.373;  -10.495;35422.895
522.103;30060.895;   -5.526;38280.004
522.689;30624.418;   -8.746;37835.117
523.275;29477.371;  -11.376;37288.613
523.861;29335.574;  -11.156;37281.395
524.447;30765.563;   -8.135;37846.949
525.033;30219.160;   -7.896;38321.949
525.619;29888.664;  -12.476;38579.285
526.205;29558.635;   -9.516;40622.875
526.791;29706.762;   -6.926;42258.836
527.377;30354.051;   -8.346;42966.902
527.963;35262.098;   -8.717;42018.949
528.549;37037.914;  -11.016;42476.828
529.135;36093.090;   -8.536;41854.852
529.721;35916.383;   -9.666;41237.711
530.306;35570.699;  -10.066;41259.445
530.892;35627.477;  -11.356;41506.047
531.478;36347.207;   -6.596;43559.613
532.063;38353.211;   -8.836;47695.563
532.649;38316.555;  -10.047;50808.324
533.235;40097.250;   -9.746;51787.500
533.820;41724.652;   -6.566;52145.035
534.406;41558.898;  -10.817;51133.488
534.991;40794.621;   -9.416;49996.805
535.576;39378.578;   -9.036;48882.852
536.162;39622.063;   -6.156;46942.285
536.747;40560.984;  -11.607;45711.746
537.333;43185.543;  -11.787;48510.180
537.918;44560.254;  -12.437;50439.891
538.503;42766.828;   -7.196;50863.711
539.088;39130.969;  -10.556;50906.922
539.673;37630.453;   -8.767;52621.965
540.259;35562.676;  -10.026;52368.094
540.844;33476.371;   -7.416;50879.109
541.429;36515.316;   -9.467;52077.777
542.014;43201.754;   -9.527;52716.695
542.599;45983.313;   -9.946;52363.281
543.184;43691.496;   -7.927;53187.137
543.769;45273.801;   -9.297;54697.605
544.354;45323.000;  -10.127;53913.914
544.938;44417.012;   -9.267;49680.164
545.523;46639.063;   -6.506;47386.277
546.108;47738.238;   -9.787;49151.949
546.693;49654.137;  -11.587;51384.637
547.278;50050.527;  -10.986;51853.254
547.862;46486.105;   -8.206;51173.750
548.447;41818.117;  -10.067;51691.395
549.031;40969.941;   -9.637;52456.703
549.616;45625.047;   -9.926;52714.516
550.201;45152.191;   -6.347;52414.598
550.785;44991.418;   -7.917;52355.059
551.370;45480.410;  -10.867;54589.453
551.954;46741.539;   -9.047;58267.348
552.538;48188.523;   -7.827;59062.176
553.123;46701.773;  -10.287;58115.285
553.707;44731.844;  -12.178;56556.285
554.291;44600.859;   -8.717;56201.668
554.876;44345.926;   -7.457;55335.762
555.460;45358.227;  -10.387;54155.703
556.044;47959.961;   -9.618;53721.484
556.628;45960.172;  -11.567;53731.016
557.212;45308.250;   -8.097;54312.531
557.796;43982.582;  -11.077;53797.773
558.380;43859.375;  -11.108;56145.984
558.964;43834.719;   -9.057;57277.930
559.548;44107.160;   -6.977;56459.641
560.132;42951.656;  -11.457;54434.543
560.716;42242.590;  -11.378;54800.617
561.300;42129.934;   -9.577;57606.945
561.884;43631.824;   -7.127;58972.445
562.467;43880.809;   -7.118;57327.570
563.051;42672.770;  -13.358;54962.434
563.635;43064.754;  -10.178;52594.473
564.219;44720.055;   -7.837;50610.410
564.802;45456.949;  -11.398;49551.180
565.386;45415.109;  -12.788;48370.953
565.969;44709.281;   -9.077;48178.871
566.553;44752.809;   -6.207;49957.305
567.136;44479.914;   -8.568;50369.594
567.720;40476.082;  -11.868;49492.004
568.303;39037.031;   -8.268;50616.352
568.887;39461.938;   -8.698;50727.148
569.470;39887.648;   -6.808;51698.379
570.053;38461.102;  -13.188;52122.078
570.637;37064.059;  -12.037;52536.438
571.220;36367.164;   -8.577;51186.098
571.803;36131.352;   -8.498;51032.762
572.386;38411.324;  -10.498;49609.887
572.969;41374.555;   -9.388;48285.926
573.552;40247.512;   -8.338;47624.285
574.135;39687.344;   -8.518;45498.641
574.718;36088.867;  -13.628;41970.434
575.301;34641.832;  -10.893;41447.137
575.884;33194.801;   -8.158;40923.836
576.467;33910.305;  -10.328;45267.723
577.050;37450.867;  -13.058;48175.543
577.633;39481.367;   -9.458;47729.328
578.216;37910.707;   -8.928;47579.793
578.799;36584.551;   -9.358;47820.996
579.381;34708.848;  -11.388;48115.551
579.964;33395.953;  -11.718;47333.766
580.547;34376.988;   -8.588;46668.969
581.129;34798.773;   -8.859;44466.141
581.712;34785.148;  -10.729;44164.922
582.294;35419.027;  -11.118;46477.855
582.877;36268.133;   -5.218;48244.254
583.459;34859.590;   -8.679;47437.895
584.042;33278.879;  -10.709;46943.219
584.624;33600.254;  -11.669;46792.227
585.206;32642.607;   -8.218;46557.250
585.789;33797.336;  -10.569;45793.773
586.371;36769.191;  -11.859;43836.391
586.953;36422.688;  -10.719;42972.492
587.536;36846.066;   -7.198;42487.211
588.118;36484.434;   -8.720;42086.414
588.700;34348.547;  -10.439;43389.930
589.282;33657.879;   -9.198;43646.039
589.864;33947.137;   -9.199;43438.109
590.446;35228.512;  -11.319;43151.926
591.028;34570.543;  -11.159;42781.867
591.610;33767.195;  -11.779;42839.098
592.192;31440.305;   -7.668;42820.402
592.774;29972.553;  -11.949;40724.277
593.356;29181.408;  -12.129;39874.789
593.937;29295.379;  -10.669;39980.648
594.519;31725.336;   -6.509;42069.633
595.101;33201.449;  -10.849;42976.031
595.683;32991.637;  -11.679;44084.441
596.264;34306.445;   -9.049;43478.797
596.846;32806.746;   -8.849;43803.672
597.427;31483.814;   -9.570;42986.934
598.009;32892.086;  -12.620;42832.219
598.591;33037.637;  -10.039;42580.086
599.172;32694.361;  -10.369;43061.805
599.753;32928.336;   -9.140;41691.469
600.335;34333.398;  -11.430;40692.520
600.916;32863.074;   -9.939;39982.422
601.498;31299.723;   -8.479;40318.617
602.079;30566.867;  -10.920;40670.609
602.660;30816.020;  -11.480;41450.898
603.241;30698.264;  -11.699;41137.738
603.823;28817.850;   -9.579;38868.797
604.404;29683.693;  -10.620;38182.785
604.985;30760.648;  -10.450;38078.047
605.566;29791.488;   -9.129;38056.633
606.147;29430.551;   -7.510;37020.418
606.728;32167.541;  -10.660;37883.359
607.309;31348.113;  -11.740;38748.273
607.890;30294.672;   -9.759;38850.230
608.471;30153.977;   -8.250;37457.918
609.051;29653.779;   -9.240;36066.457
609.632;28623.492;  -12.120;35991.074
610.213;29437.760;   -9.110;37402.641
610.794;29663.098;   -8.030;38383.363
611.374;28837.514;   -8.110;40562.387
611.955;28572.934;  -13.560;38533.727
612.536;29878.854;  -11.400;36951.789
613.116;30624.180;   -8.070;37197.891
613.697;31260.871;  -10.830;38411.125
614.277;29891.961;  -11.641;38673.938
614.858;30387.740;  -13.310;37075.863
615.438;30583.803;   -7.460;35092.906
616.019;27754.592;   -7.601;33666.301
616.599;28075.201;  -12.020;34189.023
617.179;29799.441;  -11.780;36952.047
617.760;29798.238;   -8.570;39582.574
618.340;30836.139;  -11.471;38943.977
618.920;32421.541;  -11.170;37594.156
619.500;32349.955;  -11.071;37866.938
620.080;32165.295;   -7.750;37869.043
620.660;33197.867;  -12.711;36868.617
621.241;34074.664;  -10.211;36352.309
621.821;33406.363;  -10.961;35459.520
622.401;32768.883;   -7.720;35207.414
622.980;31560.242;   -8.981;35980.422
623.560;30240.197;   -9.331;37351.328
624.140;30554.043;   -9.850;34388.582
624.720;26300.902;   -7.451;32368.764
625.300;22113.441;   -9.070;32638.629
625.880;24839.906;  -12.601;34599.035
626.459;28469.756;  -11.751;36831.738
627.039;31312.539;   -9.281;38299.098
627.619;31622.736;   -8.801;38289.574
628.198;29830.063;  -12.071;37220.695
628.778;29455.090;   -9.461;37632.563
629.357;30291.217;   -8.491;38003.012
629.937;30186.225;   -9.721;38402.039
630.516;29235.500;   -9.951;37868.801
631.096;28934.527;  -11.731;35760.410
631.675;32786.684;   -8.572;35225.219
632.254;37811.000;  -11.282;35130.289
632.834;37126.156;  -13.322;35794.570
633.413;35503.035;  -10.301;35788.922
633.992;32101.775;   -8.582;34532.863
634.571;32959.117;   -8.352;33590.113
635.151;34654.445;  -11.912;34943.863
635.730;32956.809;  -10.511;35352.523
636.309;30474.717;   -7.731;35366.605
636.888;28497.484;   -9.952;36165.637
637.467;28889.361;  -11.672;37515.902
638.046;31015.750;   -8.901;39288.695
638.625;33876.910;   -7.912;38279.699
639.204;33444.277;  -10.022;37741.598
639.782;31809.736;  -12.252;38364.551
640.361;28103.783;  -10.041;36740.621
640.940;25351.861;  -11.161;34950.082
641.519;25022.455;   -9.701;34137.398
642.097;27520.350;  -11.271;35654.258
642.676;30911.861;   -8.651;35637.957
643.255;32570.148;   -8.711;36567.074
643.833;31540.283;   -9.581;37809.434
644.412;32059.361;  -13.711;37337.293
644.990;31615.822;  -11.811;37018.531
645.569;31879.713;   -9.411;36518.469
646.147;30403.457;  -10.291;36186.430
646.726;28945.139;  -12.401;36267.688
647.304;29603.617;  -10.411;36647.625
647.882;31064.436;   -9.651;39286.742
648.461;32883.574;   -9.631;39157.703
649.039;32369.270;  -11.881;35412.883
649.617;32170.602;   -9.661;34744.918
650.195;32166.490;   -9.301;35403.098
650.773;31490.369;  -10.511;35053.797
651.352;29581.182;  -11.521;33756.816
651.930;26875.936;  -12.211;31868.773
652.508;24002.865;   -9.171;33121.551
653.086;27470.078;   -9.371;33564.793
653.663;30702.904;  -13.161;34054.668
654.241;29982.002;  -13.031;35693.309
654.819;31470.781;   -9.371;36422.906
655.397;30561.682;  -10.511;38213.484
655.975;30525.910;  -10.371;39507.625
656.553;30441.496;  -10.051;39498.223
657.130;29250.832;  -10.061;40395.480
657.708;29597.471;   -9.561;39242.020
658.286;29321.371;  -11.511;38920.020
658.863;29361.029;  -10.261;40202.898
659.441;31185.984;   -7.531;39677.938
660.018;30292.053;   -9.501;40413.355
660.596;29760.578;  -13.301;39931.414
661.173;31889.277;  -11.211;39604.531
661.750;32347.086;   -9.951;39700.070
662.328;32038.426;   -9.390;39292.809
662.905;30966.191;  -11.330;38235.648
663.482;25935.391;   -9.050;36212.305
664.060;23797.781;   -8.240;35944.945
664.637;26684.859;  -10.050;35170.785
665.214;28240.297;  -11.760;34197.523
665.791;29705.789;  -10.530;34549.520
666.368;29122.859;   -9.690;35118.578
666.945;30389.311;   -9.320;36019.418
667.522;31362.166;  -11.860;36048.438
668.099;31766.172;  -10.770;36243.914
668.676;31462.332;   -6.260;35958.875
669.253;29506.697;   -7.000;37384.730
669.830;29257.109;  -10.190;36779.629
670.407;28971.732;   -9.550;35231.289
670.984;30212.275;   -9.260;35544.270
671.560;29801.873;   -9.280;35466.867
672.137;28013.570;  -11.810;34280.863
672.714;29164.555;  -11.490;34632.863
673.290;29343.287;   -7.740;35135.422
673.867;29692.574;  -10.660;36114.480
674.443;29576.777;  -12.230;36152.859
675.020;27670.844;  -10.450;35327.238
675.596;29212.400;   -9.260;35795.176
676.173;30050.635;  -10.780;35430.355
676.749;29437.629;  -13.690;33549.516
677.326;29397.979;  -11.980;32210.012
677.902;29536.174;   -8.630;32068.871
678.478;28687.270;  -10.730;32583.891
679.054;29179.189;  -10.520;32088.928
679.631;30404.707;  -11.920;30978.848
680.207;31042.281;   -7.490;33160.887
680.783;32215.225;   -9.860;35570.363
681.359;31032.781;  -13.380;36125.184
681.935;29412.943;  -12.480;35240.922
682.511;27857.678;   -7.900;34429.961
683.087;28052.186;   -7.710;34463.680
683.663;29173.496;  -11.480;34648.898
684.239;29007.740;  -14.090;34546.457
684.815;28826.465;   -7.560;35586.375
685.390;28668.625;   -9.910;35821.895
685.966;28588.900;  -11.159;35085.871
686.542;31272.598;  -11.169;34198.230
687.118;33275.297;   -5.959;32847.707
687.693;32920.961;  -10.329;32794.027
688.269;32090.393;  -12.059;33072.367
688.844;29441.453;  -10.909;33141.664
689.420;27678.801;   -8.019;33965.742
689.995;26096.188;   -8.399;34655.523
690.571;25359.568;  -10.949;33576.742
691.146;26005.098;   -9.619;32657.219
691.722;25078.295;   -8.999;32526.979
692.297;25234.885;  -11.589;33014.617
692.872;27412.320;  -11.739;34012.254
693.448;27267.238;  -11.059;34237.434
694.023;25958.967;  -10.139;34142.672
694.598;27688.875;   -9.029;34132.031
695.173;27410.996;  -13.319;34205.250
695.748;26876.373;  -10.169;32882.488
696.323;26256.621;   -8.339;32864.906
696.898;26197.238;   -8.169;33170.004
697.473;26240.836;  -12.309;32432.984
698.048;26369.895;  -10.989;31649.303
698.623;27354.047;   -9.329;30778.141
699.198;29250.311;   -9.849;31140.119
699.773;29892.059;  -12.329;31764.299
700.348;28996.943;  -10.389;31780.816
700.922;29105.740;   -9.269;32046.375
701.497;28916.180;   -9.329;32603.574
702.072;28558.439;  -10.789;34799.871
702.646;28210.551;  -10.839;35793.172
703.221;27492.012;   -9.099;35201.590
703.795;29477.449;  -10.939;34764.527
704.370;29146.979;  -12.859;34307.367
704.944;29046.662;  -11.559;33509.887
705.519;30383.914;   -7.939;31388.584
706.093;31818.633;  -10.499;31340.104
706.668;31126.561;  -11.289;32630.281
707.242;29408.061;  -11.509;32728.779
707.816;28189.188;   -9.639;32947.238
708.390;26719.842;  -11.429;33277.855
708.965;28069.938;  -11.869;33834.336
709.539;29452.225;  -11.689;33709.273
710.113;29605.277;  -10.478;33044.313
710.687;28188.811;  -10.228;31953.992
711.261;25720.885;  -13.698;30505.949
711.835;25814.246;  -13.378;30262.369
712.409;27194.025;   -9.698;31254.447
712.983;28145.879;  -11.898;32754.986
713.557;28991.008;  -15.138;34018.824
714.131;29064.557;  -14.098;34579.625
714.704;28393.059;   -9.958;33890.262
715.278;26289.691;  -10.028;33531.102
715.852;26432.957;  -11.148;33601.660
716.425;27501.594;   -9.068;33515.117
716.999;27918.664;  -10.038;33185.555
717.573;28778.018;   -9.798;33905.996
718.146;29710.289;  -12.378;35199.293
718.720;29190.889;  -11.918;35060.551
719.293;28791.752;   -8.088;34973.230
719.867;31177.885;  -10.888;36394.449
720.440;30967.766;  -11.938;36663.008
721.013;29560.766;  -12.818;35102.426
721.587;28231.713;  -10.298;33985.266
722.160;26221.453;  -10.048;33524.965
722.733;25327.205;  -12.108;32987.043
723.306;26427.357;  -10.818;33066.301
723.880;28122.533;   -8.908;33399.500
724.453;29083.055;   -9.878;33468.297
725.026;27827.363;  -11.188;33816.637
725.599;25633.203;  -11.678;32797.996
726.172;26824.412;   -9.618;33187.434
726.745;28690.086;   -8.258;35136.613
727.318;30664.117;  -12.978;35751.730
727.891;30921.898;  -12.148;35890.430
728.463;30402.316;   -8.968;34822.090
729.036;29042.715;  -10.188;32895.086
729.609;28996.090;  -11.788;31823.225
730.182;25551.570;  -11.788;31445.283
730.754;23180.672;  -10.268;32373.223
731.327;23271.035;   -9.998;33676.820
731.900;23563.752;  -12.228;33417.000
732.472;25299.283;  -13.848;31978.498
733.045;27691.520;   -8.698;30368.777
733.617;27890.834;  -10.607;30574.215
734.190;27030.908;  -11.507;31280.975
734.762;23725.193;  -13.647;31674.412
735.334;22486.447;   -9.767;31247.291
735.907;23369.094;   -9.897;29876.211
736.479;23008.246;  -11.637;29808.488
737.051;22285.133;   -9.567;30233.547
737.623;23331.002;   -8.187;31469.086
738.195;24444.477;  -11.187;31784.225
738.768;26279.799;  -12.337;32120.523
739.340;25383.639;  -12.227;32094.342
739.912;23613.590;  -11.057;31312.680
740.484;23301.797;  -10.207;31946.238
741.056;22703.574;  -10.047;32984.059
741.628;24276.670;  -13.627;33897.715
742.199;27005.477;   -7.177;33213.016
742.771;25678.820;  -10.797;31369.113
743.343;22975.094;  -11.997;31865.473
743.915;21799.424;  -12.867;32388.631
744.487;21976.412;   -7.617;31079.568
745.058;22137.582;   -9.557;30570.107
745.630;23176.164;   -9.877;29970.127
746.201;24300.748;  -14.177;29186.766
746.773;24101.900;   -9.237;28805.723
747.344;23669.461;   -9.847;29591.223
747.916;22211.221;  -11.657;31412.201
748.487;21904.336;  -10.587;32194.898
749.059;23341.410;   -8.707;32533.719
749.630;24824.477;  -10.537;32158.518
750.201;24597.918;  -11.687;30855.395
750.773;23457.387;  -11.647;28622.555
751.344;23616.139;   -7.147;28405.732
751.915;24303.354;   -9.757;28461.551
752.486;22628.186;  -12.427;27842.850
753.057;20382.180;  -12.227;27845.008
753.628;19506.240;  -10.417;27728.107
754.199;20219.990;  -11.767;27381.086
754.770;21051.100;  -11.187;25882.203
755.341;21262.729;  -10.507;25886.184
755.912;21262.482;   -9.387;26050.861
756.483;20660.375;  -10.647;26798.779
757.054;18875.586;  -11.837;27048.238
757.625;17706.031;  -12.716;26294.838
758.195;17702.932;   -9.666;26142.076
758.766;17580.096;   -8.656;26392.234
759.337;18417.328;  -12.856;26334.594
759.907;20302.918;  -13.366;27579.652
760.478;21353.732;   -8.576;28352.770
761.048;20951.795;  -10.526;27325.088
761.619;20225.627;  -11.116;26460.428
762.189;19861.896;  -12.136;26029.826
762.760;20613.740;   -9.456;26430.145
763.330;21454.916;   -7.136;26670.902
763.900;20514.320;  -11.786;26603.021
764.471;17389.285;  -11.546;25542.740
765.041;16213.488;   -8.096;24358.459
765.611;16924.488;   -8.876;23991.297
766.181;17728.813;  -12.196;24470.236
766.751;18511.354;  -11.636;24845.975
767.321;17940.928;  -10.156;24533.633
767.891;15643.413;  -11.766;24916.492
768.461;15102.248;  -14.936;24776.771
769.031;15703.580;  -12.356;24757.988
769.601;17440.232;   -7.526;24181.088
770.171;17546.840;  -10.766;23670.387
770.741;17050.621;  -13.176;22960.045
771.311;17170.479;  -10.616;22917.523
771.880;17048.990;   -9.576;23562.941
772.450;16680.512;  -10.336;24216.500
773.020;16997.961;  -13.516;24140.398
773.589;16907.742;  -13.466;24414.857
774.159;16769.121;   -8.686;23858.717
774.729;16277.019;   -9.476;22942.135
775.298;15328.490;  -13.666;22324.033
775.867;14766.962;  -11.716;21140.313
776.437;14721.890;   -9.906;20838.092
777.006;14328.286;  -12.166;20599.510
777.576;14316.206;  -12.356;20508.809
778.145;14787.330;  -11.646;20732.947
778.714;14705.468;   -8.226;21062.465
779.283;13642.761;   -9.556;20949.664
779.853;13378.420;  -14.116;20508.623
780.422;13861.829;  -11.506;20649.082
780.991;13456.478;   -9.556;21527.520
781.560;12648.590;   -9.095;22632.658
782.129;12468.723;  -12.135;23048.277
782.698;12275.743;  -10.865;23438.555
783.267;11929.039;   -9.335;23267.734
783.836;12082.059;  -11.045;22415.133
784.404;12910.897;  -13.865;20443.152
784.973;12847.693;  -13.095;19699.150
785.542;12670.576;  -11.575;19763.828
786.111;12785.536;   -9.705;20341.408
786.679;12556.540;  -12.105;20207.967
787.248;12400.843;  -12.455;19516.465
787.817;11949.596;  -11.535;18900.363
788.385;11255.975;   -9.765;17879.121
788.954;10531.849;  -14.005;17658.301
789.522;10309.044;  -11.955;17788.879
790.090;10938.765;  -10.135;18118.277
790.659;11273.803;  -10.975;18338.736
791.227;10649.087;  -13.375;18508.615
791.795;11042.077;  -12.375;17898.254
792.364;11268.283;  -10.725;17295.133
792.932;11379.595;   -9.715;16822.051
793.500;11600.065;  -12.675;17040.148
794.068;11931.990;  -13.495;17179.787
794.636;12050.750;  -10.885;16664.246
795.204;11759.146;  -11.045;16524.545
795.772;11696.311;  -13.175;17274.564
796.340;11190.182;  -12.445;17891.002
796.908;11051.132;   -9.735;17648.561
797.476;10909.620;   -9.815;17064.080
798.044;10370.435;  -13.985;16672.777
798.612; 9641.147;  -13.115;17023.996
799.180; 9395.717;  -10.185;16561.615
799.747; 9323.306;   -9.055;15962.773
800.315; 9007.267;  -12.385;15296.992
800.883; 8600.315;  -15.035;14801.771
801.450; 8481.535;  -10.365;14534.430
802.018; 8535.047;   -9.855;14173.248
802.585; 8615.226;  -11.905;14029.547
803.153; 8766.330;  -11.585;13836.846
803.720; 8814.455;   -9.095;13567.324
804.287; 8495.015;   -9.135;13360.622
804.855; 8096.980;  -11.604;13681.981
805.422; 7906.295;  -11.794;13536.560
805.989; 7667.744;  -10.734;13355.958
806.556; 7856.465;  -10.444;13747.896
807.124; 8397.123;  -12.764;13987.376
807.691; 8495.559;  -12.964;14038.674
808.258; 8216.267;  -11.134;14120.152
808.825; 7749.695;   -9.854;13860.111
809.392; 7750.971;  -10.504;13268.790
809.959; 7411.216;  -13.054;12680.389
810.526; 7080.919;   -8.294;12427.308
811.093; 7079.934;   -8.394;12030.105
811.659; 7494.245;  -12.304;11653.664
812.226; 7812.742;  -13.944;11637.183
812.793; 7482.083;  -10.484;11611.521
813.360; 6932.411;  -10.144;11885.181
813.926; 6533.976;  -11.684;12770.539
814.493; 6284.058;  -13.644;12677.638
815.060; 5943.185;   -9.724;11974.336
815.626; 6028.362;   -9.854;11594.715
816.193; 6500.538;  -13.254;11579.474
816.759; 6583.989;  -13.204;11666.972
817.325; 6815.364;   -9.434;11325.530
817.892; 7249.025;  -10.134;11105.369
818.458; 7649.058;  -13.474;10843.928
819.024; 7266.750;  -11.854;10714.406
819.591; 6934.932;  -10.244;10469.165
820.157; 6707.805;  -10.704;10235.523
820.723; 6383.327;  -12.324;10847.563
821.289; 6255.407;   -9.444;11040.980
821.855; 6163.153;   -8.374;10357.100
822.421; 6062.039;  -10.234; 9978.918
822.987; 5886.756;  -13.294; 9754.177
823.553; 5582.201;  -10.884;10065.755
824.119; 5489.543;   -8.884;10036.294
824.685; 5604.050;   -6.784;10029.192
825.251; 5666.083;  -12.004;10199.230
825.816; 5654.857;  -11.474; 9820.189
826.382; 5531.061;   -9.174; 9297.248
826.948; 5807.113;   -9.214; 9381.347
827.513; 6129.334;  -10.774; 9450.726
828.079; 5881.740;  -11.924; 9472.444
828.645; 5370.925;  -10.543; 9292.643
829.210; 5346.320;  -10.533; 9065.341
829.776; 5330.328;  -10.753; 9132.620
830.341; 5264.958;  -10.173; 9092.878
830.906; 5480.964;  -10.743; 9078.557
831.472; 5833.773;  -11.113; 8534.535
832.037; 5584.922;  -10.603; 8677.874
832.602; 4999.379;  -13.323; 8628.692
833.167; 4606.572;  -10.823; 8879.031
833.733; 4489.989;  -10.113; 9189.790
834.298; 4535.619;  -13.583; 9052.608
834.863; 4458.727;  -12.703; 8895.087
835.428; 4482.774;  -10.523; 8824.266
835.993; 4617.582;   -6.963; 8845.385
836.558; 4574.649;  -10.763; 8888.563
837.123; 4625.139;   -9.903; 8966.582
837.688; 4721.930;   -9.913; 8617.860
838.253; 4818.479;  -10.283; 8590.699
838.817; 5002.318;  -12.963; 8443.797
839.382; 4977.571;  -14.243; 8799.356
839.947; 4701.885;  -10.733; 8810.595
840.511; 4387.270;   -9.383; 8796.394
841.076; 4022.395;  -12.563; 8347.231
841.641; 4059.798;  -12.953; 8224.330
842.205; 4109.500;   -7.043; 8223.349
842.770; 4271.488;   -8.163; 8622.107
843.334; 4606.780;  -12.503; 8410.386
843.898; 4642.105;  -11.693; 8337.465
844.463; 4611.422;  -10.203; 8506.283
845.027; 4315.272;   -9.533; 8280.962
845.591; 4100.007;  -13.443; 8231.141
846.156; 4063.853;  -13.143; 7969.179
846.720; 3943.782;   -9.433; 7768.278
847.284; 3799.118;  -11.033; 7630.957
847.848; 3590.952;  -10.403; 7472.395
848.412; 3444.904;  -11.553; 7437.394
848.976; 3478.768;   -8.393; 7674.592
849.540; 3473.650;   -8.713; 7836.011
850.104; 3579.922;  -12.463; 7913.669
850.668; 3848.817;  -12.973; 7694.508
851.232; 3899.991;  -10.793; 7756.887
851.796; 3735.580;  -10.662; 7926.545
852.359; 3463.950;  -13.082; 7827.844
852.923; 3366.809;  -12.192; 7641.163
853.487; 3233.678;  -11.912; 7342.501
854.050; 3149.532;  -10.892; 7042.820
854.614; 3263.785;  -13.992; 7151.338
855.177; 3370.813;  -11.732; 7105.077
855.741; 3399.672;   -8.962; 6989.675
856.304; 3272.442;   -9.442; 6596.634
856.868; 3242.814;  -14.192; 6356.272
857.431; 3409.587;  -12.702; 6468.571
857.995; 3531.564;   -9.942; 6373.210
858.558; 3569.158;   -9.112; 6324.448
859.121; 3308.402;  -12.932; 6408.327
859.684; 3161.155;  -13.442; 6347.886
860.247; 3215.184;  -10.632; 6321.264
860.810; 3144.261;  -11.272; 6301.903
861.374; 2860.371;   -9.832; 6607.881
861.937; 2588.078;  -11.762; 6408.200
862.500; 2562.890;   -9.722; 6572.639
863.062; 2701.805;  -10.512; 6387.297
863.625; 2833.982;  -11.232; 6190.836
864.188; 2987.273;  -14.112; 5807.254
864.751; 3078.858;  -11.302; 5682.413
865.314; 2975.716;  -10.112; 5547.492
865.876; 2828.178;  -12.182; 5500.150
866.439; 2867.584;  -10.722; 5415.909
867.002; 2785.693;   -9.252; 5501.567
867.564; 2537.173;   -9.572; 5413.946
868.127; 2313.543;  -13.142; 5160.325
868.689; 2266.499;  -12.902; 5133.183
869.252; 2211.706;   -9.732; 5252.382
869.814; 2117.159;   -9.432; 5297.141
870.377; 2130.905;  -11.552; 5390.919
870.939; 2228.409;   -9.052; 5599.898
871.501; 2288.824;  -10.982; 5248.336
872.063; 2289.107;  -12.292; 4854.235
872.626; 2257.745;  -14.912; 4817.074
873.188; 2255.923;  -13.112; 4987.732
873.750; 2218.235;  -13.442; 4868.651
874.312; 2154.299;   -9.402; 4779.330
874.874; 2071.308;  -11.062; 4866.348
875.436; 2001.418;  -13.931; 4718.887
875.998; 1979.824;   -9.561; 4660.005
876.560; 1969.219;  -11.321; 4462.964
877.122; 1948.352;  -12.221; 4145.042
877.683; 1952.797;  -12.191; 4056.481
878.245; 2006.412;  -12.101; 3950.740
878.807; 2112.572;   -8.971; 4058.958
879.369; 2057.215;  -12.071; 3954.677
879.930; 1724.661;  -14.621; 3941.495
880.492; 1362.914;  -10.311; 4067.014
881.053; 1046.889;  -10.901; 3859.633
881.615;  849.513;  -14.411; 3776.071
882.176;  832.650;  -13.761; 3734.750
882.738;  911.784;   -9.181; 3678.489
883.299;  985.212;  -11.791; 3405.407
883.860; 1048.028;  -13.121; 3351.106
884.422; 1084.429;  -11.211; 3394.044
884.983; 1074.614;  -10.091; 3166.443
885.544; 1018.493;   -8.461; 3189.802
886.105;  980.794;  -12.361; 3160.360
886.666;  965.339;  -14.141; 3093.059
887.227;  935.538;  -11.361; 2941.957
887.788;  872.072;  -11.401; 2974.836
888.349;  815.427;  -13.791; 2721.214
888.910;  826.239;  -13.191; 2696.493
889.471;  837.632;   -9.881; 2560.172
890.032;  813.012;   -9.881; 2558.190
890.593;  786.582;  -10.371; 2567.669
891.153;  768.403;  -13.301; 2460.307
891.714;  727.656;  -11.431; 2372.046
892.275;  690.893;  -11.291; 2309.505
892.835;  648.840;  -11.471; 2382.543
893.396;  592.655;  -11.541; 2295.502
893.956;  543.322;  -11.181; 2162.420
894.517;  511.759;  -11.741; 2125.439
895.077;  511.467;  -11.671; 2086.978
895.638;  516.977;  -11.311; 2126.316
896.198;  492.740;   -9.831; 1838.275
896.758;  449.910;   -8.421; 1892.813
897.319;  416.601;  -12.351; 1792.232
897.879;  404.720;  -13.511; 1762.751
898.439;  379.219;  -12.001; 1661.149
898.999;  351.675;  -10.180; 1781.468
899.559;  341.217;  -12.030; 1703.347
900.119;  336.519;  -15.710; 1537.525
900.679;  335.707;   -8.900; 1638.384
901.239;  323.253;   -8.340; 1527.902
901.799;  313.436;  -13.910; 1456.441
902.359;  306.863;  -13.460; 1357.140
902.919;  296.928;  -11.490; 1331.118
903.479;  282.400;  -12.110; 1317.257
904.038;  261.417;  -11.720; 1262.595
904.598;  246.897;  -13.610; 1152.034
905.158;  243.125;  -11.040; 1240.893
905.717;  234.555;  -10.900; 1233.691
906.277;  221.792;  -15.080; 1217.330
906.836;  211.168;  -13.380; 1222.408
907.396;  205.311;  -10.780; 1193.047
907.955;  198.747;   -8.500; 1182.526
908.515;  192.387;  -12.760; 1099.364
909.074;  187.643;  -11.900; 1092.863
909.633;  182.371;   -8.950; 1069.121
910.192;  177.909;   -8.770; 1196.460
910.752;  172.272;  -12.390; 1029.960
911.311;  168.573;  -13.680; 1009.780
911.870;  166.130;  -12.370;  971.460
912.429;  164.763;  -10.900; 1094.080
912.988;  160.767;  -11.690; 1081.060
913.547;  153.652;  -13.240;  940.380
914.106;  149.476;  -11.990;  999.420
914.665;  147.109;   -9.990;  984.020
915.224;  146.948;  -12.880; 1035.760
915.782;  146.919;  -12.350;  922.560
916.341;  147.681;   -9.110; 1049.840
916.900;  144.102;   -9.270;  925.260
917.458;  142.640;  -13.240;  884.220
918.017;  142.253;  -13.550;  942.600
918.576;  141.650;  -12.320;  904.440
919.134;  140.566;  -11.490;  837.980
919.693;  138.241;  -13.670;  893.060
920.251;  136.280;  -15.470;  876.500
920.809;  135.132;  -11.290;  839.580
921.368;  135.079;  -10.210;  885.360
921.926;  133.965;  -12.140;  842.940
922.484;  132.639;  -13.080;  903.360
923.042;  131.808;  -11.720;  880.340
923.601;  135.750;   -7.480;  998.680
924.159;  133.453;  -11.570;  935.560
924.717;  130.387;  -13.840;  841.080
925.275;  130.852;  -10.640;  903.240
925.833;  130.300;  -11.540;  779.320
926.391;  131.351;  -12.960;  938.380
926.949;  128.762;  -14.130;  857.680
927.506;  128.870;  -11.750;  903.500
928.064;  129.263;  -10.250;  877.580
928.622;  128.456;  -13.030;  880.100
929.180;  128.388;  -13.400;  814.180
929.737;  129.061;  -10.700;  808.540
930.295;  133.316;  -10.070;  928.480
930.853;  135.852;  -11.960;  849.100
931.410;  136.968;  -13.120;  821.120
931.968;  136.176;  -10.770;  940.660
932.525;  135.654;  -10.680;  909.380
933.082;  134.852;  -13.130;  811.440
933.640;  135.288;  -13.210;  925.900
934.197;  133.885;  -11.060;  886.360
934.754;  135.043;   -9.580;  897.780
935.312;  137.627;  -14.000;  863.340
935.869;  142.827;  -10.710; 1012.980
936.426;  142.482;   -9.860;  872.800
936.983;  143.115;   -9.710;  889.020
937.540;  140.858;  -13.990;  838.280
938.097;  140.279;  -14.040;  940.120
938.654;  141.368;  -10.310;  898.860
939.211;  144.512;  -10.560;  952.480
939.768;  148.102;  -13.900;  915.420
940.324;  150.702;  -14.760;  904.200
940.881;  151.758;  -10.370;  878.500
941.438;  151.320;   -8.260; 1021.200
941.995;  146.378;  -12.540;  992.560
942.551;  144.192;  -14.670;  875.620
943.108;  145.406;  -10.450;  937.920
943.664;  147.201;  -10.750;  869.340
944.221;  151.728;  -11.550; 1088.140
944.777;  150.568;  -14.770;  869.680
945.334;  152.986;  -12.820;  884.840
945.890;  153.186;  -10.130;  946.480
946.446;  153.395;  -13.470;  947.020
947.003;  154.415;  -12.120;  964.940
947.559;  156.087;   -9.980; 1063.040
948.115;  155.928;   -9.080; 1026.540
948.671;  154.729;  -10.830;  967.300
949.227;  151.448;  -12.440;  859.560
949.783;  149.045;  -12.910;  858.900
950.339;  150.859;  -10.270;  991.000
950.895;  150.813;  -13.630; 1023.840
951.451;  150.748;  -15.100;  925.280
952.007;  151.445;  -11.330;  998.540
952.563;  152.096;  -10.580;  937.780
953.118;  150.214;  -13.440;  904.940
953.674;  150.574;  -12.710;  935.780
954.230;  151.580;  -10.350;  949.640
954.785;  149.018;   -9.190;  936.640
955.341;  147.454;  -11.200;  998.160
955.897;  145.033;  -16.560;  834.660
956.452;  145.512;  -12.570;  953.840
957.008;  143.368;   -7.970; 1083.640
957.563;  141.785;  -11.940; 1009.540
958.118;  138.534;  -13.450;  877.700
958.674;  140.623;  -12.030;  946.780
959.229;  141.463;   -9.410; 1013.980
959.784;  138.433;  -12.000;  832.400
960.339;  135.125;  -14.780; 1001.280
960.894;  131.308;   -9.860;  963.760
961.449;  126.867;   -9.970;  859.960
962.004;  128.455;  -10.900; 1212.840
962.559;  123.982;  -13.150;  860.140
963.114;  121.415;  -13.740;  742.480
963.669;  121.113;   -9.820;  915.500
964.224;  118.748;  -13.890;  874.340
964.779;  118.349;  -12.600;  828.420
965.334;  119.232;  -10.950; 1017.860
965.888;  117.577;  -11.170;  875.360
966.443;  119.550;  -12.540;  972.380
966.998;  118.262;  -15.780;  819.460
967.552;  117.520;   -9.760;  908.380
968.107;  114.359;   -9.060;  868.300
968.661;  115.452;  -11.950;  922.440
969.216;  116.038;  -12.800;  856.280
969.770;  116.802;  -11.210;  917.200
970.324;  115.354;  -11.610;  923.140
970.879;  112.701;  -11.370;  947.180
971.433;  108.832;  -12.540;  952.720
971.987;  103.165;  -11.320;  895.340
972.541;   99.588;  -10.720;  917.100
973.095;  100.591;   -9.680; 1009.460
973.649;   98.560;  -11.440;  809.480
974.203;   99.110;  -11.210;  829.040
974.757;   99.864;  -10.240;  855.220
975.311;   99.898;  -13.720;  872.600
975.865;   99.332;  -13.770;  881.820
976.419;   97.630;  -11.690;  857.400
976.973;   96.996;   -9.510;  849.620
977.526;   98.715;  -12.620;  949.920
978.080;   98.347;  -12.010;  796.780
978.634;   99.573;  -10.170;  921.320
979.187;   97.084;   -9.020;  905.400
979.741;   94.217;   -9.820; 1018.380
980.294;   90.495;  -14.870;  789.160
980.848;   88.226;  -12.380;  717.220
981.401;   89.906;  -10.350;  816.540
981.955;   91.195;  -13.720;  844.300
982.508;   91.096;  -11.490;  746.340
983.061;   91.655;  -10.000;  915.260
983.615;   89.024;  -11.480;  798.800
984.168;   85.667;  -13.220;  770.080
984.721;   84.817;  -13.960;  880.760
985.274;   84.331;  -10.870;  867.500
985.827;   83.419;   -9.790;  834.220
986.380;   80.906;  -13.120;  721.340
986.933;   79.369;  -12.450;  864.800
987.486;   77.544;  -10.210;  861.920
988.039;   76.348;   -8.430;  863.100
988.591;   74.944;  -10.520;  893.260
989.144;   71.912;  -14.860;  737.260
989.697;   72.043;  -13.080;  758.740
990.250;   73.033;  -10.150;  858.100
990.802;   71.947;  -13.430;  755.860
991.355;   72.659;  -12.750;  974.880
991.907;   70.010;  -12.040;  864.320
992.460;   67.362;  -11.330;  753.760
993.012;   67.106;  -13.610;  749.540
993.565;   65.641;  -13.460;  711.360
994.117;   67.400;   -9.360;  950.780
994.669;   63.788;  -11.300;  701.320
995.221;   61.951;  -13.540;  791.920
995.774;   60.269;  -13.430;  787.580
996.326;   59.169;  -12.520;  740.220
996.878;   57.622;  -10.950;  838.420
997.430;   55.819;  -14.300;  699.860
997.982;   55.266;  -13.760;  750.140
998.534;   54.759;  -11.530;  739.060
999.086;   53.650;  -10.310;  738.220
999.638;   52.261;  -12.530;  661.380
1000.190;   51.680;  -11.840;  699.320
1000.741;   50.907;  -10.260;  742.700
1001.293;   51.358;   -8.860;  686.020
1001.845;   49.499;  -13.700;  676.640
1002.396;   49.293;  -12.100;  743.400
1002.948;   49.147;  -12.760;  737.400
1003.500;   47.776;  -10.380;  723.780
1004.051;   47.849;  -11.900;  907.580
1004.603;   45.997;  -12.250;  791.820
1005.154;   42.917;  -13.210;  608.980
1005.705;   41.639;  -10.950;  723.960
1006.257;   41.214;  -13.880;  707.220
1006.808;   40.312;  -12.840;  685.460
1007.359;   40.480;  -10.570;  763.240
1007.910;   38.487;   -9.620;  646.640
1008.461;   38.745;  -13.630;  732.940
1009.013;   37.357;  -17.200;  588.340
1009.564;   39.032;  -10.200;  793.520
1010.115;   36.621;  -12.570;  597.040
1010.665;   36.343;  -15.150;  602.160
1011.216;   36.153;  -14.480;  667.920
1011.767;   35.995;  -11.340;  697.920
1012.318;   36.479;   -9.780;  736.980
1012.869;   34.973;  -12.380;  679.000
1013.419;   34.833;  -15.560;  603.120
1013.970;   34.839;  -11.010;  666.640
1014.521;   34.358;  -11.610;  620.620
1015.071;   34.517;  -13.450;  670.380
1015.622;   33.685;  -13.870;  635.460
1016.172;   33.844;  -11.610;  596.820
1016.723;   33.730;  -12.120;  614.380
1017.273;   31.731;  -13.620;  604.160
1017.823;   33.014;  -14.140;  650.340
1018.374;   32.359;  -12.800;  611.760
1018.924;   32.453;  -12.340;  716.880
1019.474;   33.347;  -11.410;  718.880
1020.024;   31.257;  -14.770;  657.580
1020.574;   31.935;   -9.780;  726.160
1021.124;   32.017;   -8.560;  673.580
1021.674;   30.955;  -15.190;  559.120
1022.224;   32.256;  -13.530;  708.940
1022.774;   31.874;  -13.280;  668.820
1023.324;   32.133;  -10.690;  753.520
1023.874;   33.178;  -10.240;  875.760
1024.423;   30.176;  -12.540;  613.700
1024.973;   29.446;  -10.010;  610.760
1025.523;   29.404;  -10.550;  620.960
1026.072;   28.932;  -13.560;  606.420
1026.622;   28.539;  -15.120;  675.740
1027.172;   30.442;  -11.260;  715.660
1027.721;   28.680;  -11.410;  601.220
1028.270;   29.472;  -13.530;  663.400
1028.820;   28.313;  -13.680;  638.080
1029.369;   28.116;  -13.520;  612.700
1029.918;   28.702;  -10.980;  649.840
1030.468;   27.641;  -13.530;  564.780
1031.017;   28.498;  -13.170;  634.800
1031.566;   26.835;  -12.200;  608.900
1032.115;   27.852;   -9.960;  694.500
1032.664;   27.350;  -13.210;  596.480
1033.213;   27.028;  -12.500;  735.420
1033.762;   26.820;  -11.910;  635.620
1034.311;   26.705;   -9.640;  677.220
1034.860;   26.553;  -13.310;  691.000
1035.408;   27.012;  -11.830;  722.720
1035.957;   27.184;  -12.000;  719.540
1036.506;   24.950;  -11.690;  530.800
1037.055;   26.927;  -10.990;  844.320
1037.603;   25.696;  -15.120;  664.000
1038.152;   24.202;  -12.450;  534.760
1038.700;   24.645;  -10.560;  585.740
1039.249;   24.266;  -11.080;  681.220
1039.797;   25.072;  -12.540;  633.360
1040.345;   25.395;  -11.920;  705.420
1040.894;   24.633;  -11.410;  625.300
1041.442;   24.048;  -14.320;  632.200
1041.990;   22.594;  -16.240;  559.160
1042.538;   23.590;  -11.680;  536.180
1043.087;   23.054;  -10.760;  570.860
1043.635;   23.891;  -11.850;  670.500
1044.183;   23.385;  -15.480;  586.400
1044.731;   22.984;  -11.770;  576.000
1045.279;   22.773;  -13.090;  674.920
1045.827;   24.120;  -12.440;  892.400
1046.374;   21.665;  -13.840;  515.420
1046.922;   21.955;  -13.220;  590.580
1047.470;   23.288;  -10.230;  691.300
1048.018;   22.741;  -14.590;  647.960
1048.565;   22.509;  -12.050;  708.600
1049.113;   21.639;  -11.650;  557.000
1049.660;   21.886;  -10.510;  629.660
1050.208;   22.038;  -13.310;  675.640
1050.755;   21.076;  -15.900;  606.580
1051.303;   21.734;  -11.430;  686.820
1051.850;   20.822;   -8.480;  635.120
1052.397;   18.848;  -15.010;  473.960
1052.945;   20.551;  -13.960;  617.760
1053.492;   21.828;  -13.150;  741.840
1054.039;   21.833;   -9.630;  720.180
1054.586;   19.913;  -13.680;  557.240
1055.133;   20.958;  -14.570;  693.140
1055.680;   20.685;  -13.820;  646.620
1056.227;   20.107;  -11.730;  542.780
1056.774;   20.968;  -12.480;  794.980
1057.321;   19.030;  -13.930;  523.260
1057.868;   19.443;  -11.690;  651.320
1058.415;   19.023;   -9.520;  651.980
1058.961;   18.888;  -13.160;  678.940
1059.508;   18.894;  -12.920;  643.820
1060.055;   19.302;  -11.920;  581.780
1060.601;   19.120;  -11.500;  624.300
1061.148;   19.009;  -14.330;  616.820
1061.694;   17.905;  -16.870;  592.580
1062.241;   18.369;  -10.330;  596.320
1062.787;   18.397;  -10.620;  663.140
1063.334;   19.540;  -10.110;  808.560
1063.880;   18.444;  -13.400;  668.360
1064.426;   18.494;  -10.680;  706.820
1064.972;   16.937;   -9.920;  601.340
1065.518;   16.480;  -10.980;  566.640
1066.065;   17.695;  -14.890;  624.460
1066.611;   17.172;  -12.870;  598.800
1067.157;   17.984;  -12.950;  641.860
1067.703;   17.272;  -13.540;  668.480
1068.249;   16.962;  -13.540;  605.220
1068.794;   17.420;  -12.600;  626.880
1069.340;   15.847;  -10.620;  578.960
1069.886;   16.448;  -12.830;  590.700
1070.432;   15.797;  -14.870;  541.720
1070.977;   15.196;  -11.980;  601.080
1071.523;   15.483;   -8.200;  573.060
1072.068;   16.453;  -12.330;  582.000
1072.614;   15.346;  -16.370;  527.760
1073.160;   16.675;  -11.100;  687.040
1073.705;   15.017;  -10.480;  572.520
1074.250;   15.805;  -14.520;  559.900
1074.796;   16.368;  -11.460;  655.160
1075.341;   16.151;  -11.950;  664.100
1075.886;   15.797;  -11.460;  594.240
1076.431;   14.833;  -13.770;  649.880
1076.976;   14.491;  -12.680;  639.220
1077.521;   13.798;  -13.170;  583.080
1078.067;   14.189;  -10.860;  579.400
1078.612;   15.037;  -13.920;  661.620
1079.156;   14.368;  -13.880;  601.540
1079.701;   14.759;  -13.120;  693.260
1080.246;   15.586;   -9.940;  696.300
1080.791;   14.142;  -14.740;  625.020
1081.336;   14.409;  -13.750;  659.320
1081.880;   14.698;  -13.400;  649.680
1082.425;   13.091;  -12.220;  573.480
1082.970;   14.935;  -11.610;  717.040
1083.514;   13.163;  -13.580;  597.000
1084.059;   12.896;  -12.810;  586.720
1084.603;   12.792;  -12.320;  565.840
1085.147;   13.044;  -13.190;  645.220
1085.692;   14.012;  -12.480;  716.800
1086.236;   12.695;  -13.020;  503.140
1086.780;   14.577;   -9.190;  751.440
1087.325;   13.174;  -12.480;  654.620
1087.869;   12.962;  -12.450;  610.700
1088.413;   12.987;  -12.240;  705.040
1088.957;   11.336;   -9.020;  543.400
1089.501;   13.179;  -10.320;  766.640
1090.045;   12.128;  -12.720;  726.480
1090.589;   11.128;  -13.690;  569.920
1091.133;   12.226;  -10.020;  673.340
1091.676;   12.540;  -12.330;  591.940
1092.220;   11.759;  -14.970;  600.920
1092.764;   12.720;  -12.430;  706.960
1093.307;   12.296;   -9.800;  673.780
1093.851;   10.522;  -14.970;  556.540
1094.395;   12.135;  -15.310;  683.140
1094.938;   11.284;  -10.370;  632.520
1095.482;   11.159;  -11.050;  559.800
1096.025;   11.887;  -11.840;  710.880
1096.568;   11.583;  -12.840;  779.280
1097.112;    9.601;  -14.700;  508.180
1097.655;   10.424;   -8.720;  603.000
1098.198;   10.119;  -13.610;  600.180
1098.741;    9.397;  -13.350;  612.860
1099.285;   10.578;  -11.230;  657.300
1099.828;    8.519;  -11.840;  439.400
1100.371;    9.738;  -10.840;  608.160
1100.914;   10.498;  -14.190;  682.660
1101.457;    9.819;  -11.240;  679.900
1101.999;    8.611;  -11.270;  584.680
1102.542;    9.882;  -11.480;  641.440
1103.085;    9.853;  -11.750;  658.500
1103.628;   10.508;  -11.400;  762.060
1104.170;    9.263;  -10.490;  588.280
1104.713;    9.544;  -10.600;  646.700
1105.256;    8.702;  -14.360;  557.440
1105.798;    7.723;  -13.210;  499.980
1106.341;   10.067;  -10.270;  728.900
1106.883;    7.966;  -12.200;  521.340
1107.425;    8.013;  -13.110;  668.180
1107.968;    8.278;  -12.840;  612.380
1108.510;    9.139;   -6.480;  684.960
1109.052;    7.274;  -13.940;  612.620
1109.594;    7.425;  -13.690;  554.440
1110.136;    8.454;  -11.880;  643.220
1110.679;    6.988;   -9.500;  633.080
1111.221;    7.922;  -14.160;  604.460
1111.763;    7.458;  -13.980;  559.220
1112.304;    7.639;  -13.880;  547.140
1112.846;    8.382;  -12.210;  666.240
1113.388;    9.820;  -11.390;  942.180
1113.930;    7.643;  -14.540;  694.200
1114.472;    6.446;  -12.640;  606.540
1115.013;    5.572;  -11.620;  551.280
1115.555;    6.071;  -13.640;  587.100
1116.097;    6.213;  -15.380;  579.480
1116.638;    7.513;  -12.640;  684.600
1117.180;    6.848;   -9.850;  667.740
1117.721;    6.486;  -13.690;  568.580
1118.262;    7.049;  -12.680;  677.960
1118.804;    7.372;  -12.530;  637.340
1119.345;    6.192;  -11.690;  578.400
1119.886;    7.009;  -13.380;  704.040
1120.427;    5.967;  -14.070;  589.020
1120.969;    5.433;  -13.500;  597.920
1121.510;    5.451;  -11.480;  563.060
1122.051;    5.897;  -12.830;  723.580
1122.592;    5.746;  -14.290;  655.420
1123.133;    4.313;  -12.400;  547.940
1123.673;    6.230;  -10.130;  706.480
1124.214;    5.687;  -12.930;  612.460
1124.755;    5.272;  -14.380;  639.460
1125.296;    6.032;  -14.000;  627.320
1125.836;    6.472;  -10.070;  691.500
1126.377;    4.364;  -12.640;  599.660
1126.918;    5.342;  -12.960;  614.980
1127.458;    4.886;  -13.350;  622.220
1127.999;    4.561;  -10.750;  656.980
1128.539;    4.795;  -12.350;  694.240
1129.079;    4.073;  -14.860;  632.720
1129.620;    4.215;  -13.840;  558.100
1130.160;    4.206;  -12.330;  539.480
1130.700;    5.264;  -14.530;  640.840
1131.240;    4.108;  -12.530;  643.700
1131.781;    3.344;  -14.450;  619.680
1132.321;    4.113;   -9.790;  599.120
1132.861;    3.395;  -14.860;  564.200
1133.401;    3.274;  -14.290;  593.940
1133.941;    4.038;  -11.750;  626.280
1134.481;    3.871;   -9.920;  597.580
1135.020;    3.216;  -12.290;  609.160
1135.560;    3.553;  -11.650;  674.940
1136.100;    2.763;  -16.270;  501.160
1136.640;    2.663;  -10.890;  510.480
1137.179;    3.246;  -14.180;  537.960
1137.719;    3.569;  -16.250;  605.400
1138.258;    3.496;  -14.230;  587.360
1138.798;    3.898;   -9.090;  663.780
1139.337;    1.464;  -15.130;  482.840
1139.877;    3.089;  -13.680;  642.360
1140.416;    5.113;  -11.320;  878.060
1140.955;    1.587;  -10.860;  535.380
1141.494;    3.106;  -12.920;  669.280
1142.034;    2.175;  -13.930;  583.520
1142.573;    3.501;  -11.440;  646.280
1143.112;    2.297;  -12.000;  553.480
1143.651;    2.344;  -13.670;  536.480
1144.190;    2.899;  -12.730;  691.640
1144.729;    2.663;  -14.560;  607.420
1145.267;    2.040;  -11.830;  584.900
1145.806;    2.927;  -12.230;  637.040
1146.345;    1.588;  -14.130;  635.020
1146.884;    2.032;  -11.590;  622.500
1147.422;    1.571;  -12.550;  533.060
1147.961;    2.250;  -11.180;  708.460
1148.500;    2.587;  -11.510;  669.720
1149.038;    2.263;  -11.640;  632.500
1149.577;    2.128;  -10.130;  698.640
1150.115;   -0.159;  -13.970;  452.280
1150.653;    1.144;  -14.520;  607.340
1151.192;    1.407;  -12.810;  552.920
1151.730;    1.589;   -9.100;  652.560
1152.268;    0.055;  -12.220;  589.520
1152.806;    0.667;  -14.140;  571.180
1153.344;   -0.203;  -12.350;  577.640
1153.882;    0.520;   -8.980;  600.060
1154.421;   -0.818;  -15.190;  470.620
1154.958;   -0.015;  -15.210;  595.240
1155.496;    1.725;  -12.850;  645.280
1156.034;    1.138;   -9.940;  721.880
1156.572;    1.344;  -13.570;  667.060
1157.110;   -0.362;  -14.590;  473.940
1157.647;    0.698;  -13.030;  676.960
1158.185;    0.069;  -12.140;  564.320
1158.723;   -1.002;  -14.390;  509.200
1159.260;    0.622;  -14.090;  701.700
1159.798;    0.756;  -11.920;  658.160
1160.335;   -0.155;  -11.110;  631.820

