
Integration time [ms]:   3.882
Averaging Nr. [scans]: 1000
Smoothing Nr. [pixels]: 0
Data measured with spectrometer [name]: 7414430SP
Wave   ;Sample   ;Dark     ;Reference
[nm]   ;[counts] ;[counts] ;[counts] 

288.544;  138.843;    7.153;  793.890
289.143;  142.756;    8.402;  681.602
289.742;  144.621;    7.062;  828.814
290.341;  132.067;    0.191;  789.841
290.940;  121.827;    0.321;  730.702
291.538;  122.320;    3.811;  881.108
292.137;  121.129;   -3.438;  792.581
292.736;  124.500;   -2.809;  975.101
293.335;  120.963;   -5.239;  735.086
293.934;  122.559;   -4.939;  781.677
294.532;  123.353;   -2.199; 1031.958
295.131;  109.743;   -6.831;  834.394
295.730;  108.651;   -6.620;  809.588
296.328;  105.386;   -6.471;  783.442
296.927;  105.176;   -6.571;  779.652
297.525;  106.777;   -7.391;  781.236
298.124;   98.638;   -9.402;  654.009
298.722;  103.422;   -5.781;  761.933
299.321;  101.282;   -6.351;  708.597
299.919;   97.759;   -8.661;  751.918
300.518;   94.072;  -11.922;  689.338
301.116;   94.956;   -6.941;  691.381
301.715;   95.929;   -5.471;  730.222
302.313;   96.648;   -8.361;  704.943
302.911;   90.496;   -9.082;  733.830
303.509;   95.889;   -4.571;  925.627
304.108;   93.834;   -7.111;  760.383
304.706;   94.423;   -7.681;  801.664
305.304;   88.670;   -9.162;  796.707
305.902;   92.736;   -6.761;  784.484
306.500;   88.848;   -6.921;  728.200
307.098;   88.238;   -6.491;  746.560
307.696;   86.147;   -6.941;  780.432
308.294;   85.810;   -6.301;  731.359
308.892;   88.132;   -4.771;  759.769
309.490;   85.269;   -5.141;  712.161
310.088;   82.848;   -2.912;  788.444
310.686;   87.349;   -0.421;  821.749
311.284;   82.729;   -3.461;  766.040
311.882;   81.379;   -6.282;  731.225
312.480;   77.965;   -3.632;  697.167
313.078;   79.472;   -2.112;  808.331
313.675;   79.780;   -1.931;  691.600
314.273;   75.816;   -1.442;  797.837
314.871;   75.419;   -3.002;  589.829
315.468;   72.312;   -2.252;  652.090
316.066;   75.688;   -1.091;  694.427
316.664;   68.632;   -4.512;  656.351
317.261;   73.137;   -0.062;  910.128
317.859;   68.243;   -0.952;  768.735
318.456;   69.624;    0.719;  830.096
319.054;   65.227;   -4.002;  787.828
319.651;   64.594;   -4.972;  759.928
320.249;   63.372;   -1.162;  810.188
320.846;   60.851;   -2.651;  714.286
321.443;   59.673;   -3.832;  832.135
322.041;   55.980;   -4.312;  812.315
322.638;   53.735;   -3.872;  701.456
323.235;   56.802;   -4.361;  665.683
323.833;   54.444;   -4.821;  740.354
324.430;   49.032;   -6.971;  615.900
325.027;   50.945;   -4.361;  876.855
325.624;   50.015;   -5.581;  644.532
326.221;   47.068;   -6.601;  689.717
326.818;   47.125;   -7.301;  818.332
327.415;   48.175;   -6.180;  748.828
328.012;   48.789;   -5.920;  690.585
328.609;   47.364;   -8.390;  731.389
329.206;   44.811;   -6.121;  778.621
329.803;   44.600;   -5.241;  737.841
330.400;   46.596;   -7.420;  704.260
330.997;   48.229;   -5.931;  817.147
331.594;   44.917;   -5.641;  788.185
332.191;   50.500;   -6.451;  728.722
332.787;   54.434;   -4.651;  844.463
333.384;   52.531;   -5.472;  763.093
333.981;   49.572;   -6.303;  815.687
334.578;   51.837;   -5.892;  708.378
335.174;   54.848;   -4.102;  731.469
335.771;   54.936;   -8.053;  836.456
336.367;   51.884;   -7.363;  710.631
336.964;   54.636;   -6.243;  793.266
337.561;   53.916;   -5.653;  731.112
338.157;   50.296;   -7.074;  911.916
338.754;   47.931;   -5.474;  796.589
339.350;   46.758;   -5.624;  722.493
339.946;   48.537;   -5.054;  773.135
340.543;   41.418;   -6.695;  846.136
341.139;   35.559;   -6.215;  720.836
341.735;   33.768;   -5.746;  772.593
342.332;   32.332;   -7.335;  691.472
342.928;   32.437;   -4.835;  795.394
343.524;   27.258;   -4.586;  761.684
344.120;   23.809;   -3.946;  738.562
344.716;   26.592;   -4.835;  723.717
345.313;   24.718;   -5.325;  795.342
345.909;   20.011;   -6.535;  627.336
346.505;   22.015;   -4.725;  740.247
347.101;   21.880;   -4.164;  827.864
347.697;   23.073;   -5.274;  785.398
348.293;   16.642;   -7.145;  627.244
348.889;   17.032;   -4.364;  745.914
349.485;   16.950;   -6.404;  688.205
350.081;   18.832;   -7.534;  772.592
350.676;   13.097;   -6.995;  691.606
351.272;   18.644;   -3.544;  809.530
351.868;   17.980;   -5.324;  780.497
352.464;   15.557;   -7.204;  723.932
353.059;   11.064;   -6.894;  646.017
353.655;   14.809;   -3.754;  777.063
354.251;   15.260;   -6.143;  759.845
354.846;   10.216;   -9.464;  740.646
355.442;    7.753;   -7.555;  753.071
356.038;    9.854;   -5.474;  751.708
356.633;    9.557;   -5.914;  728.594
357.229;    7.601;   -8.944;  724.757
357.824;    6.308;   -6.794;  703.600
358.420;    5.072;   -5.754;  679.726
359.015;    6.448;   -5.664;  695.357
359.610;    7.214;   -8.004;  763.920
360.206;    1.240;   -8.815;  603.240
360.801;    3.556;   -8.834;  646.503
361.396;    6.381;   -6.274;  725.975
361.992;    1.553;   -8.574;  668.220
362.587;   -1.361;   -9.265;  670.160
363.182;    0.795;   -5.484;  689.631
363.777;    2.267;   -5.164;  738.242
364.372;    1.361;   -6.954;  737.314
364.967;   -1.972;   -7.065;  680.744
365.563;    2.049;   -5.684;  815.567
366.158;   -0.471;   -6.484;  685.161
366.753;    0.214;   -8.004;  649.263
367.348;   -1.843;  -10.114;  746.056
367.942;   -2.231;   -7.764;  697.298
368.537;   -2.439;   -4.554;  754.245
369.132;   -2.430;   -7.664;  703.428
369.727;   -5.925;   -8.905;  638.079
370.322;   -5.279;   -4.945;  580.186
370.917;   -5.321;   -7.095;  710.646
371.511;   -2.117;   -6.574;  861.834
372.106;   -6.409;   -6.515;  776.964
372.701;   -9.580;   -8.225;  585.988
373.296;   -3.041;   -4.494;  863.135
373.890;   -7.661;   -7.965;  647.840
374.485;  -10.718;   -9.745;  691.199
375.079;   -6.628;   -5.554;  738.685
375.674;   -5.174;   -4.724;  812.970
376.268;   -9.148;   -8.365;  691.759
376.863;  -15.536;   -8.126;  580.327
377.457;   -8.877;   -6.045;  662.490
378.052;  -10.464;   -6.835;  764.884
378.646;  -11.127;   -9.375;  741.167
379.240;  -11.345;   -6.185;  721.176
379.835;  -11.352;   -6.135;  636.978
380.429;  -12.493;   -8.365;  562.557
381.023;  -11.891;   -7.935;  779.205
381.617;  -15.373;   -8.325;  680.106
382.212;  -12.144;   -7.405;  685.303
382.806;  -11.175;   -4.155;  760.690
383.400;  -14.925;   -8.945;  672.281
383.994;  -16.275;   -8.365;  664.870
384.588;  -11.583;   -7.824;  697.701
385.182;  -10.112;   -7.984;  726.624
385.776;  -11.329;  -10.404;  706.875
386.370;  -14.960;   -7.335;  681.968
386.964;  -14.340;   -7.485;  684.155
387.558;  -11.540;   -8.174;  598.360
388.152;  -15.310;  -10.415;  681.959
388.745;  -13.597;   -9.595;  814.707
389.339;  -12.278;   -6.454;  747.642
389.933;  -11.913;   -5.804;  695.370
390.527;  -11.862;   -6.854;  859.029
391.120;  -18.728;   -7.665;  595.318
391.714;  -15.255;   -7.245;  711.633
392.308;  -12.518;   -4.514;  780.253
392.901;  -16.637;   -7.935;  642.460
393.495;  -17.868;   -8.585;  595.414
394.089;  -15.963;   -5.245;  760.452
394.682;  -16.657;   -6.305;  697.188
395.275;  -16.731;   -9.335;  719.927
395.869;  -18.326;   -7.375;  667.314
396.462;  -17.752;   -7.055;  616.609
397.056;  -12.862;   -5.434;  776.621
397.649;  -17.443;   -9.525;  731.575
398.242;  -14.531;   -7.574;  712.645
398.836;  -14.119;   -5.134;  766.408
399.429;  -14.996;   -6.544;  631.041
400.022;  -18.870;   -9.215;  665.902
400.615;  -15.985;   -8.105;  805.609
401.208;  -14.419;   -7.614;  691.451
401.802;  -16.232;   -8.085;  699.329
402.395;  -17.402;   -9.575;  683.502
402.988;  -18.690;   -9.285;  696.627
403.581;  -16.084;   -7.514;  646.878
404.174;  -12.715;   -6.404;  686.568
404.767;  -15.303;   -8.775;  638.583
405.360;  -18.743;   -7.415;  621.445
405.953;  -13.927;   -5.624;  759.034
406.545;  -12.336;   -6.474;  725.342
407.138;  -16.756;   -8.445;  618.350
407.731;  -15.048;  -10.044;  613.303
408.324;  -11.949;   -8.484;  660.554
408.917;  -12.465;   -7.624;  681.864
409.509;  -13.920;   -8.304;  740.396
410.102;  -16.108;   -8.495;  643.948
410.695;  -10.822;   -7.824;  665.758
411.287;  -11.502;   -7.754;  599.821
411.880;  -12.270;   -9.294;  585.421
412.472;  -15.276;   -8.814;  613.092
413.065;  -13.524;   -6.674;  629.408
413.657;  -10.946;   -9.664;  576.678
414.250;   -9.137;  -10.264;  646.681
414.842;  -12.009;   -8.664;  676.353
415.434;  -10.245;   -8.584;  570.463
416.027;   -5.471;   -9.423;  652.196
416.619;   -7.673;  -10.764;  713.400
417.211;   -9.036;   -7.404;  599.352
417.804;   -4.401;   -7.383;  628.499
418.396;   -8.965;   -8.334;  607.643
418.988;   -6.417;   -9.633;  659.238
419.580;   -9.753;  -10.554;  568.276
420.172;   -7.727;   -8.683;  536.196
420.764;   -4.011;   -9.713;  672.482
421.356;   -4.985;  -11.303;  636.898
421.948;   -5.640;   -8.453;  677.661
422.540;   -1.120;   -5.793;  680.027
423.132;   -0.819;   -7.162;  600.641
423.724;   -4.452;   -7.933;  561.267
424.316;   -2.996;   -9.083;  621.345
424.908;    0.128;   -8.392;  591.517
425.500;    1.745;   -8.062;  647.978
426.092;    2.918;   -9.692;  648.268
426.683;    1.198;   -8.223;  684.836
427.275;    3.749;   -8.602;  641.471
427.867;    5.169;   -8.382;  668.948
428.458;    6.432;  -10.472;  732.344
429.050;    3.901;   -9.112;  680.749
429.642;    6.576;   -7.752;  743.124
430.233;    7.129;   -8.832;  569.356
430.825;    8.930;   -8.292;  724.809
431.416;    5.585;   -7.522;  698.241
432.008;    8.218;   -9.262;  651.723
432.599;    9.431;   -6.441;  656.073
433.190;    7.489;   -9.222;  637.670
433.782;    5.966;  -11.832;  590.395
434.373;   14.246;   -7.121;  884.765
434.964;   12.045;   -9.141;  602.920
435.556;    9.622;   -9.332;  634.537
436.147;   12.177;   -8.892;  758.490
436.738;   12.405;   -8.151;  701.099
437.329;   18.067;   -8.281;  721.723
437.920;   11.515;   -9.062;  666.688
438.511;   10.852;  -11.182;  564.526
439.103;   17.209;   -7.461;  623.998
439.694;   19.575;   -8.541;  681.583
440.285;   21.118;   -7.351;  764.432
440.876;   18.442;   -8.201;  845.738
441.466;   16.946;  -10.381;  575.162
442.057;   22.251;   -7.620;  665.814
442.648;   22.320;   -8.461;  746.255
443.239;   19.292;   -8.991;  620.477
443.830;   24.124;   -7.910;  704.958
444.421;   27.255;   -7.340;  655.474
445.011;   23.784;   -8.981;  693.619
445.602;   22.028;   -9.341;  743.126
446.193;   24.542;  -11.390;  488.117
446.783;   29.412;  -11.240;  640.397
447.374;   24.876;   -8.471;  692.759
447.964;   25.074;   -8.471;  713.770
448.555;   33.165;   -6.590;  822.742
449.145;   29.179;   -8.200;  662.853
449.736;   30.574;  -11.040;  803.179
450.326;   30.712;   -9.640;  713.626
450.917;   34.933;   -9.480;  675.324
451.507;   35.157;   -8.020;  600.661
452.097;   35.366;  -10.210;  746.267
452.688;   36.583;   -7.810;  742.160
453.278;   36.171;   -9.360;  566.840
453.868;   40.874;   -8.669;  793.550
454.458;   38.994;  -10.950;  651.141
455.048;   38.945;  -10.200;  711.783
455.639;   40.160;   -9.369;  567.096
456.229;   43.388;   -7.739;  710.694
456.819;   45.879;   -8.939;  751.158
457.409;   46.054;   -7.169;  773.993
457.999;   48.022;   -7.779;  737.505
458.589;   47.761;   -7.039;  686.606
459.179;   48.380;   -9.019;  717.658
459.769;   46.268;   -8.909;  627.099
460.358;   50.825;   -8.659;  797.262
460.948;   51.059;   -8.209;  689.503
461.538;   52.943;   -9.879;  660.677
462.128;   51.212;   -9.379;  664.934
462.717;   56.949;   -9.158;  710.326
463.307;   59.684;   -8.638;  705.846
463.897;   56.439;   -8.869;  656.942
464.486;   55.714;   -7.409;  837.128
465.076;   59.693;   -9.618;  733.776
465.666;   62.797;   -7.578;  652.900
466.255;   61.300;   -9.369;  785.651
466.845;   60.731;  -10.049;  666.749
467.434;   63.074;   -8.168;  725.873
468.023;   64.223;   -9.188;  658.357
468.613;   62.750;   -9.849;  713.946
469.202;   66.438;  -12.958;  646.507
469.791;   70.103;   -9.488;  737.811
470.381;   72.525;   -6.468;  742.813
470.970;   71.913;  -10.248;  711.099
471.559;   71.512;  -11.428;  733.291
472.148;   73.779;   -9.738;  675.737
472.738;   76.826;   -7.877;  765.466
473.327;   76.112;  -11.868;  637.529
473.916;   76.215;   -8.578;  737.446
474.505;   80.211;  -11.137;  751.703
475.094;   82.855;   -9.407;  806.570
475.683;   83.264;   -9.977;  797.699
476.272;   83.842;  -10.807;  730.632
476.861;   85.769;  -11.017;  706.754
477.449;   92.841;  -10.316;  728.487
478.038;   86.354;  -10.187;  692.513
478.627;   87.735;  -12.458;  714.852
479.216;   94.366;  -10.127;  769.441
479.805;   98.219;   -6.256;  783.375
480.393;   97.864;   -8.737; 1008.945
480.982;   96.014;   -9.087;  874.501
481.571;  101.828;   -7.806;  858.333
482.159;  102.531;  -10.596;  705.386
482.748;  102.195;  -11.507;  821.385
483.336;  106.539;   -8.366;  858.209
483.925;  107.559;   -7.497;  774.373
484.513;  112.868;   -8.326;  758.962
485.102;  110.418;  -10.277;  810.965
485.690;  120.301;   -8.256; 1011.050
486.278;  120.085;   -7.146;  979.329
486.867;  120.693;   -7.986;  809.662
487.455;  122.247;   -9.926;  898.229
488.043;  124.021;  -10.026;  748.361
488.631;  133.051;   -7.226; 1005.079
489.220;  136.784;   -8.696;  908.626
489.808;  137.122;  -12.276;  741.415
490.396;  144.408;   -9.386;  914.645
490.984;  148.761;   -8.506;  830.161
491.572;  158.338;   -8.226;  940.315
492.160;  164.973;   -9.836;  919.081
492.748;  174.477;  -10.316;  884.341
493.336;  192.687;   -7.146; 1019.693
493.924;  216.155;   -7.965;  958.077
494.512;  243.025;  -10.316; 1066.638
495.100;  275.585;  -10.186; 1103.280
495.687;  329.453;   -7.805; 1206.373
496.275;  389.198;   -9.686; 1150.796
496.863;  469.394;  -11.566; 1281.171
497.451;  549.926;  -11.406; 1386.805
498.038;  649.806;   -8.235; 1556.729
498.626;  767.309;   -7.485; 1741.407
499.214;  923.425;   -8.646; 2016.609
499.801; 1164.149;   -9.936; 2220.633
500.389; 1376.312;   -8.056; 2312.494
500.976; 1521.967;   -6.166; 2744.849
501.564; 1705.820;   -9.126; 3148.565
502.151; 1980.083;  -12.456; 3515.999
502.738; 2347.465;  -10.056; 3971.274
503.326; 2745.017;  -10.605; 4403.796
503.913; 3115.226;  -10.576; 5161.749
504.500; 3576.656;   -9.056; 5986.420
505.088; 4088.583;  -10.136; 6381.201
505.675; 4738.710;   -9.075; 6925.547
506.262; 5171.043;  -11.346; 7619.060
506.849; 6013.956;   -9.376; 8733.969
507.436; 6755.229;   -7.365; 9790.121
508.023; 6734.591;   -8.686; 9985.472
508.610; 6940.492;   -8.846;10434.618
509.197; 7681.156;   -9.077;11198.435
509.784; 9046.521;  -10.246;12391.194
510.371;10266.420;   -9.825;13603.713
510.958;11325.063;  -10.896;14426.586
511.545;12002.715;   -9.006;15243.775
512.132;11808.436;   -8.765;15945.876
512.719;12239.715;   -8.286;16340.369
513.305;14194.385;   -9.256;18011.766
513.892;16260.109;  -11.106;19754.971
514.479;19151.695;   -8.576;20967.805
515.066;21959.377;   -9.046;22299.793
515.652;22799.738;  -10.676;22908.660
516.239;23386.311;  -10.166;23798.875
516.825;22869.293;  -11.266;25567.275
517.412;22239.713;   -7.446;28154.959
517.998;21786.135;  -10.916;28344.111
518.585;21444.777;   -9.166;27134.219
519.171;20773.451;  -10.135;27268.576
519.758;21794.070;   -8.806;28964.129
520.344;24644.596;   -6.716;30664.494
520.930;27332.473;  -10.166;32550.605
521.516;27522.484;   -9.615;35422.895
522.103;29848.535;   -8.656;38280.004
522.689;30804.373;   -9.646;37835.117
523.275;30035.178;  -10.786;37288.613
523.861;32366.807;   -9.266;37281.395
524.447;33432.832;   -8.285;37846.949
525.033;32935.094;   -9.426;38321.949
525.619;33109.180;   -9.836;38579.285
526.205;35448.816;   -8.136;40622.875
526.791;36278.730;   -9.986;42258.836
527.377;36162.672;   -8.236;42966.902
527.963;35560.395;  -12.117;42018.949
528.549;34159.477;   -8.376;42476.828
529.135;35236.645;   -8.696;41854.852
529.721;37605.047;   -9.686;41237.711
530.306;39940.801;   -8.616;41259.445
530.892;42372.840;   -9.396;41506.047
531.478;43319.055;   -9.926;43559.613
532.063;43792.895;  -10.236;47695.563
532.649;44747.617;   -8.257;50808.324
533.235;45579.676;  -11.476;51787.500
533.820;45642.770;   -8.156;52145.035
534.406;46719.660;  -12.257;51133.488
534.991;43734.777;   -8.686;49996.805
535.576;41053.867;   -9.426;48882.852
536.162;40953.895;   -8.436;46942.285
536.747;41555.824;  -10.957;45711.746
537.333;41145.637;  -13.147;48510.180
537.918;42827.535;   -9.027;50439.891
538.503;45088.789;   -8.256;50863.711
539.088;46310.867;  -10.576;50906.922
539.673;47600.285;  -10.907;52621.965
540.259;49181.172;   -9.126;52368.094
540.844;48741.242;   -9.026;50879.109
541.429;48774.512;   -9.597;52077.777
542.014;51184.051;  -11.447;52716.695
542.599;52317.715;   -9.236;52363.281
543.184;52141.711;  -12.267;53187.137
543.769;52825.027;  -10.367;54697.605
544.354;52538.621;  -10.887;53913.914
544.938;46623.715;  -11.687;49680.164
545.523;42409.832;   -8.286;47386.277
546.108;43370.074;   -9.317;49151.949
546.693;44341.488;  -10.187;51384.637
547.278;42175.902;   -9.926;51853.254
547.862;41246.992;   -9.196;51173.750
548.447;40806.637;   -9.657;51691.395
549.031;42432.352;   -9.127;52456.703
549.616;45037.598;  -10.836;52714.516
550.201;45945.625;   -8.507;52414.598
550.785;46611.074;  -10.537;52355.059
551.370;49888.277;  -11.727;54589.453
551.954;49108.250;   -9.457;58267.348
552.538;47452.113;   -8.147;59062.176
553.123;47019.059;   -9.397;58115.285
553.707;48297.926;   -9.558;56556.285
554.291;47818.344;   -9.417;56201.668
554.876;49793.617;   -7.627;55335.762
555.460;48241.188;  -10.457;54155.703
556.044;43695.500;  -10.078;53721.484
556.628;42978.180;   -9.407;53731.016
557.212;42110.703;   -7.957;54312.531
557.796;41469.816;  -11.327;53797.773
558.380;45427.324;  -10.868;56145.984
558.964;45661.434;   -9.637;57277.930
559.548;43850.285;   -8.807;56459.641
560.132;46013.906;  -10.187;54434.543
560.716;46838.367;   -9.868;54800.617
561.300;48370.742;  -10.217;57606.945
561.884;48499.578;   -4.947;58972.445
562.467;45664.688;   -9.588;57327.570
563.051;41423.324;  -11.138;54962.434
563.635;41864.914;   -9.358;52594.473
564.219;42644.391;   -9.797;50610.410
564.802;41268.063;   -9.918;49551.180
565.386;40252.117;  -10.838;48370.953
565.969;39588.941;   -8.037;48178.871
566.553;38383.305;   -5.667;49957.305
567.136;38378.723;   -8.258;50369.594
567.720;38908.402;  -11.278;49492.004
568.303;36993.492;   -9.028;50616.352
568.887;35464.879;   -7.508;50727.148
569.470;34459.500;  -11.068;51698.379
570.053;36494.328;  -10.028;52122.078
570.637;36602.816;  -11.077;52536.438
571.220;37918.527;   -8.747;51186.098
571.803;40067.375;   -8.868;51032.762
572.386;41278.605;  -10.608;49609.887
572.969;40468.910;  -10.548;48285.926
573.552;37734.270;   -7.898;47624.285
574.135;36412.250;   -9.918;45498.641
574.718;31481.648;  -10.328;41970.434
575.301;29544.922;   -9.548;41447.137
575.884;27608.193;   -8.768;40923.836
576.467;33466.113;   -9.858;45267.723
577.050;34688.777;  -11.018;48175.543
577.633;36366.574;  -10.048;47729.328
578.216;35538.824;  -10.268;47579.793
578.799;33499.629;  -11.808;47820.996
579.381;32530.217;   -7.338;48115.551
579.964;34251.758;   -9.728;47333.766
580.547;34609.129;   -8.928;46668.969
581.129;34358.738;   -9.149;44466.141
581.712;35911.332;  -11.359;44164.922
582.294;35926.375;  -10.738;46477.855
582.877;34029.301;   -8.788;48244.254
583.459;32914.492;   -9.859;47437.895
584.042;33907.656;   -9.649;46943.219
584.624;34473.984;  -10.529;46792.227
585.206;32980.551;  -10.298;46557.250
585.789;31151.389;  -11.029;45793.773
586.371;31169.477;   -9.359;43836.391
586.953;31830.969;   -8.799;42972.492
587.536;31917.252;   -8.928;42487.211
588.118;31200.758;   -9.180;42086.414
588.700;29589.602;  -10.519;43389.930
589.282;28621.340;   -8.098;43646.039
589.864;28592.172;   -8.139;43438.109
590.446;29867.271;  -10.509;43151.926
591.028;32120.760;  -11.119;42781.867
591.610;32247.264;  -10.019;42839.098
592.192;29354.764;   -8.838;42820.402
592.774;25898.469;  -11.549;40724.277
593.356;23895.115;  -11.609;39874.789
593.937;26224.438;  -10.019;39980.648
594.519;30439.686;   -7.839;42069.633
595.101;32422.879;  -10.779;42976.031
595.683;33864.379;  -10.049;44084.441
596.264;34101.160;   -9.969;43478.797
596.846;32633.873;   -9.699;43803.672
597.427;31815.473;  -10.970;42986.934
598.009;32886.051;  -13.090;42832.219
598.591;33254.523;   -9.509;42580.086
599.172;31545.691;   -9.019;43061.805
599.753;29156.824;  -13.310;41691.469
600.335;29390.492;  -11.010;40692.520
600.916;30216.533;  -10.309;39982.422
601.498;30427.371;   -8.209;40318.617
602.079;30482.645;  -11.440;40670.609
602.660;31795.572;   -8.690;41450.898
603.241;33186.367;  -12.759;41137.738
603.823;31541.906;  -10.409;38868.797
604.404;31468.619;  -11.790;38182.785
604.985;29929.775;  -10.280;38078.047
605.566;30590.363;   -8.059;38056.633
606.147;31098.051;   -8.960;37020.418
606.728;30841.992;  -10.710;37883.359
607.309;30025.057;  -12.760;38748.273
607.890;27915.580;   -9.959;38850.230
608.471;26301.844;   -9.780;37457.918
609.051;28061.885;   -8.940;36066.457
609.632;30911.996;  -12.070;35991.074
610.213;32922.543;   -9.610;37402.641
610.794;33132.371;   -8.750;38383.363
611.374;32005.771;  -11.100;40562.387
611.955;32369.758;  -12.200;38533.727
612.536;32220.512;  -10.410;36951.789
613.116;32368.570;  -10.010;37197.891
613.697;31510.580;  -10.480;38411.125
614.277;29942.018;  -12.751;38673.938
614.858;29949.633;  -11.600;37075.863
615.438;29438.717;   -8.190;35092.906
616.019;27998.051;   -8.941;33666.301
616.599;29124.389;  -13.540;34189.023
617.179;29663.398;  -10.890;36952.047
617.760;30159.875;   -7.610;39582.574
618.340;29539.676;  -14.441;38943.977
618.920;28896.541;   -9.180;37594.156
619.500;28882.705;  -11.881;37866.938
620.080;30892.078;   -9.870;37869.043
620.660;30958.131;  -13.211;36868.617
621.241;29757.504;  -11.921;36352.309
621.821;28623.711;  -10.271;35459.520
622.401;28417.719;   -8.200;35207.414
622.980;29462.174;  -11.141;35980.422
623.560;30890.207;  -14.321;37351.328
624.140;30576.725;   -9.360;34388.582
624.720;27144.652;   -7.481;32368.764
625.300;23969.311;  -12.730;32638.629
625.880;28811.000;  -11.441;34599.035
626.459;32502.811;  -10.971;36831.738
627.039;33975.625;   -9.011;38299.098
627.619;33824.688;   -8.521;38289.574
628.198;34909.309;   -9.861;37220.695
628.778;34631.461;   -8.841;37632.563
629.357;33155.352;   -9.891;38003.012
629.937;30862.248;  -11.871;38402.039
630.516;29746.502;  -10.641;37868.801
631.096;31925.084;  -11.391;35760.410
631.675;33540.801;   -6.622;35225.219
632.254;31364.551;  -13.002;35130.289
632.834;29685.092;  -11.622;35794.570
633.413;31533.764;   -8.321;35788.922
633.992;29803.301;   -7.732;34532.863
634.571;29298.195;  -10.992;33590.113
635.151;30782.678;  -10.422;34943.863
635.730;31230.406;  -11.511;35352.523
636.309;30453.350;   -7.901;35366.605
636.888;29603.158;  -11.452;36165.637
637.467;29252.664;  -10.672;37515.902
638.046;29259.084;   -9.301;39288.695
638.625;30297.385;  -11.452;38279.699
639.204;31805.229;  -12.262;37741.598
639.782;31252.881;  -11.892;38364.551
640.361;29939.170;  -11.411;36740.621
640.940;26928.434;  -11.501;34950.082
641.519;27134.906;  -10.921;34137.398
642.097;30403.561;  -10.101;35654.258
642.676;30954.525;  -10.821;35637.957
643.255;33350.180;   -8.631;36567.074
643.833;35483.367;  -11.411;37809.434
644.412;36442.254;  -12.021;37337.293
644.990;36189.633;  -12.271;37018.531
645.569;35361.559;   -9.741;36518.469
646.147;34142.645;   -9.051;36186.430
646.726;32224.453;  -13.861;36267.688
647.304;32265.998;   -9.461;36647.625
647.882;31349.607;  -13.171;39286.742
648.461;31400.881;  -11.911;39157.703
649.039;31745.000;   -9.541;35412.883
649.617;33545.309;   -8.901;34744.918
650.195;31625.572;   -8.591;35403.098
650.773;30065.926;  -13.031;35053.797
651.352;28561.008;  -12.211;33756.816
651.930;25612.686;  -11.361;31868.773
652.508;22983.365;   -8.601;33121.551
653.086;26551.273;   -9.991;33564.793
653.663;30890.469;  -11.931;34054.668
654.241;32615.936;  -10.821;35693.309
654.819;33114.961;   -9.341;36422.906
655.397;31054.268;  -10.851;38213.484
655.975;29451.418;  -11.461;39507.625
656.553;30087.061;   -8.841;39498.223
657.130;29570.014;  -10.371;40395.480
657.708;28544.344;  -11.071;39242.020
658.286;28481.570;  -11.141;38920.020
658.863;30945.250;  -10.861;40202.898
659.441;36533.711;  -11.181;39677.938
660.018;37997.734;  -10.851;40413.355
660.596;36855.703;  -12.571;39931.414
661.173;37487.340;  -12.141;39604.531
661.750;34206.383;  -11.571;39700.070
662.328;30967.762;  -10.780;39292.809
662.905;29848.969;  -10.750;38235.648
663.482;27018.213;  -11.320;36212.305
664.060;25999.797;  -10.160;35944.945
664.637;31608.799;  -13.120;35170.785
665.214;34196.586;  -11.500;34197.523
665.791;32099.287;  -12.430;34549.520
666.368;29623.045;   -9.840;35118.578
666.945;28502.320;  -11.290;36019.418
667.522;28854.508;  -13.540;36048.438
668.099;29666.891;  -10.250;36243.914
668.676;28678.629;  -11.270;35958.875
669.253;28029.260;   -8.210;37384.730
669.830;26756.072;   -9.710;36779.629
670.407;26197.551;   -9.700;35231.289
670.984;25927.814;   -9.190;35544.270
671.560;24698.908;   -9.560;35466.867
672.137;24570.846;  -11.820;34280.863
672.714;27584.803;  -12.460;34632.863
673.290;31820.537;  -10.940;35135.422
673.867;33059.922;  -10.510;36114.480
674.443;31194.932;  -12.110;36152.859
675.020;31076.158;  -11.760;35327.238
675.596;31621.613;   -9.380;35795.176
676.173;30926.742;  -11.120;35430.355
676.749;30088.021;  -13.390;33549.516
677.326;29059.453;  -12.600;32210.012
677.902;28081.207;  -10.830;32068.871
678.478;27474.658;  -12.400;32583.891
679.054;28881.340;   -8.610;32088.928
679.631;30263.254;  -11.640;30978.848
680.207;31025.570;   -8.140;33160.887
680.783;30785.928;  -12.300;35570.363
681.359;29392.197;  -10.910;36125.184
681.935;28612.049;  -11.040;35240.922
682.511;29083.973;  -11.130;34429.961
683.087;29260.492;  -11.080;34463.680
683.663;30987.242;  -10.530;34648.898
684.239;31374.162;  -12.120;34546.457
684.815;30242.391;   -8.870;35586.375
685.390;28834.051;   -8.940;35821.895
685.966;27732.307;  -12.109;35085.871
686.542;26405.811;  -13.539;34198.230
687.118;25727.184;  -10.379;32847.707
687.693;26651.500;  -10.189;32794.027
688.269;26071.766;  -12.939;33072.367
688.844;24970.910;   -8.679;33141.664
689.420;25869.854;  -10.919;33965.742
689.995;26462.129;   -7.489;34655.523
690.571;25837.531;  -12.199;33576.742
691.146;26000.932;   -8.979;32657.219
691.722;27518.158;   -9.119;32526.979
692.297;27616.129;  -10.519;33014.617
692.872;27682.316;  -10.629;34012.254
693.448;27918.236;  -12.119;34237.434
694.023;27256.014;   -8.219;34142.672
694.598;25529.350;  -13.209;34132.031
695.173;24196.980;  -11.879;34205.250
695.748;24694.111;  -12.039;32882.488
696.323;25670.301;  -11.779;32864.906
696.898;26158.621;  -10.219;33170.004
697.473;27665.939;  -13.639;32432.984
698.048;28435.449;  -11.239;31649.303
698.623;30497.289;  -10.859;30778.141
699.198;32548.438;  -13.379;31140.119
699.773;32868.320;  -13.409;31764.299
700.348;31733.801;  -12.329;31780.816
700.922;31618.293;   -8.749;32046.375
701.497;31642.604;  -12.449;32603.574
702.072;30077.635;   -8.879;34799.871
702.646;28086.670;  -10.719;35793.172
703.221;27482.697;   -8.469;35201.590
703.795;28297.531;  -11.389;34764.527
704.370;27307.441;  -12.499;34307.367
704.944;25894.617;  -11.449;33509.887
705.519;25753.990;  -10.659;31388.584
706.093;25013.877;  -12.909;31340.104
706.668;25361.053;  -13.509;32630.281
707.242;26388.412;  -10.049;32728.779
707.816;26393.072;  -10.629;32947.238
708.390;25608.646;  -11.829;33277.855
708.965;24306.637;  -11.159;33834.336
709.539;24611.166;  -11.069;33709.273
710.113;24279.211;  -10.908;33044.313
710.687;22484.529;   -9.488;31953.992
711.261;22761.512;  -13.068;30505.949
711.835;25361.441;  -12.748;30262.369
712.409;27599.563;  -10.678;31254.447
712.983;27141.104;  -11.658;32754.986
713.557;26596.178;  -13.718;34018.824
714.131;27371.701;  -13.388;34579.625
714.704;29996.566;   -9.818;33890.262
715.278;31970.568;  -11.818;33531.102
715.852;32063.932;  -11.328;33601.660
716.425;32423.979;   -9.118;33515.117
716.999;32532.178;  -10.188;33185.555
717.573;31568.793;   -9.808;33905.996
718.146;30508.801;  -11.478;35199.293
718.720;29239.240;  -10.998;35060.551
719.293;28318.244;   -9.508;34973.230
719.867;29362.518;  -12.138;36394.449
720.440;29055.576;  -11.288;36663.008
721.013;31265.037;  -11.428;35102.426
721.587;32810.309;  -11.698;33985.266
722.160;34110.344;  -11.608;33524.965
722.733;34301.211;  -11.428;32987.043
723.306;31117.646;  -12.518;33066.301
723.880;29672.750;   -7.408;33399.500
724.453;29550.414;  -11.048;33468.297
725.026;28417.832;  -11.678;33816.637
725.599;26911.217;  -10.978;32797.996
726.172;25158.803;   -8.838;33187.434
726.745;24912.496;  -11.438;35136.613
727.318;26362.885;   -9.828;35751.730
727.891;27096.961;  -10.868;35890.430
728.463;27036.729;  -11.348;34822.090
729.036;25903.785;  -11.608;32895.086
729.609;25584.518;  -14.738;31823.225
730.182;25933.346;   -8.448;31445.283
730.754;26767.398;  -11.228;32373.223
731.327;27051.307;  -12.018;33676.820
731.900;28886.367;  -13.748;33417.000
732.472;29919.820;  -10.928;31978.498
733.045;29379.926;   -9.478;30368.777
733.617;27563.746;  -12.967;30574.215
734.190;26886.309;  -11.707;31280.975
734.762;26283.123;  -11.067;31674.412
735.334;25258.086;  -10.587;31247.291
735.907;24220.365;  -11.947;29876.211
736.479;24721.438;  -11.667;29808.488
737.051;26449.730;  -10.187;30233.547
737.623;27200.938;   -6.887;31469.086
738.195;28555.828;  -12.117;31784.225
738.768;30641.992;  -14.077;32120.523
739.340;30037.189;  -12.207;32094.342
739.912;27529.197;   -8.977;31312.680
740.484;25979.574;  -11.017;31946.238
741.056;27914.193;  -13.517;32984.059
741.628;30604.736;  -11.507;33897.715
742.199;31178.736;   -7.597;33213.016
742.771;30621.566;  -12.227;31369.113
743.343;29091.771;  -12.427;31865.473
743.915;27232.109;   -9.827;32388.631
744.487;26091.209;  -10.007;31079.568
745.058;25187.004;  -11.887;30570.107
745.630;24088.742;  -10.787;29970.127
746.201;23564.379;  -10.887;29186.766
746.773;25080.311;   -9.707;28805.723
747.344;26247.557;  -11.137;29591.223
747.916;25689.363;  -11.887;31412.201
748.487;25042.568;   -9.707;32194.898
749.059;24548.357;  -10.027;32533.719
749.630;23797.092;  -11.787;32158.518
750.201;22459.467;  -12.767;30855.395
750.773;20566.082;  -11.497;28622.555
751.344;21461.795;   -9.937;28405.732
751.915;21435.898;  -11.567;28461.551
752.486;19376.230;  -13.267;27842.850
753.057;18350.467;  -10.627;27845.008
753.628;18390.398;  -11.657;27728.107
754.199;20720.789;  -12.097;27381.086
754.770;22217.426;  -11.447;25882.203
755.341;22609.393;  -11.997;25886.184
755.912;21031.375;  -10.207;26050.861
756.483;19227.961;  -10.937;26798.779
757.054;19689.572;  -11.527;27048.238
757.625;19961.881;  -12.886;26294.838
758.195;19455.805;  -11.226;26142.076
758.766;19780.234;  -12.366;26392.234
759.337;18630.576;  -11.946;26334.594
759.907;18222.854;  -13.856;27579.652
760.478;19525.912;   -9.606;28352.770
761.048;20992.668;  -11.606;27325.088
761.619;21512.279;  -11.036;26460.428
762.189;19887.457;  -12.206;26029.826
762.760;19122.334;   -9.666;26430.145
763.330;20134.180;   -9.796;26670.902
763.900;19981.391;  -10.896;26603.021
764.471;19432.127;  -11.726;25542.740
765.041;20134.400;   -9.656;24358.459
765.611;20604.314;  -11.276;23991.297
766.181;20090.611;  -12.116;24470.236
766.751;19869.709;  -12.376;24845.975
767.321;20215.531;  -11.626;24533.633
767.891;20008.207;  -10.426;24916.492
768.461;18305.443;  -13.456;24776.771
769.031;15842.646;  -11.616;24757.988
769.601;14833.986;  -11.356;24181.088
770.171;14835.359;  -11.586;23670.387
770.741;15510.375;  -12.696;22960.045
771.311;17238.525;  -10.226;22917.523
771.880;17899.980;  -11.146;23562.941
772.450;18294.055;  -11.716;24216.500
773.020;18256.344;  -13.226;24140.398
773.589;17254.982;  -12.586;24414.857
774.159;16816.684;  -10.246;23858.717
774.729;16179.547;  -11.586;22942.135
775.298;16001.470;  -15.926;22324.033
775.867;15931.770;  -10.426;21140.313
776.437;15488.308;  -11.416;20838.092
777.006;13704.245;  -12.766;20599.510
777.576;13683.048;  -13.666;20508.809
778.145;15029.601;  -10.066;20732.947
778.714;15285.240;  -10.276;21062.465
779.283;14740.352;  -12.086;20949.664
779.853;14472.325;  -14.016;20508.623
780.422;14266.182;  -12.376;20649.082
780.991;13609.675;   -9.246;21527.520
781.560;13340.078;   -9.775;22632.658
782.129;13666.546;  -12.495;23048.277
782.698;13783.321;  -11.775;23438.555
783.267;13705.900;  -10.065;23267.734
783.836;14595.465;  -12.455;22415.133
784.404;15076.693;  -13.385;20443.152
784.973;14933.717;  -11.045;19699.150
785.542;14472.404;   -9.505;19763.828
786.111;13818.563;   -9.385;20341.408
786.679;13593.146;  -13.475;20207.967
787.248;13517.082;  -11.245;19516.465
787.817;12051.578;  -12.485;18900.363
788.385;10561.246;  -11.165;17879.121
788.954;11113.695;  -11.755;17658.301
789.522;12142.581;   -9.625;17788.879
790.090;12513.928;   -9.665;18118.277
790.659;11862.891;   -9.295;18338.736
791.227;11809.736;  -12.175;18508.615
791.795;12600.891;  -12.145;17898.254
792.364;12601.740;  -11.575;17295.133
792.932;12001.657;  -11.085;16822.051
793.500;11594.626;  -11.345;17040.148
794.068;11218.991;  -12.565;17179.787
794.636;11801.993;  -12.105;16664.246
795.204;12846.967;  -11.995;16524.545
795.772;12787.249;  -12.615;17274.564
796.340;12218.703;  -12.425;17891.002
796.908;11751.669;  -11.455;17648.561
797.476;10884.019;  -12.165;17064.080
798.044; 9798.739;  -15.795;16672.777
798.612; 9356.589;  -10.985;17023.996
799.180; 9966.072;  -12.055;16561.615
799.747;10509.607;  -12.525;15962.773
800.315; 9733.580;  -14.765;15296.992
800.883; 8578.713;  -12.435;14801.771
801.450; 8460.423;  -11.295;14534.430
802.018; 8871.281;  -11.185;14173.248
802.585; 9027.088;  -11.625;14029.547
803.153; 8351.902;  -10.665;13836.846
803.720; 7856.791;  -10.275;13567.324
804.287; 8014.656;  -12.865;13360.622
804.855; 8295.395;  -12.324;13681.981
805.422; 8286.426;  -11.574;13536.560
805.989; 7928.641;  -11.004;13355.958
806.556; 8106.938;  -12.214;13747.896
807.124; 8435.529;  -13.304;13987.376
807.691; 8290.116;  -12.034;14038.674
808.258; 8074.372;  -11.014;14120.152
808.825; 7974.077;  -11.804;13860.111
809.392; 7785.254;  -11.544;13268.790
809.959; 7665.352;  -14.954;12680.389
810.526; 7998.156;  -10.214;12427.308
811.093; 8022.687;  -10.754;12030.105
811.659; 7576.058;  -12.194;11653.664
812.226; 6840.459;   -9.194;11637.183
812.793; 6710.843;   -9.644;11611.521
813.360; 7395.817;  -11.544;11885.181
813.926; 8389.097;  -12.814;12770.539
814.493; 8456.021;  -11.524;12677.638
815.060; 8235.229;  -12.254;11974.336
815.626; 8034.941;  -12.114;11594.715
816.193; 7483.971;  -11.994;11579.474
816.759; 6927.429;  -11.464;11666.972
817.325; 6469.066;  -10.444;11325.530
817.892; 6176.232;  -11.124;11105.369
818.458; 6190.627;  -11.864;10843.928
819.024; 6708.534;  -10.634;10714.406
819.591; 6921.521;  -10.554;10469.165
820.157; 6981.490;  -13.334;10235.523
820.723; 7003.853;  -13.044;10847.563
821.289; 6882.170;   -9.664;11040.980
821.855; 6976.090;  -10.994;10357.100
822.421; 7256.355;  -11.784; 9978.918
822.987; 7438.496;  -12.554; 9754.177
823.553; 7447.360;  -12.554;10065.755
824.119; 7065.283;   -8.544;10036.294
824.685; 6248.239;  -12.144;10029.192
825.251; 5883.553;  -12.754;10199.230
825.816; 5576.111;  -11.354; 9820.189
826.382; 5209.811;  -11.004; 9297.248
826.948; 5191.925;  -11.004; 9381.347
827.513; 5390.257;  -12.474; 9450.726
828.079; 5484.284;  -13.084; 9472.444
828.645; 5627.852;  -10.813; 9292.643
829.210; 5473.690;  -11.593; 9065.341
829.776; 5490.480;  -12.633; 9132.620
830.341; 5769.989;  -10.473; 9092.878
830.906; 5659.847;   -8.763; 9078.557
831.472; 4973.700;  -13.453; 8534.535
832.037; 4042.227;  -12.173; 8677.874
832.602; 3743.279;  -14.093; 8628.692
833.167; 4090.011;  -13.593; 8879.031
833.733; 4671.068;  -10.793; 9189.790
834.298; 5048.609;  -14.783; 9052.608
834.863; 4718.197;  -11.023; 8895.087
835.428; 4392.394;  -11.113; 8824.266
835.993; 4695.674;   -9.983; 8845.385
836.558; 4939.166;  -13.003; 8888.563
837.123; 4834.129;  -10.733; 8966.582
837.688; 4483.211;   -9.683; 8617.860
838.253; 4261.250;  -12.253; 8590.699
838.817; 4430.825;  -11.643; 8443.797
839.382; 4635.638;  -11.953; 8799.356
839.947; 4611.815;  -11.443; 8810.595
840.511; 4477.102;  -10.843; 8796.394
841.076; 4468.103;  -13.533; 8347.231
841.641; 4581.125;  -11.743; 8224.330
842.205; 4436.468;  -10.013; 8223.349
842.770; 4294.023;  -11.023; 8622.107
843.334; 4294.088;  -14.273; 8410.386
843.898; 4463.373;  -11.323; 8337.465
844.463; 4836.366;  -10.263; 8506.283
845.027; 5017.951;  -10.353; 8280.962
845.591; 4936.993;  -12.163; 8231.141
846.156; 4730.066;  -12.263; 7969.179
846.720; 4713.066;  -11.553; 7768.278
847.284; 4614.927;  -12.393; 7630.957
847.848; 4003.444;  -12.623; 7472.395
848.412; 3440.152;  -11.863; 7437.394
848.976; 3331.883;  -10.203; 7674.592
849.540; 3405.700;  -10.603; 7836.011
850.104; 3511.783;  -12.423; 7913.669
850.668; 3561.439;  -14.613; 7694.508
851.232; 3499.572;  -12.873; 7756.887
851.796; 3521.622;  -14.192; 7926.545
852.359; 3661.331;  -13.652; 7827.844
852.923; 3644.137;  -11.402; 7641.163
853.487; 3533.770;  -12.022; 7342.501
854.050; 3421.427;  -15.202; 7042.820
854.614; 3432.402;  -14.592; 7151.338
855.177; 3400.620;  -12.572; 7105.077
855.741; 3411.329;   -9.932; 6989.675
856.304; 3561.876;  -12.192; 6596.634
856.868; 3590.968;  -13.462; 6356.272
857.431; 3542.527;  -11.542; 6468.571
857.995; 3572.956;  -12.062; 6373.210
858.558; 3342.661;  -11.142; 6324.448
859.121; 3050.537;  -11.742; 6408.327
859.684; 2870.481;  -10.332; 6347.886
860.247; 2850.740;  -11.962; 6321.264
860.810; 2980.040;  -12.332; 6301.903
861.374; 3021.943;  -10.292; 6607.881
861.937; 2951.062;  -12.062; 6408.200
862.500; 3034.420;  -11.702; 6572.639
863.062; 3204.244;  -13.852; 6387.297
863.625; 3298.979;  -12.972; 6190.836
864.188; 3201.399;  -10.292; 5807.254
864.751; 3067.533;  -12.382; 5682.413
865.314; 2893.015;  -13.232; 5547.492
865.876; 2681.275;  -12.772; 5500.150
866.439; 2514.712;  -11.952; 5415.909
867.002; 2493.540;   -9.332; 5501.567
867.564; 2707.982;  -11.712; 5413.946
868.127; 2890.969;  -12.012; 5160.325
868.689; 2685.888;  -11.882; 5133.183
869.252; 2371.271;  -11.572; 5252.382
869.814; 2247.040;  -10.692; 5297.141
870.377; 2336.693;  -12.392; 5390.919
870.939; 2456.503;  -10.582; 5599.898
871.501; 2474.163;  -12.782; 5248.336
872.063; 2421.145;  -15.612; 4854.235
872.626; 2414.048;  -13.922; 4817.074
873.188; 2311.722;  -13.832; 4987.732
873.750; 2174.324;  -10.962; 4868.651
874.312; 2210.901;  -11.022; 4779.330
874.874; 2246.905;  -13.152; 4866.348
875.436; 2216.919;  -13.401; 4718.887
875.998; 2173.356;   -8.891; 4660.005
876.560; 2113.433;  -12.591; 4462.964
877.122; 2038.580;  -14.531; 4145.042
877.683; 1946.318;  -10.781; 4056.481
878.245; 1869.395;  -14.281; 3950.740
878.807; 1868.001;  -10.311; 4058.958
879.369; 1803.178;  -13.201; 3954.677
879.930; 1757.111;  -12.061; 3941.495
880.492; 1773.464;   -9.181; 4067.014
881.053; 1803.703;  -12.051; 3859.633
881.615; 1777.873;  -11.501; 3776.071
882.176; 1685.904;  -12.221; 3734.750
882.738; 1558.677;   -8.931; 3678.489
883.299; 1443.715;  -13.571; 3405.407
883.860; 1445.295;  -12.331; 3351.106
884.422; 1397.969;  -10.201; 3394.044
884.983; 1251.037;  -12.521; 3166.443
885.544; 1137.298;  -12.291; 3189.802
886.105; 1108.313;  -12.991; 3160.360
886.666; 1112.460;  -12.901; 3093.059
887.227; 1087.831;  -12.061; 2941.957
887.788; 1039.820;  -11.641; 2974.836
888.349;  989.851;  -14.691; 2721.214
888.910;  937.569;   -9.681; 2696.493
889.471;  908.641;   -9.971; 2560.172
890.032;  890.215;  -13.151; 2558.190
890.593;  865.174;  -12.051; 2567.669
891.153;  832.822;  -12.841; 2460.307
891.714;  812.228;  -13.561; 2372.046
892.275;  792.671;  -12.401; 2309.505
892.835;  760.895;  -13.191; 2382.543
893.396;  715.857;  -12.551; 2295.502
893.956;  697.327;  -11.981; 2162.420
894.517;  701.332;  -12.221; 2125.439
895.077;  671.874;  -12.021; 2086.978
895.638;  599.469;  -10.891; 2126.316
896.198;  537.795;  -13.171; 1838.275
896.758;  496.659;  -11.891; 1892.813
897.319;  454.738;  -12.491; 1792.232
897.879;  430.990;  -12.401; 1762.751
898.439;  401.736;  -13.431; 1661.149
898.999;  382.232;  -11.340; 1781.468
899.559;  375.575;  -13.930; 1703.347
900.119;  360.130;  -13.730; 1537.525
900.679;  342.962;   -9.210; 1638.384
901.239;  327.832;  -10.860; 1527.902
901.799;  310.402;  -11.450; 1456.441
902.359;  287.188;  -13.800; 1357.140
902.919;  277.236;  -12.130; 1331.118
903.479;  273.319;  -12.650; 1317.257
904.038;  263.734;  -16.110; 1262.595
904.598;  245.075;  -13.690; 1152.034
905.158;  231.458;  -10.290; 1240.893
905.717;  222.387;  -10.670; 1233.691
906.277;  221.411;  -14.040; 1217.330
906.836;  219.263;  -13.510; 1222.408
907.396;  214.968;  -11.530; 1193.047
907.955;  204.592;  -13.190; 1182.526
908.515;  194.134;  -12.950; 1099.364
909.074;  184.213;  -12.390; 1092.863
909.633;  179.444;  -10.340; 1069.121
910.192;  177.337;  -11.170; 1196.460
910.752;  173.859;  -14.200; 1029.960
911.311;  168.878;  -13.810; 1009.780
911.870;  166.477;  -12.750;  971.460
912.429;  167.062;  -12.380; 1094.080
912.988;  164.483;  -11.930; 1081.060
913.547;  159.528;  -10.990;  940.380
914.106;  156.041;  -11.200;  999.420
914.665;  153.822;  -13.150;  984.020
915.224;  151.140;  -13.310; 1035.760
915.782;  149.625;  -13.340;  922.560
916.341;  149.406;  -10.710; 1049.840
916.900;  147.835;  -12.980;  925.260
917.458;  145.741;  -13.060;  884.220
918.017;  143.771;  -10.900;  942.600
918.576;  142.282;  -11.630;  904.440
919.134;  141.645;  -12.860;  837.980
919.693;  142.921;  -15.160;  893.060
920.251;  142.245;  -13.470;  876.500
920.809;  141.075;  -13.700;  839.580
921.368;  141.351;  -13.420;  885.360
921.926;  142.532;  -14.710;  842.940
922.484;  143.461;  -12.560;  903.360
923.042;  142.859;  -11.930;  880.340
923.601;  143.874;  -10.270;  998.680
924.159;  141.123;  -12.960;  935.560
924.717;  139.374;  -13.040;  841.080
925.275;  140.698;  -12.560;  903.240
925.833;  141.656;  -13.040;  779.320
926.391;  144.684;  -13.360;  938.380
926.949;  143.706;  -13.940;  857.680
927.506;  144.305;   -9.400;  903.500
928.064;  144.141;  -10.940;  877.580
928.622;  144.041;  -13.180;  880.100
929.180;  144.444;  -12.730;  814.180
929.737;  143.847;  -12.840;  808.540
930.295;  148.466;  -11.810;  928.480
930.853;  153.986;  -13.650;  849.100
931.410;  158.109;  -13.580;  821.120
931.968;  159.081;  -12.020;  940.660
932.525;  159.982;  -13.320;  909.380
933.082;  159.403;  -13.800;  811.440
933.640;  163.055;  -11.380;  925.900
934.197;  165.962;  -11.480;  886.360
934.754;  168.503;  -13.220;  897.780
935.312;  167.613;  -14.950;  863.340
935.869;  164.295;  -10.940; 1012.980
936.426;  159.583;  -12.100;  872.800
936.983;  159.416;  -12.930;  889.020
937.540;  161.079;  -14.250;  838.280
938.097;  166.184;  -12.600;  940.120
938.654;  172.213;  -11.260;  898.860
939.211;  176.539;  -13.020;  952.480
939.768;  178.486;  -15.760;  915.420
940.324;  182.452;  -13.920;  904.200
940.881;  179.280;  -11.620;  878.500
941.438;  177.714;   -9.870; 1021.200
941.995;  174.219;  -13.920;  992.560
942.551;  170.704;  -12.830;  875.620
943.108;  171.897;  -11.980;  937.920
943.664;  175.139;  -13.740;  869.340
944.221;  183.982;  -12.670; 1088.140
944.777;  182.925;  -13.250;  869.680
945.334;  179.137;  -13.000;  884.840
945.890;  177.159;  -13.020;  946.480
946.446;  176.443;  -13.880;  947.020
947.003;  177.115;  -12.660;  964.940
947.559;  178.419;   -8.730; 1063.040
948.115;  176.334;  -11.960; 1026.540
948.671;  172.689;  -12.360;  967.300
949.227;  167.522;  -12.700;  859.560
949.783;  164.365;  -13.450;  858.900
950.339;  164.014;  -10.620;  991.000
950.895;  161.666;  -14.770; 1023.840
951.451;  158.711;  -13.650;  925.280
952.007;  158.377;  -11.180;  998.540
952.563;  159.036;  -11.680;  937.780
953.118;  158.844;  -13.280;  904.940
953.674;  159.489;  -12.510;  935.780
954.230;  159.370;  -12.220;  949.640
954.785;  157.433;  -12.190;  936.640
955.341;  153.316;  -12.270;  998.160
955.897;  149.783;  -14.900;  834.660
956.452;  151.879;  -12.520;  953.840
957.008;  152.215;   -9.410; 1083.640
957.563;  149.249;  -11.280; 1009.540
958.118;  145.108;  -13.470;  877.700
958.674;  145.977;  -12.190;  946.780
959.229;  147.285;  -12.760; 1013.980
959.784;  152.855;  -15.710;  832.400
960.339;  158.394;  -12.540; 1001.280
960.894;  158.225;  -11.680;  963.760
961.449;  153.310;  -11.410;  859.960
962.004;  151.092;  -10.430; 1212.840
962.559;  141.640;  -14.040;  860.140
963.114;  136.595;  -14.270;  742.480
963.669;  139.777;  -11.320;  915.500
964.224;  142.762;  -14.620;  874.340
964.779;  142.949;  -14.150;  828.420
965.334;  142.336;  -10.850; 1017.860
965.888;  138.055;  -14.530;  875.360
966.443;  130.881;  -13.520;  972.380
966.998;  115.638;  -13.370;  819.460
967.552;  106.212;   -9.960;  908.380
968.107;   98.664;  -12.360;  868.300
968.661;  100.735;  -12.270;  922.440
969.216;  102.348;  -12.140;  856.280
969.770;  106.395;  -11.860;  917.200
970.324;  108.560;  -12.170;  923.140
970.879;  110.241;  -14.160;  947.180
971.433;  109.459;  -12.940;  952.720
971.987;  107.762;  -10.180;  895.340
972.541;  108.020;  -12.130;  917.100
973.095;  108.783;  -14.980; 1009.460
973.649;  107.030;  -14.480;  809.480
974.203;  108.841;  -13.530;  829.040
974.757;  112.062;  -12.060;  855.220
975.311;  111.088;  -13.240;  872.600
975.865;  108.710;  -12.550;  881.820
976.419;  108.217;  -13.180;  857.400
976.973;  108.347;  -14.100;  849.620
977.526;  108.432;  -13.330;  949.920
978.080;  103.696;  -15.390;  796.780
978.634;  102.641;  -11.670;  921.320
979.187;  101.069;  -10.640;  905.400
979.741;  100.768;  -13.330; 1018.380
980.294;   99.110;  -14.480;  789.160
980.848;   98.368;  -13.420;  717.220
981.401;   97.505;  -12.360;  816.540
981.955;   94.842;  -12.480;  844.300
982.508;   89.712;  -14.000;  746.340
983.061;   88.624;  -10.440;  915.260
983.615;   86.491;  -14.340;  798.800
984.168;   83.803;  -14.950;  770.080
984.721;   84.526;  -13.270;  880.760
985.274;   82.297;  -12.240;  867.500
985.827;   79.933;  -12.720;  834.220
986.380;   77.228;  -14.920;  721.340
986.933;   76.916;  -12.860;  864.800
987.486;   75.769;  -10.440;  861.920
988.039;   75.258;  -11.820;  863.100
988.591;   73.976;  -13.760;  893.260
989.144;   71.580;  -14.080;  737.260
989.697;   72.135;  -13.440;  758.740
990.250;   72.372;  -12.050;  858.100
990.802;   70.719;  -14.550;  755.860
991.355;   71.578;  -10.770;  974.880
991.907;   69.907;  -11.710;  864.320
992.460;   68.236;  -12.650;  753.760
993.012;   67.410;  -13.860;  749.540
993.565;   65.202;  -14.310;  711.360
994.117;   65.129;   -9.920;  950.780
994.669;   60.073;  -13.420;  701.320
995.221;   60.526;  -14.200;  791.920
995.774;   59.926;  -13.400;  787.580
996.326;   58.296;  -11.850;  740.220
996.878;   58.901;  -12.230;  838.420
997.430;   56.353;  -14.260;  699.860
997.982;   56.209;  -11.430;  750.140
998.534;   56.019;  -11.590;  739.060
999.086;   55.892;  -11.960;  738.220
999.638;   55.079;  -13.640;  661.380
1000.190;   54.333;  -13.660;  699.320
1000.741;   52.553;   -9.980;  742.700
1001.293;   53.266;  -11.860;  686.020
1001.845;   51.882;  -14.280;  676.640
1002.396;   52.141;  -12.270;  743.400
1002.948;   51.010;  -13.670;  737.400
1003.500;   50.318;  -12.010;  723.780
1004.051;   50.856;  -11.890;  907.580
1004.603;   49.428;  -11.220;  791.820
1005.154;   44.611;  -13.210;  608.980
1005.705;   44.746;  -11.850;  723.960
1006.257;   43.998;  -13.670;  707.220
1006.808;   42.866;  -12.060;  685.460
1007.359;   43.067;  -10.250;  763.240
1007.910;   41.128;  -13.440;  646.640
1008.461;   42.560;  -13.170;  732.940
1009.013;   40.100;  -14.590;  588.340
1009.564;   41.902;  -12.100;  793.520
1010.115;   39.096;  -14.000;  597.040
1010.665;   39.397;  -15.020;  602.160
1011.216;   39.396;  -12.560;  667.920
1011.767;   38.215;  -11.330;  697.920
1012.318;   39.319;  -11.450;  736.980
1012.869;   37.904;  -11.000;  679.000
1013.419;   37.858;  -11.760;  603.120
1013.970;   37.392;  -11.800;  666.640
1014.521;   37.379;  -14.750;  620.620
1015.071;   37.287;  -14.430;  670.380
1015.622;   36.983;  -14.170;  635.460
1016.172;   35.630;  -11.700;  596.820
1016.723;   35.735;  -13.230;  614.380
1017.273;   35.492;  -16.120;  604.160
1017.823;   35.863;  -13.360;  650.340
1018.374;   34.985;  -13.710;  611.760
1018.924;   34.766;  -11.050;  716.880
1019.474;   35.398;  -14.120;  718.880
1020.024;   33.521;  -12.990;  657.580
1020.574;   34.097;  -12.010;  726.160
1021.124;   34.506;  -12.080;  673.580
1021.674;   33.271;  -15.860;  559.120
1022.224;   34.653;  -11.710;  708.940
1022.774;   32.950;  -13.030;  668.820
1023.324;   34.599;  -11.000;  753.520
1023.874;   35.922;  -13.270;  875.760
1024.423;   32.093;  -14.570;  613.700
1024.973;   31.999;  -12.620;  610.760
1025.523;   31.424;  -12.630;  620.960
1026.072;   31.700;  -14.110;  606.420
1026.622;   31.258;  -15.390;  675.740
1027.172;   32.346;   -9.090;  715.660
1027.721;   30.066;  -12.250;  601.220
1028.270;   31.646;  -15.590;  663.400
1028.820;   31.307;  -13.840;  638.080
1029.369;   29.896;  -13.170;  612.700
1029.918;   30.166;  -14.080;  649.840
1030.468;   30.553;  -13.860;  564.780
1031.017;   30.561;  -12.970;  634.800
1031.566;   28.698;  -12.320;  608.900
1032.115;   30.009;  -13.140;  694.500
1032.664;   28.880;  -14.560;  596.480
1033.213;   29.867;  -11.620;  735.420
1033.762;   28.021;  -13.190;  635.620
1034.311;   28.691;  -13.460;  677.220
1034.860;   29.409;  -15.770;  691.000
1035.408;   28.871;  -13.100;  722.720
1035.957;   29.638;  -12.880;  719.540
1036.506;   26.716;  -13.640;  530.800
1037.055;   29.981;  -12.420;  844.320
1037.603;   27.553;  -13.740;  664.000
1038.152;   25.624;  -13.840;  534.760
1038.700;   26.586;  -10.770;  585.740
1039.249;   27.089;  -13.520;  681.220
1039.797;   27.417;  -13.060;  633.360
1040.345;   26.107;  -11.760;  705.420
1040.894;   26.916;  -10.790;  625.300
1041.442;   26.543;  -15.420;  632.200
1041.990;   24.877;  -14.550;  559.160
1042.538;   24.553;  -15.620;  536.180
1043.087;   24.922;  -14.940;  570.860
1043.635;   27.055;  -12.100;  670.500
1044.183;   25.171;  -13.200;  586.400
1044.731;   24.546;  -11.630;  576.000
1045.279;   24.550;  -14.200;  674.920
1045.827;   27.647;  -12.510;  892.400
1046.374;   22.894;  -14.960;  515.420
1046.922;   22.719;  -11.850;  590.580
1047.470;   25.653;  -13.770;  691.300
1048.018;   24.564;  -15.380;  647.960
1048.565;   24.654;  -14.010;  708.600
1049.113;   23.051;  -14.620;  557.000
1049.660;   23.112;  -14.940;  629.660
1050.208;   23.941;  -14.540;  675.640
1050.755;   23.148;  -13.710;  606.580
1051.303;   23.409;  -11.880;  686.820
1051.850;   22.950;  -12.160;  635.120
1052.397;   20.980;  -15.110;  473.960
1052.945;   21.602;  -14.770;  617.760
1053.492;   23.275;  -12.320;  741.840
1054.039;   23.933;  -13.290;  720.180
1054.586;   21.818;  -15.210;  557.240
1055.133;   22.238;  -12.920;  693.140
1055.680;   23.001;  -12.610;  646.620
1056.227;   21.131;  -12.620;  542.780
1056.774;   24.063;  -13.010;  794.980
1057.321;   20.918;  -16.180;  523.260
1057.868;   19.961;  -11.230;  651.320
1058.415;   21.397;  -10.890;  651.980
1058.961;   21.722;  -12.530;  678.940
1059.508;   20.915;  -14.120;  643.820
1060.055;   20.849;  -13.340;  581.780
1060.601;   20.736;  -12.920;  624.300
1061.148;   20.525;  -14.430;  616.820
1061.694;   19.869;  -14.140;  592.580
1062.241;   19.922;  -12.550;  596.320
1062.787;   20.656;  -13.370;  663.140
1063.334;   22.952;  -12.260;  808.560
1063.880;   20.452;  -10.800;  668.360
1064.426;   20.371;   -9.920;  706.820
1064.972;   19.424;  -12.970;  601.340
1065.518;   18.572;  -14.440;  566.640
1066.065;   19.412;  -12.680;  624.460
1066.611;   18.337;  -13.520;  598.800
1067.157;   19.206;  -11.100;  641.860
1067.703;   19.225;  -14.100;  668.480
1068.249;   18.864;  -13.750;  605.220
1068.794;   18.584;  -11.070;  626.880
1069.340;   17.740;  -13.210;  578.960
1069.886;   18.059;  -14.850;  590.700
1070.432;   17.353;  -14.580;  541.720
1070.977;   17.337;  -12.930;  601.080
1071.523;   17.829;  -11.970;  573.060
1072.068;   17.705;  -13.730;  582.000
1072.614;   17.389;  -14.550;  527.760
1073.160;   17.935;  -13.690;  687.040
1073.705;   16.013;  -14.780;  572.520
1074.250;   16.651;  -15.430;  559.900
1074.796;   18.068;  -11.620;  655.160
1075.341;   17.228;  -11.580;  664.100
1075.886;   16.969;  -13.190;  594.240
1076.431;   17.026;  -13.630;  649.880
1076.976;   16.271;  -11.670;  639.220
1077.521;   15.619;  -11.600;  583.080
1078.067;   15.560;  -13.920;  579.400
1078.612;   15.764;  -12.910;  661.620
1079.156;   16.125;  -15.340;  601.540
1079.701;   15.840;  -12.560;  693.260
1080.246;   16.456;  -12.490;  696.300
1080.791;   16.065;  -14.550;  625.020
1081.336;   16.000;  -15.210;  659.320
1081.880;   15.466;  -11.280;  649.680
1082.425;   15.044;  -12.830;  573.480
1082.970;   16.804;  -11.680;  717.040
1083.514;   14.721;  -15.500;  597.000
1084.059;   13.927;  -11.770;  586.720
1084.603;   14.369;  -13.480;  565.840
1085.147;   15.019;  -13.940;  645.220
1085.692;   15.313;  -13.170;  716.800
1086.236;   12.391;  -15.740;  503.140
1086.780;   15.516;  -10.750;  751.440
1087.325;   14.508;  -14.900;  654.620
1087.869;   13.987;  -15.160;  610.700
1088.413;   15.001;  -11.030;  705.040
1088.957;   12.628;  -15.210;  543.400
1089.501;   15.307;  -12.310;  766.640
1090.045;   14.639;  -12.790;  726.480
1090.589;   11.550;  -14.040;  569.920
1091.133;   13.159;  -12.800;  673.340
1091.676;   13.749;  -13.600;  591.940
1092.220;   12.625;  -12.960;  600.920
1092.764;   13.871;  -10.830;  706.960
1093.307;   13.163;  -12.390;  673.780
1093.851;   11.831;  -15.850;  556.540
1094.395;   13.142;  -12.980;  683.140
1094.938;   12.101;  -13.670;  632.520
1095.482;   12.026;  -12.740;  559.800
1096.025;   13.336;  -13.340;  710.880
1096.568;   14.264;  -10.500;  779.280
1097.112;    9.915;  -13.500;  508.180
1097.655;   12.387;  -13.060;  603.000
1098.198;   10.293;  -13.240;  600.180
1098.741;   11.046;  -15.490;  612.860
1099.285;   11.934;  -13.410;  657.300
1099.828;    9.813;  -15.640;  439.400
1100.371;   11.814;  -13.980;  608.160
1100.914;   11.767;  -13.990;  682.660
1101.457;   11.313;  -15.030;  679.900
1101.999;   10.109;  -12.480;  584.680
1102.542;   11.351;  -12.410;  641.440
1103.085;   11.257;  -14.730;  658.500
1103.628;   11.469;  -12.190;  762.060
1104.170;   10.478;  -12.360;  588.280
1104.713;   10.769;  -13.350;  646.700
1105.256;    9.819;  -14.930;  557.440
1105.798;    8.129;  -15.150;  499.980
1106.341;   11.906;  -13.230;  728.900
1106.883;    9.391;  -14.680;  521.340
1107.425;   10.004;  -14.810;  668.180
1107.968;    8.641;  -12.940;  612.380
1108.510;   10.458;  -10.550;  684.960
1109.052;    8.788;  -15.640;  612.620
1109.594;    8.962;  -14.440;  554.440
1110.136;    9.332;  -11.380;  643.220
1110.679;    8.340;  -13.090;  633.080
1111.221;    8.974;  -14.230;  604.460
1111.763;    7.527;  -14.260;  559.220
1112.304;    7.671;  -14.510;  547.140
1112.846;    9.210;  -14.700;  666.240
1113.388;   12.413;  -12.270;  942.180
1113.930;    9.136;  -13.340;  694.200
1114.472;    7.761;  -12.560;  606.540
1115.013;    6.533;  -14.280;  551.280
1115.555;    7.395;  -14.010;  587.100
1116.097;    6.764;  -14.730;  579.480
1116.638;    7.881;  -12.160;  684.600
1117.180;    7.505;  -14.320;  667.740
1117.721;    7.868;  -15.730;  568.580
1118.262;    8.464;  -13.480;  677.960
1118.804;    7.663;  -11.530;  637.340
1119.345;    7.118;  -13.540;  578.400
1119.886;    9.242;  -14.470;  704.040
1120.427;    7.076;  -13.030;  589.020
1120.969;    6.061;  -13.150;  597.920
1121.510;    6.610;  -13.940;  563.060
1122.051;    7.367;  -12.310;  723.580
1122.592;    6.663;  -13.870;  655.420
1123.133;    5.211;  -12.890;  547.940
1123.673;    7.632;  -13.300;  706.480
1124.214;    6.978;  -14.000;  612.460
1124.755;    7.133;  -13.210;  639.460
1125.296;    6.213;  -13.450;  627.320
1125.836;    7.666;  -12.610;  691.500
1126.377;    5.872;  -15.840;  599.660
1126.918;    7.269;  -11.830;  614.980
1127.458;    5.520;  -11.830;  622.220
1127.999;    6.730;  -11.490;  656.980
1128.539;    6.789;  -12.900;  694.240
1129.079;    5.025;  -14.910;  632.720
1129.620;    4.485;  -12.920;  558.100
1130.160;    4.502;  -14.640;  539.480
1130.700;    5.949;  -13.270;  640.840
1131.240;    6.019;  -14.110;  643.700
1131.781;    4.985;  -13.130;  619.680
1132.321;    4.986;  -15.220;  599.120
1132.861;    4.832;  -15.670;  564.200
1133.401;    3.855;  -13.970;  593.940
1133.941;    5.016;  -13.740;  626.280
1134.481;    4.749;  -13.200;  597.580
1135.020;    3.606;  -14.830;  609.160
1135.560;    4.960;  -14.590;  674.940
1136.100;    2.856;  -13.730;  501.160
1136.640;    4.151;  -15.240;  510.480
1137.179;    3.970;  -14.710;  537.960
1137.719;    4.311;  -14.090;  605.400
1138.258;    4.030;  -12.470;  587.360
1138.798;    4.269;  -12.580;  663.780
1139.337;    3.231;  -16.480;  482.840
1139.877;    4.153;  -13.970;  642.360
1140.416;    6.093;   -9.870;  878.060
1140.955;    3.154;  -14.860;  535.380
1141.494;    3.684;  -14.530;  669.280
1142.034;    2.666;  -13.940;  583.520
1142.573;    4.081;  -11.160;  646.280
1143.112;    2.579;  -15.050;  553.480
1143.651;    2.874;  -15.390;  536.480
1144.190;    4.442;  -12.990;  691.640
1144.729;    2.098;  -12.220;  607.420
1145.267;    3.325;  -14.020;  584.900
1145.806;    3.927;  -12.740;  637.040
1146.345;    2.316;  -14.810;  635.020
1146.884;    1.940;  -12.920;  622.500
1147.422;    1.597;  -13.930;  533.060
1147.961;    3.738;  -11.830;  708.460
1148.500;    3.468;  -12.710;  669.720
1149.038;    2.145;  -14.420;  632.500
1149.577;    2.962;  -13.920;  698.640
1150.115;    1.060;  -17.050;  452.280
1150.653;    2.300;  -14.890;  607.340
1151.192;    1.549;  -15.270;  552.920
1151.730;    2.576;  -13.160;  652.560
1152.268;    1.889;  -15.430;  589.520
1152.806;    1.712;  -15.880;  571.180
1153.344;   -0.128;  -13.240;  577.640
1153.882;    1.778;  -13.010;  600.060
1154.421;    0.904;  -16.180;  470.620
1154.958;    1.038;  -13.880;  595.240
1155.496;    1.979;  -13.590;  645.280
1156.034;    1.980;  -11.910;  721.880
1156.572;    2.704;  -12.010;  667.060
1157.110;    0.308;  -16.250;  473.940
1157.647;    1.866;  -15.230;  676.960
1158.185;    0.669;  -13.770;  564.320
1158.723;    0.278;  -15.300;  509.200
1159.260;    2.029;  -13.130;  701.700
1159.798;    1.673;  -11.300;  658.160
1160.335;    0.677;  -13.210;  631.820

