
Integration time [ms]:   3.882
Averaging Nr. [scans]: 1000
Smoothing Nr. [pixels]: 0
Data measured with spectrometer [name]: 7414430SP
Wave   ;Sample   ;Dark     ;Reference
[nm]   ;[counts] ;[counts] ;[counts] 

288.544;  140.346;    7.153;  793.890
289.143;  143.896;    8.402;  681.602
289.742;  145.671;    7.062;  828.814
290.341;  132.465;    0.191;  789.841
290.940;  123.546;    0.321;  730.702
291.538;  124.044;    3.811;  881.108
292.137;  122.068;   -3.438;  792.581
292.736;  125.658;   -2.809;  975.101
293.335;  121.982;   -5.239;  735.086
293.934;  122.456;   -4.939;  781.677
294.532;  124.210;   -2.199; 1031.958
295.131;  110.634;   -6.831;  834.394
295.730;  109.220;   -6.620;  809.588
296.328;  106.677;   -6.471;  783.442
296.927;  106.746;   -6.571;  779.652
297.525;  107.902;   -7.391;  781.236
298.124;   99.777;   -9.402;  654.009
298.722;  104.171;   -5.781;  761.933
299.321;  101.698;   -6.351;  708.597
299.919;   99.835;   -8.661;  751.918
300.518;   94.463;  -11.922;  689.338
301.116;   96.793;   -6.941;  691.381
301.715;   97.850;   -5.471;  730.222
302.313;   96.881;   -8.361;  704.943
302.911;   91.223;   -9.082;  733.830
303.509;   96.834;   -4.571;  925.627
304.108;   94.272;   -7.111;  760.383
304.706;   93.820;   -7.681;  801.664
305.304;   89.146;   -9.162;  796.707
305.902;   93.723;   -6.761;  784.484
306.500;   90.300;   -6.921;  728.200
307.098;   89.858;   -6.491;  746.560
307.696;   87.519;   -6.941;  780.432
308.294;   86.828;   -6.301;  731.359
308.892;   89.318;   -4.771;  759.769
309.490;   86.143;   -5.141;  712.161
310.088;   84.650;   -2.912;  788.444
310.686;   88.592;   -0.421;  821.749
311.284;   84.157;   -3.461;  766.040
311.882;   82.973;   -6.282;  731.225
312.480;   79.546;   -3.632;  697.167
313.078;   80.349;   -2.112;  808.331
313.675;   81.461;   -1.931;  691.600
314.273;   76.719;   -1.442;  797.837
314.871;   75.764;   -3.002;  589.829
315.468;   73.774;   -2.252;  652.090
316.066;   77.146;   -1.091;  694.427
316.664;   70.896;   -4.512;  656.351
317.261;   74.856;   -0.062;  910.128
317.859;   69.882;   -0.952;  768.735
318.456;   70.775;    0.719;  830.096
319.054;   66.662;   -4.002;  787.828
319.651;   66.138;   -4.972;  759.928
320.249;   64.953;   -1.162;  810.188
320.846;   63.311;   -2.651;  714.286
321.443;   60.722;   -3.832;  832.135
322.041;   57.616;   -4.312;  812.315
322.638;   55.852;   -3.872;  701.456
323.235;   57.358;   -4.361;  665.683
323.833;   55.553;   -4.821;  740.354
324.430;   50.996;   -6.971;  615.900
325.027;   51.464;   -4.361;  876.855
325.624;   52.011;   -5.581;  644.532
326.221;   49.159;   -6.601;  689.717
326.818;   48.194;   -7.301;  818.332
327.415;   51.020;   -6.180;  748.828
328.012;   49.567;   -5.920;  690.585
328.609;   48.474;   -8.390;  731.389
329.206;   47.028;   -6.121;  778.621
329.803;   45.978;   -5.241;  737.841
330.400;   48.708;   -7.420;  704.260
330.997;   49.502;   -5.931;  817.147
331.594;   46.739;   -5.641;  788.185
332.191;   52.308;   -6.451;  728.722
332.787;   55.676;   -4.651;  844.463
333.384;   54.023;   -5.472;  763.093
333.981;   51.482;   -6.303;  815.687
334.578;   53.648;   -5.892;  708.378
335.174;   57.171;   -4.102;  731.469
335.771;   56.336;   -8.053;  836.456
336.367;   53.327;   -7.363;  710.631
336.964;   55.754;   -6.243;  793.266
337.561;   55.899;   -5.653;  731.112
338.157;   51.538;   -7.074;  911.916
338.754;   49.244;   -5.474;  796.589
339.350;   47.624;   -5.624;  722.493
339.946;   50.707;   -5.054;  773.135
340.543;   42.105;   -6.695;  846.136
341.139;   36.942;   -6.215;  720.836
341.735;   35.923;   -5.746;  772.593
342.332;   34.004;   -7.335;  691.472
342.928;   34.472;   -4.835;  795.394
343.524;   28.710;   -4.586;  761.684
344.120;   25.629;   -3.946;  738.562
344.716;   28.650;   -4.835;  723.717
345.313;   26.646;   -5.325;  795.342
345.909;   21.357;   -6.535;  627.336
346.505;   23.193;   -4.725;  740.247
347.101;   24.027;   -4.164;  827.864
347.697;   24.595;   -5.274;  785.398
348.293;   18.933;   -7.145;  627.244
348.889;   19.925;   -4.364;  745.914
349.485;   19.101;   -6.404;  688.205
350.081;   19.885;   -7.534;  772.592
350.676;   15.257;   -6.995;  691.606
351.272;   20.169;   -3.544;  809.530
351.868;   19.957;   -5.324;  780.497
352.464;   16.897;   -7.204;  723.932
353.059;   12.723;   -6.894;  646.017
353.655;   16.252;   -3.754;  777.063
354.251;   17.479;   -6.143;  759.845
354.846;   12.280;   -9.464;  740.646
355.442;   10.041;   -7.555;  753.071
356.038;   11.897;   -5.474;  751.708
356.633;   12.494;   -5.914;  728.594
357.229;   10.434;   -8.944;  724.757
357.824;    8.574;   -6.794;  703.600
358.420;    7.643;   -5.754;  679.726
359.015;    8.338;   -5.664;  695.357
359.610;    9.405;   -8.004;  763.920
360.206;    4.023;   -8.815;  603.240
360.801;    6.153;   -8.834;  646.503
361.396;    8.410;   -6.274;  725.975
361.992;    4.075;   -8.574;  668.220
362.587;    1.472;   -9.265;  670.160
363.182;    3.667;   -5.484;  689.631
363.777;    4.371;   -5.164;  738.242
364.372;    4.387;   -6.954;  737.314
364.967;    0.095;   -7.065;  680.744
365.563;    5.065;   -5.684;  815.567
366.158;    1.995;   -6.484;  685.161
366.753;    2.324;   -8.004;  649.263
367.348;    1.159;  -10.114;  746.056
367.942;    1.054;   -7.764;  697.298
368.537;   -0.282;   -4.554;  754.245
369.132;   -0.003;   -7.664;  703.428
369.727;   -4.530;   -8.905;  638.079
370.322;   -2.859;   -4.945;  580.186
370.917;   -2.394;   -7.095;  710.646
371.511;    0.536;   -6.574;  861.834
372.106;   -3.276;   -6.515;  776.964
372.701;   -7.050;   -8.225;  585.988
373.296;   -0.429;   -4.494;  863.135
373.890;   -5.764;   -7.965;  647.840
374.485;   -7.475;   -9.745;  691.199
375.079;   -4.061;   -5.554;  738.685
375.674;   -2.266;   -4.724;  812.970
376.268;   -6.762;   -8.365;  691.759
376.863;  -12.170;   -8.126;  580.327
377.457;   -6.139;   -6.045;  662.490
378.052;   -7.449;   -6.835;  764.884
378.646;   -8.762;   -9.375;  741.167
379.240;   -9.005;   -6.185;  721.176
379.835;   -8.499;   -6.135;  636.978
380.429;   -9.813;   -8.365;  562.557
381.023;   -9.088;   -7.935;  779.205
381.617;  -11.993;   -8.325;  680.106
382.212;  -10.097;   -7.405;  685.303
382.806;   -7.814;   -4.155;  760.690
383.400;  -11.935;   -8.945;  672.281
383.994;  -12.612;   -8.365;  664.870
384.588;   -9.026;   -7.824;  697.701
385.182;   -7.463;   -7.984;  726.624
385.776;   -8.971;  -10.404;  706.875
386.370;  -12.129;   -7.335;  681.968
386.964;  -11.744;   -7.485;  684.155
387.558;   -9.110;   -8.174;  598.360
388.152;  -12.669;  -10.415;  681.959
388.745;  -10.925;   -9.595;  814.707
389.339;   -9.270;   -6.454;  747.642
389.933;   -8.599;   -5.804;  695.370
390.527;   -8.991;   -6.854;  859.029
391.120;  -15.334;   -7.665;  595.318
391.714;  -12.490;   -7.245;  711.633
392.308;   -8.817;   -4.514;  780.253
392.901;  -13.717;   -7.935;  642.460
393.495;  -14.835;   -8.585;  595.414
394.089;  -12.470;   -5.245;  760.452
394.682;  -13.051;   -6.305;  697.188
395.275;  -14.630;   -9.335;  719.927
395.869;  -14.827;   -7.375;  667.314
396.462;  -14.573;   -7.055;  616.609
397.056;   -9.276;   -5.434;  776.621
397.649;  -14.309;   -9.525;  731.575
398.242;  -10.812;   -7.574;  712.645
398.836;  -10.617;   -5.134;  766.408
399.429;  -11.572;   -6.544;  631.041
400.022;  -14.938;   -9.215;  665.902
400.615;  -12.648;   -8.105;  805.609
401.208;  -10.445;   -7.614;  691.451
401.802;  -12.726;   -8.085;  699.329
402.395;  -14.320;   -9.575;  683.502
402.988;  -14.905;   -9.285;  696.627
403.581;  -12.072;   -7.514;  646.878
404.174;   -9.530;   -6.404;  686.568
404.767;  -12.824;   -8.775;  638.583
405.360;  -15.042;   -7.415;  621.445
405.953;   -9.383;   -5.624;  759.034
406.545;   -9.122;   -6.474;  725.342
407.138;  -12.838;   -8.445;  618.350
407.731;  -11.832;  -10.044;  613.303
408.324;   -7.987;   -8.484;  660.554
408.917;   -8.438;   -7.624;  681.864
409.509;  -10.014;   -8.304;  740.396
410.102;  -12.529;   -8.495;  643.948
410.695;   -7.168;   -7.824;  665.758
411.287;   -7.791;   -7.754;  599.821
411.880;   -8.539;   -9.294;  585.421
412.472;  -10.904;   -8.814;  613.092
413.065;   -8.711;   -6.674;  629.408
413.657;   -6.423;   -9.664;  576.678
414.250;   -6.292;  -10.264;  646.681
414.842;   -8.304;   -8.664;  676.353
415.434;   -6.777;   -8.584;  570.463
416.027;   -1.822;   -9.423;  652.196
416.619;   -3.879;  -10.764;  713.400
417.211;   -4.799;   -7.404;  599.352
417.804;   -0.937;   -7.383;  628.499
418.396;   -4.826;   -8.334;  607.643
418.988;   -2.374;   -9.633;  659.238
419.580;   -5.680;  -10.554;  568.276
420.172;   -3.936;   -8.683;  536.196
420.764;    0.625;   -9.713;  672.482
421.356;   -0.398;  -11.303;  636.898
421.948;   -0.571;   -8.453;  677.661
422.540;    3.100;   -5.793;  680.027
423.132;    2.370;   -7.162;  600.641
423.724;   -0.152;   -7.933;  561.267
424.316;    1.468;   -9.083;  621.345
424.908;    5.432;   -8.392;  591.517
425.500;    6.193;   -8.062;  647.978
426.092;    6.966;   -9.692;  648.268
426.683;    5.428;   -8.223;  684.836
427.275;    8.149;   -8.602;  641.471
427.867;    9.764;   -8.382;  668.948
428.458;   10.609;  -10.472;  732.344
429.050;    9.304;   -9.112;  680.749
429.642;   11.593;   -7.752;  743.124
430.233;   11.390;   -8.832;  569.356
430.825;   13.159;   -8.292;  724.809
431.416;   10.333;   -7.522;  698.241
432.008;   13.519;   -9.262;  651.723
432.599;   14.594;   -6.441;  656.073
433.190;   11.613;   -9.222;  637.670
433.782;   11.000;  -11.832;  590.395
434.373;   18.648;   -7.121;  884.765
434.964;   17.012;   -9.141;  602.920
435.556;   15.194;   -9.332;  634.537
436.147;   18.179;   -8.892;  758.490
436.738;   17.283;   -8.151;  701.099
437.329;   22.821;   -8.281;  721.723
437.920;   16.326;   -9.062;  666.688
438.511;   15.769;  -11.182;  564.526
439.103;   22.763;   -7.461;  623.998
439.694;   25.077;   -8.541;  681.583
440.285;   25.167;   -7.351;  764.432
440.876;   24.063;   -8.201;  845.738
441.466;   21.751;  -10.381;  575.162
442.057;   28.231;   -7.620;  665.814
442.648;   26.976;   -8.461;  746.255
443.239;   25.287;   -8.991;  620.477
443.830;   30.176;   -7.910;  704.958
444.421;   32.581;   -7.340;  655.474
445.011;   28.368;   -8.981;  693.619
445.602;   28.458;   -9.341;  743.126
446.193;   29.514;  -11.390;  488.117
446.783;   34.780;  -11.240;  640.397
447.374;   30.187;   -8.471;  692.759
447.964;   30.821;   -8.471;  713.770
448.555;   39.058;   -6.590;  822.742
449.145;   35.688;   -8.200;  662.853
449.736;   36.894;  -11.040;  803.179
450.326;   36.896;   -9.640;  713.626
450.917;   40.657;   -9.480;  675.324
451.507;   40.268;   -8.020;  600.661
452.097;   41.090;  -10.210;  746.267
452.688;   42.617;   -7.810;  742.160
453.278;   41.898;   -9.360;  566.840
453.868;   47.354;   -8.669;  793.550
454.458;   45.431;  -10.950;  651.141
455.048;   45.311;  -10.200;  711.783
455.639;   46.370;   -9.369;  567.096
456.229;   49.701;   -7.739;  710.694
456.819;   52.275;   -8.939;  751.158
457.409;   52.683;   -7.169;  773.993
457.999;   55.114;   -7.779;  737.505
458.589;   55.132;   -7.039;  686.606
459.179;   55.194;   -9.019;  717.658
459.769;   53.073;   -8.909;  627.099
460.358;   57.672;   -8.659;  797.262
460.948;   57.620;   -8.209;  689.503
461.538;   59.412;   -9.879;  660.677
462.128;   57.843;   -9.379;  664.934
462.717;   63.750;   -9.158;  710.326
463.307;   66.942;   -8.638;  705.846
463.897;   63.824;   -8.869;  656.942
464.486;   63.689;   -7.409;  837.128
465.076;   67.129;   -9.618;  733.776
465.666;   70.267;   -7.578;  652.900
466.255;   68.754;   -9.369;  785.651
466.845;   67.399;  -10.049;  666.749
467.434;   70.213;   -8.168;  725.873
468.023;   71.480;   -9.188;  658.357
468.613;   69.346;   -9.849;  713.946
469.202;   73.789;  -12.958;  646.507
469.791;   78.129;   -9.488;  737.811
470.381;   80.315;   -6.468;  742.813
470.970;   80.248;  -10.248;  711.099
471.559;   79.722;  -11.428;  733.291
472.148;   81.999;   -9.738;  675.737
472.738;   85.075;   -7.877;  765.466
473.327;   85.050;  -11.868;  637.529
473.916;   84.653;   -8.578;  737.446
474.505;   88.922;  -11.137;  751.703
475.094;   92.279;   -9.407;  806.570
475.683;   91.178;   -9.977;  797.699
476.272;   92.130;  -10.807;  730.632
476.861;   95.364;  -11.017;  706.754
477.449;  101.689;  -10.316;  728.487
478.038;   96.281;  -10.187;  692.513
478.627;   96.839;  -12.458;  714.852
479.216;  103.810;  -10.127;  769.441
479.805;  106.761;   -6.256;  783.375
480.393;  107.232;   -8.737; 1008.945
480.982;  105.743;   -9.087;  874.501
481.571;  111.071;   -7.806;  858.333
482.159;  112.646;  -10.596;  705.386
482.748;  112.436;  -11.507;  821.385
483.336;  117.283;   -8.366;  858.209
483.925;  117.345;   -7.497;  774.373
484.513;  124.614;   -8.326;  758.962
485.102;  120.856;  -10.277;  810.965
485.690;  130.471;   -8.256; 1011.050
486.278;  131.606;   -7.146;  979.329
486.867;  131.682;   -7.986;  809.662
487.455;  134.607;   -9.926;  898.229
488.043;  135.488;  -10.026;  748.361
488.631;  145.212;   -7.226; 1005.079
489.220;  149.545;   -8.696;  908.626
489.808;  149.608;  -12.276;  741.415
490.396;  157.545;   -9.386;  914.645
490.984;  162.845;   -8.506;  830.161
491.572;  173.613;   -8.226;  940.315
492.160;  181.014;   -9.836;  919.081
492.748;  192.360;  -10.316;  884.341
493.336;  212.522;   -7.146; 1019.693
493.924;  237.848;   -7.965;  958.077
494.512;  269.950;  -10.316; 1066.638
495.100;  307.713;  -10.186; 1103.280
495.687;  366.852;   -7.805; 1206.373
496.275;  435.245;   -9.686; 1150.796
496.863;  526.589;  -11.566; 1281.171
497.451;  615.208;  -11.406; 1386.805
498.038;  726.736;   -8.235; 1556.729
498.626;  861.706;   -7.485; 1741.407
499.214; 1036.433;   -8.646; 2016.609
499.801; 1307.924;   -9.936; 2220.633
500.389; 1543.582;   -8.056; 2312.494
500.976; 1703.476;   -6.166; 2744.849
501.564; 1905.741;   -9.126; 3148.565
502.151; 2213.991;  -12.456; 3515.999
502.738; 2631.380;  -10.056; 3971.274
503.326; 3081.781;  -10.605; 4403.796
503.913; 3498.316;  -10.576; 5161.749
504.500; 4007.431;   -9.056; 5986.420
505.088; 4582.415;  -10.136; 6381.201
505.675; 5299.786;   -9.075; 6925.547
506.262; 5782.473;  -11.346; 7619.060
506.849; 6718.923;   -9.376; 8733.969
507.436; 7550.979;   -7.365; 9790.121
508.023; 7512.862;   -8.686; 9985.472
508.610; 7706.811;   -8.846;10434.618
509.197; 8538.330;   -9.077;11198.435
509.784;10079.243;  -10.246;12391.194
510.371;11433.447;   -9.825;13603.713
510.958;12598.127;  -10.896;14426.586
511.545;13343.720;   -9.006;15243.775
512.132;13127.863;   -8.765;15945.876
512.719;13622.570;   -8.286;16340.369
513.305;15795.992;   -9.256;18011.766
513.892;18076.236;  -11.106;19754.971
514.479;21236.773;   -8.576;20967.805
515.066;24309.738;   -9.046;22299.793
515.652;25227.484;  -10.676;22908.660
516.239;25883.604;  -10.166;23798.875
516.825;25300.475;  -11.266;25567.275
517.412;24539.945;   -7.446;28154.959
517.998;24055.771;  -10.916;28344.111
518.585;23673.023;   -9.166;27134.219
519.171;22984.020;  -10.135;27268.576
519.758;24056.303;   -8.806;28964.129
520.344;27126.488;   -6.716;30664.494
520.930;30074.807;  -10.166;32550.605
521.516;30302.094;   -9.615;35422.895
522.103;32853.367;   -8.656;38280.004
522.689;33863.000;   -9.646;37835.117
523.275;33017.301;  -10.786;37288.613
523.861;35610.801;   -9.266;37281.395
524.447;36746.285;   -8.285;37846.949
525.033;36109.332;   -9.426;38321.949
525.619;36317.340;   -9.836;38579.285
526.205;38896.680;   -8.136;40622.875
526.791;39791.336;   -9.986;42258.836
527.377;39610.773;   -8.236;42966.902
527.963;38948.793;  -12.117;42018.949
528.549;37320.422;   -8.376;42476.828
529.135;38439.613;   -8.696;41854.852
529.721;41036.270;   -9.686;41237.711
530.306;43474.238;   -8.616;41259.445
530.892;46119.828;   -9.396;41506.047
531.478;47206.074;   -9.926;43559.613
532.063;47668.246;  -10.236;47695.563
532.649;48699.637;   -8.257;50808.324
533.235;49735.250;  -11.476;51787.500
533.820;49756.746;   -8.156;52145.035
534.406;50952.809;  -12.257;51133.488
534.991;47715.898;   -8.686;49996.805
535.576;44709.438;   -9.426;48882.852
536.162;44552.328;   -8.436;46942.285
536.747;45130.227;  -10.957;45711.746
537.333;44591.012;  -13.147;48510.180
537.918;46504.770;   -9.027;50439.891
538.503;48995.371;   -8.256;50863.711
539.088;50152.926;  -10.576;50906.922
539.673;51466.926;  -10.907;52621.965
540.259;53120.445;   -9.126;52368.094
540.844;52657.016;   -9.026;50879.109
541.429;52827.777;   -9.597;52077.777
542.014;55585.723;  -11.447;52716.695
542.599;56786.695;   -9.236;52363.281
543.184;56431.668;  -12.267;53187.137
543.769;57111.078;  -10.367;54697.605
544.354;56891.535;  -10.887;53913.914
544.938;50425.832;  -11.687;49680.164
545.523;45704.082;   -8.286;47386.277
546.108;46633.395;   -9.317;49151.949
546.693;47666.480;  -10.187;51384.637
547.278;45337.305;   -9.926;51853.254
547.862;44396.895;   -9.196;51173.750
548.447;43915.094;   -9.657;51691.395
549.031;45698.207;   -9.127;52456.703
549.616;48419.852;  -10.836;52714.516
550.201;49343.480;   -8.507;52414.598
550.785;50191.738;  -10.537;52355.059
551.370;53765.684;  -11.727;54589.453
551.954;52809.770;   -9.457;58267.348
552.538;50815.777;   -8.147;59062.176
553.123;50401.703;   -9.397;58115.285
553.707;51974.969;   -9.558;56556.285
554.291;51448.840;   -9.417;56201.668
554.876;53479.766;   -7.627;55335.762
555.460;51742.227;  -10.457;54155.703
556.044;46864.469;  -10.078;53721.484
556.628;46013.215;   -9.407;53731.016
557.212;45001.375;   -7.957;54312.531
557.796;44269.813;  -11.327;53797.773
558.380;48532.172;  -10.868;56145.984
558.964;48766.793;   -9.637;57277.930
559.548;46798.102;   -8.807;56459.641
560.132;49116.750;  -10.187;54434.543
560.716;49974.023;   -9.868;54800.617
561.300;51485.223;  -10.217;57606.945
561.884;51655.301;   -4.947;58972.445
562.467;48782.391;   -9.588;57327.570
563.051;44355.941;  -11.138;54962.434
563.635;44810.449;   -9.358;52594.473
564.219;45582.957;   -9.797;50610.410
564.802;44048.801;   -9.918;49551.180
565.386;42962.215;  -10.838;48370.953
565.969;42308.910;   -8.037;48178.871
566.553;41044.590;   -5.667;49957.305
567.136;40983.715;   -8.258;50369.594
567.720;41487.730;  -11.278;49492.004
568.303;39432.637;   -9.028;50616.352
568.887;37969.672;   -7.508;50727.148
569.470;36925.926;  -11.068;51698.379
570.053;39070.891;  -10.028;52122.078
570.637;39309.887;  -11.077;52536.438
571.220;40832.016;   -8.747;51186.098
571.803;43244.461;   -8.868;51032.762
572.386;44553.426;  -10.608;49609.887
572.969;43785.734;  -10.548;48285.926
573.552;41172.504;   -7.898;47624.285
574.135;40590.887;   -9.918;45498.641
574.718;35996.391;  -10.328;41970.434
575.301;33257.492;   -9.548;41447.137
575.884;30518.594;   -8.768;40923.836
576.467;36028.227;   -9.858;45267.723
577.050;36860.355;  -11.018;48175.543
577.633;38364.699;  -10.048;47729.328
578.216;37390.148;  -10.268;47579.793
578.799;35232.133;  -11.808;47820.996
579.381;34278.734;   -7.338;48115.551
579.964;36132.461;   -9.728;47333.766
580.547;36629.945;   -8.928;46668.969
581.129;36356.781;   -9.149;44466.141
581.712;37915.145;  -11.359;44164.922
582.294;37946.789;  -10.738;46477.855
582.877;35967.320;   -8.788;48244.254
583.459;34776.816;   -9.859;47437.895
584.042;35813.227;   -9.649;46943.219
584.624;36350.590;  -10.529;46792.227
585.206;34739.039;  -10.298;46557.250
585.789;32807.293;  -11.029;45793.773
586.371;32934.273;   -9.359;43836.391
586.953;33710.664;   -8.799;42972.492
587.536;33778.391;   -8.928;42487.211
588.118;33124.980;   -9.180;42086.414
588.700;31546.502;  -10.519;43389.930
589.282;30566.504;   -8.098;43646.039
589.864;30668.225;   -8.139;43438.109
590.446;32262.049;  -10.509;43151.926
591.028;35125.344;  -11.119;42781.867
591.610;35997.031;  -10.019;42839.098
592.192;34268.375;   -8.838;42820.402
592.774;31854.010;  -11.549;40724.277
593.356;29435.266;  -11.609;39874.789
593.937;30051.541;  -10.019;39980.648
594.519;32854.230;   -7.839;42069.633
595.101;34048.281;  -10.779;42976.031
595.683;35258.031;  -10.049;44084.441
596.264;35434.469;   -9.969;43478.797
596.846;33852.207;   -9.699;43803.672
597.427;32959.496;  -10.970;42986.934
598.009;34022.348;  -13.090;42832.219
598.591;34382.039;   -9.509;42580.086
599.172;32657.225;   -9.019;43061.805
599.753;30193.623;  -13.310;41691.469
600.335;30428.207;  -11.010;40692.520
600.916;31295.539;  -10.309;39982.422
601.498;31533.068;   -8.209;40318.617
602.079;31578.004;  -11.440;40670.609
602.660;32928.027;   -8.690;41450.898
603.241;34374.680;  -12.759;41137.738
603.823;32654.434;  -10.409;38868.797
604.404;32591.922;  -11.790;38182.785
604.985;30993.367;  -10.280;38078.047
605.566;31607.975;   -8.059;38056.633
606.147;32118.707;   -8.960;37020.418
606.728;31868.193;  -10.710;37883.359
607.309;30991.305;  -12.760;38748.273
607.890;28849.975;   -9.959;38850.230
608.471;27224.469;   -9.780;37457.918
609.051;28986.301;   -8.940;36066.457
609.632;31892.963;  -12.070;35991.074
610.213;33909.586;   -9.610;37402.641
610.794;34093.324;   -8.750;38383.363
611.374;33056.273;  -11.100;40562.387
611.955;33466.043;  -12.200;38533.727
612.536;33226.445;  -10.410;36951.789
613.116;33305.617;  -10.010;37197.891
613.697;32439.717;  -10.480;38411.125
614.277;30871.094;  -12.751;38673.938
614.858;30853.650;  -11.600;37075.863
615.438;30281.389;   -8.190;35092.906
616.019;28782.045;   -8.941;33666.301
616.599;29903.746;  -13.540;34189.023
617.179;30458.801;  -10.890;36952.047
617.760;31061.822;   -7.610;39582.574
618.340;30459.607;  -14.441;38943.977
618.920;29825.988;   -9.180;37594.156
619.500;29816.221;  -11.881;37866.938
620.080;31822.586;   -9.870;37869.043
620.660;31830.760;  -13.211;36868.617
621.241;30609.248;  -11.921;36352.309
621.821;29459.076;  -10.271;35459.520
622.401;29241.695;   -8.200;35207.414
622.980;30274.311;  -11.141;35980.422
623.560;31738.914;  -14.321;37351.328
624.140;31380.773;   -9.360;34388.582
624.720;27835.447;   -7.481;32368.764
625.300;24580.801;  -12.730;32638.629
625.880;29547.404;  -11.441;34599.035
626.459;33328.152;  -10.971;36831.738
627.039;34865.066;   -9.011;38299.098
627.619;34712.652;   -8.521;38289.574
628.198;35800.980;   -9.861;37220.695
628.778;35494.871;   -8.841;37632.563
629.357;33981.059;   -9.891;38003.012
629.937;31602.424;  -11.871;38402.039
630.516;30434.857;  -10.641;37868.801
631.096;32727.016;  -11.391;35760.410
631.675;34375.566;   -6.622;35225.219
632.254;32191.820;  -13.002;35130.289
632.834;30476.061;  -11.622;35794.570
633.413;32355.695;   -8.321;35788.922
633.992;30584.926;   -7.732;34532.863
634.571;30022.145;  -10.992;33590.113
635.151;31526.557;  -10.422;34943.863
635.730;31948.279;  -11.511;35352.523
636.309;31116.740;   -7.901;35366.605
636.888;30182.596;  -11.452;36165.637
637.467;29810.576;  -10.672;37515.902
638.046;29864.121;   -9.301;39288.695
638.625;30917.504;  -11.452;38279.699
639.204;32464.365;  -12.262;37741.598
639.782;31919.266;  -11.892;38364.551
640.361;30547.973;  -11.411;36740.621
640.940;27439.787;  -11.501;34950.082
641.519;27669.918;  -10.921;34137.398
642.097;30987.387;  -10.101;35654.258
642.676;31503.045;  -10.821;35637.957
643.255;33917.555;   -8.631;36567.074
643.833;36140.984;  -11.411;37809.434
644.412;37231.879;  -12.021;37337.293
644.990;36949.418;  -12.271;37018.531
645.569;35996.035;   -9.741;36518.469
646.147;34753.973;   -9.051;36186.430
646.726;32826.211;  -13.861;36267.688
647.304;32807.285;   -9.461;36647.625
647.882;31794.256;  -13.171;39286.742
648.461;31821.191;  -11.911;39157.703
649.039;32179.006;   -9.541;35412.883
649.617;34060.000;   -8.901;34744.918
650.195;32182.178;   -8.591;35403.098
650.773;30605.996;  -13.031;35053.797
651.352;29017.264;  -12.211;33756.816
651.930;25967.414;  -11.361;31868.773
652.508;23348.889;   -8.601;33121.551
653.086;26990.492;   -9.991;33564.793
653.663;31343.906;  -11.931;34054.668
654.241;33125.594;  -10.821;35693.309
654.819;33709.410;   -9.341;36422.906
655.397;31563.896;  -10.851;38213.484
655.975;29848.555;  -11.461;39507.625
656.553;30468.035;   -8.841;39498.223
657.130;29941.188;  -10.371;40395.480
657.708;28849.121;  -11.071;39242.020
658.286;28735.373;  -11.141;38920.020
658.863;31203.813;  -10.861;40202.898
659.441;36866.027;  -11.181;39677.938
660.018;38382.719;  -10.851;40413.355
660.596;37322.734;  -12.571;39931.414
661.173;37953.730;  -12.141;39604.531
661.750;34569.645;  -11.571;39700.070
662.328;31293.758;  -10.780;39292.809
662.905;30152.135;  -10.750;38235.648
663.482;27249.273;  -11.320;36212.305
664.060;26226.484;  -10.160;35944.945
664.637;31917.771;  -13.120;35170.785
665.214;34470.773;  -11.500;34197.523
665.791;32294.111;  -12.430;34549.520
666.368;29758.326;   -9.840;35118.578
666.945;28618.162;  -11.290;36019.418
667.522;29003.285;  -13.540;36048.438
668.099;29798.904;  -10.250;36243.914
668.676;28868.016;  -11.270;35958.875
669.253;28257.266;   -8.210;37384.730
669.830;26957.223;   -9.710;36779.629
670.407;26387.729;   -9.700;35231.289
670.984;26139.168;   -9.190;35544.270
671.560;24874.203;   -9.560;35466.867
672.137;24715.178;  -11.820;34280.863
672.714;27744.076;  -12.460;34632.863
673.290;32024.906;  -10.940;35135.422
673.867;33315.250;  -10.510;36114.480
674.443;31476.334;  -12.110;36152.859
675.020;31333.564;  -11.760;35327.238
675.596;31898.025;   -9.380;35795.176
676.173;31160.447;  -11.120;35430.355
676.749;30258.064;  -13.390;33549.516
677.326;29209.365;  -12.600;32210.012
677.902;28264.682;  -10.830;32068.871
678.478;27618.949;  -12.400;32583.891
679.054;28984.580;   -8.610;32088.928
679.631;30358.049;  -11.640;30978.848
680.207;31054.117;   -8.140;33160.887
680.783;30801.871;  -12.300;35570.363
681.359;29451.846;  -10.910;36125.184
681.935;28670.322;  -11.040;35240.922
682.511;29101.166;  -11.130;34429.961
683.087;29298.291;  -11.080;34463.680
683.663;31051.639;  -10.530;34648.898
684.239;31456.979;  -12.120;34546.457
684.815;30347.973;   -8.870;35586.375
685.390;28928.908;   -8.940;35821.895
685.966;27833.322;  -12.109;35085.871
686.542;26475.498;  -13.539;34198.230
687.118;25707.182;  -10.379;32847.707
687.693;26625.016;  -10.189;32794.027
688.269;26070.777;  -12.939;33072.367
688.844;24921.219;   -8.679;33141.664
689.420;25814.391;  -10.919;33965.742
689.995;26388.623;   -7.489;34655.523
690.571;25774.002;  -12.199;33576.742
691.146;25993.453;   -8.979;32657.219
691.722;27511.576;   -9.119;32526.979
692.297;27641.506;  -10.519;33014.617
692.872;27678.117;  -10.629;34012.254
693.448;27937.043;  -12.119;34237.434
694.023;27192.781;   -8.219;34142.672
694.598;25385.188;  -13.209;34132.031
695.173;24143.328;  -11.879;34205.250
695.748;24722.381;  -12.039;32882.488
696.323;25750.238;  -11.779;32864.906
696.898;26254.357;  -10.219;33170.004
697.473;27743.238;  -13.639;32432.984
698.048;28468.814;  -11.239;31649.303
698.623;30438.953;  -10.859;30778.141
699.198;32413.178;  -13.379;31140.119
699.773;32712.590;  -13.409;31764.299
700.348;31614.643;  -12.329;31780.816
700.922;31538.793;   -8.749;32046.375
701.497;31558.822;  -12.449;32603.574
702.072;29978.951;   -8.879;34799.871
702.646;28050.762;  -10.719;35793.172
703.221;27466.350;   -8.469;35201.590
703.795;28200.736;  -11.389;34764.527
704.370;27123.783;  -12.499;34307.367
704.944;25762.672;  -11.449;33509.887
705.519;25672.498;  -10.659;31388.584
706.093;24967.965;  -12.909;31340.104
706.668;25357.492;  -13.509;32630.281
707.242;26362.805;  -10.049;32728.779
707.816;26284.959;  -10.629;32947.238
708.390;25462.338;  -11.829;33277.855
708.965;24156.232;  -11.159;33834.336
709.539;24439.254;  -11.069;33709.273
710.113;24133.033;  -10.908;33044.313
710.687;22398.158;   -9.488;31953.992
711.261;22656.848;  -13.068;30505.949
711.835;25231.865;  -12.748;30262.369
712.409;27487.305;  -10.678;31254.447
712.983;27049.461;  -11.658;32754.986
713.557;26491.926;  -13.718;34018.824
714.131;27232.258;  -13.388;34579.625
714.704;29809.439;   -9.818;33890.262
715.278;31726.908;  -11.818;33531.102
715.852;31819.189;  -11.328;33601.660
716.425;32205.559;   -9.118;33515.117
716.999;32312.279;  -10.188;33185.555
717.573;31360.104;   -9.808;33905.996
718.146;30283.480;  -11.478;35199.293
718.720;29007.783;  -10.998;35060.551
719.293;28140.898;   -9.508;34973.230
719.867;29201.777;  -12.138;36394.449
720.440;28888.951;  -11.288;36663.008
721.013;31054.486;  -11.428;35102.426
721.587;32532.188;  -11.698;33985.266
722.160;33765.488;  -11.608;33524.965
722.733;33944.672;  -11.428;32987.043
723.306;30821.850;  -12.518;33066.301
723.880;29370.711;   -7.408;33399.500
724.453;29151.689;  -11.048;33468.297
725.026;27989.500;  -11.678;33816.637
725.599;26575.547;  -10.978;32797.996
726.172;24892.205;   -8.838;33187.434
726.745;24692.645;  -11.438;35136.613
727.318;26124.404;   -9.828;35751.730
727.891;26858.533;  -10.868;35890.430
728.463;26794.387;  -11.348;34822.090
729.036;25666.633;  -11.608;32895.086
729.609;25348.010;  -14.738;31823.225
730.182;25694.705;   -8.448;31445.283
730.754;26505.115;  -11.228;32373.223
731.327;26758.461;  -12.018;33676.820
731.900;28591.896;  -13.748;33417.000
732.472;29643.543;  -10.928;31978.498
733.045;29119.400;   -9.478;30368.777
733.617;27296.730;  -12.967;30574.215
734.190;26559.871;  -11.707;31280.975
734.762;25936.256;  -11.067;31674.412
735.334;25008.305;  -10.587;31247.291
735.907;24024.518;  -11.947;29876.211
736.479;24469.689;  -11.667;29808.488
737.051;26099.592;  -10.187;30233.547
737.623;26780.809;   -6.887;31469.086
738.195;28091.344;  -12.117;31784.225
738.768;30164.420;  -14.077;32120.523
739.340;29588.904;  -12.207;32094.342
739.912;27124.877;   -8.977;31312.680
740.484;25615.652;  -11.017;31946.238
741.056;27526.549;  -13.517;32984.059
741.628;30125.936;  -11.507;33897.715
742.199;30669.980;   -7.597;33213.016
742.771;30173.736;  -12.227;31369.113
743.343;28690.465;  -12.427;31865.473
743.915;26794.432;   -9.827;32388.631
744.487;25644.584;  -10.007;31079.568
745.058;24769.455;  -11.887;30570.107
745.630;23710.531;  -10.787;29970.127
746.201;23215.746;  -10.887;29186.766
746.773;24754.271;   -9.707;28805.723
747.344;25912.559;  -11.137;29591.223
747.916;25344.438;  -11.887;31412.201
748.487;24699.150;   -9.707;32194.898
749.059;24226.652;  -10.027;32533.719
749.630;23502.553;  -11.787;32158.518
750.201;22174.320;  -12.767;30855.395
750.773;20274.100;  -11.497;28622.555
751.344;21130.953;   -9.937;28405.732
751.915;21107.438;  -11.567;28461.551
752.486;19048.027;  -13.267;27842.850
753.057;18007.928;  -10.627;27845.008
753.628;18029.201;  -11.657;27728.107
754.199;20330.893;  -12.097;27381.086
754.770;21850.760;  -11.447;25882.203
755.341;22246.953;  -11.997;25886.184
755.912;20711.943;  -10.207;26050.861
756.483;18919.096;  -10.937;26798.779
757.054;19315.277;  -11.527;27048.238
757.625;19550.582;  -12.886;26294.838
758.195;19087.004;  -11.226;26142.076
758.766;19448.094;  -12.366;26392.234
759.337;18283.953;  -11.946;26334.594
759.907;17856.184;  -13.856;27579.652
760.478;19106.709;   -9.606;28352.770
761.048;20545.674;  -11.606;27325.088
761.619;21090.756;  -11.036;26460.428
762.189;19539.701;  -12.206;26029.826
762.760;18776.398;   -9.666;26430.145
763.330;19761.344;   -9.796;26670.902
763.900;19589.998;  -10.896;26603.021
764.471;19056.164;  -11.726;25542.740
765.041;19717.863;   -9.656;24358.459
765.611;20154.498;  -11.276;23991.297
766.181;19677.988;  -12.116;24470.236
766.751;19490.146;  -12.376;24845.975
767.321;19808.363;  -11.626;24533.633
767.891;19606.854;  -10.426;24916.492
768.461;17965.904;  -13.456;24776.771
769.031;15569.046;  -11.616;24757.988
769.601;14589.558;  -11.356;24181.088
770.171;14561.798;  -11.586;23670.387
770.741;15187.804;  -12.696;22960.045
771.311;16855.301;  -10.226;22917.523
771.880;17470.973;  -11.146;23562.941
772.450;17842.623;  -11.716;24216.500
773.020;17806.098;  -13.226;24140.398
773.589;16819.557;  -12.586;24414.857
774.159;16407.795;  -10.246;23858.717
774.729;15796.613;  -11.586;22942.135
775.298;15621.185;  -15.926;22324.033
775.867;15558.355;  -10.426;21140.313
776.437;15129.207;  -11.416;20838.092
777.006;13364.432;  -12.766;20599.510
777.576;13339.715;  -13.666;20508.809
778.145;14669.229;  -10.066;20732.947
778.714;14920.218;  -10.276;21062.465
779.283;14393.503;  -12.086;20949.664
779.853;14140.082;  -14.016;20508.623
780.422;13957.837;  -12.376;20649.082
780.991;13307.813;   -9.246;21527.520
781.560;13059.854;   -9.775;22632.658
782.129;13368.104;  -12.495;23048.277
782.698;13465.307;  -11.775;23438.555
783.267;13398.007;  -10.065;23267.734
783.836;14253.935;  -12.455;22415.133
784.404;14725.858;  -13.385;20443.152
784.973;14595.734;  -11.045;19699.150
785.542;14139.174;   -9.505;19763.828
786.111;13457.180;   -9.385;20341.408
786.679;13224.091;  -13.475;20207.967
787.248;13169.058;  -11.245;19516.465
787.817;11751.373;  -12.485;18900.363
788.385;10288.922;  -11.165;17879.121
788.954;10817.743;  -11.755;17658.301
789.522;11811.446;   -9.625;17788.879
790.090;12169.434;   -9.665;18118.277
790.659;11538.984;   -9.295;18338.736
791.227;11501.725;  -12.175;18508.615
791.795;12274.187;  -12.145;17898.254
792.364;12264.426;  -11.575;17295.133
792.932;11662.979;  -11.085;16822.051
793.500;11273.037;  -11.345;17040.148
794.068;10924.438;  -12.565;17179.787
794.636;11496.193;  -12.105;16664.246
795.204;12525.679;  -11.995;16524.545
795.772;12470.539;  -12.615;17274.564
796.340;11911.758;  -12.425;17891.002
796.908;11472.188;  -11.455;17648.561
797.476;10643.465;  -12.165;17064.080
798.044; 9587.478;  -15.795;16672.777
798.612; 9142.402;  -10.985;17023.996
799.180; 9734.145;  -12.055;16561.615
799.747;10254.070;  -12.525;15962.773
800.315; 9476.763;  -14.765;15296.992
800.883; 8322.752;  -12.435;14801.771
801.450; 8188.957;  -11.295;14534.430
802.018; 8605.009;  -11.185;14173.248
802.585; 8773.015;  -11.625;14029.547
803.153; 8116.919;  -10.665;13836.846
803.720; 7633.217;  -10.275;13567.324
804.287; 7778.638;  -12.865;13360.622
804.855; 8037.463;  -12.324;13681.981
805.422; 8015.902;  -11.574;13536.560
805.989; 7672.740;  -11.004;13355.958
806.556; 7875.163;  -12.214;13747.896
807.124; 8252.837;  -13.304;13987.376
807.691; 8166.512;  -12.034;14038.674
808.258; 7987.563;  -11.014;14120.152
808.825; 7875.229;  -11.804;13860.111
809.392; 7653.694;  -11.544;13268.790
809.959; 7476.615;  -14.954;12680.389
810.526; 7755.332;  -10.214;12427.308
811.093; 7782.918;  -10.754;12030.105
811.659; 7363.176;  -12.194;11653.664
812.226; 6654.354;   -9.194;11637.183
812.793; 6517.604;   -9.644;11611.521
813.360; 7178.096;  -11.544;11885.181
813.926; 8133.570;  -12.814;12770.539
814.493; 8202.408;  -11.524;12677.638
815.060; 7983.624;  -12.254;11974.336
815.626; 7788.581;  -12.114;11594.715
816.193; 7250.969;  -11.994;11579.474
816.759; 6702.673;  -11.464;11666.972
817.325; 6256.649;  -10.444;11325.530
817.892; 5983.951;  -11.124;11105.369
818.458; 5998.823;  -11.864;10843.928
819.024; 6500.033;  -10.634;10714.406
819.591; 6708.278;  -10.554;10469.165
820.157; 6763.898;  -13.334;10235.523
820.723; 6783.320;  -13.044;10847.563
821.289; 6660.926;   -9.664;11040.980
821.855; 6738.678;  -10.994;10357.100
822.421; 6994.408;  -11.784; 9978.918
822.987; 7164.073;  -12.554; 9754.177
823.553; 7172.434;  -12.554;10065.755
824.119; 6808.581;   -8.544;10036.294
824.685; 6027.085;  -12.144;10029.192
825.251; 5676.633;  -12.754;10199.230
825.816; 5371.940;  -11.354; 9820.189
826.382; 5009.042;  -11.004; 9297.248
826.948; 4994.778;  -11.004; 9381.347
827.513; 5196.351;  -12.474; 9450.726
828.079; 5292.857;  -13.084; 9472.444
828.645; 5426.285;  -10.813; 9292.643
829.210; 5272.188;  -11.593; 9065.341
829.776; 5282.421;  -12.633; 9132.620
830.341; 5558.250;  -10.473; 9092.878
830.906; 5460.078;   -8.763; 9078.557
831.472; 4798.931;  -13.453; 8534.535
832.037; 3895.290;  -12.173; 8677.874
832.602; 3608.289;  -14.093; 8628.692
833.167; 3948.972;  -13.593; 8879.031
833.733; 4513.645;  -10.793; 9189.790
834.298; 4871.057;  -14.783; 9052.608
834.863; 4540.158;  -11.023; 8895.087
835.428; 4220.454;  -11.113; 8824.266
835.993; 4523.976;   -9.983; 8845.385
836.558; 4763.243;  -13.003; 8888.563
837.123; 4666.878;  -10.733; 8966.582
837.688; 4328.592;   -9.683; 8617.860
838.253; 4110.572;  -12.253; 8590.699
838.817; 4276.606;  -11.643; 8443.797
839.382; 4477.305;  -11.953; 8799.356
839.947; 4442.452;  -11.443; 8810.595
840.511; 4307.028;  -10.843; 8796.394
841.076; 4300.101;  -13.533; 8347.231
841.641; 4414.241;  -11.743; 8224.330
842.205; 4266.406;  -10.013; 8223.349
842.770; 4119.725;  -11.023; 8622.107
843.334; 4116.200;  -14.273; 8410.386
843.898; 4274.884;  -11.323; 8337.465
844.463; 4634.695;  -10.263; 8506.283
845.027; 4806.338;  -10.353; 8280.962
845.591; 4731.559;  -12.163; 8231.141
846.156; 4539.650;  -12.263; 7969.179
846.720; 4518.689;  -11.553; 7768.278
847.284; 4419.598;  -12.393; 7630.957
847.848; 3830.684;  -12.623; 7472.395
848.412; 3293.260;  -11.863; 7437.394
848.976; 3201.740;  -10.203; 7674.592
849.540; 3283.163;  -10.603; 7836.011
850.104; 3400.800;  -12.423; 7913.669
850.668; 3467.154;  -14.613; 7694.508
851.232; 3413.529;  -12.873; 7756.887
851.796; 3434.831;  -14.192; 7926.545
852.359; 3564.530;  -13.652; 7827.844
852.923; 3535.127;  -11.402; 7641.163
853.487; 3414.634;  -12.022; 7342.501
854.050; 3290.919;  -15.202; 7042.820
854.614; 3294.209;  -14.592; 7151.338
855.177; 3262.449;  -12.572; 7105.077
855.741; 3280.848;   -9.932; 6989.675
856.304; 3428.108;  -12.192; 6596.634
856.868; 3462.668;  -13.462; 6356.272
857.431; 3416.665;  -11.542; 6468.571
857.995; 3433.603;  -12.062; 6373.210
858.558; 3211.163;  -11.142; 6324.448
859.121; 2928.302;  -11.742; 6408.327
859.684; 2763.400;  -10.332; 6347.886
860.247; 2743.066;  -11.962; 6321.264
860.810; 2865.092;  -12.332; 6301.903
861.374; 2905.843;  -10.292; 6607.881
861.937; 2834.917;  -12.062; 6408.200
862.500; 2910.996;  -11.702; 6572.639
863.062; 3076.490;  -13.852; 6387.297
863.625; 3168.843;  -12.972; 6190.836
864.188; 3081.059;  -10.292; 5807.254
864.751; 2954.504;  -12.382; 5682.413
865.314; 2782.739;  -13.232; 5547.492
865.876; 2577.180;  -12.772; 5500.150
866.439; 2412.648;  -11.952; 5415.909
867.002; 2393.236;   -9.332; 5501.567
867.564; 2598.455;  -11.712; 5413.946
868.127; 2775.148;  -12.012; 5160.325
868.689; 2579.229;  -11.882; 5133.183
869.252; 2275.863;  -11.572; 5252.382
869.814; 2151.617;  -10.692; 5297.141
870.377; 2236.074;  -12.392; 5390.919
870.939; 2354.331;  -10.582; 5599.898
871.501; 2369.110;  -12.782; 5248.336
872.063; 2319.096;  -15.612; 4854.235
872.626; 2306.879;  -13.922; 4817.074
873.188; 2210.636;  -13.832; 4987.732
873.750; 2077.935;  -10.962; 4868.651
874.312; 2111.340;  -11.022; 4779.330
874.874; 2149.181;  -13.152; 4866.348
875.436; 2124.569;  -13.401; 4718.887
875.998; 2083.803;   -8.891; 4660.005
876.560; 2024.729;  -12.591; 4462.964
877.122; 1951.873;  -14.531; 4145.042
877.683; 1865.620;  -10.781; 4056.481
878.245; 1791.585;  -14.281; 3950.740
878.807; 1788.109;  -10.311; 4058.958
879.369; 1726.949;  -13.201; 3954.677
879.930; 1679.925;  -12.061; 3941.495
880.492; 1693.602;   -9.181; 4067.014
881.053; 1722.626;  -12.051; 3859.633
881.615; 1699.152;  -11.501; 3776.071
882.176; 1610.575;  -12.221; 3734.750
882.738; 1489.104;   -8.931; 3678.489
883.299; 1378.428;  -13.571; 3405.407
883.860; 1381.878;  -12.331; 3351.106
884.422; 1338.346;  -10.201; 3394.044
884.983; 1196.867;  -12.521; 3166.443
885.544; 1088.227;  -12.291; 3189.802
886.105; 1058.671;  -12.991; 3160.360
886.666; 1062.778;  -12.901; 3093.059
887.227; 1039.911;  -12.061; 2941.957
887.788;  994.067;  -11.641; 2974.836
888.349;  946.287;  -14.691; 2721.214
888.910;  897.476;   -9.681; 2696.493
889.471;  872.119;   -9.971; 2560.172
890.032;  854.005;  -13.151; 2558.190
890.593;  830.986;  -12.051; 2567.669
891.153;  800.710;  -12.841; 2460.307
891.714;  777.418;  -13.561; 2372.046
892.275;  760.052;  -12.401; 2309.505
892.835;  727.101;  -13.191; 2382.543
893.396;  683.102;  -12.551; 2295.502
893.956;  666.957;  -11.981; 2162.420
894.517;  670.250;  -12.221; 2125.439
895.077;  641.840;  -12.021; 2086.978
895.638;  575.715;  -10.891; 2126.316
896.198;  514.604;  -13.171; 1838.275
896.758;  475.756;  -11.891; 1892.813
897.319;  434.454;  -12.491; 1792.232
897.879;  413.749;  -12.401; 1762.751
898.439;  386.926;  -13.431; 1661.149
898.999;  367.927;  -11.340; 1781.468
899.559;  360.364;  -13.930; 1703.347
900.119;  346.405;  -13.730; 1537.525
900.679;  331.145;   -9.210; 1638.384
901.239;  315.797;  -10.860; 1527.902
901.799;  297.884;  -11.450; 1456.441
902.359;  277.875;  -13.800; 1357.140
902.919;  267.686;  -12.130; 1331.118
903.479;  263.773;  -12.650; 1317.257
904.038;  253.210;  -16.110; 1262.595
904.598;  236.842;  -13.690; 1152.034
905.158;  223.388;  -10.290; 1240.893
905.717;  216.538;  -10.670; 1233.691
906.277;  213.854;  -14.040; 1217.330
906.836;  213.192;  -13.510; 1222.408
907.396;  208.390;  -11.530; 1193.047
907.955;  198.223;  -13.190; 1182.526
908.515;  187.590;  -12.950; 1099.364
909.074;  179.083;  -12.390; 1092.863
909.633;  174.465;  -10.340; 1069.121
910.192;  171.903;  -11.170; 1196.460
910.752;  168.890;  -14.200; 1029.960
911.311;  164.829;  -13.810; 1009.780
911.870;  163.242;  -12.750;  971.460
912.429;  161.308;  -12.380; 1094.080
912.988;  160.201;  -11.930; 1081.060
913.547;  155.308;  -10.990;  940.380
914.106;  152.325;  -11.200;  999.420
914.665;  149.662;  -13.150;  984.020
915.224;  147.413;  -13.310; 1035.760
915.782;  145.474;  -13.340;  922.560
916.341;  145.152;  -10.710; 1049.840
916.900;  142.879;  -12.980;  925.260
917.458;  141.631;  -13.060;  884.220
918.017;  139.922;  -10.900;  942.600
918.576;  138.996;  -11.630;  904.440
919.134;  137.955;  -12.860;  837.980
919.693;  138.455;  -15.160;  893.060
920.251;  137.850;  -13.470;  876.500
920.809;  137.242;  -13.700;  839.580
921.368;  137.147;  -13.420;  885.360
921.926;  137.718;  -14.710;  842.940
922.484;  138.632;  -12.560;  903.360
923.042;  139.911;  -11.930;  880.340
923.601;  140.463;  -10.270;  998.680
924.159;  137.837;  -12.960;  935.560
924.717;  134.252;  -13.040;  841.080
925.275;  136.670;  -12.560;  903.240
925.833;  137.636;  -13.040;  779.320
926.391;  140.467;  -13.360;  938.380
926.949;  140.011;  -13.940;  857.680
927.506;  140.153;   -9.400;  903.500
928.064;  139.419;  -10.940;  877.580
928.622;  139.492;  -13.180;  880.100
929.180;  139.332;  -12.730;  814.180
929.737;  139.511;  -12.840;  808.540
930.295;  143.166;  -11.810;  928.480
930.853;  148.367;  -13.650;  849.100
931.410;  152.496;  -13.580;  821.120
931.968;  153.979;  -12.020;  940.660
932.525;  153.802;  -13.320;  909.380
933.082;  153.519;  -13.800;  811.440
933.640;  157.172;  -11.380;  925.900
934.197;  159.186;  -11.480;  886.360
934.754;  161.396;  -13.220;  897.780
935.312;  159.864;  -14.950;  863.340
935.869;  157.937;  -10.940; 1012.980
936.426;  153.097;  -12.100;  872.800
936.983;  152.505;  -12.930;  889.020
937.540;  153.505;  -14.250;  838.280
938.097;  158.655;  -12.600;  940.120
938.654;  165.117;  -11.260;  898.860
939.211;  168.523;  -13.020;  952.480
939.768;  170.791;  -15.760;  915.420
940.324;  173.364;  -13.920;  904.200
940.881;  171.845;  -11.620;  878.500
941.438;  168.535;   -9.870; 1021.200
941.995;  166.030;  -13.920;  992.560
942.551;  162.810;  -12.830;  875.620
943.108;  163.497;  -11.980;  937.920
943.664;  166.669;  -13.740;  869.340
944.221;  175.417;  -12.670; 1088.140
944.777;  174.097;  -13.250;  869.680
945.334;  170.485;  -13.000;  884.840
945.890;  169.049;  -13.020;  946.480
946.446;  167.202;  -13.880;  947.020
947.003;  168.771;  -12.660;  964.940
947.559;  169.350;   -8.730; 1063.040
948.115;  167.165;  -11.960; 1026.540
948.671;  163.361;  -12.360;  967.300
949.227;  157.847;  -12.700;  859.560
949.783;  155.122;  -13.450;  858.900
950.339;  154.876;  -10.620;  991.000
950.895;  152.692;  -14.770; 1023.840
951.451;  149.508;  -13.650;  925.280
952.007;  150.924;  -11.180;  998.540
952.563;  149.463;  -11.680;  937.780
953.118;  150.184;  -13.280;  904.940
953.674;  150.766;  -12.510;  935.780
954.230;  150.988;  -12.220;  949.640
954.785;  147.989;  -12.190;  936.640
955.341;  143.652;  -12.270;  998.160
955.897;  140.999;  -14.900;  834.660
956.452;  141.843;  -12.520;  953.840
957.008;  141.700;   -9.410; 1083.640
957.563;  139.142;  -11.280; 1009.540
958.118;  136.074;  -13.470;  877.700
958.674;  135.835;  -12.190;  946.780
959.229;  138.118;  -12.760; 1013.980
959.784;  141.083;  -15.710;  832.400
960.339;  146.529;  -12.540; 1001.280
960.894;  145.606;  -11.680;  963.760
961.449;  142.247;  -11.410;  859.960
962.004;  140.981;  -10.430; 1212.840
962.559;  133.265;  -14.040;  860.140
963.114;  128.883;  -14.270;  742.480
963.669;  128.778;  -11.320;  915.500
964.224;  129.212;  -14.620;  874.340
964.779;  127.147;  -14.150;  828.420
965.334;  128.632;  -10.850; 1017.860
965.888;  127.380;  -14.530;  875.360
966.443;  128.849;  -13.520;  972.380
966.998;  126.227;  -13.370;  819.460
967.552;  123.396;   -9.960;  908.380
968.107;  120.259;  -12.360;  868.300
968.661;  121.072;  -12.270;  922.440
969.216;  118.852;  -12.140;  856.280
969.770;  120.039;  -11.860;  917.200
970.324;  119.281;  -12.170;  923.140
970.879;  118.885;  -14.160;  947.180
971.433;  117.062;  -12.940;  952.720
971.987;  112.663;  -10.180;  895.340
972.541;  112.318;  -12.130;  917.100
973.095;  111.888;  -14.980; 1009.460
973.649;  111.394;  -14.480;  809.480
974.203;  112.886;  -13.530;  829.040
974.757;  114.475;  -12.060;  855.220
975.311;  112.962;  -13.240;  872.600
975.865;  110.587;  -12.550;  881.820
976.419;  109.137;  -13.180;  857.400
976.973;  108.492;  -14.100;  849.620
977.526;  108.252;  -13.330;  949.920
978.080;  103.562;  -15.390;  796.780
978.634;  103.096;  -11.670;  921.320
979.187;   99.525;  -10.640;  905.400
979.741;   99.850;  -13.330; 1018.380
980.294;   97.736;  -14.480;  789.160
980.848;   97.589;  -13.420;  717.220
981.401;   96.396;  -12.360;  816.540
981.955;   93.216;  -12.480;  844.300
982.508;   88.753;  -14.000;  746.340
983.061;   88.373;  -10.440;  915.260
983.615;   85.461;  -14.340;  798.800
984.168;   82.434;  -14.950;  770.080
984.721;   83.561;  -13.270;  880.760
985.274;   80.580;  -12.240;  867.500
985.827;   78.775;  -12.720;  834.220
986.380;   75.480;  -14.920;  721.340
986.933;   75.621;  -12.860;  864.800
987.486;   74.710;  -10.440;  861.920
988.039;   72.825;  -11.820;  863.100
988.591;   72.344;  -13.760;  893.260
989.144;   70.670;  -14.080;  737.260
989.697;   69.645;  -13.440;  758.740
990.250;   70.617;  -12.050;  858.100
990.802;   68.848;  -14.550;  755.860
991.355;   70.157;  -10.770;  974.880
991.907;   68.374;  -11.710;  864.320
992.460;   66.592;  -12.650;  753.760
993.012;   65.692;  -13.860;  749.540
993.565;   63.260;  -14.310;  711.360
994.117;   63.010;   -9.920;  950.780
994.669;   59.516;  -13.420;  701.320
995.221;   58.787;  -14.200;  791.920
995.774;   58.351;  -13.400;  787.580
996.326;   57.071;  -11.850;  740.220
996.878;   57.024;  -12.230;  838.420
997.430;   55.199;  -14.260;  699.860
997.982;   54.337;  -11.430;  750.140
998.534;   54.689;  -11.590;  739.060
999.086;   53.531;  -11.960;  738.220
999.638;   53.211;  -13.640;  661.380
1000.190;   51.779;  -13.660;  699.320
1000.741;   51.703;   -9.980;  742.700
1001.293;   50.962;  -11.860;  686.020
1001.845;   49.274;  -14.280;  676.640
1002.396;   50.379;  -12.270;  743.400
1002.948;   49.194;  -13.670;  737.400
1003.500;   47.440;  -12.010;  723.780
1004.051;   49.309;  -11.890;  907.580
1004.603;   48.364;  -11.220;  791.820
1005.154;   43.935;  -13.210;  608.980
1005.705;   43.984;  -11.850;  723.960
1006.257;   43.808;  -13.670;  707.220
1006.808;   42.484;  -12.060;  685.460
1007.359;   42.091;  -10.250;  763.240
1007.910;   40.749;  -13.440;  646.640
1008.461;   40.553;  -13.170;  732.940
1009.013;   39.263;  -14.590;  588.340
1009.564;   40.902;  -12.100;  793.520
1010.115;   38.542;  -14.000;  597.040
1010.665;   37.903;  -15.020;  602.160
1011.216;   38.066;  -12.560;  667.920
1011.767;   37.638;  -11.330;  697.920
1012.318;   38.584;  -11.450;  736.980
1012.869;   36.328;  -11.000;  679.000
1013.419;   36.417;  -11.760;  603.120
1013.970;   36.823;  -11.800;  666.640
1014.521;   36.110;  -14.750;  620.620
1015.071;   36.842;  -14.430;  670.380
1015.622;   35.488;  -14.170;  635.460
1016.172;   34.876;  -11.700;  596.820
1016.723;   34.516;  -13.230;  614.380
1017.273;   34.241;  -16.120;  604.160
1017.823;   35.017;  -13.360;  650.340
1018.374;   33.948;  -13.710;  611.760
1018.924;   33.901;  -11.050;  716.880
1019.474;   34.657;  -14.120;  718.880
1020.024;   33.139;  -12.990;  657.580
1020.574;   33.333;  -12.010;  726.160
1021.124;   34.480;  -12.080;  673.580
1021.674;   32.323;  -15.860;  559.120
1022.224;   33.701;  -11.710;  708.940
1022.774;   32.952;  -13.030;  668.820
1023.324;   32.930;  -11.000;  753.520
1023.874;   34.650;  -13.270;  875.760
1024.423;   32.263;  -14.570;  613.700
1024.973;   31.636;  -12.620;  610.760
1025.523;   30.509;  -12.630;  620.960
1026.072;   30.549;  -14.110;  606.420
1026.622;   30.314;  -15.390;  675.740
1027.172;   31.305;   -9.090;  715.660
1027.721;   29.879;  -12.250;  601.220
1028.270;   30.692;  -15.590;  663.400
1028.820;   30.970;  -13.840;  638.080
1029.369;   29.187;  -13.170;  612.700
1029.918;   29.807;  -14.080;  649.840
1030.468;   28.948;  -13.860;  564.780
1031.017;   30.358;  -12.970;  634.800
1031.566;   28.872;  -12.320;  608.900
1032.115;   29.589;  -13.140;  694.500
1032.664;   27.818;  -14.560;  596.480
1033.213;   29.451;  -11.620;  735.420
1033.762;   28.462;  -13.190;  635.620
1034.311;   27.910;  -13.460;  677.220
1034.860;   28.808;  -15.770;  691.000
1035.408;   28.149;  -13.100;  722.720
1035.957;   28.693;  -12.880;  719.540
1036.506;   25.585;  -13.640;  530.800
1037.055;   29.666;  -12.420;  844.320
1037.603;   27.707;  -13.740;  664.000
1038.152;   25.980;  -13.840;  534.760
1038.700;   26.126;  -10.770;  585.740
1039.249;   25.424;  -13.520;  681.220
1039.797;   26.638;  -13.060;  633.360
1040.345;   26.026;  -11.760;  705.420
1040.894;   25.775;  -10.790;  625.300
1041.442;   24.734;  -15.420;  632.200
1041.990;   24.865;  -14.550;  559.160
1042.538;   23.788;  -15.620;  536.180
1043.087;   24.617;  -14.940;  570.860
1043.635;   26.003;  -12.100;  670.500
1044.183;   24.183;  -13.200;  586.400
1044.731;   24.472;  -11.630;  576.000
1045.279;   24.837;  -14.200;  674.920
1045.827;   26.609;  -12.510;  892.400
1046.374;   23.314;  -14.960;  515.420
1046.922;   22.643;  -11.850;  590.580
1047.470;   23.303;  -13.770;  691.300
1048.018;   23.759;  -15.380;  647.960
1048.565;   24.183;  -14.010;  708.600
1049.113;   22.287;  -14.620;  557.000
1049.660;   23.034;  -14.940;  629.660
1050.208;   23.231;  -14.540;  675.640
1050.755;   22.216;  -13.710;  606.580
1051.303;   23.537;  -11.880;  686.820
1051.850;   22.080;  -12.160;  635.120
1052.397;   20.138;  -15.110;  473.960
1052.945;   21.225;  -14.770;  617.760
1053.492;   22.494;  -12.320;  741.840
1054.039;   22.749;  -13.290;  720.180
1054.586;   21.131;  -15.210;  557.240
1055.133;   22.157;  -12.920;  693.140
1055.680;   21.548;  -12.610;  646.620
1056.227;   21.055;  -12.620;  542.780
1056.774;   23.091;  -13.010;  794.980
1057.321;   20.328;  -16.180;  523.260
1057.868;   20.402;  -11.230;  651.320
1058.415;   20.390;  -10.890;  651.980
1058.961;   20.802;  -12.530;  678.940
1059.508;   20.624;  -14.120;  643.820
1060.055;   20.131;  -13.340;  581.780
1060.601;   20.924;  -12.920;  624.300
1061.148;   20.220;  -14.430;  616.820
1061.694;   19.409;  -14.140;  592.580
1062.241;   19.698;  -12.550;  596.320
1062.787;   19.677;  -13.370;  663.140
1063.334;   22.055;  -12.260;  808.560
1063.880;   19.931;  -10.800;  668.360
1064.426;   19.574;   -9.920;  706.820
1064.972;   18.888;  -12.970;  601.340
1065.518;   17.846;  -14.440;  566.640
1066.065;   18.871;  -12.680;  624.460
1066.611;   18.428;  -13.520;  598.800
1067.157;   18.877;  -11.100;  641.860
1067.703;   18.477;  -14.100;  668.480
1068.249;   18.322;  -13.750;  605.220
1068.794;   18.290;  -11.070;  626.880
1069.340;   16.870;  -13.210;  578.960
1069.886;   17.429;  -14.850;  590.700
1070.432;   16.525;  -14.580;  541.720
1070.977;   16.538;  -12.930;  601.080
1071.523;   16.526;  -11.970;  573.060
1072.068;   16.927;  -13.730;  582.000
1072.614;   16.012;  -14.550;  527.760
1073.160;   17.456;  -13.690;  687.040
1073.705;   15.820;  -14.780;  572.520
1074.250;   16.156;  -15.430;  559.900
1074.796;   17.197;  -11.620;  655.160
1075.341;   17.422;  -11.580;  664.100
1075.886;   16.227;  -13.190;  594.240
1076.431;   16.229;  -13.630;  649.880
1076.976;   15.895;  -11.670;  639.220
1077.521;   15.637;  -11.600;  583.080
1078.067;   14.551;  -13.920;  579.400
1078.612;   15.410;  -12.910;  661.620
1079.156;   15.623;  -15.340;  601.540
1079.701;   15.186;  -12.560;  693.260
1080.246;   16.166;  -12.490;  696.300
1080.791;   15.371;  -14.550;  625.020
1081.336;   15.729;  -15.210;  659.320
1081.880;   15.331;  -11.280;  649.680
1082.425;   14.595;  -12.830;  573.480
1082.970;   15.632;  -11.680;  717.040
1083.514;   13.687;  -15.500;  597.000
1084.059;   13.738;  -11.770;  586.720
1084.603;   13.744;  -13.480;  565.840
1085.147;   14.572;  -13.940;  645.220
1085.692;   14.605;  -13.170;  716.800
1086.236;   12.686;  -15.740;  503.140
1086.780;   15.177;  -10.750;  751.440
1087.325;   13.758;  -14.900;  654.620
1087.869;   14.199;  -15.160;  610.700
1088.413;   14.610;  -11.030;  705.040
1088.957;   12.857;  -15.210;  543.400
1089.501;   14.068;  -12.310;  766.640
1090.045;   14.244;  -12.790;  726.480
1090.589;   11.501;  -14.040;  569.920
1091.133;   12.738;  -12.800;  673.340
1091.676;   13.147;  -13.600;  591.940
1092.220;   12.824;  -12.960;  600.920
1092.764;   13.032;  -10.830;  706.960
1093.307;   13.015;  -12.390;  673.780
1093.851;   11.945;  -15.850;  556.540
1094.395;   12.934;  -12.980;  683.140
1094.938;   11.813;  -13.670;  632.520
1095.482;   11.852;  -12.740;  559.800
1096.025;   12.137;  -13.340;  710.880
1096.568;   12.970;  -10.500;  779.280
1097.112;    9.661;  -13.500;  508.180
1097.655;   11.809;  -13.060;  603.000
1098.198;   10.148;  -13.240;  600.180
1098.741;   10.959;  -15.490;  612.860
1099.285;   11.579;  -13.410;  657.300
1099.828;    9.583;  -15.640;  439.400
1100.371;   10.193;  -13.980;  608.160
1100.914;   11.193;  -13.990;  682.660
1101.457;   11.211;  -15.030;  679.900
1101.999;    9.410;  -12.480;  584.680
1102.542;   10.788;  -12.410;  641.440
1103.085;   10.338;  -14.730;  658.500
1103.628;   10.923;  -12.190;  762.060
1104.170;    9.737;  -12.360;  588.280
1104.713;    9.690;  -13.350;  646.700
1105.256;    9.238;  -14.930;  557.440
1105.798;    8.551;  -15.150;  499.980
1106.341;   11.172;  -13.230;  728.900
1106.883;    9.168;  -14.680;  521.340
1107.425;    9.353;  -14.810;  668.180
1107.968;    9.055;  -12.940;  612.380
1108.510;    9.601;  -10.550;  684.960
1109.052;    7.721;  -15.640;  612.620
1109.594;    8.162;  -14.440;  554.440
1110.136;   10.070;  -11.380;  643.220
1110.679;    7.922;  -13.090;  633.080
1111.221;    8.548;  -14.230;  604.460
1111.763;    7.755;  -14.260;  559.220
1112.304;    7.728;  -14.510;  547.140
1112.846;    8.360;  -14.700;  666.240
1113.388;   11.530;  -12.270;  942.180
1113.930;    8.777;  -13.340;  694.200
1114.472;    7.931;  -12.560;  606.540
1115.013;    6.123;  -14.280;  551.280
1115.555;    7.407;  -14.010;  587.100
1116.097;    6.787;  -14.730;  579.480
1116.638;    8.202;  -12.160;  684.600
1117.180;    7.883;  -14.320;  667.740
1117.721;    7.102;  -15.730;  568.580
1118.262;    8.048;  -13.480;  677.960
1118.804;    7.508;  -11.530;  637.340
1119.345;    6.906;  -13.540;  578.400
1119.886;    7.231;  -14.470;  704.040
1120.427;    6.611;  -13.030;  589.020
1120.969;    6.044;  -13.150;  597.920
1121.510;    5.487;  -13.940;  563.060
1122.051;    7.147;  -12.310;  723.580
1122.592;    6.177;  -13.870;  655.420
1123.133;    5.210;  -12.890;  547.940
1123.673;    6.947;  -13.300;  706.480
1124.214;    5.404;  -14.000;  612.460
1124.755;    6.430;  -13.210;  639.460
1125.296;    5.651;  -13.450;  627.320
1125.836;    6.723;  -12.610;  691.500
1126.377;    5.897;  -15.840;  599.660
1126.918;    7.091;  -11.830;  614.980
1127.458;    4.930;  -11.830;  622.220
1127.999;    5.922;  -11.490;  656.980
1128.539;    5.685;  -12.900;  694.240
1129.079;    4.656;  -14.910;  632.720
1129.620;    4.429;  -12.920;  558.100
1130.160;    4.428;  -14.640;  539.480
1130.700;    5.739;  -13.270;  640.840
1131.240;    5.582;  -14.110;  643.700
1131.781;    4.311;  -13.130;  619.680
1132.321;    4.327;  -15.220;  599.120
1132.861;    3.974;  -15.670;  564.200
1133.401;    3.804;  -13.970;  593.940
1133.941;    4.924;  -13.740;  626.280
1134.481;    3.911;  -13.200;  597.580
1135.020;    3.461;  -14.830;  609.160
1135.560;    4.944;  -14.590;  674.940
1136.100;    2.979;  -13.730;  501.160
1136.640;    2.786;  -15.240;  510.480
1137.179;    2.898;  -14.710;  537.960
1137.719;    3.897;  -14.090;  605.400
1138.258;    3.889;  -12.470;  587.360
1138.798;    3.878;  -12.580;  663.780
1139.337;    2.687;  -16.480;  482.840
1139.877;    3.983;  -13.970;  642.360
1140.416;    5.772;   -9.870;  878.060
1140.955;    2.042;  -14.860;  535.380
1141.494;    3.893;  -14.530;  669.280
1142.034;    2.871;  -13.940;  583.520
1142.573;    4.123;  -11.160;  646.280
1143.112;    2.097;  -15.050;  553.480
1143.651;    2.395;  -15.390;  536.480
1144.190;    3.760;  -12.990;  691.640
1144.729;    2.256;  -12.220;  607.420
1145.267;    2.973;  -14.020;  584.900
1145.806;    3.797;  -12.740;  637.040
1146.345;    2.553;  -14.810;  635.020
1146.884;    1.315;  -12.920;  622.500
1147.422;    1.844;  -13.930;  533.060
1147.961;    3.774;  -11.830;  708.460
1148.500;    3.109;  -12.710;  669.720
1149.038;    3.368;  -14.420;  632.500
1149.577;    2.926;  -13.920;  698.640
1150.115;   -0.005;  -17.050;  452.280
1150.653;    1.860;  -14.890;  607.340
1151.192;    1.830;  -15.270;  552.920
1151.730;    2.322;  -13.160;  652.560
1152.268;    1.568;  -15.430;  589.520
1152.806;    1.083;  -15.880;  571.180
1153.344;    0.446;  -13.240;  577.640
1153.882;    2.291;  -13.010;  600.060
1154.421;   -0.167;  -16.180;  470.620
1154.958;    1.208;  -13.880;  595.240
1155.496;    1.800;  -13.590;  645.280
1156.034;    0.945;  -11.910;  721.880
1156.572;    2.233;  -12.010;  667.060
1157.110;   -0.150;  -16.250;  473.940
1157.647;    2.257;  -15.230;  676.960
1158.185;    0.457;  -13.770;  564.320
1158.723;   -0.738;  -15.300;  509.200
1159.260;    1.423;  -13.130;  701.700
1159.798;    2.531;  -11.300;  658.160
1160.335;    0.448;  -13.210;  631.820

