gmr_right
Integration time [ms]: 300.000
Averaging Nr. [scans]: 30
Smoothing Nr. [pixels]: 0
Data measured with spectrometer [name]: 7414430SP
Wave   ;Sample   ;Dark     ;Reference
[nm]   ;[counts] ;[counts] ;[counts] 

288.544;  470.556;  409.495;    6.613
289.143;  399.824;  334.741;   14.216
289.742;  498.054;  438.471;   11.816
290.341;  472.192;  418.127;   -4.936
290.940;  438.419;  374.571;    0.852
291.538;  539.896;  486.444;    1.792
292.137;  474.473;  414.837;    6.262
292.736;  614.192;  548.261;    8.164
293.335;  432.400;  380.904;   -6.418
293.934;  473.456;  413.615;   -2.904
294.532;  650.000;  601.463;   -5.162
295.131;  512.056;  463.325;  -10.283
295.730;  498.264;  447.004;  -16.141
296.328;  478.246;  435.754;  -14.740
296.927;  477.400;  428.130;   -8.768
297.525;  475.609;  423.459;  -15.255
298.124;  382.771;  340.248;  -22.063
298.722;  467.098;  419.149;  -14.796
299.321;  428.346;  377.482;  -10.466
299.919;  454.297;  410.080;  -10.979
300.518;  415.649;  368.337;  -12.077
301.116;  417.286;  370.383;  -13.509
301.715;  437.389;  390.100;  -11.939
302.313;  426.675;  382.345;  -15.424
302.911;  450.077;  409.207;  -19.833
303.509;  587.948;  543.847;   -3.567
304.108;  466.231;  423.019;   -9.553
304.706;  502.753;  452.293;   -8.582
305.304;  510.239;  460.774;  -12.348
305.902;  482.809;  441.800;  -14.411
306.500;  447.753;  404.342;   -7.194
307.098;  460.918;  424.328;   -9.322
307.696;  494.969;  457.530;  -19.192
308.294;  453.675;  419.528;   -9.736
308.892;  475.381;  441.888;  -15.482
309.490;  432.904;  397.807;  -14.107
310.088;  504.553;  463.266;  -15.862
310.686;  519.523;  480.333;  -10.781
311.284;  477.782;  445.100;  -14.878
311.882;  452.796;  422.933;   -9.948
312.480;  432.945;  400.225;  -15.503
313.078;  515.623;  475.435;  -17.262
313.675;  433.520;  394.542;   -3.694
314.273;  507.646;  482.288;  -18.246
314.871;  357.179;  328.213;  -15.190
315.468;  403.643;  369.507;  -12.633
316.066;  428.134;  402.504;   -5.765
316.664;  411.896;  380.819;  -14.317
317.261;  590.428;  553.581;   -8.677
317.859;  489.605;  465.282;  -11.804
318.456;  533.744;  506.913;   -3.107
319.054;  503.114;  472.927;   -3.062
319.651;  491.984;  461.622;   -6.706
320.249;  522.317;  496.555;   -5.206
320.846;  451.367;  426.783;   -4.679
321.443;  543.943;  514.791;   -7.920
322.041;  529.329;  499.737;  -14.105
322.638;  446.741;  424.051;   -6.263
323.235;  419.109;  394.945;   -7.424
323.833;  471.637;  451.307;  -14.765
324.430;  381.450;  353.447;  -10.550
325.027;  574.447;  544.441;   -9.951
325.624;  398.469;  367.891;   -3.712
326.221;  430.860;  398.524;   -9.368
326.818;  534.563;  500.113;   -5.637
327.415;  471.509;  435.885;   -6.699
328.012;  427.647;  386.964;   -5.713
328.609;  466.029;  424.864;   -9.983
329.206;  502.579;  454.999;   -7.154
329.803;  462.878;  417.719;   -1.682
330.400;  431.428;  389.434;   -2.741
330.997;  519.817;  468.961;   -4.339
331.594;  499.276;  450.395;  -10.278
332.191;  457.154;  403.452;   -6.967
332.787;  529.539;  483.017;   -0.480
333.384;  473.519;  428.015;  -10.333
333.981;  506.416;  466.840;  -19.900
334.578;  429.484;  383.913;  -19.816
335.174;  443.395;  399.076;  -15.844
335.771;  522.658;  482.567;  -12.670
336.367;  434.346;  393.669;  -21.124
336.964;  499.000;  453.616;  -18.226
337.561;  448.114;  406.390;  -13.311
338.157;  579.855;  537.645;  -19.006
338.754;  501.836;  465.774;  -19.418
339.350;  444.144;  404.223;  -29.433
339.946;  480.926;  442.621;  -16.622
340.543;  532.299;  495.432;  -16.744
341.139;  443.961;  410.435;  -21.841
341.735;  484.363;  452.920;  -25.012
342.332;  425.599;  394.848;  -19.156
342.928;  496.233;  465.203;  -20.443
343.524;  484.128;  446.876;  -14.397
344.120;  467.940;  432.262;  -20.654
344.716;  443.943;  413.833;   -5.730
345.313;  507.303;  480.927;  -10.929
345.909;  385.075;  342.011;  -19.843
346.505;  470.202;  436.364;  -19.645
347.101;  522.352;  490.958;   -9.618
347.697;  503.606;  467.365;  -10.305
348.293;  377.363;  344.251;  -23.189
348.889;  470.597;  438.836;  -18.418
349.485;  425.754;  384.594;  -10.476
350.081;  492.869;  454.803;  -17.320
350.676;  437.981;  395.638;  -21.088
351.272;  519.475;  474.538;  -12.821
351.868;  488.714;  454.235;  -13.165
352.464;  456.239;  419.565;  -12.464
353.059;  410.762;  371.751;  -22.547
353.655;  502.417;  462.550;   -9.379
354.251;  479.708;  445.226;   -8.266
354.846;  471.343;  434.234;  -17.705
355.442;  474.331;  439.506;   -9.317
356.038;  473.398;  437.316;  -11.049
356.633;  460.836;  423.492;  -10.006
357.229;  464.163;  425.098;  -13.120
357.824;  445.047;  410.071;  -15.647
358.420;  430.252;  388.980;  -19.204
359.015;  432.976;  398.905;  -12.263
359.610;  488.496;  455.161;  -16.421
360.206;  372.555;  339.469;  -20.074
360.801;  398.635;  368.207;  -13.277
361.396;  466.259;  425.487;   -5.822
361.992;  421.947;  388.404;  -11.247
362.587;  419.020;  385.521;  -21.502
363.182;  435.034;  399.301;   -7.461
363.777;  471.891;  436.726;   -8.719
364.372;  474.265;  439.716;  -14.590
364.967;  441.460;  397.056;  -15.145
365.563;  529.410;  487.956;   -7.192
366.158;  435.503;  399.566;   -5.662
366.753;  413.159;  374.929;   -8.378
367.348;  475.484;  442.336;  -14.990
367.942;  440.306;  403.765;   -6.005
368.537;  479.795;  450.125;  -11.504
369.132;  451.672;  411.847;  -10.576
369.727;  406.297;  370.647;  -12.573
370.322;  366.049;  329.318;  -11.560
370.917;  451.148;  422.304;  -10.388
371.511;  571.376;  526.876;   -9.161
372.106;  506.160;  477.156;  -10.245
372.701;  368.320;  333.029;  -10.158
373.296;  560.754;  531.224;   -4.719
373.890;  414.420;  378.521;  -11.802
374.485;  449.772;  420.279;  -13.500
375.079;  484.230;  450.906;   -6.276
375.674;  538.025;  500.215;   -0.447
376.268;  447.710;  416.988;   -6.916
376.863;  371.347;  339.418;  -14.483
377.457;  425.622;  401.520;   -6.903
378.052;  497.169;  466.935;   -9.844
378.646;  489.932;  457.469;  -12.601
379.240;  476.377;  443.092;  -14.715
379.835;  412.424;  383.209;  -12.331
380.429;  360.112;  326.727;   -9.074
381.023;  513.588;  486.447;   -1.729
381.617;  443.141;  412.160;  -13.714
382.212;  447.040;  421.010;   -7.060
382.806;  500.722;  474.220;   -2.303
383.400;  446.538;  415.320;   -0.815
383.994;  436.416;  409.675;   -4.429
384.588;  465.022;  433.890;   -6.261
385.182;  485.201;  451.715;    0.008
385.776;  475.053;  444.976;   -3.247
386.370;  451.255;  425.010;   -1.030
386.964;  459.329;  428.755;   -1.346
387.558;  386.805;  358.906;   -2.020
388.152;  453.332;  426.062;   -5.345
388.745;  545.691;  525.538;   -2.774
389.339;  509.135;  484.952;    3.510
389.933;  454.417;  435.917;    5.280
390.527;  586.547;  556.134;    2.610
391.120;  390.262;  367.345;   -7.914
391.714;  478.207;  450.473;   -1.903
392.308;  521.823;  501.397;    6.023
392.901;  427.444;  405.276;   -4.103
393.495;  388.592;  373.438;    3.284
394.089;  517.896;  492.192;    8.655
394.682;  469.366;  449.791;    2.312
395.275;  484.989;  466.091;   -7.402
395.869;  450.046;  425.698;   -1.072
396.462;  409.778;  391.306;    6.454
397.056;  523.282;  500.706;    8.494
397.649;  490.669;  479.805;    1.599
398.242;  479.141;  462.999;    3.153
398.836;  523.695;  498.021;   11.395
399.429;  422.692;  400.852;   14.695
400.022;  446.249;  432.501;    3.627
400.615;  550.255;  538.132;    8.383
401.208;  466.437;  446.863;   13.295
401.802;  471.723;  454.579;    6.211
402.395;  464.949;  447.734;    7.227
402.988;  464.275;  451.215;    2.700
403.581;  435.460;  413.103;   11.225
404.174;  467.820;  453.490;   18.922
404.767;  428.885;  415.270;   14.169
405.360;  418.557;  400.695;    8.999
405.953;  510.833;  490.897;   13.138
406.545;  493.994;  476.388;   13.937
407.138;  410.221;  394.439;   10.869
407.731;  408.375;  400.391;   12.768
408.324;  440.695;  427.127;   22.921
408.917;  453.201;  443.448;   15.308
409.509;  509.728;  493.496;   12.239
410.102;  428.310;  419.217;   13.741
410.695;  444.791;  431.403;   20.249
411.287;  396.430;  386.549;   21.793
411.880;  392.228;  381.535;   22.965
412.472;  404.321;  402.894;   15.082
413.065;  426.129;  413.469;   23.423
413.657;  381.092;  371.883;   21.077
414.250;  430.766;  420.377;   12.349
414.842;  451.247;  441.751;   20.423
415.434;  380.097;  370.604;   19.906
416.027;  432.312;  421.460;   26.574
416.619;  479.912;  469.417;   15.705
417.211;  392.132;  385.081;   17.791
417.804;  422.377;  402.209;   30.244
418.396;  403.520;  399.311;   24.177
418.988;  437.951;  430.319;   24.904
419.580;  370.003;  367.521;   20.692
420.172;  352.464;  353.384;   22.275
420.764;  443.997;  439.276;   26.773
421.356;  420.710;  416.954;   25.731
421.948;  448.758;  451.479;   24.876
422.540;  451.361;  448.554;   30.042
423.132;  392.090;  389.159;   32.728
423.724;  363.788;  364.076;   21.317
424.316;  411.114;  401.037;   29.359
424.908;  393.709;  384.026;   28.798
425.500;  426.786;  420.493;   30.512
426.092;  426.175;  415.597;   26.741
426.683;  464.906;  455.610;   27.029
427.275;  423.131;  418.767;   32.611
427.867;  440.636;  436.346;   33.796
428.458;  484.639;  475.212;   34.453
429.050;  455.219;  448.830;   34.255
429.642;  493.583;  490.604;   39.082
430.233;  353.484;  356.763;   41.138
430.825;  487.935;  482.287;   31.581
431.416;  466.016;  457.128;   35.755
432.008;  425.721;  411.713;   40.566
432.599;  431.212;  421.497;   46.322
433.190;  412.664;  410.745;   46.897
433.782;  383.947;  379.813;   41.069
434.373;  593.779;  589.623;   48.778
434.964;  380.785;  379.395;   50.078
435.556;  407.071;  405.856;   52.381
436.147;  497.914;  493.316;   38.251
436.738;  450.650;  455.759;   47.237
437.329;  466.377;  462.759;   61.304
437.920;  435.322;  429.359;   48.611
438.511;  358.803;  358.172;   44.910
439.103;  400.259;  394.743;   62.404
439.694;  432.999;  435.667;   63.075
440.285;  497.476;  497.775;   61.033
440.876;  561.165;  554.861;   57.249
441.466;  359.796;  355.217;   61.306
442.057;  422.326;  421.853;   65.773
442.648;  490.972;  479.009;   65.676
443.239;  394.257;  391.774;   55.963
443.830;  454.875;  447.867;   69.631
444.421;  411.205;  409.282;   69.943
445.011;  439.801;  440.130;   72.791
445.602;  487.559;  475.218;   68.848
446.193;  291.266;  289.880;   80.044
446.783;  397.617;  390.851;   82.599
447.374;  439.202;  440.444;   77.419
447.964;  459.489;  446.408;   72.605
448.555;  535.689;  527.827;   82.041
449.145;  413.538;  411.627;   76.230
449.736;  520.385;  512.600;   75.545
450.326;  457.788;  451.236;   67.945
450.917;  424.444;  415.408;   77.598
451.507;  368.046;  362.493;   68.027
452.097;  478.704;  473.860;   67.771
452.688;  466.535;  462.279;   62.884
453.278;  343.103;  338.493;   65.512
453.868;  509.853;  503.912;   71.796
454.458;  406.124;  394.953;   60.956
455.048;  444.275;  437.873;   62.356
455.639;  342.712;  334.515;   58.782
456.229;  440.062;  440.675;   65.209
456.819;  474.402;  466.677;   61.466
457.409;  486.317;  481.128;   59.967
457.999;  455.630;  449.881;   58.093
458.589;  417.051;  417.908;   59.536
459.179;  443.270;  437.091;   55.994
459.769;  375.775;  372.249;   43.624
460.358;  496.969;  488.228;   46.978
460.948;  417.823;  408.154;   49.821
461.538;  394.841;  391.000;   54.678
462.128;  409.529;  396.875;   49.309
462.717;  437.840;  423.321;   52.774
463.307;  428.032;  423.256;   48.101
463.897;  387.137;  384.542;   45.606
464.486;  536.578;  524.293;   45.010
465.076;  446.925;  441.649;   45.519
465.666;  387.017;  374.268;   50.058
466.255;  486.095;  474.393;   44.463
466.845;  397.273;  387.211;   41.206
467.434;  437.984;  424.688;   44.847
468.023;  382.927;  377.718;   46.760
468.613;  430.818;  422.941;   39.736
469.202;  378.415;  369.407;   46.461
469.791;  443.404;  429.932;   47.944
470.381;  443.670;  434.973;   47.529
470.970;  423.151;  406.861;   43.773
471.559;  437.990;  428.056;   41.646
472.148;  391.844;  379.588;   37.914
472.738;  456.536;  441.906;   48.071
473.327;  354.921;  347.159;   47.871
473.916;  436.851;  427.635;   37.716
474.505;  446.407;  434.219;   40.256
475.094;  486.859;  471.223;   43.269
475.683;  470.567;  454.217;   36.499
476.272;  426.952;  416.541;   44.542
476.861;  404.354;  387.399;   42.297
477.449;  409.228;  400.102;   46.878
478.038;  390.762;  375.742;   35.156
478.627;  410.517;  393.394;   42.514
479.216;  444.474;  421.384;   43.937
479.805;  442.517;  429.150;   51.393
480.393;  601.121;  593.969;   53.239
480.982;  513.322;  503.699;   38.955
481.571;  505.186;  481.123;   45.436
482.159;  378.405;  365.728;   51.007
482.748;  471.557;  456.530;   49.695
483.336;  494.489;  472.134;   48.280
483.925;  433.982;  414.107;   47.166
484.513;  418.250;  396.464;   55.404
485.102;  445.578;  427.957;   54.238
485.690;  590.816;  564.805;   55.748
486.278;  570.906;  545.971;   55.934
486.867;  432.169;  418.355;   57.106
487.455;  500.379;  484.255;   56.979
488.043;  382.967;  364.352;   57.564
488.631;  564.942;  544.670;   57.432
489.220;  496.837;  467.920;   63.646
489.808;  367.320;  347.078;   65.449
490.396;  494.600;  466.870;   61.977
490.984;  415.203;  392.002;   68.834
491.572;  484.369;  463.968;   70.775
492.160;  468.033;  446.152;   67.564
492.748;  426.087;  405.612;   66.808
493.336;  509.816;  478.001;   79.747
493.924;  436.594;  404.945;   88.688
494.512;  486.418;  467.227;   84.120
495.100;  483.290;  463.219;   86.250
495.687;  508.041;  481.836;  103.074
496.275;  406.214;  384.150;  108.717
496.863;  425.568;  404.803;  107.035
497.451;  426.995;  398.294;  117.993
498.038;  456.125;  423.756;  120.116
498.626;  438.437;  410.875;  143.059
499.214;  460.806;  439.271;  153.434
499.801;  445.667;  425.344;  175.121
500.389;  370.996;  350.829;  185.617
500.976;  474.667;  442.021;  215.789
501.564;  448.864;  426.642;  240.321
502.151;  325.902;  296.059;  267.007
502.738;  424.326;  401.601;  317.961
503.326;  431.562;  407.992;  361.216
503.913;  455.530;  432.559;  401.433
504.500;  474.125;  443.554;  446.492
505.088;  403.314;  373.728;  512.063
505.675;  432.972;  409.822;  586.387
506.262;  430.279;  406.392;  671.021
506.849;  448.708;  419.819;  759.062
507.436;  499.988;  477.106;  849.788
508.023;  446.742;  416.429;  944.288
508.610;  487.931;  461.389; 1020.690
509.197;  476.781;  446.115; 1089.052
509.784;  447.712;  421.247; 1133.776
510.371;  372.100;  344.805; 1165.501
510.958;  452.307;  428.742; 1251.735
511.545;  520.944;  495.766; 1350.248
512.132;  447.573;  414.552; 1525.945
512.719;  395.564;  367.793; 1834.933
513.305;  408.665;  376.622; 1965.349
513.892;  513.855;  490.642; 1963.265
514.479;  457.203;  430.353; 2046.446
515.066;  505.862;  478.374; 2252.803
515.652;  459.419;  427.304; 2567.247
516.239;  487.433;  456.707; 2636.919
516.825;  383.013;  358.595; 2482.304
517.412;  573.166;  545.991; 2427.031
517.998;  436.902;  407.151; 2540.463
518.585;  433.802;  402.625; 2609.007
519.171;  461.027;  432.545; 2842.088
519.758;  390.077;  351.321; 3090.703
520.344;  493.345;  463.514; 3176.076
520.930;  399.026;  374.466; 3295.037
521.516;  481.440;  447.977; 3500.959
522.103;  523.283;  492.264; 3736.704
522.689;  433.570;  400.951; 3971.022
523.275;  513.131;  480.038; 4213.778
523.861;  450.844;  411.788; 4190.361
524.447;  510.801;  469.742; 4070.602
525.033;  511.080;  484.410; 4088.892
525.619;  418.017;  379.280; 4416.851
526.205;  397.110;  361.911; 4836.835
526.791;  442.071;  401.416; 4885.903
527.377;  425.263;  391.487; 4544.907
527.963;  470.708;  431.280; 4321.995
528.549;  479.104;  437.447; 4473.979
529.135;  412.111;  382.725; 4788.663
529.721;  459.779;  420.218; 4888.577
530.306;  618.971;  580.947; 4775.779
530.892;  440.096;  395.249; 4793.906
531.478;  427.292;  389.046; 4956.948
532.063;  405.756;  368.426; 5136.936
532.649;  563.637;  522.196; 5336.867
533.235;  414.835;  377.000; 5748.092
533.820;  523.426;  482.790; 6456.875
534.406;  449.940;  409.399; 6590.167
534.991;  415.240;  377.820; 6179.622
535.576;  454.222;  411.785; 6098.691
536.162;  623.531;  584.963; 6441.234
536.747;  397.001;  356.157; 6816.224
537.333;  424.261;  376.896; 6889.752
537.918;  458.474;  412.087; 7154.280
538.503;  436.950;  388.705; 7150.848
539.088;  476.306;  436.665; 7253.308
539.673;  449.104;  407.318; 7625.180
540.259;  427.998;  383.364; 8226.793
540.844;  380.913;  336.610; 8745.092
541.429;  562.443;  519.480; 8762.553
542.014;  392.573;  350.519; 8871.497
542.599;  484.187;  435.412; 8886.008
543.184;  405.675;  356.454; 9079.139
543.769;  435.132;  383.817; 9076.182
544.354;  445.677;  395.094; 8354.081
544.938;  481.691;  437.052; 8236.809
545.523;  562.383;  512.791; 8222.179
546.108;  469.859;  415.345; 8114.082
546.693;  470.059;  413.231; 8535.912
547.278;  477.085;  413.668; 9238.322
547.862;  469.305;  408.157; 9034.405
548.447;  527.831;  462.999; 7795.011
549.031;  464.861;  404.079; 7485.099
549.616;  501.736;  435.463; 7626.308
550.201;  464.312;  393.375; 7627.909
550.785;  521.450;  449.341; 7859.125
551.370;  431.110;  359.017; 7990.654
551.954;  540.374;  467.270; 8196.468
552.538;  540.569;  457.008; 7959.495
553.123;  463.229;  384.555; 7964.826
553.707;  484.735;  400.284; 8515.957
554.291;  580.729;  489.018; 8724.024
554.876;  546.525;  460.260; 8524.211
555.460;  484.040;  384.052; 8704.456
556.044;  489.445;  387.855; 9141.473
556.628;  523.864;  417.244; 9250.197
557.212;  597.886;  479.461; 9444.237
557.796;  527.921;  405.744; 9379.783
558.380;  568.644;  434.930; 9353.658
558.964;  563.594;  421.226; 9210.310
559.548;  497.352;  353.821; 8475.153
560.132;  558.518;  397.378; 7954.084
560.716;  534.564;  363.734; 7489.529
561.300;  550.370;  357.771; 7211.952
561.884;  638.995;  449.167; 7141.313
562.467;  648.273;  445.272; 7155.386
563.051;  642.990;  417.174; 7323.158
563.635;  662.250;  401.327; 7709.114
564.219;  684.925;  414.401; 7678.855
564.802;  733.895;  443.494; 7376.187
565.386;  755.139;  421.879; 7054.372
565.969;  855.703;  490.012; 6589.196
566.553;  935.802;  538.506; 6279.371
567.136;  907.822;  479.126; 5967.930
567.720;  870.899;  420.827; 5660.703
568.303;  947.927;  435.839; 5648.615
568.887;  977.334;  420.625; 5618.443
569.470; 1009.589;  434.505; 5411.875
570.053; 1070.037;  461.885; 5149.274
570.637; 1069.349;  379.297; 5122.798
571.220; 1190.205;  464.538; 4957.369
571.803; 1298.276;  541.031; 4933.018
572.386; 1233.464;  395.375; 4840.973
572.969; 1336.122;  404.785; 4592.886
573.552; 1416.731;  408.464; 4348.387
574.135; 1427.675;  381.817; 4002.290
574.718; 1487.433;  389.178; 3654.773
575.301; 1605.624;  385.145; 3502.288
575.884; 1723.814;  381.111; 3349.803
576.467; 2066.566;  478.927; 3191.403
577.050; 2267.585;  428.239; 3062.418
577.633; 2575.898;  519.252; 3214.200
578.216; 2581.111;  403.683; 3284.889
578.799; 2725.547;  404.034; 3189.777
579.381; 3053.535;  541.163; 3064.502
579.964; 3024.768;  385.784; 2888.357
580.547; 3152.448;  428.540; 2905.760
581.129; 3411.539;  497.348; 2966.849
581.712; 3639.145;  447.028; 2887.292
582.294; 3877.949;  420.025; 2771.631
582.877; 4196.544;  539.038; 2711.602
583.459; 4200.988;  414.466; 2577.049
584.042; 4425.561;  408.667; 2454.707
584.624; 4787.106;  379.923; 2305.893
585.206; 5159.447;  326.348; 2189.546
585.789; 5747.856;  391.946; 2112.577
586.371; 6160.623;  441.495; 2153.065
586.953; 6461.582;  465.752; 2197.806
587.536; 6591.477;  495.483; 2105.489
588.118; 6776.000;  411.286; 1963.911
588.700; 7423.614;  503.076; 1843.179
589.282; 8099.153;  447.902; 1813.834
589.864; 8493.850;  420.445; 1777.620
590.446; 8624.148;  329.246; 1733.780
591.028; 8432.283;  425.227; 1676.008
591.610; 8050.964;  342.207; 1631.649
592.192; 7905.807;  430.570; 1632.362
592.774; 7538.604;  365.246; 1569.507
593.356; 7967.140;  392.805; 1524.539
593.937; 8437.064;  383.391; 1569.720
594.519; 9595.470;  481.979; 1569.049
595.101;10711.740;  348.094; 1545.452
595.683;11388.163;  401.609; 1607.568
596.264;11768.909;  413.014; 1615.506
596.846;12007.077;  400.744; 1667.622
597.427;12531.703;  389.318; 1670.469
598.009;13335.327;  386.714; 1640.312
598.591;13724.308;  456.341; 1541.022
599.172;13320.920;  405.793; 1598.665
599.753;13951.509;  359.390; 1619.068
600.335;14677.402;  500.893; 1548.612
600.916;14631.893;  410.410; 1607.510
601.498;14884.770;  434.136; 1745.181
602.079;14957.405;  416.725; 1801.011
602.660;14529.671;  414.874; 1834.640
603.241;13949.982;  328.998; 1787.351
603.823;14146.969;  394.777; 1684.266
604.404;14433.731;  364.402; 1654.241
604.985;14951.650;  401.455; 1758.741
605.566;15508.475;  469.937; 1697.679
606.147;16281.213;  411.297; 1526.728
606.728;16921.568;  361.883; 1484.086
607.309;17347.363;  385.917; 1421.070
607.890;17380.074;  402.220; 1369.867
608.471;16941.094;  379.906; 1277.826
609.051;16951.697;  433.033; 1180.416
609.632;16693.414;  372.346; 1075.816
610.213;15995.902;  411.693; 1053.313
610.794;15827.774;  398.314;  979.442
611.374;15892.073;  438.800;  917.414
611.955;16376.980;  351.498;  819.987
612.536;16323.082;  438.963;  752.627
613.116;15463.147;  386.882;  690.799
613.697;15633.466;  383.263;  674.974
614.277;16211.360;  376.279;  663.846
614.858;15777.021;  386.020;  665.898
615.438;15188.539;  420.529;  660.712
616.019;15453.945;  497.074;  632.732
616.599;16271.813;  323.350;  551.759
617.179;17021.137;  361.926;  512.871
617.760;17436.178;  558.005;  473.655
618.340;17783.174;  411.157;  440.004
618.920;18066.641;  513.467;  429.731
619.500;18050.805;  396.617;  441.361
620.080;17333.857;  375.435;  425.202
620.660;17130.533;  375.586;  408.164
621.241;17180.449;  395.128;  387.161
621.821;17034.283;  418.053;  378.017
622.401;17180.945;  468.066;  379.188
622.980;16537.588;  352.664;  350.019
623.560;16286.249;  393.369;  336.446
624.140;15543.071;  425.268;  336.473
624.720;14238.623;  438.321;  334.974
625.300;13862.195;  367.297;  325.717
625.880;14766.817;  410.661;  308.519
626.459;15983.941;  412.112;  307.117
627.039;16674.416;  340.643;  290.890
627.619;16782.713;  539.219;  286.635
628.198;17357.004;  478.807;  282.535
628.778;18151.322;  446.655;  285.474
629.357;18470.104;  363.050;  284.103
629.937;18448.285;  396.128;  292.178
630.516;17704.074;  500.902;  290.749
631.096;16902.461;  377.050;  285.489
631.675;17342.539;  491.125;  287.022
632.254;17622.848;  384.127;  286.038
632.834;17546.781;  410.949;  276.451
633.413;18240.922;  501.045;  279.447
633.992;18542.291;  472.220;  264.508
634.571;18404.707;  448.108;  271.010
635.151;18040.453;  367.866;  277.338
635.730;17576.486;  410.105;  289.305
636.309;17188.080;  441.237;  285.306
636.888;16998.818;  449.985;  254.051
637.467;17261.354;  337.144;  230.324
638.046;18140.881;  498.141;  253.349
638.625;17839.361;  484.452;  246.866
639.204;17073.834;  428.662;  240.825
639.782;17027.539;  413.143;  261.970
640.361;15806.329;  482.874;  277.780
640.940;15186.213;  382.110;  270.101
641.519;15419.765;  439.647;  248.622
642.097;16338.481;  447.483;  239.843
642.676;17309.934;  423.953;  244.264
643.255;17856.885;  401.956;  234.985
643.833;17397.201;  448.226;  244.406
644.412;17068.719;  395.396;  244.927
644.990;16523.004;  418.399;  249.948
645.569;16421.988;  444.669;  249.569
646.147;17227.906;  468.672;  243.290
646.726;17659.223;  425.709;  249.511
647.304;18089.607;  402.579;  228.032
647.882;18132.092;  335.515;  214.552
648.461;17318.809;  434.185;  214.973
649.039;16098.261;  456.889;  223.394
649.617;15382.212;  452.492;  261.415
650.195;15276.963;  427.495;  298.736
650.773;15645.014;  392.832;  309.557
651.352;16091.397;  323.801;  297.978
651.930;14835.516;  318.671;  289.399
652.508;14748.267;  458.841;  285.620
653.086;14805.584;  434.078;  272.241
653.663;15487.702;  374.914;  265.062
654.241;16159.187;  356.318;  286.083
654.819;16696.871;  362.354;  286.404
655.397;16537.455;  376.591;  291.825
655.975;17117.006;  401.194;  299.145
656.553;17077.090;  500.364;  288.866
657.130;17022.707;  367.800;  304.087
657.708;16960.525;  430.804;  302.908
658.286;16595.943;  414.340;  294.629
658.863;16166.428;  426.177;  293.350
659.441;16232.945;  426.813;  318.671
660.018;16597.764;  413.016;  333.692
660.596;16803.947;  326.286;  335.013
661.173;17625.564;  389.056;  371.534
661.750;17447.115;  368.959;  365.155
662.328;17367.000;  444.363;  349.976
662.905;16262.784;  393.499;  332.997
663.482;14786.202;  407.269;  321.717
664.060;14102.853;  381.572;  314.438
664.637;14911.837;  456.109;  306.259
665.214;16388.756;  425.479;  314.580
665.791;16684.973;  400.882;  334.501
666.368;17338.791;  386.252;  329.222
666.945;16871.141;  452.688;  342.143
667.522;16257.126;  371.892;  370.964
668.099;16779.277;  404.828;  396.885
668.676;17336.027;  404.831;  391.706
669.253;17950.512;  504.701;  369.627
669.830;18419.363;  481.505;  360.348
670.407;17700.113;  404.108;  344.769
670.984;16443.465;  410.411;  322.890
671.560;16782.682;  455.814;  316.910
672.137;17009.066;  388.117;  322.531
672.714;16350.951;  437.121;  318.552
673.290;16384.068;  427.957;  324.473
673.867;16304.786;  379.494;  340.594
674.443;15722.671;  354.464;  319.515
675.020;16268.521;  424.067;  286.336
675.596;16779.439;  402.037;  247.557
676.173;16797.457;  347.573;  227.778
676.749;16791.242;  301.010;  224.399
677.326;16710.326;  342.280;  230.520
677.902;16388.711;  374.416;  241.841
678.478;16722.361;  349.919;  239.762
679.054;17641.813;  620.423;  248.583
679.631;17777.664;  432.093;  237.503
680.207;18869.381;  520.296;  245.924
680.783;19341.598;  316.666;  224.845
681.359;19334.949;  410.836;  209.666
681.935;19327.135;  415.505;  191.687
682.511;19022.785;  416.242;  210.008
683.087;18396.803;  441.445;  213.329
683.663;17902.688;  398.882;  216.850
684.239;18073.004;  350.018;  229.471
684.815;18391.855;  468.988;  248.792
685.390;18735.207;  529.491;  231.813
685.966;18746.391;  413.461;  221.234
686.542;18749.342;  375.298;  214.255
687.118;18564.893;  421.001;  212.276
687.693;19201.910;  443.704;  233.096
688.269;19422.596;  401.074;  246.917
688.844;18865.146;  436.044;  236.938
689.420;18270.496;  418.281;  242.059
689.995;18763.881;  510.317;  245.480
690.571;19273.932;  487.387;  244.701
691.146;19492.750;  399.657;  251.922
691.722;18786.201;  431.160;  284.743
692.297;17620.551;  383.697;  320.664
692.872;16677.303;  371.067;  313.885
693.448;17037.221;  363.270;  290.106
694.023;17046.072;  420.573;  304.327
694.598;17323.156;  416.443;  319.648
695.173;17893.674;  391.680;  323.169
695.748;18476.424;  326.783;  376.389
696.323;19060.008;  407.086;  397.610
696.898;18433.094;  476.623;  430.231
697.473;17511.678;  335.926;  454.952
698.048;17335.229;  395.396;  478.973
698.623;17537.113;  348.499;  477.094
699.198;18073.363;  421.569;  496.915
699.773;17327.914;  377.505;  490.236
700.348;16611.965;  357.509;  519.957
700.922;16616.518;  412.778;  575.678
701.497;16769.000;  407.648;  621.399
702.072;16607.484;  459.318;  664.420
702.646;16705.537;  449.388;  690.541
703.221;16309.254;  426.625;  748.862
703.795;15495.604;  360.594;  774.282
704.370;15400.890;  296.731;  799.803
704.944;15537.141;  394.334;  875.824
705.519;15945.024;  422.104;  902.945
706.093;15809.042;  368.807;  889.266
706.668;15786.427;  444.311;  903.487
707.242;15813.044;  450.080;  881.708
707.816;15580.195;  386.317;  892.329
708.390;15520.713;  405.454;  970.250
708.965;15560.897;  426.357;  984.671
709.539;15617.814;  399.660; 1026.092
710.113;15799.266;  410.530; 1067.913
710.687;15645.117;  449.766; 1166.434
711.261;15653.268;  356.003; 1190.854
711.835;15049.886;  365.506; 1197.275
712.409;14759.104;  328.643; 1308.096
712.983;15063.421;  338.346; 1461.617
713.557;14965.605;  337.683; 1611.838
714.131;14613.022;  397.819; 1554.359
714.704;14205.207;  368.289; 1520.780
715.278;14209.125;  408.759; 1575.101
715.852;14312.242;  445.995; 1689.822
716.425;14384.327;  520.432; 1829.143
716.999;14569.312;  331.435; 2008.664
717.573;14802.129;  435.738; 2000.485
718.146;15253.347;  507.875; 1914.506
718.720;15523.564;  415.978; 1818.026
719.293;15210.515;  431.881; 1734.147
719.867;15036.466;  371.085; 1716.968
720.440;15341.017;  477.755; 1918.589
721.013;14890.035;  380.458; 1975.410
721.587;14955.553;  341.994; 2073.331
722.160;15323.003;  455.064; 2357.852
722.733;15065.354;  419.534; 2657.073
723.306;14372.505;  404.204; 2703.894
723.880;13793.557;  420.674; 2549.415
724.453;13848.874;  482.310; 2414.336
725.026;14272.592;  380.414; 2298.557
725.599;14749.176;  423.417; 2168.778
726.172;14619.160;  436.120; 2106.099
726.745;14868.178;  426.923; 2253.320
727.318;14548.396;  456.693; 2404.740
727.891;14092.946;  422.696; 2680.161
728.463;14152.397;  415.466; 2838.882
729.036;14488.249;  373.903; 2755.103
729.609;14540.000;  365.373; 2731.824
730.182;14182.851;  448.843; 2855.645
730.754;13664.135;  306.879; 2946.866
731.327;14048.919;  430.849; 2840.187
731.900;14327.537;  340.786; 2647.608
732.472;14433.955;  410.456; 2473.929
733.045;14540.239;  387.159; 2445.750
733.617;14697.257;  329.229; 2511.771
734.190;14625.107;  428.232; 2581.592
734.762;14289.825;  400.902; 2710.813
735.334;13800.176;  412.272; 3005.733
735.907;13794.894;  411.542; 3154.954
736.479;14293.312;  469.678; 3171.675
737.051;14583.296;  430.848; 3217.496
737.623;14914.613;  445.751; 3246.217
738.195;14998.965;  375.954; 2985.238
738.768;14986.249;  308.891; 2727.559
739.340;14850.233;  387.394; 2666.880
739.912;14459.951;  452.164; 2769.601
740.484;13906.868;  432.401; 2731.422
741.056;13719.386;  394.970; 2963.043
741.628;13692.771;  360.507; 3361.364
742.199;13381.255;  477.377; 3641.185
742.771;12544.806;  347.947; 3932.005
743.343;12435.457;  360.417; 4319.926
743.915;12814.441;  430.787; 4706.647
744.487;13107.292;  435.456; 4874.968
745.058;12846.977;  438.360; 4616.589
745.630;12794.761;  441.496; 4253.410
746.201;12857.712;  376.899; 4056.131
746.773;12526.630;  433.369; 3772.952
747.344;12034.947;  403.406; 3642.473
747.916;12329.498;  422.642; 3752.294
748.487;12847.582;  449.846; 4106.215
749.059;12624.100;  349.649; 4457.835
749.630;12167.817;  377.119; 4366.457
750.201;12127.702;  405.889; 4600.078
750.773;11806.520;  375.092; 4658.499
751.344;11868.638;  412.462; 4609.319
751.915;11663.122;  405.532; 4526.440
752.486;11573.506;  371.235; 4536.061
753.057;12037.624;  413.405; 4383.282
753.628;12070.975;  365.275; 4296.503
754.199;11957.859;  385.978; 4383.224
754.770;12023.910;  443.748; 4653.545
755.341;11729.428;  459.018; 4831.666
755.912;11252.579;  395.754; 4831.387
756.483;11111.430;  438.857; 4735.808
757.054;11151.280;  389.961; 4685.029
757.625;10827.065;  361.131; 4994.250
758.195;10793.683;  345.634; 5051.471
758.766;11347.467;  418.904; 5317.792
759.337;11954.784;  330.474; 5646.512
759.907;12159.735;  341.910; 5404.133
760.478;12098.687;  377.280; 5090.954
761.048;12313.404;  433.950; 4871.175
761.619;12233.422;  430.920; 4589.396
762.189;12158.606;  401.090; 4171.317
762.760;12031.558;  455.526; 3872.538
763.330;11952.741;  440.663; 3832.259
763.900;11984.026;  420.233; 4150.180
764.471;11810.777;  361.269; 4529.801
765.041;11818.494;  466.706; 4715.922
765.611;12070.779;  427.909; 4681.442
766.181;12328.797;  399.712; 4717.063
766.751;11985.714;  413.315; 4710.285
767.321;11660.999;  351.385; 4450.305
767.891;11826.716;  415.122; 4274.126
768.461;11681.801;  397.025; 4215.047
769.031;11647.285;  406.562; 4173.068
769.601;11780.169;  459.531; 4174.689
770.171;12077.620;  341.035; 4229.310
770.741;12148.204;  382.638; 4352.031
771.311;11814.022;  435.608; 4336.652
771.880;11578.040;  356.811; 4300.873
772.450;11986.791;  370.614; 4387.194
773.020;12429.575;  331.117; 4220.415
773.589;12194.793;  385.954; 4075.835
774.159;11706.677;  378.624; 4105.756
774.729;11376.395;  376.760; 4114.978
775.298;11441.713;  371.997; 3693.298
775.867;11590.764;  375.500; 3343.119
776.437;11897.681;  405.770; 3062.040
777.006;11643.699;  339.440; 2927.161
777.576;11174.783;  437.543; 3046.482
778.145;10934.468;  426.646; 3230.203
778.714;10514.352;  404.083; 3253.324
779.283;10210.369;  434.386; 3129.745
779.853; 9995.120;  396.056; 2983.566
780.422; 9648.104;  406.526; 2929.887
780.991; 9536.423;  426.829; 2863.908
781.560; 9854.974;  475.832; 2948.029
782.129;10205.958;  426.069; 3074.149
782.698;10227.809;  482.472; 2893.970
783.267; 9761.993;  378.875; 2721.391
783.836; 9543.344;  411.212; 2659.712
784.404; 9613.595;  351.782; 2622.233
784.973;10064.379;  299.652; 2600.754
785.542;10274.830;  397.522; 2528.475
786.111;10361.648;  465.225; 2404.396
786.679;10096.933;  430.561; 2365.717
787.248; 9533.684;  333.731; 2498.438
787.817; 9069.401;  383.335; 2645.659
788.385; 8972.585;  460.104; 2709.280
788.954; 9257.403;  340.841; 2620.500
789.522; 9465.188;  446.078; 2625.422
790.090; 9108.838;  341.547; 2743.843
790.659; 8672.689;  386.784; 2635.163
791.227; 8614.507;  393.354; 2495.484
791.795; 8701.458;  418.024; 2413.705
792.364; 8463.742;  361.460; 2345.326
792.932; 8729.460;  429.630; 2350.447
793.500; 8894.645;  392.500; 2429.768
794.068; 8847.328;  340.437; 2513.589
794.636; 8638.479;  361.940; 2664.310
795.204; 8335.764;  324.976; 2721.431
795.772; 8162.415;  364.580; 2802.052
796.340; 8231.532;  375.283; 2847.173
796.908; 8370.283;  327.386; 2997.194
797.476; 8577.234;  347.923; 3151.615
798.044; 8705.619;  317.526; 3110.735
798.612; 8775.137;  397.196; 2931.656
799.180; 8551.321;  409.266; 2785.777
799.747; 8112.505;  406.369; 2899.098
800.315; 7729.490;  347.272; 2955.519
800.883; 7653.141;  318.375; 2948.940
801.450; 7872.758;  396.478; 2965.361
802.018; 8485.242;  417.915; 3070.582
802.585; 8697.660;  399.685; 3156.103
803.153; 8322.978;  370.655; 3199.524
803.720; 7943.896;  375.925; 3168.845
804.287; 8003.946;  386.995; 3248.366
804.855; 8048.998;  452.264; 3406.187
805.422; 7697.648;  385.801; 3430.907
805.989; 7788.700;  365.071; 3453.528
806.556; 8284.051;  364.707; 3612.649
807.124; 8732.568;  444.911; 3736.570
807.691; 8521.086;  354.214; 3770.491
808.258; 8416.604;  399.484; 3705.012
808.825; 8134.854;  451.687; 3828.733
809.392; 7936.072;  483.557; 3986.754
809.959; 7820.123;  419.560; 4410.075
810.526; 8059.607;  487.463; 4774.996
811.093; 7834.525;  468.033; 4754.217
811.659; 7458.843;  396.236; 4661.238
812.226; 7320.794;  397.673; 4672.559
812.793; 7367.545;  417.976; 4822.979
813.360; 7465.229;  395.079; 5189.800
813.926; 7579.013;  417.149; 5310.622
814.493; 7418.598;  347.153; 5414.542
815.060; 7553.515;  320.556; 5548.963
815.626; 7716.966;  345.559; 5452.284
816.193; 7921.951;  405.129; 5339.305
816.759; 7999.269;  363.365; 5544.426
817.325; 7965.752;  320.269; 5706.547
817.892; 7924.570;  441.005; 5623.468
818.458; 7606.721;  423.208; 5586.689
819.024; 7349.906;  460.978; 5647.910
819.591; 7366.657;  396.715; 5762.031
820.157; 7466.607;  344.818; 6284.452
820.723; 7543.192;  418.721; 6906.973
821.289; 7752.943;  625.725; 7086.894
821.855; 7552.794;  433.094; 7054.915
822.421; 7468.145;  375.031; 7112.035
822.987; 7409.396;  351.401; 7256.156
823.553; 7300.180;  382.504; 7538.077
824.119; 7075.465;  445.174; 7594.298
824.685; 6805.282;  464.044; 7613.619
825.251; 6609.600;  440.714; 7644.140
825.816; 6519.317;  493.750; 7720.261
826.382; 6493.102;  434.787; 8014.282
826.948; 6723.819;  442.690; 8281.503
827.513; 6624.871;  389.727; 8289.624
828.079; 6377.421;  354.663; 8587.045
828.645; 6287.639;  414.766; 8821.865
829.210; 6132.923;  344.270; 9054.486
829.776; 6184.174;  427.573; 9054.607
830.341; 6264.426;  441.543; 9415.628
830.906; 6029.276;  455.779; 9932.449
831.472; 5364.994;  368.316;10150.271
832.037; 4876.079;  447.052; 9420.391
832.602; 4742.029;  376.156; 8664.912
833.167; 5117.914;  402.892; 8491.933
833.733; 5273.865;  449.562; 8872.854
834.298; 5150.183;  352.765; 9370.575
834.863; 5037.567;  426.135; 9610.695
835.428; 4944.884;  420.238; 9655.616
835.993; 4974.769;  429.042; 9437.838
836.558; 5097.320;  438.978; 9441.459
837.123; 5175.571;  544.548; 9600.979
837.688; 4866.122;  429.385; 9798.301
838.253; 4628.906;  420.754; 9902.921
838.817; 4464.224;  387.524;10339.742
839.382; 4376.108;  477.961;10548.363
839.947; 4093.593;  414.764;10252.484
840.511; 4115.644;  487.934;10040.005
841.076; 3929.694;  316.471;10099.926
841.641; 3984.879;  430.607;10347.347
842.205; 3992.330;  419.110;10817.368
842.770; 4188.581;  505.380;11435.289
843.334; 3978.565;  390.250;12072.409
843.898; 3802.316;  394.687;12635.431
844.463; 3722.500;  480.390;12537.252
845.027; 3433.618;  377.593;12759.673
845.591; 3316.802;  450.730;12821.993
846.156; 3198.953;  379.933;12520.914
846.720; 3305.404;  445.703;12390.436
847.284; 3280.589;  414.939;12956.456
847.848; 3268.040;  435.043;13240.177
848.412; 3099.891;  406.379;13216.998
848.976; 3050.408;  480.816;13014.619
849.540; 3013.959;  527.286;12355.740
850.104; 3032.510;  482.255;12208.761
850.668; 2909.695;  326.692;12106.882
851.232; 2925.846;  339.362;11862.103
851.796; 2989.997;  399.098;11700.523
852.359; 3035.581;  449.802;12375.944
852.923; 2995.465;  463.538;13087.966
853.487; 2925.850;  443.308;13297.187
854.050; 2755.101;  277.978;13851.207
854.614; 2902.785;  385.048;14854.229
855.177; 2916.536;  425.451;15802.149
855.741; 2804.487;  432.921;16603.570
856.304; 2708.471;  459.991;16359.891
856.868; 2540.089;  360.827;14365.512
857.431; 2557.107;  411.631;13361.333
857.995; 2560.024;  393.267;14130.554
858.558; 2640.208;  433.570;14883.175
859.121; 2715.226;  444.274;15754.195
859.684; 2614.977;  419.777;15995.017
860.247; 2527.828;  411.280;15149.537
860.810; 2500.512;  387.650;14640.358
861.374; 2690.730;  531.387;15551.079
861.937; 2636.648;  359.956;16519.801
862.500; 2742.699;  379.460;16796.521
863.062; 2601.783;  366.129;16538.742
863.625; 2587.401;  429.333;16716.764
864.188; 2523.952;  385.303;17055.084
864.751; 2459.036;  389.439;17197.705
865.314; 2443.720;  410.176;17151.625
865.876; 2455.238;  458.546;17783.547
866.439; 2334.722;  442.049;19283.467
867.002; 2281.940;  524.252;20256.389
867.564; 2144.991;  470.822;20485.410
868.127; 2081.709;  426.825;20789.730
868.689; 2152.760;  426.428;21981.951
869.252; 2266.577;  469.665;23803.771
869.814; 2232.595;  370.668;24974.094
870.377; 2332.879;  417.505;24690.314
870.939; 2532.797;  597.108;23963.436
871.501; 2363.815;  424.544;25167.156
872.063; 2206.999;  299.948;26995.477
872.626; 2192.550;  325.218;27443.098
873.188; 2209.968;  423.421;26718.418
873.750; 2087.585;  402.591;26558.840
874.312; 1985.736;  386.194;26701.561
874.874; 2029.787;  501.397;27970.582
875.436; 1932.672;  453.067;29173.402
875.998; 1967.256;  480.570;30376.623
876.560; 1980.840;  455.507;32507.344
877.122; 1891.191;  377.577;34833.066
877.683; 1828.609;  445.780;36458.285
878.245; 1618.260;  394.850;37248.207
878.807; 1607.944;  437.420;36758.027
879.369; 1585.629;  347.490;35223.551
879.930; 1652.846;  365.359;33824.969
880.492; 1788.164;  478.796;34436.492
881.053; 1657.282;  375.133;37745.313
881.615; 1658.799;  381.002;41184.633
882.176; 1672.250;  406.606;42871.555
882.738; 1679.168;  445.376;41693.074
883.299; 1508.152;  324.079;40289.895
883.860; 1499.637;  331.382;39231.215
884.422; 1585.154;  443.552;38264.039
884.983; 1476.405;  361.488;37171.859
885.544; 1468.623;  418.658;35842.379
886.105; 1418.207;  409.428;34810.000
886.666; 1357.558;  391.231;34519.020
887.227; 1269.543;  334.968;33905.641
887.788; 1364.894;  426.605;34502.965
888.349; 1319.878;  353.974;34241.785
888.910; 1398.762;  455.311;33722.203
889.471; 1341.180;  429.514;32539.625
890.032; 1250.098;  412.017;31528.346
890.593; 1218.315;  443.087;32655.068
891.153; 1125.066;  401.324;33882.289
891.714; 1019.951;  344.860;33318.711
892.275; 1015.802;  354.864;31848.930
892.835; 1108.919;  458.667;30339.752
893.396; 1066.104;  453.937;30074.973
893.956;  972.021;  394.340;30338.393
894.517;  965.906;  421.043;30864.113
895.077;  959.990;  428.546;29766.734
895.638; 1026.807;  500.450;26379.557
896.198;  882.659;  356.486;24056.277
896.758;  950.076;  452.956;22961.898
897.319;  862.027;  398.059;21772.020
897.879;  843.178;  411.262;20877.539
898.439;  762.462;  335.866;19509.461
898.999;  838.247;  438.869;17297.582
899.559;  821.031;  431.972;14712.002
900.119;  727.015;  358.775;12790.224
900.679;  846.200;  489.679;11586.744
901.239;  774.917;  437.948;10776.465
901.799;  749.602;  419.118; 9691.687
902.359;  699.819;  376.388; 8725.907
902.919;  681.304;  371.258; 8305.728
903.479;  669.655;  364.361; 8172.649
904.038;  641.372;  345.465; 7913.870
904.598;  588.157;  305.534; 7262.291
905.158;  658.208;  382.171; 6609.012
905.717;  662.859;  400.174; 6236.133
906.277;  666.076;  410.444; 5829.054
906.836;  680.261;  426.814; 5396.674
907.396;  674.245;  431.251; 4964.195
907.955;  670.696;  432.354; 4528.917
908.515;  625.147;  392.224; 4223.837
909.074;  626.298;  395.927; 4023.958
909.633;  619.382;  395.663; 4065.379
910.192;  719.633;  498.900; 4066.300
910.752;  609.700;  391.767; 3971.600
911.311;  599.933;  382.400; 3839.600
911.870;  578.900;  367.300; 3684.500
912.429;  656.133;  459.167; 3635.600
912.988;  649.133;  457.667; 3689.800
913.547;  558.333;  359.367; 3737.700
914.106;  602.167;  417.600; 3740.300
914.665;  598.200;  409.033; 3604.600
915.224;  638.967;  456.700; 3358.700
915.782;  567.500;  382.233; 3188.400
916.341;  649.067;  474.000; 3091.400
916.900;  565.767;  385.133; 3044.800
917.458;  544.200;  359.667; 2888.600
918.017;  593.067;  411.167; 2818.900
918.576;  565.500;  382.367; 2838.600
919.134;  511.833;  334.833; 2880.100
919.693;  557.433;  381.600; 2996.300
920.251;  543.867;  371.233; 3183.100
920.809;  521.267;  352.667; 3247.000
921.368;  548.167;  383.667; 3156.600
921.926;  528.067;  356.967; 2964.900
922.484;  565.333;  404.933; 2846.300
923.042;  547.933;  386.033; 2890.400
923.601;  633.967;  469.600; 2987.700
924.159;  589.233;  424.600; 3049.800
924.717;  519.933;  360.533; 3087.000
925.275;  558.033;  408.000; 3093.400
925.833;  475.867;  320.600; 3182.400
926.391;  593.467;  433.233; 3397.900
926.949;  543.233;  379.300; 3575.400
927.506;  577.733;  416.333; 3713.400
928.064;  556.433;  385.633; 3871.300
928.622;  554.900;  392.033; 4092.800
929.180;  509.100;  340.433; 4499.300
929.737;  496.800;  333.567; 4813.200
930.295;  582.900;  421.833; 5084.100
930.853;  528.367;  358.500; 5185.000
931.410;  511.000;  340.700; 5313.100
931.968;  596.133;  432.900; 5339.600
932.525;  573.533;  402.267; 5399.900
933.082;  495.067;  335.967; 5457.500
933.640;  589.167;  411.667; 5692.900
934.197;  556.633;  378.467; 5821.200
934.754;  553.633;  380.133; 5617.900
935.312;  532.333;  358.033; 5512.400
935.869;  646.200;  472.967; 5582.400
936.426;  537.200;  369.467; 5650.100
936.983;  553.700;  381.833; 5657.400
937.540;  518.567;  340.200; 5564.300
938.097;  592.067;  415.000; 5574.000
938.654;  565.367;  376.900; 5665.900
939.211;  597.433;  410.433; 5931.600
939.768;  571.233;  391.667; 6153.600
940.324;  564.867;  379.133; 6397.600
940.881;  540.100;  358.067; 6454.200
941.438;  637.133;  456.500; 6206.900
941.995;  618.533;  433.467; 6003.900
942.551;  532.033;  343.800; 6228.300
943.108;  582.833;  400.467; 6603.500
943.664;  538.833;  346.000; 7188.100
944.221;  697.533;  501.467; 7579.900
944.777;  540.467;  338.500; 7658.100
945.334;  552.233;  350.667; 7670.400
945.890;  594.267;  394.300; 7525.100
946.446;  589.067;  394.533; 7261.500
947.003;  610.867;  408.767; 6949.200
947.559;  677.333;  485.033; 6773.100
948.115;  646.400;  448.033; 6668.400
948.671;  613.600;  409.933; 6488.400
949.227;  536.933;  328.733; 6236.600
949.783;  530.467;  320.900; 6008.900
950.339;  618.567;  421.133; 5934.100
950.895;  645.633;  442.667; 5933.500
951.451;  573.367;  376.367; 6074.700
952.007;  620.533;  423.667; 6066.400
952.563;  570.067;  379.633; 5884.100
953.118;  550.967;  368.967; 5733.800
953.674;  577.733;  387.100; 5734.300
954.230;  583.167;  397.600; 6039.700
954.785;  584.900;  390.133; 6383.500
955.341;  626.533;  431.767; 6568.200
955.897;  515.000;  318.533; 6488.600
956.452;  605.333;  408.600; 6239.200
957.008;  699.333;  506.300; 5954.600
957.563;  648.367;  453.800; 5816.700
958.118;  549.300;  362.033; 5828.200
958.674;  596.833;  402.500; 5717.400
959.229;  643.333;  458.500; 5506.800
959.784;  520.700;  329.600; 5292.200
960.339;  639.233;  456.900; 5101.900
960.894;  610.100;  430.767; 5093.200
961.449;  532.633;  350.767; 5227.900
962.004;  792.233;  612.867; 5349.300
962.559;  537.333;  362.333; 5514.900
963.114;  454.600;  277.600; 5717.300
963.669;  572.400;  400.667; 5841.400
964.224;  542.133;  362.667; 5805.900
964.779;  507.600;  339.700; 5723.400
965.334;  643.100;  478.467; 5779.500
965.888;  521.500;  366.033; 5948.500
966.443;  584.933;  437.900; 6344.200
966.998;  471.967;  320.033; 6666.300
967.552;  537.233;  397.733; 6710.100
968.107;  501.667;  362.067; 6593.500
968.661;  547.000;  406.600; 6344.100
969.216;  497.833;  365.067; 6062.400
969.770;  549.867;  408.800; 5785.500
970.324;  550.133;  409.633; 5426.800
970.879;  571.400;  438.733; 5016.800
971.433;  584.000;  436.900; 4904.500
971.987;  538.900;  399.100; 4991.000
972.541;  554.900;  417.867; 4978.500
973.095;  615.733;  486.000; 4832.000
973.649;  472.967;  332.100; 4767.900
974.203;  497.833;  356.433; 4881.200
974.757;  513.267;  367.767; 4969.500
975.311;  528.200;  386.967; 4953.000
975.865;  534.733;  394.600; 4884.300
976.419;  509.233;  376.067; 4739.800
976.973;  508.900;  369.367; 4698.100
977.526;  577.933;  451.800; 4631.100
978.080;  469.067;  331.567; 4621.600
978.634;  556.767;  432.200; 4650.200
979.187;  547.300;  417.767; 4669.200
979.741;  636.833;  509.633; 4658.000
980.294;  467.633;  340.700; 4579.100
980.848;  417.400;  296.033; 4452.800
981.401;  497.567;  368.200; 4271.900
981.955;  517.633;  391.333; 4087.800
982.508;  443.500;  325.633; 3973.900
983.061;  568.133;  446.067; 3928.600
983.615;  473.900;  360.967; 3851.200
984.168;  459.067;  340.200; 3734.800
984.721;  539.800;  422.800; 3628.300
985.274;  525.300;  412.633; 3564.300
985.827;  509.367;  393.067; 3558.100
986.380;  426.700;  314.167; 3559.900
986.933;  529.100;  423.833; 3688.700
987.486;  531.467;  415.267; 3778.500
988.039;  523.533;  414.167; 3559.900
988.591;  549.600;  437.767; 3219.300
989.144;  438.667;  339.533; 2902.900
989.697;  459.900;  357.067; 2722.600
990.250;  530.133;  424.167; 2618.000
990.802;  462.167;  353.700; 2523.900
991.355;  618.600;  521.233; 2436.500
991.907;  540.917;  441.467; 2412.200
992.460;  463.233;  361.700; 2387.900
993.012;  465.467;  366.333; 2365.800
993.565;  433.500;  341.900; 2311.100
994.117;  607.633;  524.100; 2308.700
994.669;  430.733;  343.333; 2249.300
995.221;  498.133;  413.333; 2158.100
995.774;  489.833;  410.167; 2085.600
996.326;  463.133;  384.967; 2068.100
996.878;  537.033;  454.533; 1975.300
997.430;  444.700;  351.200; 1929.500
997.982;  475.200;  390.800; 1861.900
998.534;  472.067;  385.033; 1830.200
999.086;  465.233;  384.467; 1823.200
999.638;  412.000;  335.667; 1815.000
1000.190;  449.867;  366.200; 1796.600
1000.741;  477.267;  393.600; 1738.800
1001.293;  428.567;  357.200; 1666.200
1001.845;  427.000;  355.033; 1566.500
1002.396;  477.300;  399.333; 1471.900
1002.948;  472.200;  402.167; 1398.000
1003.500;  458.533;  388.033; 1356.500
1004.051;  602.300;  532.300; 1294.200
1004.603;  523.300;  451.533; 1190.000
1005.154;  387.700;  320.100; 1063.900
1005.705;  474.267;  405.700;  968.300
1006.257;  462.567;  395.333;  889.800
1006.808;  451.167;  384.400;  801.500
1007.359;  517.733;  460.567;  716.400
1007.910;  429.100;  362.067;  639.100
1008.461;  494.233;  429.700;  561.600
1009.013;  385.667;  329.067;  500.400
1009.564;  530.633;  478.833;  476.100
1010.115;  388.033;  330.767;  431.600
1010.665;  401.400;  346.767;  409.300
1011.216;  445.900;  394.800;  399.700
1011.767;  465.567;  407.800;  388.100
1012.318;  489.033;  435.767;  381.400
1012.869;  447.933;  398.267;  375.400
1013.419;  402.667;  340.933;  357.600
1013.970;  452.833;  394.100;  358.300
1014.521;  402.200;  354.733;  344.100
1015.071;  445.400;  395.700;  322.800
1015.622;  418.900;  367.733;  320.600
1016.172;  394.300;  347.033;  301.700
1016.723;  404.533;  350.367;  289.800
1017.273;  402.400;  344.400;  287.600
1017.823;  432.533;  376.933;  278.700
1018.374;  405.500;  351.667;  274.400
1018.924;  479.233;  424.033;  283.200
1019.474;  478.433;  425.667;  278.500
1020.024;  439.233;  389.867;  274.700
1020.574;  490.433;  438.233;  272.700
1021.124;  452.367;  400.767;  278.400
1021.674;  371.633;  315.367;  269.200
1022.224;  481.033;  423.400;  267.800
1022.774;  448.367;  400.700;  258.100
1023.324;  508.300;  456.967;  260.000
1023.874;  600.300;  549.633;  260.700
1024.423;  410.467;  363.267;  252.700
1024.973;  405.400;  358.933;  234.700
1025.523;  411.733;  365.800;  226.500
1026.072;  407.033;  355.467;  225.500
1026.622;  455.833;  399.133;  210.100
1027.172;  483.767;  435.167;  213.000
1027.721;  396.167;  351.433;  207.700
1028.270;  448.133;  401.900;  205.400
1028.820;  426.300;  380.533;  201.000
1029.369;  412.133;  367.467;  201.000
1029.918;  434.533;  385.900;  198.400
1030.468;  373.267;  325.833;  199.200
1031.017;  423.933;  381.633;  192.600
1031.566;  405.133;  363.400;  197.400
1032.115;  467.567;  425.267;  188.300
1032.664;  395.900;  354.600;  193.700
1033.213;  499.100;  446.433;  191.900
1033.762;  427.167;  377.967;  184.500
1034.311;  459.100;  412.700;  194.300
1034.860;  465.433;  421.533;  192.300
1035.408;  492.433;  447.733;  182.600
1035.957;  488.300;  440.967;  173.900
1036.506;  351.200;  304.100;  185.200
1037.055;  576.667;  532.100;  182.500
1037.603;  450.867;  402.633;  167.600
1038.152;  356.400;  309.400;  168.200
1038.700;  387.467;  340.400;  169.600
1039.249;  458.600;  417.500;  164.300
1039.797;  427.767;  387.233;  169.600
1040.345;  478.000;  433.367;  167.100
1040.894;  422.167;  371.300;  164.400
1041.442;  425.867;  384.767;  158.300
1041.990;  368.700;  331.267;  160.000
1042.538;  361.200;  312.367;  156.800
1043.087;  376.700;  336.367;  146.600
1043.635;  454.367;  412.967;  162.400
1044.183;  392.000;  353.500;  156.300
1044.731;  387.267;  342.567;  158.100
1045.279;  454.200;  413.567;  154.500
1045.827;  617.033;  573.967;  146.200
1046.374;  346.033;  299.167;  154.000
1046.922;  398.633;  358.967;  149.000
1047.470;  469.767;  427.433;  154.900
1048.018;  438.767;  394.800;  148.400
1048.565;  488.400;  444.500;  146.300
1049.113;  370.000;  329.500;  156.100
1049.660;  419.533;  375.867;  154.300
1050.208;  455.633;  413.500;  149.400
1050.755;  406.900;  364.900;  157.500
1051.303;  462.833;  426.667;  157.700
1051.850;  430.933;  390.100;  152.800
1052.397;  310.100;  271.900;  146.300
1052.945;  417.800;  375.400;  149.500
1053.492;  503.733;  471.667;  149.300
1054.039;  491.000;  457.767;  163.100
1054.586;  369.533;  347.000;  150.400
1055.133;  468.933;  428.800;  153.500
1055.680;  439.167;  395.833;  155.600
1056.227;  356.367;  317.867;  148.700
1056.774;  541.467;  503.267;  151.500
1057.321;  347.200;  309.267;  143.700
1057.868;  441.600;  399.467;  145.300
1058.415;  439.267;  401.933;  153.500
1058.961;  459.467;  417.933;  149.900
1059.508;  429.967;  392.800;  147.300
1060.055;  392.700;  351.033;  151.000
1060.601;  424.333;  379.200;  148.700
1061.148;  422.400;  380.600;  153.800
1061.694;  396.600;  364.667;  150.500
1062.241;  400.200;  360.333;  149.100
1062.787;  453.467;  410.800;  153.000
1063.334;  556.333;  513.867;  153.200
1063.880;  455.000;  420.267;  148.400
1064.426;  484.567;  451.600;  149.200
1064.972;  399.800;  366.667;  156.400
1065.518;  377.700;  345.300;  144.700
1066.065;  425.667;  386.267;  139.400
1066.611;  402.633;  371.200;  139.300
1067.157;  432.233;  397.733;  138.400
1067.703;  448.933;  417.400;  142.700
1068.249;  410.533;  378.867;  136.700
1068.794;  427.833;  394.133;  139.400
1069.340;  385.400;  354.500;  142.700
1069.886;  400.067;  364.600;  135.600
1070.432;  353.300;  328.600;  133.400
1070.977;  409.767;  371.933;  138.200
1071.523;  383.000;  346.267;  132.400
1072.068;  387.333;  358.633;  132.700
1072.614;  350.033;  317.667;  127.000
1073.160;  472.933;  435.933;  131.300
1073.705;  386.000;  351.367;  135.700
1074.250;  374.033;  339.467;  133.000
1074.796;  441.900;  412.067;  138.000
1075.341;  457.033;  420.333;  137.300
1075.886;  395.167;  363.200;  134.300
1076.431;  445.733;  408.600;  138.200
1076.976;  429.367;  404.467;  132.200
1077.521;  395.333;  359.500;  138.900
1078.067;  386.000;  356.133;  128.600
1078.612;  459.533;  422.200;  138.900
1079.156;  407.100;  369.767;  128.900
1079.701;  466.967;  437.200;  129.700
1080.246;  471.800;  442.000;  128.600
1080.791;  422.367;  392.800;  122.600
1081.336;  452.100;  418.900;  122.000
1081.880;  443.500;  408.800;  123.900
1082.425;  380.300;  351.200;  120.600
1082.970;  485.467;  452.833;  124.500
1083.514;  398.300;  369.400;  112.000
1084.059;  399.667;  365.167;  120.700
1084.603;  377.700;  349.000;  116.000
1085.147;  435.900;  407.600;  116.300
1085.692;  491.433;  458.200;  108.200
1086.236;  337.167;  306.800;  114.600
1086.780;  511.333;  479.933;  118.900
1087.325;  441.933;  411.767;  120.400
1087.869;  418.367;  384.667;  110.500
1088.413;  479.200;  450.600;  114.000
1088.957;  359.833;  330.000;  114.300
1089.501;  522.333;  488.833;  114.600
1090.045;  496.433;  461.333;  114.200
1090.589;  381.667;  354.333;  105.500
1091.133;  464.267;  428.267;  111.800
1091.676;  400.667;  371.467;  110.900
1092.220;  407.300;  375.600;  110.100
1092.764;  485.700;  459.100;  108.100
1093.307;  455.167;  423.833;  109.900
1093.851;  373.200;  335.600;  107.500
1094.395;  468.033;  438.200;   96.200
1094.938;  433.200;  398.667;   99.300
1095.482;  376.300;  343.733;   97.700
1096.025;  485.267;  459.767;   84.900
1096.568;  538.467;  513.500;   88.500
1097.112;  341.167;  310.867;   95.700
1097.655;  406.133;  372.633;   97.300
1098.198;  406.367;  373.400;   92.600
1098.741;  418.933;  392.000;   91.800
1099.285;  442.800;  417.433;   88.000
1099.828;  288.367;  260.733;   91.700
1100.371;  415.833;  387.200;   89.900
1100.914;  465.067;  434.033;   91.500
1101.457;  464.133;  436.300;   88.100
1101.999;  388.800;  356.733;   86.400
1102.542;  437.067;  412.200;   90.800
1103.085;  449.300;  422.433;   95.400
1103.628;  524.933;  497.733;   97.700
1104.170;  394.600;  370.933;   84.000
1104.713;  441.867;  406.567;   93.900
1105.256;  376.800;  349.367;   93.000
1105.798;  335.400;  308.400;   85.600
1106.341;  500.167;  472.167;   87.100
1106.883;  350.933;  320.500;   85.200
1107.425;  456.400;  426.200;   85.000
1107.968;  413.667;  390.500;   84.300
1108.510;  469.833;  443.500;   88.200
1109.052;  415.833;  397.067;   86.600
1109.594;  377.033;  351.400;   79.400
1110.136;  439.667;  413.033;   81.700
1110.679;  429.200;  397.800;   75.500
1111.221;  407.700;  380.933;   88.500
1111.763;  374.767;  348.200;   87.700
1112.304;  366.267;  342.800;   89.700
1112.846;  454.967;  427.133;   81.900
1113.388;  650.867;  629.167;   86.400
1113.930;  470.600;  444.067;   84.700
1114.472;  414.367;  385.833;   78.900
1115.013;  372.733;  341.267;   78.100
1115.555;  397.633;  380.600;   84.900
1116.097;  390.367;  359.133;   79.200
1116.638;  472.600;  441.733;   83.700
1117.180;  452.367;  428.567;   85.500
1117.721;  385.367;  362.733;   78.800
1118.262;  462.333;  438.667;   77.400
1118.804;  438.433;  405.200;   81.400
1119.345;  389.367;  368.600;   77.800
1119.886;  478.467;  455.000;   81.200
1120.427;  398.267;  372.933;   77.200
1120.969;  407.800;  385.600;   75.200
1121.510;  379.267;  353.567;   80.900
1122.051;  500.200;  473.000;   77.300
1122.592;  447.733;  425.333;   73.300
1123.133;  366.233;  347.133;   90.100
1123.673;  486.267;  463.567;   75.000
1124.214;  414.900;  391.600;   80.600
1124.755;  441.567;  415.133;   78.000
1125.296;  421.200;  397.300;   77.500
1125.836;  474.633;  446.667;   80.400
1126.377;  409.900;  380.900;   75.600
1126.918;  419.233;  397.167;   78.900
1127.458;  423.200;  399.333;   78.000
1127.999;  447.900;  424.367;   76.100
1128.539;  470.433;  445.933;   81.400
1129.079;  431.767;  407.767;   77.400
1129.620;  378.633;  355.933;   68.000
1130.160;  359.900;  341.400;   77.500
1130.700;  437.833;  414.767;   76.300
1131.240;  434.767;  413.600;   66.800
1131.781;  420.167;  400.667;   70.600
1132.321;  409.133;  380.733;   77.200
1132.861;  378.733;  357.267;   70.400
1133.401;  404.633;  378.367;   68.700
1133.941;  429.767;  405.533;   68.500
1134.481;  414.433;  385.733;   75.900
1135.020;  412.733;  392.900;   66.600
1135.560;  462.833;  439.233;   68.100
1136.100;  339.000;  315.133;   64.900
1136.640;  342.900;  322.667;   72.500
1137.179;  359.367;  342.733;   69.700
1137.719;  413.633;  389.533;   68.400
1138.258;  395.367;  377.700;   67.000
1138.798;  449.133;  429.133;   69.600
1139.337;  318.000;  300.733;   64.000
1139.877;  438.833;  418.133;   64.500
1140.416;  608.100;  588.033;   74.900
1140.955;  360.333;  331.367;   67.200
1141.494;  459.767;  434.300;   69.900
1142.034;  394.900;  377.467;   59.100
1142.573;  448.367;  422.867;   65.900
1143.112;  377.700;  349.200;   70.600
1143.651;  361.567;  343.267;   67.100
1144.190;  470.933;  454.700;   56.700
1144.729;  405.133;  389.333;   61.800
1145.267;  394.167;  367.233;   62.500
1145.806;  434.933;  409.133;   68.500
1146.345;  439.000;  409.467;   58.300
1146.884;  431.867;  406.600;   63.100
1147.422;  360.833;  334.233;   54.800
1147.961;  489.867;  467.400;   67.600
1148.500;  467.267;  441.033;   64.700
1149.038;  443.700;  412.300;   61.000
1149.577;  479.133;  457.667;   65.100
1150.115;  301.700;  279.100;   58.100
1150.653;  413.333;  391.267;   60.500
1151.192;  380.067;  355.000;   56.600
1151.730;  450.567;  429.700;   62.300
1152.268;  396.400;  377.700;   55.500
1152.806;  390.300;  370.033;   58.200
1153.344;  387.767;  372.433;   55.000
1153.882;  409.900;  389.233;   64.200
1154.421;  318.533;  292.567;   60.300
1154.958;  411.500;  387.233;   58.100
1155.496;  443.233;  426.200;   55.800
1156.034;  494.267;  476.100;   61.000
1156.572;  458.333;  434.467;   56.200
1157.110;  317.167;  300.300;   53.200
1157.647;  472.633;  448.900;   57.400
1158.185;  386.767;  369.133;   55.500
1158.723;  342.400;  326.500;   58.000
1159.260;  477.333;  460.033;   53.700
1159.798;  458.433;  434.733;   51.700
1160.335;  424.300;  406.900;   59.600

