gmr_left
Integration time [ms]: 300.000
Averaging Nr. [scans]: 30
Smoothing Nr. [pixels]: 0
Data measured with spectrometer [name]: 7414430SP
Wave   ;Sample   ;Dark     ;Reference
[nm]   ;[counts] ;[counts] ;[counts] 

288.544;  468.214;  409.495;    6.613
289.143;  391.121;  334.741;   14.216
289.742;  498.418;  438.471;   11.816
290.341;  474.162;  418.127;   -4.936
290.940;  433.693;  374.571;    0.852
291.538;  541.766;  486.444;    1.792
292.137;  475.441;  414.837;    6.262
292.736;  609.962;  548.261;    8.164
293.335;  439.342;  380.904;   -6.418
293.934;  471.997;  413.615;   -2.904
294.532;  653.408;  601.463;   -5.162
295.131;  509.740;  463.325;  -10.283
295.730;  495.881;  447.004;  -16.141
296.328;  476.831;  435.754;  -14.740
296.927;  475.419;  428.130;   -8.768
297.525;  476.060;  423.459;  -15.255
298.124;  381.297;  340.248;  -22.063
298.722;  464.818;  419.149;  -14.796
299.321;  423.334;  377.482;  -10.466
299.919;  456.754;  410.080;  -10.979
300.518;  418.342;  368.337;  -12.077
301.116;  423.941;  370.383;  -13.509
301.715;  441.375;  390.100;  -11.939
302.313;  428.795;  382.345;  -15.424
302.911;  451.805;  409.207;  -19.833
303.509;  585.168;  543.847;   -3.567
304.108;  472.917;  423.019;   -9.553
304.706;  497.773;  452.293;   -8.582
305.304;  498.099;  460.774;  -12.348
305.902;  483.161;  441.800;  -14.411
306.500;  447.942;  404.342;   -7.194
307.098;  466.742;  424.328;   -9.322
307.696;  492.728;  457.530;  -19.192
308.294;  456.398;  419.528;   -9.736
308.892;  475.234;  441.888;  -15.482
309.490;  436.862;  397.807;  -14.107
310.088;  498.880;  463.266;  -15.862
310.686;  521.744;  480.333;  -10.781
311.284;  484.040;  445.100;  -14.878
311.882;  458.690;  422.933;   -9.948
312.480;  424.275;  400.225;  -15.503
313.078;  511.616;  475.435;  -17.262
313.675;  430.142;  394.542;   -3.694
314.273;  514.775;  482.288;  -18.246
314.871;  361.040;  328.213;  -15.190
315.468;  410.205;  369.507;  -12.633
316.066;  437.323;  402.504;   -5.765
316.664;  409.726;  380.819;  -14.317
317.261;  594.854;  553.581;   -8.677
317.859;  498.700;  465.282;  -11.804
318.456;  534.235;  506.913;   -3.107
319.054;  501.574;  472.927;   -3.062
319.651;  490.609;  461.622;   -6.706
320.249;  529.209;  496.555;   -5.206
320.846;  452.957;  426.783;   -4.679
321.443;  534.269;  514.791;   -7.920
322.041;  524.756;  499.737;  -14.105
322.638;  444.933;  424.051;   -6.263
323.235;  421.695;  394.945;   -7.424
323.833;  478.593;  451.307;  -14.765
324.430;  378.208;  353.447;  -10.550
325.027;  575.069;  544.441;   -9.951
325.624;  399.087;  367.891;   -3.712
326.221;  431.780;  398.524;   -9.368
326.818;  532.552;  500.113;   -5.637
327.415;  467.758;  435.885;   -6.699
328.012;  429.029;  386.964;   -5.713
328.609;  455.412;  424.864;   -9.983
329.206;  491.765;  454.999;   -7.154
329.803;  458.564;  417.719;   -1.682
330.400;  430.812;  389.434;   -2.741
330.997;  515.169;  468.961;   -4.339
331.594;  496.935;  450.395;  -10.278
332.191;  446.907;  403.452;   -6.967
332.787;  528.394;  483.017;   -0.480
333.384;  466.113;  428.015;  -10.333
333.981;  507.484;  466.840;  -19.900
334.578;  423.117;  383.913;  -19.816
335.174;  439.527;  399.076;  -15.844
335.771;  524.595;  482.567;  -12.670
336.367;  431.154;  393.669;  -21.124
336.964;  494.671;  453.616;  -18.226
337.561;  453.353;  406.390;  -13.311
338.157;  577.834;  537.645;  -19.006
338.754;  491.651;  465.774;  -19.418
339.350;  441.192;  404.223;  -29.433
339.946;  477.236;  442.621;  -16.622
340.543;  532.286;  495.432;  -16.744
341.139;  442.651;  410.435;  -21.841
341.735;  492.320;  452.920;  -25.012
342.332;  425.755;  394.848;  -19.156
342.928;  500.688;  465.203;  -20.443
343.524;  473.486;  446.876;  -14.397
344.120;  461.999;  432.262;  -20.654
344.716;  443.395;  413.833;   -5.730
345.313;  501.090;  480.927;  -10.929
345.909;  370.663;  342.011;  -19.843
346.505;  468.753;  436.364;  -19.645
347.101;  519.268;  490.958;   -9.618
347.697;  503.387;  467.365;  -10.305
348.293;  377.579;  344.251;  -23.189
348.889;  470.546;  438.836;  -18.418
349.485;  423.001;  384.594;  -10.476
350.081;  489.816;  454.803;  -17.320
350.676;  431.031;  395.638;  -21.088
351.272;  515.653;  474.538;  -12.821
351.868;  488.123;  454.235;  -13.165
352.464;  457.650;  419.565;  -12.464
353.059;  402.309;  371.751;  -22.547
353.655;  500.394;  462.550;   -9.379
354.251;  483.549;  445.226;   -8.266
354.846;  470.923;  434.234;  -17.705
355.442;  477.448;  439.506;   -9.317
356.038;  469.777;  437.316;  -11.049
356.633;  456.515;  423.492;  -10.006
357.229;  459.277;  425.098;  -13.120
357.824;  442.262;  410.071;  -15.647
358.420;  424.834;  388.980;  -19.204
359.015;  434.589;  398.905;  -12.263
359.610;  491.075;  455.161;  -16.421
360.206;  376.639;  339.469;  -20.074
360.801;  405.382;  368.207;  -13.277
361.396;  463.336;  425.487;   -5.822
361.992;  418.795;  388.404;  -11.247
362.587;  420.905;  385.521;  -21.502
363.182;  432.449;  399.301;   -7.461
363.777;  471.138;  436.726;   -8.719
364.372;  476.346;  439.716;  -14.590
364.967;  433.411;  397.056;  -15.145
365.563;  529.122;  487.956;   -7.192
366.158;  436.416;  399.566;   -5.662
366.753;  417.804;  374.929;   -8.378
367.348;  481.532;  442.336;  -14.990
367.942;  440.887;  403.765;   -6.005
368.537;  482.411;  450.125;  -11.504
369.132;  452.753;  411.847;  -10.576
369.727;  401.549;  370.647;  -12.573
370.322;  365.932;  329.318;  -11.560
370.917;  458.932;  422.304;  -10.388
371.511;  568.624;  526.876;   -9.161
372.106;  507.744;  477.156;  -10.245
372.701;  367.373;  333.029;  -10.158
373.296;  569.935;  531.224;   -4.719
373.890;  416.705;  378.521;  -11.802
374.485;  446.826;  420.279;  -13.500
375.079;  489.078;  450.906;   -6.276
375.674;  537.907;  500.215;   -0.447
376.268;  450.728;  416.988;   -6.916
376.863;  367.171;  339.418;  -14.483
377.457;  430.372;  401.520;   -6.903
378.052;  509.055;  466.935;   -9.844
378.646;  493.751;  457.469;  -12.601
379.240;  473.764;  443.092;  -14.715
379.835;  415.941;  383.209;  -12.331
380.429;  366.597;  326.727;   -9.074
381.023;  520.942;  486.447;   -1.729
381.617;  439.663;  412.160;  -13.714
382.212;  448.957;  421.010;   -7.060
382.806;  501.272;  474.220;   -2.303
383.400;  449.225;  415.320;   -0.815
383.994;  435.737;  409.675;   -4.429
384.588;  461.905;  433.890;   -6.261
385.182;  483.047;  451.715;    0.008
385.776;  477.001;  444.976;   -3.247
386.370;  449.940;  425.010;   -1.030
386.964;  463.045;  428.755;   -1.346
387.558;  392.419;  358.906;   -2.020
388.152;  459.083;  426.062;   -5.345
388.745;  555.641;  525.538;   -2.774
389.339;  509.449;  484.952;    3.510
389.933;  460.530;  435.917;    5.280
390.527;  583.296;  556.134;    2.610
391.120;  393.216;  367.345;   -7.914
391.714;  473.891;  450.473;   -1.903
392.308;  529.470;  501.397;    6.023
392.901;  429.494;  405.276;   -4.103
393.495;  394.278;  373.438;    3.284
394.089;  521.614;  492.192;    8.655
394.682;  475.851;  449.791;    2.312
395.275;  488.374;  466.091;   -7.402
395.869;  449.932;  425.698;   -1.072
396.462;  417.495;  391.306;    6.454
397.056;  525.828;  500.706;    8.494
397.649;  500.088;  479.805;    1.599
398.242;  486.656;  462.999;    3.153
398.836;  522.075;  498.021;   11.395
399.429;  423.039;  400.852;   14.695
400.022;  448.535;  432.501;    3.627
400.615;  553.073;  538.132;    8.383
401.208;  465.384;  446.863;   13.295
401.802;  473.107;  454.579;    6.211
402.395;  463.202;  447.734;    7.227
402.988;  466.796;  451.215;    2.700
403.581;  432.275;  413.103;   11.225
404.174;  467.132;  453.490;   18.922
404.767;  433.602;  415.270;   14.169
405.360;  422.010;  400.695;    8.999
405.953;  513.214;  490.897;   13.138
406.545;  493.539;  476.388;   13.937
407.138;  411.171;  394.439;   10.869
407.731;  412.558;  400.391;   12.768
408.324;  447.272;  427.127;   22.921
408.917;  461.447;  443.448;   15.308
409.509;  506.310;  493.496;   12.239
410.102;  429.829;  419.217;   13.741
410.695;  454.000;  431.403;   20.249
411.287;  406.440;  386.549;   21.793
411.880;  393.206;  381.535;   22.965
412.472;  409.337;  402.894;   15.082
413.065;  428.976;  413.469;   23.423
413.657;  386.401;  371.883;   21.077
414.250;  434.175;  420.377;   12.349
414.842;  455.360;  441.751;   20.423
415.434;  383.673;  370.604;   19.906
416.027;  432.816;  421.460;   26.574
416.619;  486.354;  469.417;   15.705
417.211;  397.608;  385.081;   17.791
417.804;  415.980;  402.209;   30.244
418.396;  403.162;  399.311;   24.177
418.988;  442.891;  430.319;   24.904
419.580;  369.779;  367.521;   20.692
420.172;  353.904;  353.384;   22.275
420.764;  459.933;  439.276;   26.773
421.356;  426.014;  416.954;   25.731
421.948;  452.132;  451.479;   24.876
422.540;  453.761;  448.554;   30.042
423.132;  394.024;  389.159;   32.728
423.724;  363.959;  364.076;   21.317
424.316;  412.151;  401.037;   29.359
424.908;  387.441;  384.026;   28.798
425.500;  435.051;  420.493;   30.512
426.092;  431.207;  415.597;   26.741
426.683;  462.440;  455.610;   27.029
427.275;  424.193;  418.767;   32.611
427.867;  440.297;  436.346;   33.796
428.458;  489.367;  475.212;   34.453
429.050;  457.783;  448.830;   34.255
429.642;  498.779;  490.604;   39.082
430.233;  363.911;  356.763;   41.138
430.825;  489.162;  482.287;   31.581
431.416;  466.147;  457.128;   35.755
432.008;  429.181;  411.713;   40.566
432.599;  431.104;  421.497;   46.322
433.190;  419.327;  410.745;   46.897
433.782;  383.077;  379.813;   41.069
434.373;  588.903;  589.623;   48.778
434.964;  384.308;  379.395;   50.078
435.556;  416.732;  405.856;   52.381
436.147;  499.007;  493.316;   38.251
436.738;  455.575;  455.759;   47.237
437.329;  474.196;  462.759;   61.304
437.920;  432.518;  429.359;   48.611
438.511;  354.299;  358.172;   44.910
439.103;  402.712;  394.743;   62.404
439.694;  438.851;  435.667;   63.075
440.285;  500.063;  497.775;   61.033
440.876;  564.855;  554.861;   57.249
441.466;  359.851;  355.217;   61.306
442.057;  423.408;  421.853;   65.773
442.648;  485.026;  479.009;   65.676
443.239;  396.746;  391.774;   55.963
443.830;  457.725;  447.867;   69.631
444.421;  420.586;  409.282;   69.943
445.011;  438.222;  440.130;   72.791
445.602;  481.481;  475.218;   68.848
446.193;  301.716;  289.880;   80.044
446.783;  405.729;  390.851;   82.599
447.374;  439.556;  440.444;   77.419
447.964;  457.743;  446.408;   72.605
448.555;  530.601;  527.827;   82.041
449.145;  414.220;  411.627;   76.230
449.736;  522.835;  512.600;   75.545
450.326;  465.538;  451.236;   67.945
450.917;  427.655;  415.408;   77.598
451.507;  371.524;  362.493;   68.027
452.097;  482.584;  473.860;   67.771
452.688;  470.247;  462.279;   62.884
453.278;  338.514;  338.493;   65.512
453.868;  507.794;  503.912;   71.796
454.458;  406.435;  394.953;   60.956
455.048;  450.088;  437.873;   62.356
455.639;  338.187;  334.515;   58.782
456.229;  450.202;  440.675;   65.209
456.819;  476.275;  466.677;   61.466
457.409;  486.091;  481.128;   59.967
457.999;  461.734;  449.881;   58.093
458.589;  423.156;  417.908;   59.536
459.179;  448.376;  437.091;   55.994
459.769;  371.450;  372.249;   43.624
460.358;  499.505;  488.228;   46.978
460.948;  423.393;  408.154;   49.821
461.538;  400.611;  391.000;   54.678
462.128;  402.169;  396.875;   49.309
462.717;  428.804;  423.321;   52.774
463.307;  431.094;  423.256;   48.101
463.897;  395.439;  384.542;   45.606
464.486;  527.318;  524.293;   45.010
465.076;  442.892;  441.649;   45.519
465.666;  385.679;  374.268;   50.058
466.255;  490.996;  474.393;   44.463
466.845;  396.775;  387.211;   41.206
467.434;  441.684;  424.688;   44.847
468.023;  390.692;  377.718;   46.760
468.613;  431.856;  422.941;   39.736
469.202;  383.880;  369.407;   46.461
469.791;  438.233;  429.932;   47.944
470.381;  445.664;  434.973;   47.529
470.970;  421.747;  406.861;   43.773
471.559;  440.387;  428.056;   41.646
472.148;  392.072;  379.588;   37.914
472.738;  453.062;  441.906;   48.071
473.327;  363.047;  347.159;   47.871
473.916;  440.882;  427.635;   37.716
474.505;  445.532;  434.219;   40.256
475.094;  489.582;  471.223;   43.269
475.683;  474.793;  454.217;   36.499
476.272;  428.945;  416.541;   44.542
476.861;  404.177;  387.399;   42.297
477.449;  420.077;  400.102;   46.878
478.038;  391.554;  375.742;   35.156
478.627;  406.444;  393.394;   42.514
479.216;  439.594;  421.384;   43.937
479.805;  455.734;  429.150;   51.393
480.393;  617.310;  593.969;   53.239
480.982;  517.947;  503.699;   38.955
481.571;  502.670;  481.123;   45.436
482.159;  379.189;  365.728;   51.007
482.748;  475.244;  456.530;   49.695
483.336;  493.407;  472.134;   48.280
483.925;  427.936;  414.107;   47.166
484.513;  426.629;  396.464;   55.404
485.102;  449.499;  427.957;   54.238
485.690;  590.564;  564.805;   55.748
486.278;  566.987;  545.971;   55.934
486.867;  438.784;  418.355;   57.106
487.455;  504.330;  484.255;   56.979
488.043;  380.651;  364.352;   57.564
488.631;  566.488;  544.670;   57.432
489.220;  495.248;  467.920;   63.646
489.808;  366.702;  347.078;   65.449
490.396;  488.381;  466.870;   61.977
490.984;  413.618;  392.002;   68.834
491.572;  489.415;  463.968;   70.775
492.160;  465.917;  446.152;   67.564
492.748;  425.205;  405.612;   66.808
493.336;  510.762;  478.001;   79.747
493.924;  437.437;  404.945;   88.688
494.512;  492.233;  467.227;   84.120
495.100;  482.374;  463.219;   86.250
495.687;  510.318;  481.836;  103.074
496.275;  406.525;  384.150;  108.717
496.863;  427.684;  404.803;  107.035
497.451;  418.712;  398.294;  117.993
498.038;  448.401;  423.756;  120.116
498.626;  441.381;  410.875;  143.059
499.214;  460.787;  439.271;  153.434
499.801;  442.182;  425.344;  175.121
500.389;  374.073;  350.829;  185.617
500.976;  469.945;  442.021;  215.789
501.564;  444.613;  426.642;  240.321
502.151;  323.586;  296.059;  267.007
502.738;  426.772;  401.601;  317.961
503.326;  434.804;  407.992;  361.216
503.913;  459.743;  432.559;  401.433
504.500;  465.940;  443.554;  446.492
505.088;  402.362;  373.728;  512.063
505.675;  434.415;  409.822;  586.387
506.262;  438.263;  406.392;  671.021
506.849;  447.955;  419.819;  759.062
507.436;  503.831;  477.106;  849.788
508.023;  444.620;  416.429;  944.288
508.610;  486.577;  461.389; 1020.690
509.197;  473.368;  446.115; 1089.052
509.784;  440.559;  421.247; 1133.776
510.371;  365.675;  344.805; 1165.501
510.958;  452.556;  428.742; 1251.735
511.545;  524.725;  495.766; 1350.248
512.132;  449.849;  414.552; 1525.945
512.719;  395.877;  367.793; 1834.933
513.305;  409.147;  376.622; 1965.349
513.892;  517.173;  490.642; 1963.265
514.479;  459.448;  430.353; 2046.446
515.066;  504.607;  478.374; 2252.803
515.652;  463.331;  427.304; 2567.247
516.239;  486.547;  456.707; 2636.919
516.825;  379.760;  358.595; 2482.304
517.412;  577.211;  545.991; 2427.031
517.998;  434.518;  407.151; 2540.463
518.585;  436.053;  402.625; 2609.007
519.171;  465.070;  432.545; 2842.088
519.758;  392.088;  351.321; 3090.703
520.344;  499.292;  463.514; 3176.076
520.930;  398.944;  374.466; 3295.037
521.516;  482.450;  447.977; 3500.959
522.103;  536.829;  492.264; 3736.704
522.689;  440.687;  400.951; 3971.022
523.275;  507.614;  480.038; 4213.778
523.861;  449.457;  411.788; 4190.361
524.447;  513.010;  469.742; 4070.602
525.033;  517.329;  484.410; 4088.892
525.619;  411.902;  379.280; 4416.851
526.205;  396.092;  361.911; 4836.835
526.791;  445.715;  401.416; 4885.903
527.377;  430.014;  391.487; 4544.907
527.963;  459.528;  431.280; 4321.995
528.549;  472.388;  437.447; 4473.979
529.135;  418.526;  382.725; 4788.663
529.721;  461.461;  420.218; 4888.577
530.306;  617.055;  580.947; 4775.779
530.892;  432.011;  395.249; 4793.906
531.478;  427.139;  389.046; 4956.948
532.063;  407.106;  368.426; 5136.936
532.649;  563.391;  522.196; 5336.867
533.235;  406.751;  377.000; 5748.092
533.820;  519.904;  482.790; 6456.875
534.406;  448.227;  409.399; 6590.167
534.991;  417.190;  377.820; 6179.622
535.576;  452.238;  411.785; 6098.691
536.162;  633.145;  584.963; 6441.234
536.747;  395.022;  356.157; 6816.224
537.333;  418.848;  376.896; 6889.752
537.918;  456.126;  412.087; 7154.280
538.503;  433.164;  388.705; 7150.848
539.088;  477.024;  436.665; 7253.308
539.673;  449.057;  407.318; 7625.180
540.259;  425.615;  383.364; 8226.793
540.844;  378.762;  336.610; 8745.092
541.429;  557.364;  519.480; 8762.553
542.014;  396.129;  350.519; 8871.497
542.599;  477.805;  435.412; 8886.008
543.184;  405.563;  356.454; 9079.139
543.769;  432.587;  383.817; 9076.182
544.354;  445.865;  395.094; 8354.081
544.938;  474.444;  437.052; 8236.809
545.523;  557.433;  512.791; 8222.179
546.108;  471.015;  415.345; 8114.082
546.693;  468.483;  413.231; 8535.912
547.278;  466.770;  413.668; 9238.322
547.862;  474.287;  408.157; 9034.405
548.447;  523.920;  462.999; 7795.011
549.031;  460.487;  404.079; 7485.099
549.616;  489.355;  435.463; 7626.308
550.201;  457.299;  393.375; 7627.909
550.785;  521.439;  449.341; 7859.125
551.370;  424.733;  359.017; 7990.654
551.954;  530.863;  467.270; 8196.468
552.538;  531.889;  457.008; 7959.495
553.123;  458.519;  384.555; 7964.826
553.707;  483.429;  400.284; 8515.957
554.291;  569.383;  489.018; 8724.024
554.876;  547.615;  460.260; 8524.211
555.460;  477.499;  384.052; 8704.456
556.044;  478.174;  387.855; 9141.473
556.628;  514.188;  417.244; 9250.197
557.212;  581.005;  479.461; 9444.237
557.796;  520.411;  405.744; 9379.783
558.380;  554.073;  434.930; 9353.658
558.964;  552.649;  421.226; 9210.310
559.548;  488.306;  353.821; 8475.153
560.132;  538.177;  397.378; 7954.084
560.716;  514.959;  363.734; 7489.529
561.300;  526.323;  357.771; 7211.952
561.884;  621.553;  449.167; 7141.313
562.467;  629.535;  445.272; 7155.386
563.051;  613.918;  417.174; 7323.158
563.635;  621.844;  401.327; 7709.114
564.219;  654.816;  414.401; 7678.855
564.802;  709.757;  443.494; 7376.187
565.386;  717.033;  421.879; 7054.372
565.969;  813.458;  490.012; 6589.196
566.553;  888.295;  538.506; 6279.371
567.136;  851.250;  479.126; 5967.930
567.720;  818.596;  420.827; 5660.703
568.303;  871.388;  435.839; 5648.615
568.887;  908.028;  420.625; 5618.443
569.470;  940.321;  434.505; 5411.875
570.053;  980.001;  461.885; 5149.274
570.637;  954.074;  379.297; 5122.798
571.220; 1093.195;  464.538; 4957.369
571.803; 1237.509;  541.031; 4933.018
572.386; 1170.827;  395.375; 4840.973
572.969; 1285.782;  404.785; 4592.886
573.552; 1364.959;  408.464; 4348.387
574.135; 1366.108;  381.817; 4002.290
574.718; 1416.963;  389.178; 3654.773
575.301; 1518.755;  385.145; 3502.288
575.884; 1620.546;  381.111; 3349.803
576.467; 1876.297;  478.927; 3191.403
577.050; 2008.250;  428.239; 3062.418
577.633; 2285.725;  519.252; 3214.200
578.216; 2332.309;  403.683; 3284.889
578.799; 2434.181;  404.034; 3189.777
579.381; 2791.333;  541.163; 3064.502
579.964; 2804.662;  385.784; 2888.357
580.547; 2872.747;  428.540; 2905.760
581.129; 3077.675;  497.348; 2966.849
581.712; 3271.982;  447.028; 2887.292
582.294; 3576.680;  420.025; 2771.631
582.877; 3897.941;  539.038; 2711.602
583.459; 3954.125;  414.466; 2577.049
584.042; 4273.464;  408.667; 2454.707
584.624; 4592.676;  379.923; 2305.893
585.206; 4814.646;  326.348; 2189.546
585.789; 5335.225;  391.946; 2112.577
586.371; 5614.662;  441.495; 2153.065
586.953; 5578.084;  465.752; 2197.806
587.536; 5549.842;  495.483; 2105.489
588.118; 5690.176;  411.286; 1963.911
588.700; 6344.419;  503.076; 1843.179
589.282; 7023.387;  447.902; 1813.834
589.864; 7648.252;  420.445; 1777.620
590.446; 8017.221;  329.246; 1733.780
591.028; 7899.388;  425.227; 1676.008
591.610; 7648.766;  342.207; 1631.649
592.192; 7831.208;  430.570; 1632.362
592.774; 7835.941;  365.246; 1569.507
593.356; 8578.249;  392.805; 1524.539
593.937; 8749.899;  383.391; 1569.720
594.519; 9290.905;  481.979; 1569.049
595.101;10217.682;  348.094; 1545.452
595.683;11179.271;  401.609; 1607.568
596.264;11514.312;  413.014; 1615.506
596.846;11729.415;  400.744; 1667.622
597.427;12269.046;  389.318; 1670.469
598.009;13010.170;  386.714; 1640.312
598.591;13226.346;  456.341; 1541.022
599.172;12598.625;  405.793; 1598.665
599.753;12590.651;  359.390; 1619.068
600.335;13152.048;  500.893; 1548.612
600.916;12955.001;  410.410; 1607.510
601.498;13738.776;  434.136; 1745.181
602.079;13966.715;  416.725; 1801.011
602.660;14125.015;  414.874; 1834.640
603.241;14161.088;  328.998; 1787.351
603.823;14062.008;  394.777; 1684.266
604.404;14191.442;  364.402; 1654.241
604.985;14445.762;  401.455; 1758.741
605.566;14934.946;  469.937; 1697.679
606.147;15459.026;  411.297; 1526.728
606.728;15659.115;  361.883; 1484.086
607.309;16152.643;  385.917; 1421.070
607.890;15841.816;  402.220; 1369.867
608.471;15151.938;  379.906; 1277.826
609.051;15112.382;  433.033; 1180.416
609.632;15182.862;  372.346; 1075.816
610.213;15008.447;  411.693; 1053.313
610.794;15027.320;  398.314;  979.442
611.374;15382.020;  438.800;  917.414
611.955;15830.396;  351.498;  819.987
612.536;16186.493;  438.963;  752.627
613.116;15697.859;  386.882;  690.799
613.697;15571.516;  383.263;  674.974
614.277;15983.079;  376.279;  663.846
614.858;15545.665;  386.020;  665.898
615.438;14759.217;  420.529;  660.712
616.019;14377.430;  497.074;  632.732
616.599;14627.195;  323.350;  551.759
617.179;15676.150;  361.926;  512.871
617.760;16086.556;  558.005;  473.655
618.340;16105.660;  411.157;  440.004
618.920;16220.992;  513.467;  429.731
619.500;16014.291;  396.617;  441.361
620.080;15458.574;  375.435;  425.202
620.660;15379.923;  375.586;  408.164
621.241;15274.536;  395.128;  387.161
621.821;15227.135;  418.053;  378.017
622.401;15488.962;  468.066;  379.188
622.980;15337.475;  352.664;  350.019
623.560;14851.168;  393.369;  336.446
624.140;14236.888;  425.268;  336.473
624.720;13570.274;  438.321;  334.974
625.300;13178.712;  367.297;  325.717
625.880;13807.905;  410.661;  308.519
626.459;14633.759;  412.112;  307.117
627.039;14805.436;  340.643;  290.890
627.619;14595.236;  539.219;  286.635
628.198;14798.893;  478.807;  282.535
628.778;15752.541;  446.655;  285.474
629.357;16113.222;  363.050;  284.103
629.937;15579.608;  396.128;  292.178
630.516;14873.297;  500.902;  290.749
631.096;14550.945;  377.050;  285.489
631.675;14978.665;  491.125;  287.022
632.254;14734.074;  384.127;  286.038
632.834;14327.740;  410.949;  276.451
633.413;14811.742;  501.045;  279.447
633.992;14683.350;  472.220;  264.508
634.571;14598.435;  448.108;  271.010
635.151;14313.347;  367.866;  277.338
635.730;13827.540;  410.105;  289.305
636.309;13350.070;  441.237;  285.306
636.888;13657.609;  449.985;  254.051
637.467;14351.714;  337.144;  230.324
638.046;15481.470;  498.141;  253.349
638.625;15258.354;  484.452;  246.866
639.204;14726.197;  428.662;  240.825
639.782;14023.837;  413.143;  261.970
640.361;13012.021;  482.874;  277.780
640.940;12905.071;  382.110;  270.101
641.519;13515.222;  439.647;  248.622
642.097;14429.539;  447.483;  239.843
642.676;15569.156;  423.953;  244.264
643.255;15641.074;  401.956;  234.985
643.833;15133.559;  448.226;  244.406
644.412;14725.909;  395.396;  244.927
644.990;14359.326;  418.399;  249.948
645.569;14670.577;  444.669;  249.569
646.147;14863.461;  468.672;  243.290
646.726;14689.979;  425.709;  249.511
647.304;14999.029;  402.579;  228.032
647.882;15021.480;  335.515;  214.552
648.461;14547.665;  434.185;  214.973
649.039;14126.915;  456.889;  223.394
649.617;13415.166;  452.492;  261.415
650.195;12376.983;  427.495;  298.736
650.773;12227.734;  392.832;  309.557
651.352;12629.118;  323.801;  297.978
651.930;12059.437;  318.671;  289.399
652.508;12079.420;  458.841;  285.620
653.086;12159.871;  434.078;  272.241
653.663;12453.589;  374.914;  265.062
654.241;13058.739;  356.318;  286.083
654.819;13646.557;  362.354;  286.404
655.397;13280.274;  376.591;  291.825
655.975;13595.259;  401.194;  299.145
656.553;14150.709;  500.364;  288.866
657.130;14001.594;  367.800;  304.087
657.708;14030.244;  430.804;  302.908
658.286;13742.962;  414.340;  294.629
658.863;13124.646;  426.177;  293.350
659.441;13283.963;  426.813;  318.671
660.018;13982.848;  413.016;  333.692
660.596;14030.831;  326.286;  335.013
661.173;14432.982;  389.056;  371.534
661.750;14037.267;  368.959;  365.155
662.328;13562.217;  444.363;  349.976
662.905;13208.201;  393.499;  332.997
663.482;12686.186;  407.269;  321.717
664.060;12334.270;  381.572;  314.438
664.637;12539.721;  456.109;  306.259
665.214;13029.771;  425.479;  314.580
665.791;13630.322;  400.882;  334.501
666.368;14208.206;  386.252;  329.222
666.945;14085.190;  452.688;  342.143
667.522;13394.374;  371.892;  370.964
668.099;13549.392;  404.828;  396.885
668.676;13748.242;  404.831;  391.706
669.253;14097.561;  504.701;  369.627
669.830;15027.811;  481.505;  360.348
670.407;14851.095;  404.108;  344.769
670.984;14106.646;  410.411;  322.890
671.560;14378.130;  455.814;  316.910
672.137;14472.414;  388.117;  322.531
672.714;14079.531;  437.121;  318.552
673.290;14125.516;  427.957;  324.473
673.867;14015.167;  379.494;  340.594
674.443;13811.117;  354.464;  319.515
675.020;14331.835;  424.067;  286.336
675.596;14801.353;  402.037;  247.557
676.173;14842.870;  347.573;  227.778
676.749;14995.888;  301.010;  224.399
677.326;15233.438;  342.280;  230.520
677.902;14842.655;  374.416;  241.841
678.478;14544.606;  349.919;  239.762
679.054;15152.657;  620.423;  248.583
679.631;15161.875;  432.093;  237.503
680.207;15841.858;  520.296;  245.924
680.783;15825.543;  316.666;  224.845
681.359;15818.627;  410.836;  209.666
681.935;16033.845;  415.505;  191.687
682.511;16128.762;  416.242;  210.008
683.087;15502.546;  441.445;  213.329
683.663;14750.396;  398.882;  216.850
684.239;14244.447;  350.018;  229.471
684.815;14145.932;  468.988;  248.792
685.390;14954.583;  529.491;  231.813
685.966;15087.367;  413.461;  221.234
686.542;14908.951;  375.298;  214.255
687.118;14606.935;  421.001;  212.276
687.693;14939.553;  443.704;  233.096
688.269;15259.370;  401.074;  246.917
688.844;15201.087;  436.044;  236.938
689.420;15106.604;  418.281;  242.059
689.995;15249.122;  510.317;  245.480
690.571;15378.307;  487.387;  244.701
691.146;15905.791;  399.657;  251.922
691.722;15871.642;  431.160;  284.743
692.297;15066.926;  383.697;  320.664
692.872;14310.310;  371.067;  313.885
693.448;14618.827;  363.270;  290.106
694.023;14820.845;  420.573;  304.327
694.598;15037.762;  416.443;  319.648
695.173;15674.479;  391.680;  323.169
695.748;16232.464;  326.783;  376.389
696.323;16568.715;  407.086;  397.610
696.898;16633.799;  476.623;  430.231
697.473;16307.383;  335.926;  454.952
698.048;16150.934;  395.396;  478.973
698.623;16159.751;  348.499;  477.094
699.198;16395.668;  421.569;  496.915
699.773;15693.686;  377.505;  490.236
700.348;15362.937;  357.509;  519.957
700.922;15331.921;  412.778;  575.678
701.497;14746.472;  407.648;  621.399
702.072;14582.256;  459.318;  664.420
702.646;15011.707;  449.388;  690.541
703.221;15158.791;  426.625;  748.862
703.795;14508.908;  360.594;  774.282
704.370;13950.393;  296.731;  799.803
704.944;14086.644;  394.334;  875.824
705.519;14840.360;  422.104;  902.945
706.093;15308.911;  368.807;  889.266
706.668;15781.995;  444.311;  903.487
707.242;15860.613;  450.080;  881.708
707.816;15617.030;  386.317;  892.329
708.390;15797.081;  405.454;  970.250
708.965;15969.565;  426.357;  984.671
709.539;16146.750;  399.660; 1026.092
710.113;16040.567;  410.530; 1067.913
710.687;15993.284;  449.766; 1166.434
711.261;16532.836;  356.003; 1190.854
711.835;16578.785;  365.506; 1197.275
712.409;16246.737;  328.643; 1308.096
712.983;16096.521;  338.346; 1461.617
713.557;15617.472;  337.683; 1611.838
714.131;14983.156;  397.819; 1554.359
714.704;14600.240;  368.289; 1520.780
715.278;14206.058;  408.759; 1575.101
715.852;13412.875;  445.995; 1689.822
716.425;13307.759;  520.432; 1829.143
716.999;13782.677;  331.435; 2008.664
717.573;13799.194;  435.738; 2000.485
718.146;13893.145;  507.875; 1914.506
718.720;14100.629;  415.978; 1818.026
719.293;14114.213;  431.881; 1734.147
719.867;13994.264;  371.085; 1716.968
720.440;14670.548;  477.755; 1918.589
721.013;14623.599;  380.458; 1975.410
721.587;14325.616;  341.994; 2073.331
722.160;14511.134;  455.064; 2357.852
722.733;14468.185;  419.534; 2657.073
723.306;14003.769;  404.204; 2703.894
723.880;13496.753;  420.674; 2549.415
724.453;13440.837;  482.310; 2414.336
725.026;14153.288;  380.414; 2298.557
725.599;14931.072;  423.417; 2168.778
726.172;15015.623;  436.120; 2106.099
726.745;15016.507;  426.923; 2253.320
727.318;14788.425;  456.693; 2404.740
727.891;14558.441;  422.696; 2680.161
728.463;14804.060;  415.466; 2838.882
729.036;14975.210;  373.903; 2755.103
729.609;14875.728;  365.373; 2731.824
730.182;14736.445;  448.843; 2855.645
730.754;14318.596;  306.879; 2946.866
731.327;14302.180;  430.849; 2840.187
731.900;14159.464;  340.786; 2647.608
732.472;14180.515;  410.456; 2473.929
733.045;13730.933;  387.159; 2445.750
733.617;13957.017;  329.229; 2511.771
734.190;13728.867;  428.232; 2581.592
734.762;13099.385;  400.902; 2710.813
735.334;13173.069;  412.272; 3005.733
735.907;13767.120;  411.542; 3154.954
736.479;14471.804;  469.678; 3171.675
737.051;14709.321;  430.848; 3217.496
737.623;14762.605;  445.751; 3246.217
738.195;14621.557;  375.954; 2985.238
738.768;14777.707;  308.891; 2727.559
739.340;15234.625;  387.394; 2666.880
739.912;15207.642;  452.164; 2769.601
740.484;14491.526;  432.401; 2731.422
741.056;14221.344;  394.970; 2963.043
741.628;14302.728;  360.507; 3361.364
742.199;14383.712;  477.377; 3641.185
742.771;13770.763;  347.947; 3932.005
743.343;13461.181;  360.417; 4319.926
743.915;13385.731;  430.787; 4706.647
744.487;13500.049;  435.456; 4874.968
745.058;13774.433;  438.360; 4616.589
745.630;13591.417;  441.496; 4253.410
746.201;13527.900;  376.899; 4056.131
746.773;13225.651;  433.369; 3772.952
747.344;12868.770;  403.406; 3642.473
747.916;13262.720;  422.642; 3752.294
748.487;13962.271;  449.846; 4106.215
749.059;13720.922;  349.649; 4457.835
749.630;13745.772;  377.119; 4366.457
750.201;13853.689;  405.889; 4600.078
750.773;13520.907;  375.092; 4658.499
751.344;13618.358;  412.462; 4609.319
751.915;12885.342;  405.532; 4526.440
752.486;12298.626;  371.235; 4536.061
753.057;12092.978;  413.405; 4383.282
753.628;12430.161;  365.275; 4296.503
754.199;12698.079;  385.978; 4383.224
754.770;13271.996;  443.748; 4653.545
755.341;13101.047;  459.018; 4831.666
755.912;12526.564;  395.754; 4831.387
756.483;12222.082;  438.857; 4735.808
757.054;12214.166;  389.961; 4685.029
757.625;11906.617;  361.131; 4994.250
758.195;11831.135;  345.634; 5051.471
758.766;12445.852;  418.904; 5317.792
759.337;12818.902;  330.474; 5646.512
759.907;13071.587;  341.910; 5404.133
760.478;12896.338;  377.280; 5090.954
761.048;12722.355;  433.950; 4871.175
761.619;12767.839;  430.920; 4589.396
762.189;12689.757;  401.090; 4171.317
762.760;12347.474;  455.526; 3872.538
763.330;11890.392;  440.663; 3832.259
763.900;11501.942;  420.233; 4150.180
764.471;11276.359;  361.269; 4529.801
765.041;11406.044;  466.706; 4715.922
765.611;11495.161;  427.909; 4681.442
766.181;11419.846;  399.712; 4717.063
766.751;11424.563;  413.315; 4710.285
767.321;11371.947;  351.385; 4450.305
767.891;11280.564;  415.122; 4274.126
768.461;10936.449;  397.025; 4215.047
769.031;10927.600;  406.562; 4173.068
769.601;11209.851;  459.531; 4174.689
770.171;11485.534;  341.035; 4229.310
770.741;11653.619;  382.638; 4352.031
771.311;11586.270;  435.608; 4336.652
771.880;11092.820;  356.811; 4300.873
772.450;11130.671;  370.614; 4387.194
773.020;11709.188;  331.117; 4220.415
773.589;11810.640;  385.954; 4075.835
774.159;11611.323;  378.624; 4105.756
774.729;11483.975;  376.760; 4114.978
775.298;11625.225;  371.997; 3693.298
775.867;11554.009;  375.500; 3343.119
776.437;11532.260;  405.770; 3062.040
777.006;11323.511;  339.440; 2927.161
777.576;10979.361;  437.543; 3046.482
778.145;10687.146;  426.646; 3230.203
778.714;10599.496;  404.083; 3253.324
779.283;10605.881;  434.386; 3129.745
779.853;10555.498;  396.056; 2983.566
780.422;10309.449;  406.526; 2929.887
780.991;10265.100;  426.829; 2863.908
781.560;10442.817;  475.832; 2948.029
782.129;10491.935;  426.069; 3074.149
782.698;10218.152;  482.472; 2893.970
783.267; 9894.236;  378.875; 2721.391
783.836; 9655.987;  411.212; 2659.712
784.404; 9482.472;  351.782; 2622.233
784.973; 9634.256;  299.652; 2600.754
785.542; 9801.606;  397.522; 2528.475
786.111;10065.590;  465.225; 2404.396
786.679;10035.241;  430.561; 2365.717
787.248; 9497.592;  333.731; 2498.438
787.817; 8799.276;  383.335; 2645.659
788.385; 8503.327;  460.104; 2709.280
788.954; 9009.078;  340.841; 2620.500
789.522; 9709.962;  446.078; 2625.422
790.090; 9485.779;  341.547; 2743.843
790.659; 9229.797;  386.784; 2635.163
791.227; 9125.114;  393.354; 2495.484
791.795; 9281.998;  418.024; 2413.705
792.364; 9311.649;  361.460; 2345.326
792.932; 9527.467;  429.630; 2350.447
793.500; 9588.018;  392.500; 2429.768
794.068; 9421.135;  340.437; 2513.589
794.636; 9202.386;  361.940; 2664.310
795.204; 8899.370;  324.976; 2721.431
795.772; 8581.554;  364.580; 2802.052
796.340; 8492.138;  375.283; 2847.173
796.908; 8597.289;  327.386; 2997.194
797.476; 8909.073;  347.923; 3151.615
798.044; 9038.490;  317.526; 3110.735
798.612; 9003.941;  397.196; 2931.656
799.180; 8854.625;  409.266; 2785.777
799.747; 8450.310;  406.369; 2899.098
800.315; 8043.894;  347.272; 2955.519
800.883; 8008.778;  318.375; 2948.940
801.450; 8600.528;  396.478; 2965.361
802.018; 9462.746;  417.915; 3070.582
802.585; 9761.863;  399.685; 3156.103
803.153; 9489.748;  370.655; 3199.524
803.720; 8829.132;  375.925; 3168.845
804.287; 8570.683;  386.995; 3248.366
804.855; 8631.333;  452.264; 3406.187
805.422; 8293.185;  385.801; 3430.907
805.989; 8405.469;  365.071; 3453.528
806.556; 8735.686;  364.707; 3612.649
807.124; 9312.670;  444.911; 3736.570
807.691; 9380.454;  354.214; 3770.491
808.258; 9197.338;  399.484; 3705.012
808.825; 8582.423;  451.687; 3828.733
809.392; 8093.473;  483.557; 3986.754
809.959; 8078.958;  419.560; 4410.075
810.526; 8400.408;  487.463; 4774.996
811.093; 8075.659;  468.033; 4754.217
811.659; 7702.576;  396.236; 4661.238
812.226; 7572.794;  397.673; 4672.559
812.793; 7549.878;  417.976; 4822.979
813.360; 7586.362;  395.079; 5189.800
813.926; 7719.446;  417.149; 5310.622
814.493; 7599.030;  347.153; 5414.542
815.060; 7687.881;  320.556; 5548.963
815.626; 7600.432;  345.559; 5452.284
816.193; 7496.616;  405.129; 5339.305
816.759; 7517.134;  363.365; 5544.426
817.325; 7598.651;  320.269; 5706.547
817.892; 7536.869;  441.005; 5623.468
818.458; 7303.752;  423.208; 5586.689
819.024; 7062.070;  460.978; 5647.910
819.591; 6936.087;  396.715; 5762.031
820.157; 6980.539;  344.818; 6284.452
820.723; 7084.289;  418.721; 6906.973
821.289; 7303.407;  625.725; 7086.894
821.855; 7000.958;  433.094; 7054.915
822.421; 6922.642;  375.031; 7112.035
822.987; 7067.959;  351.401; 7256.156
823.553; 7001.243;  382.504; 7538.077
824.119; 6803.494;  445.174; 7594.298
824.685; 6546.878;  464.044; 7613.619
825.251; 6135.729;  440.714; 7644.140
825.816; 5948.113;  493.750; 7720.261
826.382; 5886.197;  434.787; 8014.282
826.948; 6062.515;  442.690; 8281.503
827.513; 6157.432;  389.727; 8289.624
828.079; 6118.716;  354.663; 8587.045
828.645; 6030.800;  414.766; 8821.865
829.210; 5849.418;  344.270; 9054.486
829.776; 5914.202;  427.573; 9054.607
830.341; 6050.053;  441.543; 9415.628
830.906; 5877.304;  455.779; 9932.449
831.472; 5150.188;  368.316;10150.271
832.037; 4571.338;  447.052; 9420.391
832.602; 4312.989;  376.156; 8664.912
833.167; 4772.173;  402.892; 8491.933
833.733; 4989.558;  449.562; 8872.854
834.298; 4906.208;  352.765; 9370.575
834.863; 4854.292;  426.135; 9610.695
835.428; 4814.843;  420.238; 9655.616
835.993; 4813.061;  429.042; 9437.838
836.558; 4861.778;  438.978; 9441.459
837.123; 4830.263;  544.548; 9600.979
837.688; 4540.046;  429.385; 9798.301
838.253; 4400.531;  420.754; 9902.921
838.817; 4285.315;  387.524;10339.742
839.382; 4292.599;  477.961;10548.363
839.947; 4164.816;  414.764;10252.484
840.511; 4157.634;  487.934;10040.005
841.076; 3860.418;  316.471;10099.926
841.641; 3895.402;  430.607;10347.347
842.205; 3884.053;  419.110;10817.368
842.770; 4050.104;  505.380;11435.289
843.334; 3948.755;  390.250;12072.409
843.898; 3857.272;  394.687;12635.431
844.463; 3886.790;  480.390;12537.252
845.027; 3674.007;  377.593;12759.673
845.591; 3575.925;  450.730;12821.993
846.156; 3404.509;  379.933;12520.914
846.720; 3389.859;  445.703;12390.436
847.284; 3222.444;  414.939;12956.456
847.848; 3083.494;  435.043;13240.177
848.412; 2859.279;  406.379;13216.998
848.976; 2879.063;  480.816;13014.619
849.540; 2927.080;  527.286;12355.740
850.104; 2937.397;  482.255;12208.761
850.668; 2816.582;  326.692;12106.882
851.232; 2909.566;  339.362;11862.103
851.796; 3104.483;  399.098;11700.523
852.359; 3158.301;  449.802;12375.944
852.923; 3094.885;  463.538;13087.966
853.487; 2980.069;  443.308;13297.187
854.050; 2820.987;  277.978;13851.207
854.614; 2999.571;  385.048;14854.229
855.177; 3038.788;  425.451;15802.149
855.741; 3011.739;  432.921;16603.570
856.304; 2900.223;  459.991;16359.891
856.868; 2652.707;  360.827;14365.512
857.431; 2620.158;  411.631;13361.333
857.995; 2651.375;  393.267;14130.554
858.558; 2732.926;  433.570;14883.175
859.121; 2838.344;  444.274;15754.195
859.684; 2775.028;  419.777;15995.017
860.247; 2636.245;  411.280;15149.537
860.810; 2540.763;  387.650;14640.358
861.374; 2684.847;  531.387;15551.079
861.937; 2565.764;  359.956;16519.801
862.500; 2651.182;  379.460;16796.521
863.062; 2559.866;  366.129;16538.742
863.625; 2549.183;  429.333;16716.764
864.188; 2462.468;  385.303;17055.084
864.751; 2389.985;  389.439;17197.705
865.314; 2347.336;  410.176;17151.625
865.876; 2319.553;  458.546;17783.547
866.439; 2205.071;  442.049;19283.467
867.002; 2174.755;  524.252;20256.389
867.564; 2073.272;  470.822;20485.410
868.127; 2012.057;  426.825;20789.730
868.689; 2077.641;  426.428;21981.951
869.252; 2181.058;  469.665;23803.771
869.814; 2110.376;  370.668;24974.094
870.377; 2173.793;  417.505;24690.314
870.939; 2340.477;  597.108;23963.436
871.501; 2180.461;  424.544;25167.156
872.063; 2016.745;  299.948;26995.477
872.626; 2034.630;  325.218;27443.098
873.188; 2082.814;  423.421;26718.418
873.750; 2025.031;  402.591;26558.840
874.312; 1949.815;  386.194;26701.561
874.874; 2012.533;  501.397;27970.582
875.436; 1892.284;  453.067;29173.402
875.998; 1905.234;  480.570;30376.623
876.560; 1902.319;  455.507;32507.344
877.122; 1806.503;  377.577;34833.066
877.683; 1770.620;  445.780;36458.285
878.245; 1570.571;  394.850;37248.207
878.807; 1561.255;  437.420;36758.027
879.369; 1533.939;  347.490;35223.551
879.930; 1604.523;  365.359;33824.969
880.492; 1729.141;  478.796;34436.492
881.053; 1594.325;  375.133;37745.313
881.615; 1570.909;  381.002;41184.633
882.176; 1550.193;  406.606;42871.555
882.738; 1570.911;  445.376;41693.074
883.299; 1416.928;  324.079;40289.895
883.860; 1416.612;  331.382;39231.215
884.422; 1499.763;  443.552;38264.039
884.983; 1374.314;  361.488;37171.859
885.544; 1390.198;  418.658;35842.379
886.105; 1296.949;  409.428;34810.000
886.666; 1185.400;  391.231;34519.020
887.227; 1057.684;  334.968;33905.641
887.788; 1105.301;  426.605;34502.965
888.349; 1008.485;  353.974;34241.785
888.910; 1080.936;  455.311;33722.203
889.471; 1017.454;  429.514;32539.625
890.032;  966.771;  412.017;31528.346
890.593;  965.722;  443.087;32655.068
891.153;  910.773;  401.324;33882.289
891.714;  840.890;  344.860;33318.711
892.275;  846.874;  354.864;31848.930
892.835;  956.492;  458.667;30339.752
893.396;  938.943;  453.937;30074.973
893.956;  881.293;  394.340;30338.393
894.517;  897.978;  421.043;30864.113
895.077;  896.528;  428.546;29766.734
895.638;  961.912;  500.450;26379.557
896.198;  812.997;  356.486;24056.277
896.758;  910.247;  452.956;22961.898
897.319;  830.132;  398.059;21772.020
897.879;  811.482;  411.262;20877.539
898.439;  729.167;  335.866;19509.461
898.999;  826.217;  438.869;17297.582
899.559;  807.968;  431.972;14712.002
900.119;  718.852;  358.775;12790.224
900.679;  840.070;  489.679;11586.744
901.239;  784.320;  437.948;10776.465
901.799;  744.238;  419.118; 9691.687
902.359;  679.055;  376.388; 8725.907
902.919;  665.306;  371.258; 8305.728
903.479;  655.257;  364.361; 8172.649
904.038;  630.008;  345.465; 7913.870
904.598;  571.925;  305.534; 7262.291
905.158;  642.309;  382.171; 6609.012
905.717;  655.127;  400.174; 6236.133
906.277;  659.044;  410.444; 5829.054
906.836;  667.662;  426.814; 5396.674
907.396;  657.379;  431.251; 4964.195
907.955;  648.963;  432.354; 4528.917
908.515;  610.181;  392.224; 4223.837
909.074;  609.032;  395.927; 4023.958
909.633;  606.216;  395.663; 4065.379
910.192;  709.367;  498.900; 4066.300
910.752;  594.667;  391.767; 3971.600
911.311;  583.367;  382.400; 3839.600
911.870;  569.833;  367.300; 3684.500
912.429;  652.033;  459.167; 3635.600
912.988;  646.133;  457.667; 3689.800
913.547;  543.567;  359.367; 3737.700
914.106;  593.400;  417.600; 3740.300
914.665;  592.133;  409.033; 3604.600
915.224;  631.333;  456.700; 3358.700
915.782;  550.833;  382.233; 3188.400
916.341;  643.500;  474.000; 3091.400
916.900;  561.033;  385.133; 3044.800
917.458;  537.800;  359.667; 2888.600
918.017;  580.533;  411.167; 2818.900
918.576;  554.400;  382.367; 2838.600
919.134;  497.767;  334.833; 2880.100
919.693;  544.200;  381.600; 2996.300
920.251;  537.000;  371.233; 3183.100
920.809;  514.200;  352.667; 3247.000
921.368;  545.333;  383.667; 3156.600
921.926;  516.533;  356.967; 2964.900
922.484;  560.467;  404.933; 2846.300
923.042;  543.067;  386.033; 2890.400
923.601;  625.600;  469.600; 2987.700
924.159;  584.467;  424.600; 3049.800
924.717;  514.033;  360.533; 3087.000
925.275;  557.433;  408.000; 3093.400
925.833;  472.000;  320.600; 3182.400
926.391;  579.900;  433.233; 3397.900
926.949;  532.000;  379.300; 3575.400
927.506;  571.967;  416.333; 3713.400
928.064;  546.700;  385.633; 3871.300
928.622;  554.633;  392.033; 4092.800
929.180;  506.967;  340.433; 4499.300
929.737;  494.367;  333.567; 4813.200
930.295;  589.500;  421.833; 5084.100
930.853;  535.900;  358.500; 5185.000
931.410;  503.433;  340.700; 5313.100
931.968;  595.600;  432.900; 5339.600
932.525;  570.267;  402.267; 5399.900
933.082;  497.433;  335.967; 5457.500
933.640;  582.867;  411.667; 5692.900
934.197;  557.600;  378.467; 5821.200
934.754;  551.600;  380.133; 5617.900
935.312;  530.533;  358.033; 5512.400
935.869;  645.933;  472.967; 5582.400
936.426;  541.333;  369.467; 5650.100
936.983;  552.100;  381.833; 5657.400
937.540;  516.900;  340.200; 5564.300
938.097;  599.533;  415.000; 5574.000
938.654;  564.533;  376.900; 5665.900
939.211;  601.900;  410.433; 5931.600
939.768;  570.633;  391.667; 6153.600
940.324;  559.400;  379.133; 6397.600
940.881;  540.967;  358.067; 6454.200
941.438;  634.467;  456.500; 6206.900
941.995;  615.467;  433.467; 6003.900
942.551;  525.533;  343.800; 6228.300
943.108;  570.867;  400.467; 6603.500
943.664;  530.733;  346.000; 7188.100
944.221;  690.500;  501.467; 7579.900
944.777;  525.433;  338.500; 7658.100
945.334;  543.867;  350.667; 7670.400
945.890;  585.267;  394.300; 7525.100
946.446;  586.200;  394.533; 7261.500
947.003;  596.233;  408.767; 6949.200
947.559;  663.267;  485.033; 6773.100
948.115;  635.467;  448.033; 6668.400
948.671;  599.000;  409.933; 6488.400
949.227;  511.833;  328.733; 6236.600
949.783;  504.500;  320.900; 6008.900
950.339;  598.400;  421.133; 5934.100
950.895;  626.367;  442.667; 5933.500
951.451;  550.800;  376.367; 6074.700
952.007;  604.500;  423.667; 6066.400
952.563;  562.333;  379.633; 5884.100
953.118;  545.200;  368.967; 5733.800
953.674;  565.633;  387.100; 5734.300
954.230;  570.333;  397.600; 6039.700
954.785;  562.033;  390.133; 6383.500
955.341;  609.400;  431.767; 6568.200
955.897;  498.800;  318.533; 6488.600
956.452;  581.900;  408.600; 6239.200
957.008;  681.500;  506.300; 5954.600
957.563;  632.800;  453.800; 5816.700
958.118;  531.833;  362.033; 5828.200
958.674;  580.167;  402.500; 5717.400
959.229;  632.567;  458.500; 5506.800
959.784;  503.533;  329.600; 5292.200
960.339;  622.933;  456.900; 5101.900
960.894;  599.100;  430.767; 5093.200
961.449;  529.167;  350.767; 5227.900
962.004;  773.500;  612.867; 5349.300
962.559;  527.333;  362.333; 5514.900
963.114;  444.733;  277.600; 5717.300
963.669;  566.833;  400.667; 5841.400
964.224;  533.967;  362.667; 5805.900
964.779;  501.367;  339.700; 5723.400
965.334;  632.800;  478.467; 5779.500
965.888;  530.933;  366.033; 5948.500
966.443;  598.467;  437.900; 6344.200
966.998;  481.967;  320.033; 6666.300
967.552;  559.767;  397.733; 6710.100
968.107;  528.400;  362.067; 6593.500
968.661;  575.600;  406.600; 6344.100
969.216;  520.900;  365.067; 6062.400
969.770;  563.267;  408.800; 5785.500
970.324;  565.667;  409.633; 5426.800
970.879;  589.400;  438.733; 5016.800
971.433;  591.100;  436.900; 4904.500
971.987;  547.033;  399.100; 4991.000
972.541;  560.433;  417.867; 4978.500
973.095;  626.400;  486.000; 4832.000
973.649;  480.833;  332.100; 4767.900
974.203;  506.833;  356.433; 4881.200
974.757;  521.700;  367.767; 4969.500
975.311;  541.233;  386.967; 4953.000
975.865;  540.533;  394.600; 4884.300
976.419;  528.633;  376.067; 4739.800
976.973;  515.033;  369.367; 4698.100
977.526;  589.900;  451.800; 4631.100
978.080;  481.233;  331.567; 4621.600
978.634;  561.433;  432.200; 4650.200
979.187;  558.233;  417.767; 4669.200
979.741;  648.100;  509.633; 4658.000
980.294;  472.800;  340.700; 4579.100
980.848;  425.833;  296.033; 4452.800
981.401;  496.200;  368.200; 4271.900
981.955;  527.267;  391.333; 4087.800
982.508;  449.333;  325.633; 3973.900
983.061;  569.567;  446.067; 3928.600
983.615;  487.767;  360.967; 3851.200
984.168;  461.900;  340.200; 3734.800
984.721;  537.633;  422.800; 3628.300
985.274;  529.633;  412.633; 3564.300
985.827;  508.133;  393.067; 3558.100
986.380;  435.400;  314.167; 3559.900
986.933;  532.433;  423.833; 3688.700
987.486;  531.933;  415.267; 3778.500
988.039;  529.633;  414.167; 3559.900
988.591;  557.400;  437.767; 3219.300
989.144;  445.200;  339.533; 2902.900
989.697;  460.167;  357.067; 2722.600
990.250;  532.667;  424.167; 2618.000
990.802;  461.467;  353.700; 2523.900
991.355;  622.067;  521.233; 2436.500
991.907;  541.250;  441.467; 2412.200
992.460;  460.433;  361.700; 2387.900
993.012;  464.467;  366.333; 2365.800
993.565;  432.900;  341.900; 2311.100
994.117;  610.533;  524.100; 2308.700
994.669;  433.900;  343.333; 2249.300
995.221;  503.833;  413.333; 2158.100
995.774;  499.500;  410.167; 2085.600
996.326;  471.633;  384.967; 2068.100
996.878;  536.800;  454.533; 1975.300
997.430;  444.733;  351.200; 1929.500
997.982;  471.833;  390.800; 1861.900
998.534;  474.500;  385.033; 1830.200
999.086;  467.600;  384.467; 1823.200
999.638;  416.133;  335.667; 1815.000
1000.190;  443.167;  366.200; 1796.600
1000.741;  481.033;  393.600; 1738.800
1001.293;  437.000;  357.200; 1666.200
1001.845;  441.600;  355.033; 1566.500
1002.396;  477.400;  399.333; 1471.900
1002.948;  476.400;  402.167; 1398.000
1003.500;  468.700;  388.033; 1356.500
1004.051;  608.800;  532.300; 1294.200
1004.603;  527.833;  451.533; 1190.000
1005.154;  384.467;  320.100; 1063.900
1005.705;  473.967;  405.700;  968.300
1006.257;  467.033;  395.333;  889.800
1006.808;  454.700;  384.400;  801.500
1007.359;  521.200;  460.567;  716.400
1007.910;  428.233;  362.067;  639.100
1008.461;  499.000;  429.700;  561.600
1009.013;  384.100;  329.067;  500.400
1009.564;  536.367;  478.833;  476.100
1010.115;  390.067;  330.767;  431.600
1010.665;  402.567;  346.767;  409.300
1011.216;  449.333;  394.800;  399.700
1011.767;  465.367;  407.800;  388.100
1012.318;  496.667;  435.767;  381.400
1012.869;  456.633;  398.267;  375.400
1013.419;  396.867;  340.933;  357.600
1013.970;  448.300;  394.100;  358.300
1014.521;  415.100;  354.733;  344.100
1015.071;  454.867;  395.700;  322.800
1015.622;  423.100;  367.733;  320.600
1016.172;  397.333;  347.033;  301.700
1016.723;  409.500;  350.367;  289.800
1017.273;  401.767;  344.400;  287.600
1017.823;  437.633;  376.933;  278.700
1018.374;  411.400;  351.667;  274.400
1018.924;  481.633;  424.033;  283.200
1019.474;  478.300;  425.667;  278.500
1020.024;  438.000;  389.867;  274.700
1020.574;  488.367;  438.233;  272.700
1021.124;  449.767;  400.767;  278.400
1021.674;  371.067;  315.367;  269.200
1022.224;  479.267;  423.400;  267.800
1022.774;  453.667;  400.700;  258.100
1023.324;  515.233;  456.967;  260.000
1023.874;  603.233;  549.633;  260.700
1024.423;  410.033;  363.267;  252.700
1024.973;  409.100;  358.933;  234.700
1025.523;  418.900;  365.800;  226.500
1026.072;  409.300;  355.467;  225.500
1026.622;  453.400;  399.133;  210.100
1027.172;  487.000;  435.167;  213.000
1027.721;  399.800;  351.433;  207.700
1028.270;  451.100;  401.900;  205.400
1028.820;  428.500;  380.533;  201.000
1029.369;  409.800;  367.467;  201.000
1029.918;  438.367;  385.900;  198.400
1030.468;  374.967;  325.833;  199.200
1031.017;  424.467;  381.633;  192.600
1031.566;  409.000;  363.400;  197.400
1032.115;  470.467;  425.267;  188.300
1032.664;  404.467;  354.600;  193.700
1033.213;  492.667;  446.433;  191.900
1033.762;  426.400;  377.967;  184.500
1034.311;  460.433;  412.700;  194.300
1034.860;  470.300;  421.533;  192.300
1035.408;  490.633;  447.733;  182.600
1035.957;  485.300;  440.967;  173.900
1036.506;  355.967;  304.100;  185.200
1037.055;  585.133;  532.100;  182.500
1037.603;  447.267;  402.633;  167.600
1038.152;  354.400;  309.400;  168.200
1038.700;  395.167;  340.400;  169.600
1039.249;  459.900;  417.500;  164.300
1039.797;  426.833;  387.233;  169.600
1040.345;  477.500;  433.367;  167.100
1040.894;  423.033;  371.300;  164.400
1041.442;  432.667;  384.767;  158.300
1041.990;  373.800;  331.267;  160.000
1042.538;  354.067;  312.367;  156.800
1043.087;  380.800;  336.367;  146.600
1043.635;  462.900;  412.967;  162.400
1044.183;  392.833;  353.500;  156.300
1044.731;  387.133;  342.567;  158.100
1045.279;  459.200;  413.567;  154.500
1045.827;  622.133;  573.967;  146.200
1046.374;  340.900;  299.167;  154.000
1046.922;  401.967;  358.967;  149.000
1047.470;  474.633;  427.433;  154.900
1048.018;  447.067;  394.800;  148.400
1048.565;  484.467;  444.500;  146.300
1049.113;  367.767;  329.500;  156.100
1049.660;  420.300;  375.867;  154.300
1050.208;  461.033;  413.500;  149.400
1050.755;  409.500;  364.900;  157.500
1051.303;  468.167;  426.667;  157.700
1051.850;  433.033;  390.100;  152.800
1052.397;  313.333;  271.900;  146.300
1052.945;  415.733;  375.400;  149.500
1053.492;  511.100;  471.667;  149.300
1054.039;  489.767;  457.767;  163.100
1054.586;  370.300;  347.000;  150.400
1055.133;  470.933;  428.800;  153.500
1055.680;  443.433;  395.833;  155.600
1056.227;  361.633;  317.867;  148.700
1056.774;  547.867;  503.267;  151.500
1057.321;  344.433;  309.267;  143.700
1057.868;  433.433;  399.467;  145.300
1058.415;  444.433;  401.933;  153.500
1058.961;  459.767;  417.933;  149.900
1059.508;  431.367;  392.800;  147.300
1060.055;  392.367;  351.033;  151.000
1060.601;  424.300;  379.200;  148.700
1061.148;  426.467;  380.600;  153.800
1061.694;  401.033;  364.667;  150.500
1062.241;  400.700;  360.333;  149.100
1062.787;  456.133;  410.800;  153.000
1063.334;  561.067;  513.867;  153.200
1063.880;  457.467;  420.267;  148.400
1064.426;  483.567;  451.600;  149.200
1064.972;  402.233;  366.667;  156.400
1065.518;  383.067;  345.300;  144.700
1066.065;  429.500;  386.267;  139.400
1066.611;  402.900;  371.200;  139.300
1067.157;  435.433;  397.733;  138.400
1067.703;  457.267;  417.400;  142.700
1068.249;  407.467;  378.867;  136.700
1068.794;  427.267;  394.133;  139.400
1069.340;  383.133;  354.500;  142.700
1069.886;  403.067;  364.600;  135.600
1070.432;  360.100;  328.600;  133.400
1070.977;  411.133;  371.933;  138.200
1071.523;  388.467;  346.267;  132.400
1072.068;  395.933;  358.633;  132.700
1072.614;  348.133;  317.667;  127.000
1073.160;  470.567;  435.933;  131.300
1073.705;  394.933;  351.367;  135.700
1074.250;  373.867;  339.467;  133.000
1074.796;  444.733;  412.067;  138.000
1075.341;  460.233;  420.333;  137.300
1075.886;  403.300;  363.200;  134.300
1076.431;  449.900;  408.600;  138.200
1076.976;  438.300;  404.467;  132.200
1077.521;  391.200;  359.500;  138.900
1078.067;  394.733;  356.133;  128.600
1078.612;  461.600;  422.200;  138.900
1079.156;  407.233;  369.767;  128.900
1079.701;  475.633;  437.200;  129.700
1080.246;  476.167;  442.000;  128.600
1080.791;  428.700;  392.800;  122.600
1081.336;  452.267;  418.900;  122.000
1081.880;  438.667;  408.800;  123.900
1082.425;  391.767;  351.200;  120.600
1082.970;  491.800;  452.833;  124.500
1083.514;  401.533;  369.400;  112.000
1084.059;  397.433;  365.167;  120.700
1084.603;  386.467;  349.000;  116.000
1085.147;  444.833;  407.600;  116.300
1085.692;  483.867;  458.200;  108.200
1086.236;  338.333;  306.800;  114.600
1086.780;  516.633;  479.933;  118.900
1087.325;  450.433;  411.767;  120.400
1087.869;  416.100;  384.667;  110.500
1088.413;  485.767;  450.600;  114.000
1088.957;  364.000;  330.000;  114.300
1089.501;  532.367;  488.833;  114.600
1090.045;  503.033;  461.333;  114.200
1090.589;  382.900;  354.333;  105.500
1091.133;  462.300;  428.267;  111.800
1091.676;  402.433;  371.467;  110.900
1092.220;  405.433;  375.600;  110.100
1092.764;  487.800;  459.100;  108.100
1093.307;  454.967;  423.833;  109.900
1093.851;  374.700;  335.600;  107.500
1094.395;  466.667;  438.200;   96.200
1094.938;  431.733;  398.667;   99.300
1095.482;  383.067;  343.733;   97.700
1096.025;  489.200;  459.767;   84.900
1096.568;  537.467;  513.500;   88.500
1097.112;  335.967;  310.867;   95.700
1097.655;  412.700;  372.633;   97.300
1098.198;  410.333;  373.400;   92.600
1098.741;  416.267;  392.000;   91.800
1099.285;  446.900;  417.433;   88.000
1099.828;  294.700;  260.733;   91.700
1100.371;  416.533;  387.200;   89.900
1100.914;  467.100;  434.033;   91.500
1101.457;  469.400;  436.300;   88.100
1101.999;  391.133;  356.733;   86.400
1102.542;  446.767;  412.200;   90.800
1103.085;  448.133;  422.433;   95.400
1103.628;  531.267;  497.733;   97.700
1104.170;  401.000;  370.933;   84.000
1104.713;  450.033;  406.567;   93.900
1105.256;  373.933;  349.367;   93.000
1105.798;  332.867;  308.400;   85.600
1106.341;  512.267;  472.167;   87.100
1106.883;  346.633;  320.500;   85.200
1107.425;  461.567;  426.200;   85.000
1107.968;  417.667;  390.500;   84.300
1108.510;  472.000;  443.500;   88.200
1109.052;  420.367;  397.067;   86.600
1109.594;  380.500;  351.400;   79.400
1110.136;  443.067;  413.033;   81.700
1110.679;  434.900;  397.800;   75.500
1111.221;  417.533;  380.933;   88.500
1111.763;  372.767;  348.200;   87.700
1112.304;  368.800;  342.800;   89.700
1112.846;  457.533;  427.133;   81.900
1113.388;  663.367;  629.167;   86.400
1113.930;  477.733;  444.067;   84.700
1114.472;  415.533;  385.833;   78.900
1115.013;  373.533;  341.267;   78.100
1115.555;  405.533;  380.600;   84.900
1116.097;  388.100;  359.133;   79.200
1116.638;  470.367;  441.733;   83.700
1117.180;  460.467;  428.567;   85.500
1117.721;  390.400;  362.733;   78.800
1118.262;  462.233;  438.667;   77.400
1118.804;  437.367;  405.200;   81.400
1119.345;  397.367;  368.600;   77.800
1119.886;  487.600;  455.000;   81.200
1120.427;  393.900;  372.933;   77.200
1120.969;  409.400;  385.600;   75.200
1121.510;  379.300;  353.567;   80.900
1122.051;  502.133;  473.000;   77.300
1122.592;  447.400;  425.333;   73.300
1123.133;  364.500;  347.133;   90.100
1123.673;  488.833;  463.567;   75.000
1124.214;  418.500;  391.600;   80.600
1124.755;  441.467;  415.133;   78.000
1125.296;  425.733;  397.300;   77.500
1125.836;  479.467;  446.667;   80.400
1126.377;  407.200;  380.900;   75.600
1126.918;  422.433;  397.167;   78.900
1127.458;  417.467;  399.333;   78.000
1127.999;  452.833;  424.367;   76.100
1128.539;  475.367;  445.933;   81.400
1129.079;  439.267;  407.767;   77.400
1129.620;  382.967;  355.933;   68.000
1130.160;  367.200;  341.400;   77.500
1130.700;  440.500;  414.767;   76.300
1131.240;  443.367;  413.600;   66.800
1131.781;  424.500;  400.667;   70.600
1132.321;  415.867;  380.733;   77.200
1132.861;  384.500;  357.267;   70.400
1133.401;  411.900;  378.367;   68.700
1133.941;  433.300;  405.533;   68.500
1134.481;  415.000;  385.733;   75.900
1135.020;  418.067;  392.900;   66.600
1135.560;  464.367;  439.233;   68.100
1136.100;  336.500;  315.133;   64.900
1136.640;  346.233;  322.667;   72.500
1137.179;  367.033;  342.733;   69.700
1137.719;  412.367;  389.533;   68.400
1138.258;  400.667;  377.700;   67.000
1138.798;  454.967;  429.133;   69.600
1139.337;  325.200;  300.733;   64.000
1139.877;  444.700;  418.133;   64.500
1140.416;  609.533;  588.033;   74.900
1140.955;  359.667;  331.367;   67.200
1141.494;  463.533;  434.300;   69.900
1142.034;  391.567;  377.467;   59.100
1142.573;  446.633;  422.867;   65.900
1143.112;  377.933;  349.200;   70.600
1143.651;  370.900;  343.267;   67.100
1144.190;  475.633;  454.700;   56.700
1144.729;  418.600;  389.333;   61.800
1145.267;  397.733;  367.233;   62.500
1145.806;  437.033;  409.133;   68.500
1146.345;  438.767;  409.467;   58.300
1146.884;  427.300;  406.600;   63.100
1147.422;  362.067;  334.233;   54.800
1147.961;  496.433;  467.400;   67.600
1148.500;  462.900;  441.033;   64.700
1149.038;  436.800;  412.300;   61.000
1149.577;  484.933;  457.667;   65.100
1150.115;  307.300;  279.100;   58.100
1150.653;  414.933;  391.267;   60.500
1151.192;  379.167;  355.000;   56.600
1151.730;  449.500;  429.700;   62.300
1152.268;  403.167;  377.700;   55.500
1152.806;  394.400;  370.033;   58.200
1153.344;  392.967;  372.433;   55.000
1153.882;  411.567;  389.233;   64.200
1154.421;  314.100;  292.567;   60.300
1154.958;  406.267;  387.233;   58.100
1155.496;  444.600;  426.200;   55.800
1156.034;  498.933;  476.100;   61.000
1156.572;  468.933;  434.467;   56.200
1157.110;  314.433;  300.300;   53.200
1157.647;  465.133;  448.900;   57.400
1158.185;  389.967;  369.133;   55.500
1158.723;  346.300;  326.500;   58.000
1159.260;  483.700;  460.033;   53.700
1159.798;  451.533;  434.733;   51.700
1160.335;  432.467;  406.900;   59.600

