source_right
Integration time [ms]: 300.000
Averaging Nr. [scans]: 30
Smoothing Nr. [pixels]: 0
Data measured with spectrometer [name]: 7414430SP
Wave   ;Sample   ;Dark     ;Reference
[nm]   ;[counts] ;[counts] ;[counts] 

288.544;  506.081;  409.495;    6.613
289.143;  430.342;  334.741;   14.216
289.742;  536.243;  438.471;   11.816
290.341;  512.921;  418.127;   -4.936
290.940;  462.491;  374.571;    0.852
291.538;  573.478;  486.444;    1.792
292.137;  514.307;  414.837;    6.262
292.736;  643.588;  548.261;    8.164
293.335;  467.231;  380.904;   -6.418
293.934;  497.975;  413.615;   -2.904
294.532;  690.680;  601.463;   -5.162
295.131;  544.239;  463.325;  -10.283
295.730;  524.778;  447.004;  -16.141
296.328;  507.050;  435.754;  -14.740
296.927;  505.729;  428.130;   -8.768
297.525;  507.301;  423.459;  -15.255
298.124;  410.532;  340.248;  -22.063
298.722;  492.372;  419.149;  -14.796
299.321;  455.244;  377.482;  -10.466
299.919;  481.074;  410.080;  -10.979
300.518;  442.721;  368.337;  -12.077
301.116;  442.068;  370.383;  -13.509
301.715;  465.890;  390.100;  -11.939
302.313;  450.811;  382.345;  -15.424
302.911;  476.741;  409.207;  -19.833
303.509;  611.234;  543.847;   -3.567
304.108;  492.647;  423.019;   -9.553
304.706;  519.316;  452.293;   -8.582
305.304;  520.949;  460.774;  -12.348
305.902;  511.385;  441.800;  -14.411
306.500;  471.618;  404.342;   -7.194
307.098;  482.294;  424.328;   -9.322
307.696;  514.099;  457.530;  -19.192
308.294;  475.246;  419.528;   -9.736
308.892;  495.584;  441.888;  -15.482
309.490;  455.215;  397.807;  -14.107
310.088;  521.004;  463.266;  -15.862
310.686;  536.258;  480.333;  -10.781
311.284;  497.445;  445.100;  -14.878
311.882;  477.885;  422.933;   -9.948
312.480;  451.274;  400.225;  -15.503
313.078;  533.503;  475.435;  -17.262
313.675;  454.118;  394.542;   -3.694
314.273;  528.132;  482.288;  -18.246
314.871;  375.648;  328.213;  -15.190
315.468;  414.674;  369.507;  -12.633
316.066;  451.348;  402.504;   -5.765
316.664;  423.962;  380.819;  -14.317
317.261;  605.785;  553.581;   -8.677
317.859;  505.200;  465.282;  -11.804
318.456;  553.380;  506.913;   -3.107
319.054;  512.172;  472.927;   -3.062
319.651;  495.154;  461.622;   -6.706
320.249;  536.220;  496.555;   -5.206
320.846;  467.607;  426.783;   -4.679
321.443;  550.139;  514.791;   -7.920
322.041;  534.460;  499.737;  -14.105
322.638;  459.865;  424.051;   -6.263
323.235;  424.111;  394.945;   -7.424
323.833;  484.280;  451.307;  -14.765
324.430;  391.469;  353.447;  -10.550
325.027;  582.228;  544.441;   -9.951
325.624;  408.977;  367.891;   -3.712
326.221;  443.064;  398.524;   -9.368
326.818;  542.507;  500.113;   -5.637
327.415;  481.883;  435.885;   -6.699
328.012;  443.065;  386.964;   -5.713
328.609;  470.337;  424.864;   -9.983
329.206;  506.742;  454.999;   -7.154
329.803;  469.885;  417.719;   -1.682
330.400;  440.279;  389.434;   -2.741
330.997;  522.525;  468.961;   -4.339
331.594;  509.314;  450.395;  -10.278
332.191;  463.666;  403.452;   -6.967
332.787;  542.063;  483.017;   -0.480
333.384;  483.238;  428.015;  -10.333
333.981;  513.101;  466.840;  -19.900
334.578;  436.241;  383.913;  -19.816
335.174;  445.747;  399.076;  -15.844
335.771;  531.576;  482.567;  -12.670
336.367;  439.539;  393.669;  -21.124
336.964;  508.891;  453.616;  -18.226
337.561;  457.813;  406.390;  -13.311
338.157;  588.082;  537.645;  -19.006
338.754;  508.713;  465.774;  -19.418
339.350;  451.794;  404.223;  -29.433
339.946;  488.055;  442.621;  -16.622
340.543;  538.842;  495.432;  -16.744
341.139;  448.962;  410.435;  -21.841
341.735;  489.896;  452.920;  -25.012
342.332;  430.377;  394.848;  -19.156
342.928;  505.551;  465.203;  -20.443
343.524;  488.413;  446.876;  -14.397
344.120;  462.961;  432.262;  -20.654
344.716;  453.223;  413.833;   -5.730
345.313;  507.558;  480.927;  -10.929
345.909;  379.715;  342.011;  -19.843
346.505;  472.598;  436.364;  -19.645
347.101;  525.285;  490.958;   -9.618
347.697;  511.086;  467.365;  -10.305
348.293;  382.816;  344.251;  -23.189
348.889;  472.015;  438.836;  -18.418
349.485;  431.616;  384.594;  -10.476
350.081;  497.237;  454.803;  -17.320
350.676;  441.320;  395.638;  -21.088
351.272;  520.160;  474.538;  -12.821
351.868;  498.174;  454.235;  -13.165
352.464;  459.185;  419.565;  -12.464
353.059;  414.315;  371.751;  -22.547
353.655;  505.565;  462.550;   -9.379
354.251;  494.233;  445.226;   -8.266
354.846;  482.119;  434.234;  -17.705
355.442;  484.091;  439.506;   -9.317
356.038;  480.871;  437.316;  -11.049
356.633;  470.678;  423.492;  -10.006
357.229;  469.672;  425.098;  -13.120
357.824;  450.986;  410.071;  -15.647
358.420;  431.159;  388.980;  -19.204
359.015;  444.627;  398.905;  -12.263
359.610;  501.730;  455.161;  -16.421
360.206;  382.835;  339.469;  -20.074
360.801;  408.979;  368.207;  -13.277
361.396;  469.988;  425.487;   -5.822
361.992;  428.486;  388.404;  -11.247
362.587;  421.811;  385.521;  -21.502
363.182;  441.706;  399.301;   -7.461
363.777;  488.507;  436.726;   -8.719
364.372;  485.039;  439.716;  -14.590
364.967;  446.268;  397.056;  -15.145
365.563;  535.460;  487.956;   -7.192
366.158;  442.529;  399.566;   -5.662
366.753;  419.272;  374.929;   -8.378
367.348;  492.810;  442.336;  -14.990
367.942;  447.620;  403.765;   -6.005
368.537;  490.866;  450.125;  -11.504
369.132;  464.154;  411.847;  -10.576
369.727;  411.709;  370.647;  -12.573
370.322;  376.644;  329.318;  -11.560
370.917;  466.187;  422.304;  -10.388
371.511;  576.637;  526.876;   -9.161
372.106;  513.068;  477.156;  -10.245
372.701;  380.662;  333.029;  -10.158
373.296;  575.075;  531.224;   -4.719
373.890;  426.778;  378.521;  -11.802
374.485;  459.325;  420.279;  -13.500
375.079;  486.890;  450.906;   -6.276
375.674;  545.249;  500.215;   -0.447
376.268;  455.364;  416.988;   -6.916
376.863;  378.325;  339.418;  -14.483
377.457;  436.234;  401.520;   -6.903
378.052;  505.141;  466.935;   -9.844
378.646;  500.117;  457.469;  -12.601
379.240;  480.673;  443.092;  -14.715
379.835;  423.009;  383.209;  -12.331
380.429;  369.471;  326.727;   -9.074
381.023;  529.262;  486.447;   -1.729
381.617;  457.350;  412.160;  -13.714
382.212;  457.547;  421.010;   -7.060
382.806;  514.868;  474.220;   -2.303
383.400;  459.108;  415.320;   -0.815
383.994;  444.097;  409.675;   -4.429
384.588;  474.076;  433.890;   -6.261
385.182;  489.562;  451.715;    0.008
385.776;  482.184;  444.976;   -3.247
386.370;  463.119;  425.010;   -1.030
386.964;  466.791;  428.755;   -1.346
387.558;  404.503;  358.906;   -2.020
388.152;  461.766;  426.062;   -5.345
388.745;  562.301;  525.538;   -2.774
389.339;  521.505;  484.952;    3.510
389.933;  474.666;  435.917;    5.280
390.527;  589.711;  556.134;    2.610
391.120;  400.677;  367.345;   -7.914
391.714;  482.905;  450.473;   -1.903
392.308;  535.516;  501.397;    6.023
392.901;  441.138;  405.276;   -4.103
393.495;  407.269;  373.438;    3.284
394.089;  525.200;  492.192;    8.655
394.682;  482.158;  449.791;    2.312
395.275;  494.144;  466.091;   -7.402
395.869;  456.214;  425.698;   -1.072
396.462;  418.196;  391.306;    6.454
397.056;  532.984;  500.706;    8.494
397.649;  505.116;  479.805;    1.599
398.242;  495.087;  462.999;    3.153
398.836;  526.123;  498.021;   11.395
399.429;  437.624;  400.852;   14.695
400.022;  453.013;  432.501;    3.627
400.615;  559.560;  538.132;    8.383
401.208;  472.587;  446.863;   13.295
401.802;  480.951;  454.579;    6.211
402.395;  473.246;  447.734;    7.227
402.988;  478.024;  451.215;    2.700
403.581;  439.924;  413.103;   11.225
404.174;  474.807;  453.490;   18.922
404.767;  441.978;  415.270;   14.169
405.360;  425.753;  400.695;    8.999
405.953;  520.530;  490.897;   13.138
406.545;  503.355;  476.388;   13.937
407.138;  413.977;  394.439;   10.869
407.731;  418.904;  400.391;   12.768
408.324;  454.262;  427.127;   22.921
408.917;  465.629;  443.448;   15.308
409.509;  506.541;  493.496;   12.239
410.102;  444.055;  419.217;   13.741
410.695;  450.321;  431.403;   20.249
411.287;  405.704;  386.549;   21.793
411.880;  397.846;  381.535;   22.965
412.472;  412.717;  402.894;   15.082
413.065;  425.781;  413.469;   23.423
413.657;  387.879;  371.883;   21.077
414.250;  438.419;  420.377;   12.349
414.842;  454.242;  441.751;   20.423
415.434;  384.444;  370.604;   19.906
416.027;  440.187;  421.460;   26.574
416.619;  487.440;  469.417;   15.705
417.211;  399.194;  385.081;   17.791
417.804;  421.554;  402.209;   30.244
418.396;  410.180;  399.311;   24.177
418.988;  442.163;  430.319;   24.904
419.580;  373.569;  367.521;   20.692
420.172;  358.467;  353.384;   22.275
420.764;  456.582;  439.276;   26.773
421.356;  427.280;  416.954;   25.731
421.948;  458.403;  451.479;   24.876
422.540;  457.273;  448.554;   30.042
423.132;  394.657;  389.159;   32.728
423.724;  368.502;  364.076;   21.317
424.316;  410.603;  401.037;   29.359
424.908;  391.718;  384.026;   28.798
425.500;  428.165;  420.493;   30.512
426.092;  432.893;  415.597;   26.741
426.683;  466.162;  455.610;   27.029
427.275;  426.919;  418.767;   32.611
427.867;  445.101;  436.346;   33.796
428.458;  492.158;  475.212;   34.453
429.050;  452.340;  448.830;   34.255
429.642;  494.122;  490.604;   39.082
430.233;  360.638;  356.763;   41.138
430.825;  489.451;  482.287;   31.581
431.416;  464.074;  457.128;   35.755
432.008;  422.861;  411.713;   40.566
432.599;  427.013;  421.497;   46.322
433.190;  416.212;  410.745;   46.897
433.782;  387.883;  379.813;   41.069
434.373;  592.429;  589.623;   48.778
434.964;  389.427;  379.395;   50.078
435.556;  414.116;  405.856;   52.381
436.147;  495.346;  493.316;   38.251
436.738;  455.595;  455.759;   47.237
437.329;  474.502;  462.759;   61.304
437.920;  436.322;  429.359;   48.611
438.511;  357.384;  358.172;   44.910
439.103;  395.740;  394.743;   62.404
439.694;  438.804;  435.667;   63.075
440.285;  502.903;  497.775;   61.033
440.876;  556.899;  554.861;   57.249
441.466;  361.115;  355.217;   61.306
442.057;  425.187;  421.853;   65.773
442.648;  480.678;  479.009;   65.676
443.239;  394.575;  391.774;   55.963
443.830;  455.551;  447.867;   69.631
444.421;  418.783;  409.282;   69.943
445.011;  444.597;  440.130;   72.791
445.602;  478.958;  475.218;   68.848
446.193;  286.827;  289.880;   80.044
446.783;  397.462;  390.851;   82.599
447.374;  442.121;  440.444;   77.419
447.964;  451.741;  446.408;   72.605
448.555;  528.135;  527.827;   82.041
449.145;  416.975;  411.627;   76.230
449.736;  522.865;  512.600;   75.545
450.326;  454.897;  451.236;   67.945
450.917;  427.754;  415.408;   77.598
451.507;  370.488;  362.493;   68.027
452.097;  479.408;  473.860;   67.771
452.688;  472.049;  462.279;   62.884
453.278;  341.973;  338.493;   65.512
453.868;  511.709;  503.912;   71.796
454.458;  405.118;  394.953;   60.956
455.048;  444.223;  437.873;   62.356
455.639;  338.094;  334.515;   58.782
456.229;  451.480;  440.675;   65.209
456.819;  475.904;  466.677;   61.466
457.409;  489.376;  481.128;   59.967
457.999;  462.620;  449.881;   58.093
458.589;  417.632;  417.908;   59.536
459.179;  451.795;  437.091;   55.994
459.769;  375.803;  372.249;   43.624
460.358;  496.769;  488.228;   46.978
460.948;  425.147;  408.154;   49.821
461.538;  400.900;  391.000;   54.678
462.128;  397.647;  396.875;   49.309
462.717;  432.606;  423.321;   52.774
463.307;  439.490;  423.256;   48.101
463.897;  399.026;  384.542;   45.606
464.486;  522.986;  524.293;   45.010
465.076;  452.594;  441.649;   45.519
465.666;  389.476;  374.268;   50.058
466.255;  490.511;  474.393;   44.463
466.845;  393.425;  387.211;   41.206
467.434;  440.621;  424.688;   44.847
468.023;  392.726;  377.718;   46.760
468.613;  435.065;  422.941;   39.736
469.202;  383.762;  369.407;   46.461
469.791;  442.030;  429.932;   47.944
470.381;  451.179;  434.973;   47.529
470.970;  420.393;  406.861;   43.773
471.559;  439.743;  428.056;   41.646
472.148;  396.460;  379.588;   37.914
472.738;  461.845;  441.906;   48.071
473.327;  363.316;  347.159;   47.871
473.916;  438.344;  427.635;   37.716
474.505;  448.793;  434.219;   40.256
475.094;  489.929;  471.223;   43.269
475.683;  477.037;  454.217;   36.499
476.272;  427.483;  416.541;   44.542
476.861;  414.655;  387.399;   42.297
477.449;  415.808;  400.102;   46.878
478.038;  397.697;  375.742;   35.156
478.627;  403.225;  393.394;   42.514
479.216;  439.481;  421.384;   43.937
479.805;  449.894;  429.150;   51.393
480.393;  615.563;  593.969;   53.239
480.982;  521.756;  503.699;   38.955
481.571;  505.035;  481.123;   45.436
482.159;  383.172;  365.728;   51.007
482.748;  479.345;  456.530;   49.695
483.336;  500.219;  472.134;   48.280
483.925;  431.080;  414.107;   47.166
484.513;  418.083;  396.464;   55.404
485.102;  454.056;  427.957;   54.238
485.690;  592.934;  564.805;   55.748
486.278;  565.453;  545.971;   55.934
486.867;  435.930;  418.355;   57.106
487.455;  506.445;  484.255;   56.979
488.043;  393.299;  364.352;   57.564
488.631;  568.110;  544.670;   57.432
489.220;  497.319;  467.920;   63.646
489.808;  369.443;  347.078;   65.449
490.396;  488.763;  466.870;   61.977
490.984;  421.254;  392.002;   68.834
491.572;  501.653;  463.968;   70.775
492.160;  471.465;  446.152;   67.564
492.748;  434.777;  405.612;   66.808
493.336;  513.991;  478.001;   79.747
493.924;  445.254;  404.945;   88.688
494.512;  501.709;  467.227;   84.120
495.100;  487.884;  463.219;   86.250
495.687;  517.875;  481.836;  103.074
496.275;  420.391;  384.150;  108.717
496.863;  436.598;  404.803;  107.035
497.451;  423.758;  398.294;  117.993
498.038;  456.645;  423.756;  120.116
498.626;  442.426;  410.875;  143.059
499.214;  463.753;  439.271;  153.434
499.801;  455.448;  425.344;  175.121
500.389;  378.287;  350.829;  185.617
500.976;  480.061;  442.021;  215.789
501.564;  462.415;  426.642;  240.321
502.151;  328.273;  296.059;  267.007
502.738;  429.706;  401.601;  317.961
503.326;  443.044;  407.992;  361.216
503.913;  464.780;  432.559;  401.433
504.500;  479.816;  443.554;  446.492
505.088;  405.918;  373.728;  512.063
505.675;  447.784;  409.822;  586.387
506.262;  441.953;  406.392;  671.021
506.849;  456.911;  419.819;  759.062
507.436;  512.155;  477.106;  849.788
508.023;  453.392;  416.429;  944.288
508.610;  503.205;  461.389; 1020.690
509.197;  480.130;  446.115; 1089.052
509.784;  456.193;  421.247; 1133.776
510.371;  379.893;  344.805; 1165.501
510.958;  460.496;  428.742; 1251.735
511.545;  534.236;  495.766; 1350.248
512.132;  453.042;  414.552; 1525.945
512.719;  403.113;  367.793; 1834.933
513.305;  421.273;  376.622; 1965.349
513.892;  525.735;  490.642; 1963.265
514.479;  467.552;  430.353; 2046.446
515.066;  515.980;  478.374; 2252.803
515.652;  474.991;  427.304; 2567.247
516.239;  497.172;  456.707; 2636.919
516.825;  386.284;  358.595; 2482.304
517.412;  582.670;  545.991; 2427.031
517.998;  451.022;  407.151; 2540.463
518.585;  446.506;  402.625; 2609.007
519.171;  471.220;  432.545; 2842.088
519.758;  401.042;  351.321; 3090.703
520.344;  511.527;  463.514; 3176.076
520.930;  410.743;  374.466; 3295.037
521.516;  491.359;  447.977; 3500.959
522.103;  544.516;  492.264; 3736.704
522.689;  445.689;  400.951; 3971.022
523.275;  511.973;  480.038; 4213.778
523.861;  457.077;  411.788; 4190.361
524.447;  520.969;  469.742; 4070.602
525.033;  523.619;  484.410; 4088.892
525.619;  424.786;  379.280; 4416.851
526.205;  413.128;  361.911; 4836.835
526.791;  453.444;  401.416; 4885.903
527.377;  445.074;  391.487; 4544.907
527.963;  469.440;  431.280; 4321.995
528.549;  486.381;  437.447; 4473.979
529.135;  430.152;  382.725; 4788.663
529.721;  477.936;  420.218; 4888.577
530.306;  634.248;  580.947; 4775.779
530.892;  444.698;  395.249; 4793.906
531.478;  440.398;  389.046; 4956.948
532.063;  424.601;  368.426; 5136.936
532.649;  576.183;  522.196; 5336.867
533.235;  420.023;  377.000; 5748.092
533.820;  534.146;  482.790; 6456.875
534.406;  461.415;  409.399; 6590.167
534.991;  429.689;  377.820; 6179.622
535.576;  461.483;  411.785; 6098.691
536.162;  639.956;  584.963; 6441.234
536.747;  410.709;  356.157; 6816.224
537.333;  429.935;  376.896; 6889.752
537.918;  465.523;  412.087; 7154.280
538.503;  450.001;  388.705; 7150.848
539.088;  496.714;  436.665; 7253.308
539.673;  459.924;  407.318; 7625.180
540.259;  440.190;  383.364; 8226.793
540.844;  393.986;  336.610; 8745.092
541.429;  576.841;  519.480; 8762.553
542.014;  413.559;  350.519; 8871.497
542.599;  498.177;  435.412; 8886.008
543.184;  427.791;  356.454; 9079.139
543.769;  449.201;  383.817; 9076.182
544.354;  464.631;  395.094; 8354.081
544.938;  492.719;  437.052; 8236.809
545.523;  577.844;  512.791; 8222.179
546.108;  485.403;  415.345; 8114.082
546.693;  480.680;  413.231; 8535.912
547.278;  482.494;  413.668; 9238.322
547.862;  492.163;  408.157; 9034.405
548.447;  538.569;  462.999; 7795.011
549.031;  476.138;  404.079; 7485.099
549.616;  513.815;  435.463; 7626.308
550.201;  480.055;  393.375; 7627.909
550.785;  545.614;  449.341; 7859.125
551.370;  444.683;  359.017; 7990.654
551.954;  556.958;  467.270; 8196.468
552.538;  548.841;  457.008; 7959.495
553.123;  482.520;  384.555; 7964.826
553.707;  494.071;  400.284; 8515.957
554.291;  593.077;  489.018; 8724.024
554.876;  570.237;  460.260; 8524.211
555.460;  500.927;  384.052; 8704.456
556.044;  505.528;  387.855; 9141.473
556.628;  545.095;  417.244; 9250.197
557.212;  617.445;  479.461; 9444.237
557.796;  551.714;  405.744; 9379.783
558.380;  588.544;  434.930; 9353.658
558.964;  589.060;  421.226; 9210.310
559.548;  529.371;  353.821; 8475.153
560.132;  581.391;  397.378; 7954.084
560.716;  551.481;  363.734; 7489.529
561.300;  567.133;  357.771; 7211.952
561.884;  666.279;  449.167; 7141.313
562.467;  676.404;  445.272; 7155.386
563.051;  678.441;  417.174; 7323.158
563.635;  699.059;  401.327; 7709.114
564.219;  734.222;  414.401; 7678.855
564.802;  790.340;  443.494; 7376.187
565.386;  799.787;  421.879; 7054.372
565.969;  885.184;  490.012; 6589.196
566.553;  967.845;  538.506; 6279.371
567.136;  956.984;  479.126; 5967.930
567.720;  954.466;  420.827; 5660.703
568.303; 1010.199;  435.839; 5648.615
568.887; 1052.154;  420.625; 5618.443
569.470; 1111.311;  434.505; 5411.875
570.053; 1151.073;  461.885; 5149.274
570.637; 1135.032;  379.297; 5122.798
571.220; 1284.202;  464.538; 4957.369
571.803; 1464.656;  541.031; 4933.018
572.386; 1445.499;  395.375; 4840.973
572.969; 1578.066;  404.785; 4592.886
573.552; 1706.106;  408.464; 4348.387
574.135; 1727.632;  381.817; 4002.290
574.718; 1756.131;  389.178; 3654.773
575.301; 1886.618;  385.145; 3502.288
575.884; 2017.104;  381.111; 3349.803
576.467; 2347.199;  478.927; 3191.403
577.050; 2556.086;  428.239; 3062.418
577.633; 2939.347;  519.252; 3214.200
578.216; 3021.322;  403.683; 3284.889
578.799; 3167.656;  404.034; 3189.777
579.381; 3459.265;  541.163; 3064.502
579.964; 3534.604;  385.784; 2888.357
580.547; 3914.329;  428.540; 2905.760
581.129; 4255.400;  497.348; 2966.849
581.712; 4422.016;  447.028; 2887.292
582.294; 4743.928;  420.025; 2771.631
582.877; 5260.096;  539.038; 2711.602
583.459; 5492.505;  414.466; 2577.049
584.042; 6032.662;  408.667; 2454.707
584.624; 6456.584;  379.923; 2305.893
585.206; 6537.912;  326.348; 2189.546
585.789; 6939.163;  391.946; 2112.577
586.371; 7229.298;  441.495; 2153.065
586.953; 7537.389;  465.752; 2197.806
587.536; 7941.622;  495.483; 2105.489
588.118; 8343.099;  411.286; 1963.911
588.700; 8976.475;  503.076; 1843.179
589.282; 9484.979;  447.902; 1813.834
589.864;10063.439;  420.445; 1777.620
590.446;10629.851;  329.246; 1733.780
591.028;11214.508;  425.227; 1676.008
591.610;11350.970;  342.207; 1631.649
592.192;11793.207;  430.570; 1632.362
592.774;11927.335;  365.246; 1569.507
593.356;12502.654;  392.805; 1524.539
593.937;12900.269;  383.391; 1569.720
594.519;13878.801;  481.979; 1569.049
595.101;14559.795;  348.094; 1545.452
595.683;15442.948;  401.609; 1607.568
596.264;17006.891;  413.014; 1615.506
596.846;18001.717;  400.744; 1667.622
597.427;18118.189;  389.318; 1670.469
598.009;18273.533;  386.714; 1640.312
598.591;18924.451;  456.341; 1541.022
599.172;18550.732;  405.793; 1598.665
599.753;18300.221;  359.390; 1619.068
600.335;18414.074;  500.893; 1548.612
600.916;18754.857;  410.410; 1607.510
601.498;19375.688;  434.136; 1745.181
602.079;20180.430;  416.725; 1801.011
602.660;21471.998;  414.874; 1834.640
603.241;21574.582;  328.998; 1787.351
603.823;21634.137;  394.777; 1684.266
604.404;22152.166;  364.402; 1654.241
604.985;23084.570;  401.455; 1758.741
605.566;23434.010;  469.937; 1697.679
606.147;23860.396;  411.297; 1526.728
606.728;24417.225;  361.883; 1484.086
607.309;24453.301;  385.917; 1421.070
607.890;24100.912;  402.220; 1369.867
608.471;24113.250;  379.906; 1277.826
609.051;23976.969;  433.033; 1180.416
609.632;23732.232;  372.346; 1075.816
610.213;23840.273;  411.693; 1053.313
610.794;23898.740;  398.314;  979.442
611.374;24752.248;  438.800;  917.414
611.955;25399.598;  351.498;  819.987
612.536;25822.188;  438.963;  752.627
613.116;25481.563;  386.882;  690.799
613.697;25337.561;  383.263;  674.974
614.277;24672.471;  376.279;  663.846
614.858;23762.361;  386.020;  665.898
615.438;23521.006;  420.529;  660.712
616.019;23789.859;  497.074;  632.732
616.599;24429.340;  323.350;  551.759
617.179;25853.273;  361.926;  512.871
617.760;26615.113;  558.005;  473.655
618.340;26066.270;  411.157;  440.004
618.920;25078.451;  513.467;  429.731
619.500;25220.129;  396.617;  441.361
620.080;24778.588;  375.435;  425.202
620.660;23943.115;  375.586;  408.164
621.241;23979.926;  395.128;  387.161
621.821;23660.307;  418.053;  378.017
622.401;23356.508;  468.066;  379.188
622.980;23541.893;  352.664;  350.019
623.560;23441.141;  393.369;  336.446
624.140;21623.227;  425.268;  336.473
624.720;20274.930;  438.321;  334.974
625.300;19844.570;  367.297;  325.717
625.880;21173.459;  410.661;  308.519
626.459;22634.811;  412.112;  307.117
627.039;23410.326;  340.643;  290.890
627.619;24039.887;  539.219;  286.635
628.198;24154.146;  478.807;  282.535
628.778;24696.031;  446.655;  285.474
629.357;24580.795;  363.050;  284.103
629.937;24020.961;  396.128;  292.178
630.516;23439.596;  500.902;  290.749
631.096;23008.146;  377.050;  285.489
631.675;23646.414;  491.125;  287.022
632.254;23223.139;  384.127;  286.038
632.834;22722.680;  410.949;  276.451
633.413;22459.717;  501.045;  279.447
633.992;22032.002;  472.220;  264.508
634.571;21980.883;  448.108;  271.010
635.151;22144.771;  367.866;  277.338
635.730;21678.809;  410.105;  289.305
636.309;21968.252;  441.237;  285.306
636.888;22238.779;  449.985;  254.051
637.467;23031.529;  337.144;  230.324
638.046;23522.527;  498.141;  253.349
638.625;23279.459;  484.452;  246.866
639.204;21884.068;  428.662;  240.825
639.782;21089.127;  413.143;  261.970
640.361;19607.102;  482.874;  277.780
640.940;19483.488;  382.110;  270.101
641.519;20522.709;  439.647;  248.622
642.097;21949.928;  447.483;  239.843
642.676;23308.115;  423.953;  244.264
643.255;23808.068;  401.956;  234.985
643.833;23794.656;  448.226;  244.406
644.412;23035.275;  395.396;  244.927
644.990;22346.662;  418.399;  249.948
645.569;21659.383;  444.669;  249.569
646.147;22113.135;  468.672;  243.290
646.726;22001.855;  425.709;  249.511
647.304;21540.809;  402.579;  228.032
647.882;21662.762;  335.515;  214.552
648.461;21980.682;  434.185;  214.973
649.039;21696.568;  456.889;  223.394
649.617;21636.322;  452.492;  261.415
650.195;20770.076;  427.495;  298.736
650.773;20282.795;  392.832;  309.557
651.352;20290.383;  323.801;  297.978
651.930;19641.703;  318.671;  289.399
652.508;19428.090;  458.841;  285.620
653.086;19212.510;  434.078;  272.241
653.663;20220.229;  374.914;  265.062
654.241;21802.982;  356.318;  286.083
654.819;21916.836;  362.354;  286.404
655.397;21661.756;  376.591;  291.825
655.975;21206.275;  401.194;  299.145
656.553;21363.563;  500.364;  288.866
657.130;21536.982;  367.800;  304.087
657.708;21017.402;  430.804;  302.908
658.286;20439.789;  414.340;  294.629
658.863;19881.043;  426.177;  293.350
659.441;19946.230;  426.813;  318.671
660.018;21040.650;  413.016;  333.692
660.596;21399.369;  326.286;  335.013
661.173;21105.822;  389.056;  371.534
661.750;21266.076;  368.959;  365.155
662.328;22484.396;  444.363;  349.976
662.905;21916.949;  393.499;  332.997
663.482;20334.504;  407.269;  321.717
664.060;19592.123;  381.572;  314.438
664.637;19393.609;  456.109;  306.259
665.214;19650.730;  425.479;  314.580
665.791;20640.551;  400.882;  334.501
666.368;21503.604;  386.252;  329.222
666.945;22133.824;  452.688;  342.143
667.522;22613.645;  371.892;  370.964
668.099;22480.564;  404.828;  396.885
668.676;21711.117;  404.831;  391.706
669.253;21938.137;  504.701;  369.627
669.830;23008.357;  481.505;  360.348
670.407;22636.711;  404.108;  344.769
670.984;22422.330;  410.411;  322.890
671.560;22827.816;  455.814;  316.910
672.137;22689.771;  388.117;  322.531
672.714;21961.457;  437.121;  318.552
673.290;22176.910;  427.957;  324.473
673.867;21710.697;  379.494;  340.594
674.443;21757.518;  354.464;  319.515
675.020;22135.371;  424.067;  286.336
675.596;22180.191;  402.037;  247.557
676.173;22928.811;  347.573;  227.778
676.749;23987.965;  301.010;  224.399
677.326;24997.484;  342.280;  230.520
677.902;25372.305;  374.416;  241.841
678.478;24200.490;  349.919;  239.762
679.054;23728.910;  620.423;  248.583
679.631;23778.598;  432.093;  237.503
680.207;24103.184;  520.296;  245.924
680.783;23862.904;  316.666;  224.845
681.359;23021.891;  410.836;  209.666
681.935;22936.078;  415.505;  191.687
682.511;23899.432;  416.242;  210.008
683.087;24377.551;  441.445;  213.329
683.663;24172.605;  398.882;  216.850
684.239;23102.658;  350.018;  229.471
684.815;21832.578;  468.988;  248.792
685.390;21588.232;  529.491;  231.813
685.966;22907.451;  413.461;  221.234
686.542;23014.605;  375.298;  214.255
687.118;22273.658;  421.001;  212.276
687.693;22791.578;  443.704;  233.096
688.269;23763.398;  401.074;  246.917
688.844;23925.385;  436.044;  236.938
689.420;25210.205;  418.281;  242.059
689.995;25838.559;  510.317;  245.480
690.571;24815.145;  487.387;  244.701
691.146;24316.299;  399.657;  251.922
691.722;25371.852;  431.160;  284.743
692.297;25051.705;  383.697;  320.664
692.872;23811.225;  371.067;  313.885
693.448;23073.246;  363.270;  290.106
694.023;23487.398;  420.573;  304.327
694.598;24422.252;  416.443;  319.648
695.173;25261.406;  391.680;  323.169
695.748;25990.059;  326.783;  376.389
696.323;25407.313;  407.086;  397.610
696.898;24110.398;  476.623;  430.231
697.473;23554.385;  335.926;  454.952
698.048;22636.705;  395.396;  478.973
698.623;22053.525;  348.499;  477.094
699.198;22504.945;  421.569;  496.915
699.773;22144.799;  377.505;  490.236
700.348;21627.086;  357.509;  519.957
700.922;22354.605;  412.778;  575.678
701.497;22075.059;  407.648;  621.399
702.072;21939.213;  459.318;  664.420
702.646;21997.467;  449.388;  690.541
703.221;22064.520;  426.625;  748.862
703.795;21586.840;  360.594;  774.282
704.370;21192.293;  296.731;  799.803
704.944;21129.479;  394.334;  875.824
705.519;20937.299;  422.104;  902.945
706.093;21419.820;  368.807;  889.266
706.668;22911.906;  444.311;  903.487
707.242;23673.160;  450.080;  881.708
707.816;23218.213;  386.317;  892.329
708.390;22929.766;  405.454;  970.250
708.965;22591.221;  426.357;  984.671
709.539;21967.807;  399.660; 1026.092
710.113;21867.859;  410.530; 1067.913
710.687;22379.447;  449.766; 1166.434
711.261;22411.834;  356.003; 1190.854
711.835;22518.188;  365.506; 1197.275
712.409;22250.307;  328.643; 1308.096
712.983;22929.693;  338.346; 1461.617
713.557;23175.514;  337.683; 1611.838
714.131;22674.566;  397.819; 1554.359
714.704;22270.154;  368.289; 1520.780
715.278;21678.541;  408.759; 1575.101
715.852;20476.994;  445.995; 1689.822
716.425;20246.414;  520.432; 1829.143
716.999;20352.734;  331.435; 2008.664
717.573;20813.721;  435.738; 2000.485
718.146;20778.406;  507.875; 1914.506
718.720;20268.861;  415.978; 1818.026
719.293;20746.680;  431.881; 1734.147
719.867;20845.635;  371.085; 1716.968
720.440;21084.221;  477.755; 1918.589
721.013;21690.074;  380.458; 1975.410
721.587;21575.193;  341.994; 2073.331
722.160;20970.848;  455.064; 2357.852
722.733;20888.668;  419.534; 2657.073
723.306;20608.055;  404.204; 2703.894
723.880;19442.574;  420.674; 2549.415
724.453;18991.994;  482.310; 2414.336
725.026;19489.047;  380.414; 2298.557
725.599;20475.301;  423.417; 2168.778
726.172;21693.955;  436.120; 2106.099
726.745;21254.408;  426.923; 2253.320
727.318;20440.127;  456.693; 2404.740
727.891;20388.080;  422.696; 2680.161
728.463;21129.268;  415.466; 2838.882
729.036;21981.354;  373.903; 2755.103
729.609;22272.074;  365.373; 2731.824
730.182;21741.729;  448.843; 2855.645
730.754;20892.049;  306.879; 2946.866
731.327;20832.969;  430.849; 2840.187
731.900;20190.055;  340.786; 2647.608
732.472;20468.508;  410.456; 2473.929
733.045;21172.695;  387.159; 2445.750
733.617;21013.980;  329.229; 2511.771
734.190;20146.535;  428.232; 2581.592
734.762;19020.455;  400.902; 2710.813
735.334;18807.008;  412.272; 3005.733
735.907;19112.195;  411.542; 3154.954
736.479;19684.449;  469.678; 3171.675
737.051;20423.102;  430.848; 3217.496
737.623;20322.555;  445.751; 3246.217
738.195;19688.809;  375.954; 2985.238
738.768;19266.961;  308.891; 2727.559
739.340;19287.949;  387.394; 2666.880
739.912;19401.002;  452.164; 2769.601
740.484;19782.822;  432.401; 2731.422
741.056;20173.408;  394.970; 2963.043
741.628;19614.162;  360.507; 3361.364
742.199;19026.449;  477.377; 3641.185
742.771;18589.303;  347.947; 3932.005
743.343;18706.189;  360.417; 4319.926
743.915;19409.775;  430.787; 4706.647
744.487;19415.596;  435.456; 4874.968
745.058;19046.383;  438.360; 4616.589
745.630;18852.836;  441.496; 4253.410
746.201;18631.355;  376.899; 4056.131
746.773;18196.309;  433.369; 3772.952
747.344;18384.963;  403.406; 3642.473
747.916;18793.016;  422.642; 3752.294
748.487;18959.902;  449.846; 4106.215
749.059;18241.889;  349.649; 4457.835
749.630;18076.309;  377.119; 4366.457
750.201;18247.029;  405.889; 4600.078
750.773;18084.016;  375.092; 4658.499
751.344;17784.236;  412.462; 4609.319
751.915;17802.689;  405.532; 4526.440
752.486;17071.943;  371.235; 4536.061
753.057;16438.330;  413.405; 4383.282
753.628;16493.916;  365.275; 4296.503
754.199;17161.803;  385.978; 4383.224
754.770;17863.922;  443.748; 4653.545
755.341;18834.775;  459.018; 4831.666
755.912;18778.230;  395.754; 4831.387
756.483;18201.184;  438.857; 4735.808
757.054;17336.736;  389.961; 4685.029
757.625;16959.756;  361.131; 4994.250
758.195;17116.943;  345.634; 5051.471
758.766;17701.162;  418.904; 5317.792
759.337;17662.982;  330.474; 5646.512
759.907;17711.436;  341.910; 5404.133
760.478;17884.557;  377.280; 5090.954
761.048;17353.209;  433.950; 4871.175
761.619;16534.197;  430.920; 4589.396
762.189;16915.283;  401.090; 4171.317
762.760;17169.570;  455.526; 3872.538
763.330;16673.557;  440.663; 3832.259
763.900;16673.344;  420.233; 4150.180
764.471;16591.664;  361.269; 4529.801
765.041;16309.384;  466.706; 4715.922
765.611;15822.737;  427.909; 4681.442
766.181;15841.724;  399.712; 4717.063
766.751;16540.543;  413.315; 4710.285
767.321;16908.064;  351.385; 4450.305
767.891;16617.850;  415.122; 4274.126
768.461;15584.737;  397.025; 4215.047
769.031;15064.424;  406.562; 4173.068
769.601;15295.377;  459.531; 4174.689
770.171;15358.530;  341.035; 4229.310
770.741;15730.950;  382.638; 4352.031
771.311;16353.938;  435.608; 4336.652
771.880;16377.591;  356.811; 4300.873
772.450;15701.311;  370.614; 4387.194
773.020;14671.397;  331.117; 4220.415
773.589;14847.484;  385.954; 4075.835
774.159;14995.537;  378.624; 4105.756
774.729;14937.624;  376.760; 4114.978
775.298;15119.378;  371.997; 3693.298
775.867;15014.631;  375.500; 3343.119
776.437;14734.651;  405.770; 3062.040
777.006;15101.805;  339.440; 2927.161
777.576;15282.791;  437.543; 3046.482
778.145;15095.878;  426.646; 3230.203
778.714;14888.931;  404.083; 3253.324
779.283;14532.218;  434.386; 3129.745
779.853;14132.571;  396.056; 2983.566
780.422;14204.824;  406.526; 2929.887
780.991;14199.411;  426.829; 2863.908
781.560;14270.564;  475.832; 2948.029
782.129;14727.451;  426.069; 3074.149
782.698;14218.171;  482.472; 2893.970
783.267;13384.625;  378.875; 2721.391
783.836;12921.312;  411.212; 2659.712
784.404;12844.331;  351.782; 2622.233
784.973;13340.552;  299.652; 2600.754
785.542;13820.505;  397.522; 2528.475
786.111;14159.191;  465.225; 2404.396
786.679;13764.045;  430.561; 2365.717
787.248;12522.565;  333.731; 2498.438
787.817;11067.685;  383.335; 2645.659
788.385;10339.205;  460.104; 2709.280
788.954;10898.726;  340.841; 2620.500
789.522;12405.778;  446.078; 2625.422
790.090;13400.898;  341.547; 2743.843
790.659;13591.019;  386.784; 2635.163
791.227;13073.105;  393.354; 2495.484
791.795;12570.192;  418.024; 2413.705
792.364;12191.045;  361.460; 2345.326
792.932;12384.365;  429.630; 2350.447
793.500;12662.985;  392.500; 2429.768
794.068;12820.438;  340.437; 2513.589
794.636;12657.726;  361.940; 2664.310
795.204;12242.979;  324.976; 2721.431
795.772;12056.332;  364.580; 2802.052
796.340;12007.186;  375.283; 2847.173
796.908;11810.539;  327.386; 2997.194
797.476;11960.025;  347.923; 3151.615
798.044;12557.679;  317.526; 3110.735
798.612;13564.532;  397.196; 2931.656
799.180;13649.286;  409.266; 2785.777
799.747;13126.906;  406.369; 2899.098
800.315;11723.593;  347.272; 2955.519
800.883;11067.846;  318.375; 2948.940
801.450;11621.433;  396.478; 2965.361
802.018;12451.020;  417.915; 3070.582
802.585;12844.673;  399.685; 3156.103
803.153;12518.859;  370.655; 3199.524
803.720;12286.546;  375.925; 3168.845
804.287;12554.899;  386.995; 3248.366
804.855;12710.553;  452.264; 3406.187
805.422;12833.307;  385.801; 3430.907
805.989;13235.359;  365.071; 3453.528
806.556;13260.279;  364.707; 3612.649
807.124;13522.767;  444.911; 3736.570
807.691;13187.253;  354.214; 3770.491
808.258;12619.673;  399.484; 3705.012
808.825;12297.160;  451.687; 3828.733
809.392;12025.580;  483.557; 3986.754
809.959;11595.366;  419.560; 4410.075
810.526;11705.554;  487.463; 4774.996
811.093;11525.840;  468.033; 4754.217
811.659;10811.227;  396.236; 4661.238
812.226;10392.580;  397.673; 4672.559
812.793;10552.333;  417.976; 4822.979
813.360;10718.021;  395.079; 5189.800
813.926;11168.373;  417.149; 5310.622
814.493;11810.794;  347.153; 5414.542
815.060;11824.113;  320.556; 5548.963
815.626;11104.300;  345.559; 5452.284
816.193;10845.254;  405.129; 5339.305
816.759;10641.874;  363.365; 5544.426
817.325;10550.460;  320.269; 5706.547
817.892;10603.647;  441.005; 5623.468
818.458;10751.467;  423.208; 5586.689
819.024;11250.653;  460.978; 5647.910
819.591;11049.773;  396.715; 5762.031
820.157;10706.327;  344.818; 6284.452
820.723;10345.547;  418.721; 6906.973
821.289;10280.334;  625.725; 7086.894
821.855;10024.320;  433.094; 7054.915
822.421; 9819.074;  375.031; 7112.035
822.987; 9962.228;  351.401; 7256.156
823.553;10025.081;  382.504; 7538.077
824.119; 9743.001;  445.174; 7594.298
824.685; 9356.888;  464.044; 7613.619
825.251; 8997.208;  440.714; 7644.140
825.816; 8664.161;  493.750; 7720.261
826.382; 8466.748;  434.787; 8014.282
826.948; 8429.935;  442.690; 8281.503
827.513; 8681.487;  389.727; 8289.624
828.079; 8985.574;  354.663; 8587.045
828.645; 8915.295;  414.766; 8821.865
829.210; 8622.048;  344.270; 9054.486
829.776; 8511.034;  427.573; 9054.607
830.341; 8272.788;  441.543; 9415.628
830.906; 7859.042;  455.779; 9932.449
831.472; 6901.095;  368.316;10150.271
832.037; 6189.881;  447.052; 9420.391
832.602; 5727.668;  376.156; 8664.912
833.167; 5869.688;  402.892; 8491.933
833.733; 6273.475;  449.562; 8872.854
834.298; 6321.162;  352.765; 9370.575
834.863; 6220.615;  426.135; 9610.695
835.428; 6203.501;  420.238; 9655.616
835.993; 6416.222;  429.042; 9437.838
836.558; 6816.842;  438.978; 9441.459
837.123; 6930.028;  544.548; 9600.979
837.688; 6502.215;  429.385; 9798.301
838.253; 6274.568;  420.754; 9902.921
838.817; 6013.789;  387.524;10339.742
839.382; 5946.909;  477.961;10548.363
839.947; 5771.962;  414.764;10252.484
840.511; 5730.515;  487.934;10040.005
841.076; 5381.702;  316.471;10099.926
841.641; 5189.222;  430.607;10347.347
842.205; 4980.708;  419.110;10817.368
842.770; 5035.396;  505.380;11435.289
843.334; 4994.482;  390.250;12072.409
843.898; 4959.402;  394.687;12635.431
844.463; 5113.622;  480.390;12537.252
845.027; 4982.609;  377.593;12759.673
845.591; 4961.629;  450.730;12821.993
846.156; 4811.682;  379.933;12520.914
846.720; 4808.036;  445.703;12390.436
847.284; 4466.456;  414.939;12956.456
847.848; 3939.209;  435.043;13240.177
848.412; 3674.029;  406.379;13216.998
848.976; 3954.849;  480.816;13014.619
849.540; 4284.203;  527.286;12355.740
850.104; 4221.389;  482.255;12208.761
850.668; 3903.709;  326.692;12106.882
851.232; 3879.596;  339.362;11862.103
851.796; 4081.983;  399.098;11700.523
852.359; 4250.336;  449.802;12375.944
852.923; 4289.523;  463.538;13087.966
853.487; 4195.709;  443.308;13297.187
854.050; 3919.629;  277.978;13851.207
854.614; 3940.216;  385.048;14854.229
855.177; 3933.703;  425.451;15802.149
855.741; 3959.923;  432.921;16603.570
856.304; 3987.210;  459.991;16359.891
856.868; 3743.863;  360.827;14365.512
857.431; 3569.083;  411.631;13361.333
857.995; 3418.770;  393.267;14130.554
858.558; 3487.257;  433.570;14883.175
859.121; 3655.410;  444.274;15754.195
859.684; 3823.463;  419.777;15995.017
860.247; 3817.950;  411.280;15149.537
860.810; 3668.337;  387.650;14640.358
861.374; 3720.323;  531.387;15551.079
861.937; 3475.443;  359.956;16519.801
862.500; 3461.330;  379.460;16796.521
863.062; 3366.483;  366.129;16538.742
863.625; 3345.803;  429.333;16716.764
864.188; 3226.590;  385.303;17055.084
864.751; 3260.344;  389.439;17197.705
865.314; 3268.897;  410.176;17151.625
865.876; 3221.884;  458.546;17783.547
866.439; 3133.170;  442.049;19283.467
867.002; 3112.024;  524.252;20256.389
867.564; 2946.644;  470.822;20485.410
868.127; 2819.264;  426.825;20789.730
868.689; 2846.484;  426.428;21981.951
869.252; 2936.637;  469.665;23803.771
869.814; 2863.891;  370.668;24974.094
870.377; 2917.477;  417.505;24690.314
870.939; 2992.097;  597.108;23963.436
871.501; 2758.284;  424.544;25167.156
872.063; 2584.704;  299.948;26995.477
872.626; 2611.024;  325.218;27443.098
873.188; 2771.577;  423.421;26718.418
873.750; 2741.698;  402.591;26558.840
874.312; 2684.251;  386.194;26701.561
874.874; 2704.538;  501.397;27970.582
875.436; 2565.491;  453.067;29173.402
875.998; 2582.678;  480.570;30376.623
876.560; 2532.964;  455.507;32507.344
877.122; 2352.684;  377.577;34833.066
877.683; 2239.704;  445.780;36458.285
878.245; 2006.358;  394.850;37248.207
878.807; 1989.945;  437.420;36758.027
879.369; 2032.898;  347.490;35223.551
879.930; 2193.518;  365.359;33824.969
880.492; 2361.105;  478.796;34436.492
881.053; 2204.658;  375.133;37745.313
881.615; 2154.778;  381.002;41184.633
882.176; 2060.798;  406.606;42871.555
882.738; 2044.552;  445.376;41693.074
883.299; 1888.938;  324.079;40289.895
883.860; 1875.658;  331.382;39231.215
884.422; 1944.278;  443.552;38264.039
884.983; 1805.832;  361.488;37171.859
885.544; 1805.585;  418.658;35842.379
886.105; 1729.072;  409.428;34810.000
886.666; 1618.492;  391.231;34519.020
887.227; 1490.745;  334.968;33905.641
887.788; 1529.165;  426.605;34502.965
888.349; 1434.719;  353.974;34241.785
888.910; 1526.239;  455.311;33722.203
889.471; 1479.259;  429.514;32539.625
890.032; 1420.545;  412.017;31528.346
890.593; 1433.232;  443.087;32655.068
891.153; 1370.685;  401.324;33882.289
891.714; 1278.072;  344.860;33318.711
892.275; 1252.759;  354.864;31848.930
892.835; 1331.812;  458.667;30339.752
893.396; 1271.399;  453.937;30074.973
893.956; 1182.819;  394.340;30338.393
894.517; 1167.706;  421.043;30864.113
895.077; 1164.959;  428.546;29766.734
895.638; 1205.412;  500.450;26379.557
896.198; 1037.166;  356.486;24056.277
896.758; 1100.486;  452.956;22961.898
897.319; 1036.706;  398.059;21772.020
897.879; 1021.859;  411.262;20877.539
898.439;  919.579;  335.866;19509.461
898.999; 1012.766;  438.869;17297.582
899.559;  981.386;  431.972;14712.002
900.119;  872.039;  358.775;12790.224
900.679;  978.559;  489.679;11586.744
901.239;  898.079;  437.948;10776.465
901.799;  865.533;  419.118; 9691.687
902.359;  813.586;  376.388; 8725.907
902.919;  791.406;  371.258; 8305.728
903.479;  781.693;  364.361; 8172.649
904.038;  754.913;  345.465; 7913.870
904.598;  692.366;  305.534; 7262.291
905.158;  756.220;  382.171; 6609.012
905.717;  759.673;  400.174; 6236.133
906.277;  753.926;  410.444; 5829.054
906.836;  764.746;  426.814; 5396.674
907.396;  751.866;  431.251; 4964.195
907.955;  751.887;  432.354; 4528.917
908.515;  702.873;  392.224; 4223.837
909.074;  698.060;  395.927; 4023.958
909.633;  686.680;  395.663; 4065.379
910.192;  794.467;  498.900; 4066.300
910.752;  676.533;  391.767; 3971.600
911.311;  667.367;  382.400; 3839.600
911.870;  637.367;  367.300; 3684.500
912.429;  727.033;  459.167; 3635.600
912.988;  719.100;  457.667; 3689.800
913.547;  623.400;  359.367; 3737.700
914.106;  664.133;  417.600; 3740.300
914.665;  665.333;  409.033; 3604.600
915.224;  711.167;  456.700; 3358.700
915.782;  620.800;  382.233; 3188.400
916.341;  709.033;  474.000; 3091.400
916.900;  627.933;  385.133; 3044.800
917.458;  605.700;  359.667; 2888.600
918.017;  646.733;  411.167; 2818.900
918.576;  618.467;  382.367; 2838.600
919.134;  568.700;  334.833; 2880.100
919.693;  615.633;  381.600; 2996.300
920.251;  604.267;  371.233; 3183.100
920.809;  573.767;  352.667; 3247.000
921.368;  607.967;  383.667; 3156.600
921.926;  586.767;  356.967; 2964.900
922.484;  617.300;  404.933; 2846.300
923.042;  606.167;  386.033; 2890.400
923.601;  686.500;  469.600; 2987.700
924.159;  657.967;  424.600; 3049.800
924.717;  584.300;  360.533; 3087.000
925.275;  621.733;  408.000; 3093.400
925.833;  546.300;  320.600; 3182.400
926.391;  657.500;  433.233; 3397.900
926.949;  606.900;  379.300; 3575.400
927.506;  639.367;  416.333; 3713.400
928.064;  622.333;  385.633; 3871.300
928.622;  631.967;  392.033; 4092.800
929.180;  586.900;  340.433; 4499.300
929.737;  572.967;  333.567; 4813.200
930.295;  671.167;  421.833; 5084.100
930.853;  608.933;  358.500; 5185.000
931.410;  584.600;  340.700; 5313.100
931.968;  668.367;  432.900; 5339.600
932.525;  637.600;  402.267; 5399.900
933.082;  567.667;  335.967; 5457.500
933.640;  651.200;  411.667; 5692.900
934.197;  632.567;  378.467; 5821.200
934.754;  641.200;  380.133; 5617.900
935.312;  624.800;  358.033; 5512.400
935.869;  729.733;  472.967; 5582.400
936.426;  628.267;  369.467; 5650.100
936.983;  641.267;  381.833; 5657.400
937.540;  608.233;  340.200; 5564.300
938.097;  687.067;  415.000; 5574.000
938.654;  649.933;  376.900; 5665.900
939.211;  691.833;  410.433; 5931.600
939.768;  662.333;  391.667; 6153.600
940.324;  647.233;  379.133; 6397.600
940.881;  629.000;  358.067; 6454.200
941.438;  732.000;  456.500; 6206.900
941.995;  710.433;  433.467; 6003.900
942.551;  614.000;  343.800; 6228.300
943.108;  655.900;  400.467; 6603.500
943.664;  614.300;  346.000; 7188.100
944.221;  768.133;  501.467; 7579.900
944.777;  607.400;  338.500; 7658.100
945.334;  614.333;  350.667; 7670.400
945.890;  662.700;  394.300; 7525.100
946.446;  667.100;  394.533; 7261.500
947.003;  680.733;  408.767; 6949.200
947.559;  748.267;  485.033; 6773.100
948.115;  715.167;  448.033; 6668.400
948.671;  666.467;  409.933; 6488.400
949.227;  591.333;  328.733; 6236.600
949.783;  580.233;  320.900; 6008.900
950.339;  677.267;  421.133; 5934.100
950.895;  707.067;  442.667; 5933.500
951.451;  636.400;  376.367; 6074.700
952.007;  674.533;  423.667; 6066.400
952.563;  635.167;  379.633; 5884.100
953.118;  617.700;  368.967; 5733.800
953.674;  639.733;  387.100; 5734.300
954.230;  638.933;  397.600; 6039.700
954.785;  632.400;  390.133; 6383.500
955.341;  681.367;  431.767; 6568.200
955.897;  559.733;  318.533; 6488.600
956.452;  646.867;  408.600; 6239.200
957.008;  750.367;  506.300; 5954.600
957.563;  698.167;  453.800; 5816.700
958.118;  601.167;  362.033; 5828.200
958.674;  646.100;  402.500; 5717.400
959.229;  699.867;  458.500; 5506.800
959.784;  572.500;  329.600; 5292.200
960.339;  697.667;  456.900; 5101.900
960.894;  666.267;  430.767; 5093.200
961.449;  586.333;  350.767; 5227.900
962.004;  852.000;  612.867; 5349.300
962.559;  599.600;  362.333; 5514.900
963.114;  515.133;  277.600; 5717.300
963.669;  633.100;  400.667; 5841.400
964.224;  612.800;  362.667; 5805.900
964.779;  574.967;  339.700; 5723.400
965.334;  703.167;  478.467; 5779.500
965.888;  601.467;  366.033; 5948.500
966.443;  669.100;  437.900; 6344.200
966.998;  553.967;  320.033; 6666.300
967.552;  620.700;  397.733; 6710.100
968.107;  599.067;  362.067; 6593.500
968.661;  639.733;  406.600; 6344.100
969.216;  593.733;  365.067; 6062.400
969.770;  641.767;  408.800; 5785.500
970.324;  638.967;  409.633; 5426.800
970.879;  654.667;  438.733; 5016.800
971.433;  656.900;  436.900; 4904.500
971.987;  611.933;  399.100; 4991.000
972.541;  630.500;  417.867; 4978.500
973.095;  697.267;  486.000; 4832.000
973.649;  545.233;  332.100; 4767.900
974.203;  558.400;  356.433; 4881.200
974.757;  581.667;  367.767; 4969.500
975.311;  595.200;  386.967; 4953.000
975.865;  597.833;  394.600; 4884.300
976.419;  584.733;  376.067; 4739.800
976.973;  576.833;  369.367; 4698.100
977.526;  646.867;  451.800; 4631.100
978.080;  530.133;  331.567; 4621.600
978.634;  618.800;  432.200; 4650.200
979.187;  608.733;  417.767; 4669.200
979.741;  694.300;  509.633; 4658.000
980.294;  529.167;  340.700; 4579.100
980.848;  484.033;  296.033; 4452.800
981.401;  551.167;  368.200; 4271.900
981.955;  577.700;  391.333; 4087.800
982.508;  512.367;  325.633; 3973.900
983.061;  625.200;  446.067; 3928.600
983.615;  536.600;  360.967; 3851.200
984.168;  516.900;  340.200; 3734.800
984.721;  592.767;  422.800; 3628.300
985.274;  581.300;  412.633; 3564.300
985.827;  564.033;  393.067; 3558.100
986.380;  483.033;  314.167; 3559.900
986.933;  586.067;  423.833; 3688.700
987.486;  579.100;  415.267; 3778.500
988.039;  574.433;  414.167; 3559.900
988.591;  599.400;  437.767; 3219.300
989.144;  489.567;  339.533; 2902.900
989.697;  497.967;  357.067; 2722.600
990.250;  573.667;  424.167; 2618.000
990.802;  506.633;  353.700; 2523.900
991.355;  667.800;  521.233; 2436.500
991.907;  588.850;  441.467; 2412.200
992.460;  509.900;  361.700; 2387.900
993.012;  506.900;  366.333; 2365.800
993.565;  476.200;  341.900; 2311.100
994.117;  646.533;  524.100; 2308.700
994.669;  469.667;  343.333; 2249.300
995.221;  540.033;  413.333; 2158.100
995.774;  536.433;  410.167; 2085.600
996.326;  503.867;  384.967; 2068.100
996.878;  574.100;  454.533; 1975.300
997.430;  476.033;  351.200; 1929.500
997.982;  509.800;  390.800; 1861.900
998.534;  511.067;  385.033; 1830.200
999.086;  498.967;  384.467; 1823.200
999.638;  450.933;  335.667; 1815.000
1000.190;  482.000;  366.200; 1796.600
1000.741;  509.600;  393.600; 1738.800
1001.293;  469.067;  357.200; 1666.200
1001.845;  470.400;  355.033; 1566.500
1002.396;  510.800;  399.333; 1471.900
1002.948;  511.067;  402.167; 1398.000
1003.500;  498.833;  388.033; 1356.500
1004.051;  642.233;  532.300; 1294.200
1004.603;  552.867;  451.533; 1190.000
1005.154;  419.700;  320.100; 1063.900
1005.705;  500.633;  405.700;  968.300
1006.257;  496.100;  395.333;  889.800
1006.808;  478.900;  384.400;  801.500
1007.359;  543.433;  460.567;  716.400
1007.910;  452.700;  362.067;  639.100
1008.461;  515.400;  429.700;  561.600
1009.013;  410.467;  329.067;  500.400
1009.564;  558.800;  478.833;  476.100
1010.115;  415.000;  330.767;  431.600
1010.665;  426.900;  346.767;  409.300
1011.216;  468.067;  394.800;  399.700
1011.767;  491.533;  407.800;  388.100
1012.318;  515.467;  435.767;  381.400
1012.869;  479.233;  398.267;  375.400
1013.419;  422.467;  340.933;  357.600
1013.970;  467.933;  394.100;  358.300
1014.521;  423.467;  354.733;  344.100
1015.071;  477.800;  395.700;  322.800
1015.622;  445.900;  367.733;  320.600
1016.172;  413.300;  347.033;  301.700
1016.723;  418.467;  350.367;  289.800
1017.273;  428.933;  344.400;  287.600
1017.823;  455.733;  376.933;  278.700
1018.374;  425.967;  351.667;  274.400
1018.924;  504.200;  424.033;  283.200
1019.474;  497.933;  425.667;  278.500
1020.024;  462.867;  389.867;  274.700
1020.574;  506.233;  438.233;  272.700
1021.124;  475.233;  400.767;  278.400
1021.674;  391.900;  315.367;  269.200
1022.224;  493.667;  423.400;  267.800
1022.774;  466.700;  400.700;  258.100
1023.324;  525.000;  456.967;  260.000
1023.874;  621.733;  549.633;  260.700
1024.423;  431.500;  363.267;  252.700
1024.973;  427.633;  358.933;  234.700
1025.523;  433.067;  365.800;  226.500
1026.072;  427.133;  355.467;  225.500
1026.622;  478.767;  399.133;  210.100
1027.172;  504.867;  435.167;  213.000
1027.721;  416.300;  351.433;  207.700
1028.270;  472.367;  401.900;  205.400
1028.820;  446.600;  380.533;  201.000
1029.369;  438.233;  367.467;  201.000
1029.918;  454.700;  385.900;  198.400
1030.468;  391.033;  325.833;  199.200
1031.017;  450.733;  381.633;  192.600
1031.566;  429.000;  363.400;  197.400
1032.115;  490.300;  425.267;  188.300
1032.664;  418.100;  354.600;  193.700
1033.213;  510.900;  446.433;  191.900
1033.762;  448.233;  377.967;  184.500
1034.311;  476.967;  412.700;  194.300
1034.860;  493.000;  421.533;  192.300
1035.408;  509.567;  447.733;  182.600
1035.957;  504.533;  440.967;  173.900
1036.506;  366.400;  304.100;  185.200
1037.055;  594.300;  532.100;  182.500
1037.603;  463.800;  402.633;  167.600
1038.152;  373.300;  309.400;  168.200
1038.700;  409.867;  340.400;  169.600
1039.249;  477.200;  417.500;  164.300
1039.797;  446.033;  387.233;  169.600
1040.345;  492.867;  433.367;  167.100
1040.894;  438.933;  371.300;  164.400
1041.442;  447.400;  384.767;  158.300
1041.990;  389.467;  331.267;  160.000
1042.538;  377.100;  312.367;  156.800
1043.087;  395.100;  336.367;  146.600
1043.635;  471.833;  412.967;  162.400
1044.183;  405.467;  353.500;  156.300
1044.731;  398.500;  342.567;  158.100
1045.279;  479.167;  413.567;  154.500
1045.827;  636.733;  573.967;  146.200
1046.374;  354.867;  299.167;  154.000
1046.922;  420.167;  358.967;  149.000
1047.470;  487.667;  427.433;  154.900
1048.018;  460.367;  394.800;  148.400
1048.565;  499.800;  444.500;  146.300
1049.113;  383.533;  329.500;  156.100
1049.660;  436.067;  375.867;  154.300
1050.208;  481.967;  413.500;  149.400
1050.755;  418.367;  364.900;  157.500
1051.303;  483.800;  426.667;  157.700
1051.850;  449.400;  390.100;  152.800
1052.397;  330.067;  271.900;  146.300
1052.945;  433.333;  375.400;  149.500
1053.492;  523.300;  471.667;  149.300
1054.039;  505.000;  457.767;  163.100
1054.586;  389.033;  347.000;  150.400
1055.133;  485.033;  428.800;  153.500
1055.680;  452.167;  395.833;  155.600
1056.227;  374.967;  317.867;  148.700
1056.774;  561.400;  503.267;  151.500
1057.321;  357.133;  309.267;  143.700
1057.868;  449.467;  399.467;  145.300
1058.415;  453.300;  401.933;  153.500
1058.961;  474.667;  417.933;  149.900
1059.508;  444.267;  392.800;  147.300
1060.055;  407.167;  351.033;  151.000
1060.601;  433.367;  379.200;  148.700
1061.148;  442.467;  380.600;  153.800
1061.694;  413.367;  364.667;  150.500
1062.241;  414.167;  360.333;  149.100
1062.787;  465.100;  410.800;  153.000
1063.334;  571.800;  513.867;  153.200
1063.880;  470.433;  420.267;  148.400
1064.426;  491.833;  451.600;  149.200
1064.972;  414.867;  366.667;  156.400
1065.518;  398.767;  345.300;  144.700
1066.065;  439.000;  386.267;  139.400
1066.611;  417.233;  371.200;  139.300
1067.157;  446.933;  397.733;  138.400
1067.703;  471.033;  417.400;  142.700
1068.249;  421.867;  378.867;  136.700
1068.794;  434.900;  394.133;  139.400
1069.340;  399.033;  354.500;  142.700
1069.886;  414.167;  364.600;  135.600
1070.432;  377.967;  328.600;  133.400
1070.977;  418.333;  371.933;  138.200
1071.523;  395.800;  346.267;  132.400
1072.068;  411.467;  358.633;  132.700
1072.614;  365.300;  317.667;  127.000
1073.160;  476.333;  435.933;  131.300
1073.705;  397.000;  351.367;  135.700
1074.250;  390.267;  339.467;  133.000
1074.796;  462.633;  412.067;  138.000
1075.341;  470.100;  420.333;  137.300
1075.886;  415.867;  363.200;  134.300
1076.431;  462.000;  408.600;  138.200
1076.976;  442.733;  404.467;  132.200
1077.521;  402.600;  359.500;  138.900
1078.067;  401.367;  356.133;  128.600
1078.612;  471.300;  422.200;  138.900
1079.156;  417.433;  369.767;  128.900
1079.701;  484.567;  437.200;  129.700
1080.246;  488.367;  442.000;  128.600
1080.791;  437.367;  392.800;  122.600
1081.336;  459.267;  418.900;  122.000
1081.880;  455.833;  408.800;  123.900
1082.425;  398.200;  351.200;  120.600
1082.970;  504.100;  452.833;  124.500
1083.514;  416.167;  369.400;  112.000
1084.059;  407.100;  365.167;  120.700
1084.603;  393.900;  349.000;  116.000
1085.147;  455.467;  407.600;  116.300
1085.692;  500.133;  458.200;  108.200
1086.236;  351.167;  306.800;  114.600
1086.780;  528.367;  479.933;  118.900
1087.325;  458.367;  411.767;  120.400
1087.869;  421.800;  384.667;  110.500
1088.413;  491.567;  450.600;  114.000
1088.957;  374.167;  330.000;  114.300
1089.501;  543.600;  488.833;  114.600
1090.045;  512.767;  461.333;  114.200
1090.589;  397.367;  354.333;  105.500
1091.133;  474.567;  428.267;  111.800
1091.676;  416.800;  371.467;  110.900
1092.220;  423.533;  375.600;  110.100
1092.764;  497.867;  459.100;  108.100
1093.307;  470.567;  423.833;  109.900
1093.851;  384.267;  335.600;  107.500
1094.395;  476.167;  438.200;   96.200
1094.938;  438.700;  398.667;   99.300
1095.482;  391.333;  343.733;   97.700
1096.025;  505.233;  459.767;   84.900
1096.568;  552.400;  513.500;   88.500
1097.112;  346.167;  310.867;   95.700
1097.655;  416.233;  372.633;   97.300
1098.198;  414.467;  373.400;   92.600
1098.741;  429.100;  392.000;   91.800
1099.285;  453.767;  417.433;   88.000
1099.828;  302.367;  260.733;   91.700
1100.371;  436.067;  387.200;   89.900
1100.914;  476.400;  434.033;   91.500
1101.457;  477.467;  436.300;   88.100
1101.999;  400.667;  356.733;   86.400
1102.542;  453.267;  412.200;   90.800
1103.085;  462.767;  422.433;   95.400
1103.628;  534.767;  497.733;   97.700
1104.170;  408.833;  370.933;   84.000
1104.713;  449.367;  406.567;   93.900
1105.256;  388.633;  349.367;   93.000
1105.798;  344.533;  308.400;   85.600
1106.341;  514.700;  472.167;   87.100
1106.883;  362.533;  320.500;   85.200
1107.425;  469.133;  426.200;   85.000
1107.968;  428.933;  390.500;   84.300
1108.510;  478.433;  443.500;   88.200
1109.052;  431.567;  397.067;   86.600
1109.594;  390.600;  351.400;   79.400
1110.136;  452.333;  413.033;   81.700
1110.679;  439.200;  397.800;   75.500
1111.221;  423.533;  380.933;   88.500
1111.763;  384.700;  348.200;   87.700
1112.304;  376.233;  342.800;   89.700
1112.846;  461.100;  427.133;   81.900
1113.388;  670.900;  629.167;   86.400
1113.930;  482.267;  444.067;   84.700
1114.472;  418.933;  385.833;   78.900
1115.013;  380.167;  341.267;   78.100
1115.555;  415.167;  380.600;   84.900
1116.097;  401.500;  359.133;   79.200
1116.638;  480.933;  441.733;   83.700
1117.180;  462.000;  428.567;   85.500
1117.721;  402.300;  362.733;   78.800
1118.262;  474.933;  438.667;   77.400
1118.804;  441.167;  405.200;   81.400
1119.345;  399.133;  368.600;   77.800
1119.886;  498.767;  455.000;   81.200
1120.427;  411.167;  372.933;   77.200
1120.969;  417.633;  385.600;   75.200
1121.510;  386.867;  353.567;   80.900
1122.051;  508.367;  473.000;   77.300
1122.592;  459.700;  425.333;   73.300
1123.133;  368.333;  347.133;   90.100
1123.673;  500.033;  463.567;   75.000
1124.214;  421.233;  391.600;   80.600
1124.755;  455.633;  415.133;   78.000
1125.296;  431.000;  397.300;   77.500
1125.836;  482.833;  446.667;   80.400
1126.377;  422.633;  380.900;   75.600
1126.918;  429.800;  397.167;   78.900
1127.458;  435.633;  399.333;   78.000
1127.999;  463.033;  424.367;   76.100
1128.539;  487.167;  445.933;   81.400
1129.079;  443.767;  407.767;   77.400
1129.620;  390.333;  355.933;   68.000
1130.160;  372.533;  341.400;   77.500
1130.700;  448.433;  414.767;   76.300
1131.240;  445.100;  413.600;   66.800
1131.781;  429.567;  400.667;   70.600
1132.321;  416.333;  380.733;   77.200
1132.861;  398.167;  357.267;   70.400
1133.401;  410.300;  378.367;   68.700
1133.941;  434.933;  405.533;   68.500
1134.481;  414.400;  385.733;   75.900
1135.020;  426.200;  392.900;   66.600
1135.560;  471.600;  439.233;   68.100
1136.100;  341.200;  315.133;   64.900
1136.640;  351.700;  322.667;   72.500
1137.179;  375.967;  342.733;   69.700
1137.719;  421.467;  389.533;   68.400
1138.258;  407.933;  377.700;   67.000
1138.798;  463.600;  429.133;   69.600
1139.337;  334.533;  300.733;   64.000
1139.877;  452.467;  418.133;   64.500
1140.416;  613.433;  588.033;   74.900
1140.955;  367.800;  331.367;   67.200
1141.494;  471.433;  434.300;   69.900
1142.034;  404.567;  377.467;   59.100
1142.573;  446.800;  422.867;   65.900
1143.112;  383.033;  349.200;   70.600
1143.651;  376.700;  343.267;   67.100
1144.190;  480.967;  454.700;   56.700
1144.729;  417.000;  389.333;   61.800
1145.267;  398.733;  367.233;   62.500
1145.806;  448.733;  409.133;   68.500
1146.345;  440.500;  409.467;   58.300
1146.884;  435.300;  406.600;   63.100
1147.422;  367.600;  334.233;   54.800
1147.961;  501.733;  467.400;   67.600
1148.500;  472.833;  441.033;   64.700
1149.038;  440.300;  412.300;   61.000
1149.577;  486.467;  457.667;   65.100
1150.115;  309.967;  279.100;   58.100
1150.653;  423.167;  391.267;   60.500
1151.192;  378.200;  355.000;   56.600
1151.730;  456.400;  429.700;   62.300
1152.268;  411.967;  377.700;   55.500
1152.806;  400.733;  370.033;   58.200
1153.344;  397.567;  372.433;   55.000
1153.882;  414.000;  389.233;   64.200
1154.421;  323.400;  292.567;   60.300
1154.958;  417.667;  387.233;   58.100
1155.496;  448.667;  426.200;   55.800
1156.034;  503.433;  476.100;   61.000
1156.572;  469.500;  434.467;   56.200
1157.110;  323.633;  300.300;   53.200
1157.647;  473.767;  448.900;   57.400
1158.185;  393.633;  369.133;   55.500
1158.723;  354.233;  326.500;   58.000
1159.260;  486.867;  460.033;   53.700
1159.798;  461.233;  434.733;   51.700
1160.335;  438.800;  406.900;   59.600

