source_right
Integration time [ms]: 300.000
Averaging Nr. [scans]: 30
Smoothing Nr. [pixels]: 0
Data measured with spectrometer [name]: 7414430SP
Wave   ;Sample   ;Dark     ;Reference
[nm]   ;[counts] ;[counts] ;[counts] 

288.544;  500.323;  409.495;    6.613
289.143;  430.857;  334.741;   14.216
289.742;  540.846;  438.471;   11.816
290.341;  508.995;  418.127;   -4.936
290.940;  467.513;  374.571;    0.852
291.538;  569.460;  486.444;    1.792
292.137;  517.639;  414.837;    6.262
292.736;  643.862;  548.261;    8.164
293.335;  470.801;  380.904;   -6.418
293.934;  502.294;  413.615;   -2.904
294.532;  686.497;  601.463;   -5.162
295.131;  541.123;  463.325;  -10.283
295.730;  526.515;  447.004;  -16.141
296.328;  506.615;  435.754;  -14.740
296.927;  502.217;  428.130;   -8.768
297.525;  507.388;  423.459;  -15.255
298.124;  408.940;  340.248;  -22.063
298.722;  494.530;  419.149;  -14.796
299.321;  454.751;  377.482;  -10.466
299.919;  481.924;  410.080;  -10.979
300.518;  438.547;  368.337;  -12.077
301.116;  443.581;  370.383;  -13.509
301.715;  469.993;  390.100;  -11.939
302.313;  446.320;  382.345;  -15.424
302.911;  469.561;  409.207;  -19.833
303.509;  615.650;  543.847;   -3.567
304.108;  492.822;  423.019;   -9.553
304.706;  524.923;  452.293;   -8.582
305.304;  523.423;  460.774;  -12.348
305.902;  512.291;  441.800;  -14.411
306.500;  475.663;  404.342;   -7.194
307.098;  484.543;  424.328;   -9.322
307.696;  511.575;  457.530;  -19.192
308.294;  476.394;  419.528;   -9.736
308.892;  497.634;  441.888;  -15.482
309.490;  453.903;  397.807;  -14.107
310.088;  517.374;  463.266;  -15.862
310.686;  539.279;  480.333;  -10.781
311.284;  499.902;  445.100;  -14.878
311.882;  475.990;  422.933;   -9.948
312.480;  450.760;  400.225;  -15.503
313.078;  536.451;  475.435;  -17.262
313.675;  445.730;  394.542;   -3.694
314.273;  522.768;  482.288;  -18.246
314.871;  373.064;  328.213;  -15.190
315.468;  421.461;  369.507;  -12.633
316.066;  453.906;  402.504;   -5.765
316.664;  428.655;  380.819;  -14.317
317.261;  604.991;  553.581;   -8.677
317.859;  515.860;  465.282;  -11.804
318.456;  551.959;  506.913;   -3.107
319.054;  509.585;  472.927;   -3.062
319.651;  497.359;  461.622;   -6.706
320.249;  531.759;  496.555;   -5.206
320.846;  463.568;  426.783;   -4.679
321.443;  551.254;  514.791;   -7.920
322.041;  539.982;  499.737;  -14.105
322.638;  460.618;  424.051;   -6.263
323.235;  432.420;  394.945;   -7.424
323.833;  485.717;  451.307;  -14.765
324.430;  393.389;  353.447;  -10.550
325.027;  585.867;  544.441;   -9.951
325.624;  416.491;  367.891;   -3.712
326.221;  443.428;  398.524;   -9.368
326.818;  540.138;  500.113;   -5.637
327.415;  483.051;  435.885;   -6.699
328.012;  446.824;  386.964;   -5.713
328.609;  474.678;  424.864;   -9.983
329.206;  504.577;  454.999;   -7.154
329.803;  473.790;  417.719;   -1.682
330.400;  455.637;  389.434;   -2.741
330.997;  531.371;  468.961;   -4.339
331.594;  515.946;  450.395;  -10.278
332.191;  464.339;  403.452;   -6.967
332.787;  547.979;  483.017;   -0.480
333.384;  481.661;  428.015;  -10.333
333.981;  516.339;  466.840;  -19.900
334.578;  443.856;  383.913;  -19.816
335.174;  457.646;  399.076;  -15.844
335.771;  530.671;  482.567;  -12.670
336.367;  448.674;  393.669;  -21.124
336.964;  506.307;  453.616;  -18.226
337.561;  468.946;  406.390;  -13.311
338.157;  586.847;  537.645;  -19.006
338.754;  511.176;  465.774;  -19.418
339.350;  452.260;  404.223;  -29.433
339.946;  491.675;  442.621;  -16.622
340.543;  541.000;  495.432;  -16.744
341.139;  448.234;  410.435;  -21.841
341.735;  495.766;  452.920;  -25.012
342.332;  440.341;  394.848;  -19.156
342.928;  500.812;  465.203;  -20.443
343.524;  487.105;  446.876;  -14.397
344.120;  472.219;  432.262;  -20.654
344.716;  457.316;  413.833;   -5.730
345.313;  511.027;  480.927;  -10.929
345.909;  388.312;  342.011;  -19.843
346.505;  471.367;  436.364;  -19.645
347.101;  532.509;  490.958;   -9.618
347.697;  510.891;  467.365;  -10.305
348.293;  389.275;  344.251;  -23.189
348.889;  481.920;  438.836;  -18.418
349.485;  436.834;  384.594;  -10.476
350.081;  506.998;  454.803;  -17.320
350.676;  445.019;  395.638;  -21.088
351.272;  526.042;  474.538;  -12.821
351.868;  498.527;  454.235;  -13.165
352.464;  464.805;  419.565;  -12.464
353.059;  419.322;  371.751;  -22.547
353.655;  516.434;  462.550;   -9.379
354.251;  493.227;  445.226;   -8.266
354.846;  487.036;  434.234;  -17.705
355.442;  484.065;  439.506;   -9.317
356.038;  485.388;  437.316;  -11.049
356.633;  478.736;  423.492;  -10.006
357.229;  475.209;  425.098;  -13.120
357.824;  452.100;  410.071;  -15.647
358.420;  444.081;  388.980;  -19.204
359.015;  452.561;  398.905;  -12.263
359.610;  505.931;  455.161;  -16.421
360.206;  381.357;  339.469;  -20.074
360.801;  410.623;  368.207;  -13.277
361.396;  484.508;  425.487;   -5.822
361.992;  426.266;  388.404;  -11.247
362.587;  437.503;  385.521;  -21.502
363.182;  452.373;  399.301;   -7.461
363.777;  485.020;  436.726;   -8.719
364.372;  489.574;  439.716;  -14.590
364.967;  437.767;  397.056;  -15.145
365.563;  544.607;  487.956;   -7.192
366.158;  450.639;  399.566;   -5.662
366.753;  430.012;  374.929;   -8.378
367.348;  496.252;  442.336;  -14.990
367.942;  457.925;  403.765;   -6.005
368.537;  498.359;  450.125;  -11.504
369.132;  463.612;  411.847;  -10.576
369.727;  415.835;  370.647;  -12.573
370.322;  377.806;  329.318;  -11.560
370.917;  466.386;  422.304;  -10.388
371.511;  579.006;  526.876;   -9.161
372.106;  519.500;  477.156;  -10.245
372.701;  384.707;  333.029;  -10.158
373.296;  580.976;  531.224;   -4.719
373.890;  421.137;  378.521;  -11.802
374.485;  460.059;  420.279;  -13.500
375.079;  495.612;  450.906;   -6.276
375.674;  552.544;  500.215;   -0.447
376.268;  457.354;  416.988;   -6.916
376.863;  377.354;  339.418;  -14.483
377.457;  442.203;  401.520;   -6.903
378.052;  515.278;  466.935;   -9.844
378.646;  503.259;  457.469;  -12.601
379.240;  485.232;  443.092;  -14.715
379.835;  430.594;  383.209;  -12.331
380.429;  363.824;  326.727;   -9.074
381.023;  529.405;  486.447;   -1.729
381.617;  454.733;  412.160;  -13.714
382.212;  467.406;  421.010;   -7.060
382.806;  511.336;  474.220;   -2.303
383.400;  449.777;  415.320;   -0.815
383.994;  446.150;  409.675;   -4.429
384.588;  474.128;  433.890;   -6.261
385.182;  495.240;  451.715;    0.008
385.776;  485.655;  444.976;   -3.247
386.370;  460.727;  425.010;   -1.030
386.964;  470.067;  428.755;   -1.346
387.558;  401.642;  358.906;   -2.020
388.152;  460.022;  426.062;   -5.345
388.745;  558.635;  525.538;   -2.774
389.339;  512.385;  484.952;    3.510
389.933;  466.153;  435.917;    5.280
390.527;  594.441;  556.134;    2.610
391.120;  397.977;  367.345;   -7.914
391.714;  486.448;  450.473;   -1.903
392.308;  536.645;  501.397;    6.023
392.901;  433.759;  405.276;   -4.103
393.495;  397.754;  373.438;    3.284
394.089;  524.578;  492.192;    8.655
394.682;  481.197;  449.791;    2.312
395.275;  489.914;  466.091;   -7.402
395.869;  458.035;  425.698;   -1.072
396.462;  415.100;  391.306;    6.454
397.056;  533.391;  500.706;    8.494
397.649;  505.070;  479.805;    1.599
398.242;  489.511;  462.999;    3.153
398.836;  532.980;  498.021;   11.395
399.429;  430.736;  400.852;   14.695
400.022;  447.113;  432.501;    3.627
400.615;  559.199;  538.132;    8.383
401.208;  470.347;  446.863;   13.295
401.802;  478.119;  454.579;    6.211
402.395;  471.780;  447.734;    7.227
402.988;  468.070;  451.215;    2.700
403.581;  443.068;  413.103;   11.225
404.174;  476.356;  453.490;   18.922
404.767;  434.305;  415.270;   14.169
405.360;  417.559;  400.695;    8.999
405.953;  520.161;  490.897;   13.138
406.545;  498.694;  476.388;   13.937
407.138;  413.749;  394.439;   10.869
407.731;  420.160;  400.391;   12.768
408.324;  452.678;  427.127;   22.921
408.917;  466.540;  443.448;   15.308
409.509;  501.251;  493.496;   12.239
410.102;  434.229;  419.217;   13.741
410.695;  452.810;  431.403;   20.249
411.287;  401.135;  386.549;   21.793
411.880;  388.748;  381.535;   22.965
412.472;  406.620;  402.894;   15.082
413.065;  424.434;  413.469;   23.423
413.657;  386.030;  371.883;   21.077
414.250;  430.643;  420.377;   12.349
414.842;  450.067;  441.751;   20.423
415.434;  378.807;  370.604;   19.906
416.027;  432.585;  421.460;   26.574
416.619;  483.562;  469.417;   15.705
417.211;  394.102;  385.081;   17.791
417.804;  416.386;  402.209;   30.244
418.396;  408.941;  399.311;   24.177
418.988;  435.573;  430.319;   24.904
419.580;  372.658;  367.521;   20.692
420.172;  354.374;  353.384;   22.275
420.764;  450.185;  439.276;   26.773
421.356;  425.349;  416.954;   25.731
421.948;  453.785;  451.479;   24.876
422.540;  451.975;  448.554;   30.042
423.132;  395.414;  389.159;   32.728
423.724;  360.822;  364.076;   21.317
424.316;  408.647;  401.037;   29.359
424.908;  389.293;  384.026;   28.798
425.500;  429.776;  420.493;   30.512
426.092;  425.785;  415.597;   26.741
426.683;  462.415;  455.610;   27.029
427.275;  426.942;  418.767;   32.611
427.867;  445.015;  436.346;   33.796
428.458;  486.568;  475.212;   34.453
429.050;  452.401;  448.830;   34.255
429.642;  494.966;  490.604;   39.082
430.233;  356.829;  356.763;   41.138
430.825;  484.133;  482.287;   31.581
431.416;  460.657;  457.128;   35.755
432.008;  426.427;  411.713;   40.566
432.599;  425.657;  421.497;   46.322
433.190;  418.638;  410.745;   46.897
433.782;  382.350;  379.813;   41.069
434.373;  590.521;  589.623;   48.778
434.964;  386.776;  379.395;   50.078
435.556;  412.944;  405.856;   52.381
436.147;  496.689;  493.316;   38.251
436.738;  453.551;  455.759;   47.237
437.329;  471.074;  462.759;   61.304
437.920;  428.642;  429.359;   48.611
438.511;  352.198;  358.172;   44.910
439.103;  394.707;  394.743;   62.404
439.694;  440.875;  435.667;   63.075
440.285;  500.795;  497.775;   61.033
440.876;  552.678;  554.861;   57.249
441.466;  357.297;  355.217;   61.306
442.057;  422.730;  421.853;   65.773
442.648;  482.576;  479.009;   65.676
443.239;  387.849;  391.774;   55.963
443.830;  457.305;  447.867;   69.631
444.421;  417.054;  409.282;   69.943
445.011;  437.103;  440.130;   72.791
445.602;  480.411;  475.218;   68.848
446.193;  292.110;  289.880;   80.044
446.783;  397.628;  390.851;   82.599
447.374;  439.057;  440.444;   77.419
447.964;  454.196;  446.408;   72.605
448.555;  534.242;  527.827;   82.041
449.145;  415.649;  411.627;   76.230
449.736;  517.754;  512.600;   75.545
450.326;  451.966;  451.236;   67.945
450.917;  423.661;  415.408;   77.598
451.507;  365.793;  362.493;   68.027
452.097;  473.597;  473.860;   67.771
452.688;  463.290;  462.279;   62.884
453.278;  341.244;  338.493;   65.512
453.868;  512.583;  503.912;   71.796
454.458;  396.425;  394.953;   60.956
455.048;  443.103;  437.873;   62.356
455.639;  337.912;  334.515;   58.782
456.229;  439.921;  440.675;   65.209
456.819;  471.118;  466.677;   61.466
457.409;  489.251;  481.128;   59.967
457.999;  459.171;  449.881;   58.093
458.589;  416.286;  417.908;   59.536
459.179;  447.271;  437.091;   55.994
459.769;  375.693;  372.249;   43.624
460.358;  494.011;  488.228;   46.978
460.948;  418.292;  408.154;   49.821
461.538;  395.766;  391.000;   54.678
462.128;  402.854;  396.875;   49.309
462.717;  433.932;  423.321;   52.774
463.307;  431.708;  423.256;   48.101
463.897;  391.231;  384.542;   45.606
464.486;  519.554;  524.293;   45.010
465.076;  445.980;  441.649;   45.519
465.666;  389.649;  374.268;   50.058
466.255;  484.228;  474.393;   44.463
466.845;  398.142;  387.211;   41.206
467.434;  440.601;  424.688;   44.847
468.023;  393.972;  377.718;   46.760
468.613;  424.852;  422.941;   39.736
469.202;  376.327;  369.407;   46.461
469.791;  443.322;  429.932;   47.944
470.381;  455.373;  434.973;   47.529
470.970;  421.998;  406.861;   43.773
471.559;  442.145;  428.056;   41.646
472.148;  391.790;  379.588;   37.914
472.738;  457.820;  441.906;   48.071
473.327;  358.365;  347.159;   47.871
473.916;  434.568;  427.635;   37.716
474.505;  448.860;  434.219;   40.256
475.094;  486.897;  471.223;   43.269
475.683;  471.763;  454.217;   36.499
476.272;  426.499;  416.541;   44.542
476.861;  409.229;  387.399;   42.297
477.449;  424.445;  400.102;   46.878
478.038;  395.815;  375.742;   35.156
478.627;  404.846;  393.394;   42.514
479.216;  444.554;  421.384;   43.937
479.805;  451.117;  429.150;   51.393
480.393;  610.821;  593.969;   53.239
480.982;  519.148;  503.699;   38.955
481.571;  502.020;  481.123;   45.436
482.159;  388.244;  365.728;   51.007
482.748;  474.329;  456.530;   49.695
483.336;  496.068;  472.134;   48.280
483.925;  442.474;  414.107;   47.166
484.513;  420.599;  396.464;   55.404
485.102;  453.110;  427.957;   54.238
485.690;  588.869;  564.805;   55.748
486.278;  570.753;  545.971;   55.934
486.867;  438.155;  418.355;   57.106
487.455;  511.690;  484.255;   56.979
488.043;  386.796;  364.352;   57.564
488.631;  572.753;  544.670;   57.432
489.220;  500.035;  467.920;   63.646
489.808;  370.258;  347.078;   65.449
490.396;  493.023;  466.870;   61.977
490.984;  423.375;  392.002;   68.834
491.572;  496.789;  463.968;   70.775
492.160;  465.663;  446.152;   67.564
492.748;  429.544;  405.612;   66.808
493.336;  514.524;  478.001;   79.747
493.924;  442.049;  404.945;   88.688
494.512;  492.093;  467.227;   84.120
495.100;  483.880;  463.219;   86.250
495.687;  515.033;  481.836;  103.074
496.275;  423.392;  384.150;  108.717
496.863;  430.575;  404.803;  107.035
497.451;  424.995;  398.294;  117.993
498.038;  454.792;  423.756;  120.116
498.626;  446.139;  410.875;  143.059
499.214;  465.553;  439.271;  153.434
499.801;  452.693;  425.344;  175.121
500.389;  382.714;  350.829;  185.617
500.976;  482.616;  442.021;  215.789
501.564;  456.048;  426.642;  240.321
502.151;  329.199;  296.059;  267.007
502.738;  436.206;  401.601;  317.961
503.326;  449.103;  407.992;  361.216
503.913;  462.341;  432.559;  401.433
504.500;  477.172;  443.554;  446.492
505.088;  405.807;  373.728;  512.063
505.675;  446.893;  409.822;  586.387
506.262;  443.115;  406.392;  671.021
506.849;  450.307;  419.819;  759.062
507.436;  511.360;  477.106;  849.788
508.023;  454.916;  416.429;  944.288
508.610;  503.249;  461.389; 1020.690
509.197;  479.659;  446.115; 1089.052
509.784;  452.767;  421.247; 1133.776
510.371;  379.409;  344.805; 1165.501
510.958;  465.498;  428.742; 1251.735
511.545;  528.180;  495.766; 1350.248
512.132;  454.468;  414.552; 1525.945
512.719;  409.175;  367.793; 1834.933
513.305;  414.802;  376.622; 1965.349
513.892;  523.685;  490.642; 1963.265
514.479;  469.068;  430.353; 2046.446
515.066;  513.743;  478.374; 2252.803
515.652;  473.202;  427.304; 2567.247
516.239;  498.048;  456.707; 2636.919
516.825;  395.421;  358.595; 2482.304
517.412;  593.408;  545.991; 2427.031
517.998;  447.029;  407.151; 2540.463
518.585;  440.733;  402.625; 2609.007
519.171;  475.182;  432.545; 2842.088
519.758;  407.698;  351.321; 3090.703
520.344;  508.234;  463.514; 3176.076
520.930;  413.087;  374.466; 3295.037
521.516;  494.550;  447.977; 3500.959
522.103;  538.699;  492.264; 3736.704
522.689;  443.282;  400.951; 3971.022
523.275;  516.423;  480.038; 4213.778
523.861;  462.184;  411.788; 4190.361
524.447;  523.754;  469.742; 4070.602
525.033;  519.328;  484.410; 4088.892
525.619;  423.592;  379.280; 4416.851
526.205;  408.075;  361.911; 4836.835
526.791;  455.643;  401.416; 4885.903
527.377;  437.144;  391.487; 4544.907
527.963;  469.795;  431.280; 4321.995
528.549;  487.123;  437.447; 4473.979
529.135;  433.762;  382.725; 4788.663
529.721;  471.178;  420.218; 4888.577
530.306;  631.390;  580.947; 4775.779
530.892;  450.532;  395.249; 4793.906
531.478;  443.402;  389.046; 4956.948
532.063;  419.164;  368.426; 5136.936
532.649;  575.863;  522.196; 5336.867
533.235;  430.983;  377.000; 5748.092
533.820;  542.111;  482.790; 6456.875
534.406;  464.275;  409.399; 6590.167
534.991;  432.893;  377.820; 6179.622
535.576;  464.328;  411.785; 6098.691
536.162;  638.553;  584.963; 6441.234
536.747;  406.994;  356.157; 6816.224
537.333;  431.114;  376.896; 6889.752
537.918;  466.479;  412.087; 7154.280
538.503;  453.202;  388.705; 7150.848
539.088;  496.689;  436.665; 7253.308
539.673;  467.601;  407.318; 7625.180
540.259;  443.472;  383.364; 8226.793
540.844;  395.594;  336.610; 8745.092
541.429;  572.114;  519.480; 8762.553
542.014;  407.407;  350.519; 8871.497
542.599;  497.177;  435.412; 8886.008
543.184;  418.632;  356.454; 9079.139
543.769;  444.424;  383.817; 9076.182
544.354;  463.268;  395.094; 8354.081
544.938;  499.133;  437.052; 8236.809
545.523;  580.901;  512.791; 8222.179
546.108;  482.102;  415.345; 8114.082
546.693;  479.567;  413.231; 8535.912
547.278;  492.449;  413.668; 9238.322
547.862;  490.566;  408.157; 9034.405
548.447;  544.045;  462.999; 7795.011
549.031;  481.274;  404.079; 7485.099
549.616;  514.477;  435.463; 7626.308
550.201;  478.855;  393.375; 7627.909
550.785;  537.761;  449.341; 7859.125
551.370;  444.093;  359.017; 7990.654
551.954;  554.353;  467.270; 8196.468
552.538;  556.640;  457.008; 7959.495
553.123;  483.350;  384.555; 7964.826
553.707;  501.482;  400.284; 8515.957
554.291;  597.138;  489.018; 8724.024
554.876;  569.356;  460.260; 8524.211
555.460;  505.526;  384.052; 8704.456
556.044;  501.709;  387.855; 9141.473
556.628;  545.974;  417.244; 9250.197
557.212;  628.198;  479.461; 9444.237
557.796;  555.258;  405.744; 9379.783
558.380;  589.327;  434.930; 9353.658
558.964;  587.922;  421.226; 9210.310
559.548;  531.948;  353.821; 8475.153
560.132;  579.358;  397.378; 7954.084
560.716;  558.984;  363.734; 7489.529
561.300;  581.348;  357.771; 7211.952
561.884;  676.678;  449.167; 7141.313
562.467;  684.925;  445.272; 7155.386
563.051;  676.238;  417.174; 7323.158
563.635;  686.012;  401.327; 7709.114
564.219;  730.859;  414.401; 7678.855
564.802;  785.447;  443.494; 7376.187
565.386;  793.176;  421.879; 7054.372
565.969;  897.184;  490.012; 6589.196
566.553;  986.520;  538.506; 6279.371
567.136;  962.617;  479.126; 5967.930
567.720;  942.253;  420.827; 5660.703
568.303; 1004.290;  435.839; 5648.615
568.887; 1050.599;  420.625; 5618.443
569.470; 1111.832;  434.505; 5411.875
570.053; 1166.888;  461.885; 5149.274
570.637; 1161.985;  379.297; 5122.798
571.220; 1317.153;  464.538; 4957.369
571.803; 1461.580;  541.031; 4933.018
572.386; 1431.921;  395.375; 4840.973
572.969; 1547.214;  404.785; 4592.886
573.552; 1678.458;  408.464; 4348.387
574.135; 1701.326;  381.817; 4002.290
574.718; 1740.732;  389.178; 3654.773
575.301; 1864.192;  385.145; 3502.288
575.884; 1987.653;  381.111; 3349.803
576.467; 2323.453;  478.927; 3191.403
577.050; 2576.013;  428.239; 3062.418
577.633; 2914.830;  519.252; 3214.200
578.216; 3022.159;  403.683; 3284.889
578.799; 3077.144;  404.034; 3189.777
579.381; 3395.564;  541.163; 3064.502
579.964; 3510.982;  385.784; 2888.357
580.547; 3805.361;  428.540; 2905.760
581.129; 4014.934;  497.348; 2966.849
581.712; 4120.827;  447.028; 2887.292
582.294; 4485.807;  420.025; 2771.631
582.877; 5017.630;  539.038; 2711.602
583.459; 5193.734;  414.466; 2577.049
584.042; 5626.931;  408.667; 2454.707
584.624; 6180.305;  379.923; 2305.893
585.206; 6375.178;  326.348; 2189.546
585.789; 6895.422;  391.946; 2112.577
586.371; 7272.162;  441.495; 2153.065
586.953; 7505.042;  465.752; 2197.806
587.536; 7727.592;  495.483; 2105.489
588.118; 8075.821;  411.286; 1963.911
588.700; 8792.399;  503.076; 1843.179
589.282; 9470.240;  447.902; 1813.834
589.864;10158.358;  420.445; 1777.620
590.446;10718.312;  329.246; 1733.780
591.028;11103.865;  425.227; 1676.008
591.610;10935.567;  342.207; 1631.649
592.192;11004.872;  430.570; 1632.362
592.774;10848.442;  365.246; 1569.507
593.356;11476.831;  392.805; 1524.539
593.937;11874.280;  383.391; 1569.720
594.519;12731.557;  481.979; 1569.049
595.101;13772.136;  348.094; 1545.452
595.683;15005.573;  401.609; 1607.568
596.264;15570.653;  413.014; 1615.506
596.846;15988.314;  400.744; 1667.622
597.427;16606.607;  389.318; 1670.469
598.009;17632.232;  386.714; 1640.312
598.591;18078.369;  456.341; 1541.022
599.172;18083.984;  405.793; 1598.665
599.753;17971.629;  359.390; 1619.068
600.335;18455.344;  500.893; 1548.612
600.916;18756.754;  410.410; 1607.510
601.498;20176.967;  434.136; 1745.181
602.079;20979.145;  416.725; 1801.011
602.660;20926.764;  414.874; 1834.640
603.241;20723.857;  328.998; 1787.351
603.823;20424.018;  394.777; 1684.266
604.404;20578.643;  364.402; 1654.241
604.985;21245.621;  401.455; 1758.741
605.566;21958.512;  469.937; 1697.679
606.147;23083.172;  411.297; 1526.728
606.728;23515.436;  361.883; 1484.086
607.309;23649.162;  385.917; 1421.070
607.890;23661.451;  402.220; 1369.867
608.471;24041.248;  379.906; 1277.826
609.051;23917.623;  433.033; 1180.416
609.632;23695.045;  372.346; 1075.816
610.213;23466.977;  411.693; 1053.313
610.794;22835.020;  398.314;  979.442
611.374;22993.266;  438.800;  917.414
611.955;23595.623;  351.498;  819.987
612.536;24440.805;  438.963;  752.627
613.116;24517.717;  386.882;  690.799
613.697;24177.598;  383.263;  674.974
614.277;23705.299;  376.279;  663.846
614.858;22731.373;  386.020;  665.898
615.438;22281.654;  420.529;  660.712
616.019;22451.994;  497.074;  632.732
616.599;23645.803;  323.350;  551.759
617.179;26076.529;  361.926;  512.871
617.760;27452.369;  558.005;  473.655
618.340;26907.363;  411.157;  440.004
618.920;26094.705;  513.467;  429.731
619.500;25505.893;  396.617;  441.361
620.080;24425.418;  375.435;  425.202
620.660;23700.961;  375.586;  408.164
621.241;23615.871;  395.128;  387.161
621.821;23091.533;  418.053;  378.017
622.401;23221.391;  468.066;  379.188
622.980;24177.934;  352.664;  350.019
623.560;23281.322;  393.369;  336.446
624.140;21023.186;  425.268;  336.473
624.720;19525.197;  438.321;  334.974
625.300;18331.545;  367.297;  325.717
625.880;20259.723;  410.661;  308.519
626.459;21935.201;  412.112;  307.117
627.039;22659.791;  340.643;  290.890
627.619;22984.463;  539.219;  286.635
628.198;23945.885;  478.807;  282.535
628.778;25767.230;  446.655;  285.474
629.357;25056.074;  363.050;  284.103
629.937;24144.176;  396.128;  292.178
630.516;23698.277;  500.902;  290.749
631.096;24063.957;  377.050;  285.489
631.675;24779.168;  491.125;  287.022
632.254;24544.484;  384.127;  286.038
632.834;23909.057;  410.949;  276.451
633.413;24249.889;  501.045;  279.447
633.992;23575.797;  472.220;  264.508
634.571;23092.342;  448.108;  271.010
635.151;23081.873;  367.866;  277.338
635.730;22733.020;  410.105;  289.305
636.309;22278.775;  441.237;  285.306
636.888;22027.500;  449.985;  254.051
637.467;22446.369;  337.144;  230.324
638.046;23885.367;  498.141;  253.349
638.625;23596.217;  484.452;  246.866
639.204;22955.836;  428.662;  240.825
639.782;21692.629;  413.143;  261.970
640.361;19147.756;  482.874;  277.780
640.940;19008.189;  382.110;  270.101
641.519;20023.959;  439.647;  248.622
642.097;22267.992;  447.483;  239.843
642.676;23896.594;  423.953;  244.264
643.255;24076.828;  401.956;  234.985
643.833;23707.430;  448.226;  244.406
644.412;24515.631;  395.396;  244.927
644.990;24275.666;  418.399;  249.948
645.569;23566.434;  444.669;  249.569
646.147;23512.934;  468.672;  243.290
646.726;23379.902;  425.709;  249.511
647.304;24148.469;  402.579;  228.032
647.882;24616.670;  335.515;  214.552
648.461;24563.072;  434.185;  214.973
649.039;23844.707;  456.889;  223.394
649.617;22804.441;  452.492;  261.415
650.195;21530.543;  427.495;  298.736
650.773;21102.510;  392.832;  309.557
651.352;20350.445;  323.801;  297.978
651.930;18842.078;  318.671;  289.399
652.508;18480.881;  458.841;  285.620
653.086;18314.248;  434.078;  272.241
653.663;20177.416;  374.914;  265.062
654.241;21901.617;  356.318;  286.083
654.819;22669.252;  362.354;  286.404
655.397;21876.020;  376.591;  291.825
655.975;21489.221;  401.194;  299.145
656.553;22488.121;  500.364;  288.866
657.130;21967.590;  367.800;  304.087
657.708;21392.523;  430.804;  302.908
658.286;21366.691;  414.340;  294.629
658.863;20683.992;  426.177;  293.350
659.441;21318.527;  426.813;  318.671
660.018;22562.395;  413.016;  333.692
660.596;23284.695;  326.286;  335.013
661.173;23499.998;  389.056;  371.534
661.750;23740.064;  368.959;  365.155
662.328;23516.332;  444.363;  349.976
662.905;21602.301;  393.499;  332.997
663.482;20143.568;  407.269;  321.717
664.060;19652.170;  381.572;  314.438
664.637;20310.838;  456.109;  306.259
665.214;21958.672;  425.479;  314.580
665.791;23568.773;  400.882;  334.501
666.368;24212.773;  386.252;  329.222
666.945;24098.242;  452.688;  342.143
667.522;23531.176;  371.892;  370.964
668.099;23772.443;  404.828;  396.885
668.676;24139.111;  404.831;  391.706
669.253;24645.980;  504.701;  369.627
669.830;25947.480;  481.505;  360.348
670.407;25572.682;  404.108;  344.769
670.984;24601.150;  410.411;  322.890
671.560;24233.117;  455.814;  316.910
672.137;23568.318;  388.117;  322.531
672.714;23365.287;  437.121;  318.552
673.290;23568.355;  427.957;  324.473
673.867;23339.256;  379.494;  340.594
674.443;23509.990;  354.464;  319.515
675.020;23681.424;  424.067;  286.336
675.596;24736.160;  402.037;  247.557
676.173;25627.895;  347.573;  227.778
676.749;26605.494;  301.010;  224.399
677.326;28058.662;  342.280;  230.520
677.902;27815.164;  374.416;  241.841
678.478;26029.465;  349.919;  239.762
679.054;26629.934;  620.423;  248.583
679.631;27140.367;  432.093;  237.503
680.207;27616.402;  520.296;  245.924
680.783;27189.803;  316.666;  224.845
681.359;26243.004;  410.836;  209.666
681.935;26896.006;  415.505;  191.687
682.511;28174.840;  416.242;  210.008
683.087;27756.908;  441.445;  213.329
683.663;26782.109;  398.882;  216.850
684.239;25812.510;  350.018;  229.471
684.815;24947.178;  468.988;  248.792
685.390;26152.145;  529.491;  231.813
685.966;27482.313;  413.461;  221.234
686.542;26875.682;  375.298;  214.255
687.118;25263.115;  421.001;  212.276
687.693;25616.750;  443.704;  233.096
688.269;26340.318;  401.074;  246.917
688.844;26829.785;  436.044;  236.938
689.420;27455.420;  418.281;  242.059
689.995;26915.521;  510.317;  245.480
690.571;26287.156;  487.387;  244.701
691.146;26475.123;  399.657;  251.922
691.722;27247.891;  431.160;  284.743
692.297;26158.492;  383.697;  320.664
692.872;25113.961;  371.067;  313.885
693.448;24797.828;  363.270;  290.106
694.023;25063.863;  420.573;  304.327
694.598;25665.963;  416.443;  319.648
695.173;26447.131;  391.680;  323.169
695.748;27548.600;  326.783;  376.389
696.323;27071.201;  407.086;  397.610
696.898;27293.969;  476.623;  430.231
697.473;28193.436;  335.926;  454.952
698.048;27564.871;  395.396;  478.973
698.623;26742.238;  348.499;  477.094
699.198;27324.273;  421.569;  496.915
699.773;27634.408;  377.505;  490.236
700.348;27183.875;  357.509;  519.957
700.922;27741.543;  412.778;  575.678
701.497;27559.777;  407.648;  621.399
702.072;27053.313;  459.318;  664.420
702.646;26256.980;  449.388;  690.541
703.221;25603.547;  426.625;  748.862
703.795;24749.883;  360.594;  774.282
704.370;23796.150;  296.731;  799.803
704.944;23696.451;  394.334;  875.824
705.519;24450.086;  422.104;  902.945
706.093;25662.854;  368.807;  889.266
706.668;26723.355;  444.311;  903.487
707.242;26575.988;  450.080;  881.708
707.816;25024.891;  386.317;  892.329
708.390;24923.059;  405.454;  970.250
708.965;26117.826;  426.357;  984.671
709.539;25445.693;  399.660; 1026.092
710.113;24902.494;  410.530; 1067.913
710.687;25206.996;  449.766; 1166.434
711.261;25258.064;  356.003; 1190.854
711.835;25458.299;  365.506; 1197.275
712.409;25357.799;  328.643; 1308.096
712.983;25150.701;  338.346; 1461.617
713.557;24634.002;  337.683; 1611.838
714.131;24779.770;  397.819; 1554.359
714.704;26043.504;  368.289; 1520.780
715.278;25471.705;  408.759; 1575.101
715.852;23412.572;  445.995; 1689.822
716.425;22819.975;  520.432; 1829.143
716.999;23316.975;  331.435; 2008.664
717.573;23778.576;  435.738; 2000.485
718.146;24011.611;  507.875; 1914.506
718.720;24344.779;  415.978; 1818.026
719.293;24680.846;  431.881; 1734.147
719.867;24601.980;  371.085; 1716.968
720.440;24939.316;  477.755; 1918.589
721.013;25600.982;  380.458; 1975.410
721.587;25369.717;  341.994; 2073.331
722.160;25056.619;  455.064; 2357.852
722.733;24880.453;  419.534; 2657.073
723.306;24093.922;  404.204; 2703.894
723.880;22925.055;  420.674; 2549.415
724.453;22692.623;  482.310; 2414.336
725.026;23577.891;  380.414; 2298.557
725.599;25189.592;  423.417; 2168.778
726.172;25724.859;  436.120; 2106.099
726.745;25162.461;  426.923; 2253.320
727.318;24770.563;  456.693; 2404.740
727.891;24159.598;  422.696; 2680.161
728.463;24212.965;  415.466; 2838.882
729.036;24244.898;  373.903; 2755.103
729.609;23806.635;  365.373; 2731.824
730.182;23098.168;  448.843; 2855.645
730.754;22870.336;  306.879; 2946.866
731.327;23416.904;  430.849; 2840.187
731.900;23660.572;  340.786; 2647.608
732.472;23551.605;  410.456; 2473.929
733.045;23528.307;  387.159; 2445.750
733.617;23432.574;  329.229; 2511.771
734.190;22237.109;  428.232; 2581.592
734.762;21036.078;  400.902; 2710.813
735.334;21194.713;  412.272; 3005.733
735.907;21502.980;  411.542; 3154.954
736.479;21793.682;  469.678; 3171.675
737.051;22610.814;  430.848; 3217.496
737.623;23075.350;  445.751; 3246.217
738.195;22751.451;  375.954; 2985.238
738.768;22456.152;  308.891; 2727.559
739.340;22951.820;  387.394; 2666.880
739.912;23294.555;  452.164; 2769.601
740.484;23125.455;  432.401; 2731.422
741.056;22995.223;  394.970; 2963.043
741.628;22386.525;  360.507; 3361.364
742.199;21879.893;  477.377; 3641.185
742.771;21915.660;  347.947; 3932.005
743.343;21915.629;  360.417; 4319.926
743.915;22407.795;  430.787; 4706.647
744.487;22799.996;  435.456; 4874.968
745.058;22827.998;  438.360; 4616.589
745.630;21847.666;  441.496; 4253.410
746.201;21021.467;  376.899; 4056.131
746.773;20678.369;  433.369; 3772.952
747.344;20483.303;  403.406; 3642.473
747.916;20275.805;  422.642; 3752.294
748.487;20490.072;  449.846; 4106.215
749.059;20132.873;  349.649; 4457.835
749.630;19931.975;  377.119; 4366.457
750.201;20149.176;  405.889; 4600.078
750.773;20022.311;  375.092; 4658.499
751.344;20601.877;  412.462; 4609.319
751.915;20361.012;  405.532; 4526.440
752.486;19057.514;  371.235; 4536.061
753.057;18218.648;  413.405; 4383.282
753.628;18117.016;  365.275; 4296.503
754.199;18930.916;  385.978; 4383.224
754.770;20303.584;  443.748; 4653.545
755.341;20964.451;  459.018; 4831.666
755.912;20467.387;  395.754; 4831.387
756.483;19654.121;  438.857; 4735.808
757.054;19103.355;  389.961; 4685.029
757.625;19100.523;  361.131; 4994.250
758.195;18926.957;  345.634; 5051.471
758.766;19018.359;  418.904; 5317.792
759.337;19223.127;  330.474; 5646.512
759.907;19803.662;  341.910; 5404.133
760.478;20004.229;  377.280; 5090.954
761.048;19144.197;  433.950; 4871.175
761.619;18807.664;  430.920; 4589.396
762.189;19862.266;  401.090; 4171.317
762.760;19920.600;  455.526; 3872.538
763.330;18630.535;  440.663; 3832.259
763.900;18010.936;  420.233; 4150.180
764.471;17317.137;  361.269; 4529.801
765.041;16915.904;  466.706; 4715.922
765.611;17421.340;  427.909; 4681.442
766.181;18084.307;  399.712; 4717.063
766.751;18617.375;  413.315; 4710.285
767.321;18671.775;  351.385; 4450.305
767.891;18062.477;  415.122; 4274.126
768.461;17530.645;  397.025; 4215.047
769.031;17336.246;  406.562; 4173.068
769.601;17167.613;  459.531; 4174.689
770.171;17487.383;  341.035; 4229.310
770.741;18564.750;  382.638; 4352.031
771.311;18975.717;  435.608; 4336.652
771.880;18270.520;  356.811; 4300.873
772.450;17275.887;  370.614; 4387.194
773.020;17090.320;  331.117; 4220.415
773.589;17090.723;  385.954; 4075.835
774.159;16684.324;  378.624; 4105.756
774.729;16907.291;  376.760; 4114.978
775.298;17484.191;  371.997; 3693.298
775.867;17204.127;  375.500; 3343.119
776.437;16794.594;  405.770; 3062.040
777.006;16899.396;  339.440; 2927.161
777.576;16504.098;  437.543; 3046.482
778.145;16027.731;  426.646; 3230.203
778.714;16008.100;  404.083; 3253.324
779.283;15936.200;  434.386; 3129.745
779.853;15862.102;  396.056; 2983.566
780.422;15623.770;  406.526; 2929.887
780.991;15380.271;  426.829; 2863.908
781.560;15815.538;  475.832; 2948.029
782.129;15790.739;  426.069; 3074.149
782.698;15244.674;  482.472; 2893.970
783.267;14899.242;  378.875; 2721.391
783.836;14781.243;  411.212; 2659.712
784.404;14577.077;  351.782; 2622.233
784.973;15113.545;  299.652; 2600.754
785.542;15665.013;  397.522; 2528.475
786.111;16132.548;  465.225; 2404.396
786.679;16133.915;  430.561; 2365.717
787.248;14996.116;  333.731; 2498.438
787.817;13416.551;  383.335; 2645.659
788.385;12554.419;  460.104; 2709.280
788.954;13389.854;  340.841; 2620.500
789.522;14768.421;  446.078; 2625.422
790.090;14679.789;  341.547; 2743.843
790.659;13896.156;  386.784; 2635.163
791.227;13450.458;  393.354; 2495.484
791.795;13372.926;  418.024; 2413.705
792.364;13374.260;  361.460; 2345.326
792.932;13846.428;  429.630; 2350.447
793.500;14171.695;  392.500; 2429.768
794.068;14243.396;  340.437; 2513.589
794.636;13994.731;  361.940; 2664.310
795.204;13252.899;  324.976; 2721.431
795.772;12307.067;  364.580; 2802.052
796.340;11851.135;  375.283; 2847.173
796.908;11999.169;  327.386; 2997.194
797.476;12271.337;  347.923; 3151.615
798.044;12567.538;  317.526; 3110.735
798.612;13250.772;  397.196; 2931.656
799.180;13625.007;  409.266; 2785.777
799.747;13684.475;  406.369; 2899.098
800.315;12922.310;  347.272; 2955.519
800.883;12074.011;  318.375; 2948.940
801.450;12326.111;  396.478; 2965.361
802.018;13034.713;  417.915; 3070.582
802.585;13479.747;  399.685; 3156.103
803.153;13236.815;  370.655; 3199.524
803.720;12730.083;  375.925; 3168.845
804.287;12702.784;  386.995; 3248.366
804.855;12815.886;  452.264; 3406.187
805.422;12805.687;  385.801; 3430.907
805.989;13139.621;  365.071; 3453.528
806.556;13487.722;  364.707; 3612.649
807.124;14255.423;  444.911; 3736.570
807.691;14088.324;  354.214; 3770.491
808.258;13535.192;  399.484; 3705.012
808.825;12987.727;  451.687; 3828.733
809.392;12617.661;  483.557; 3986.754
809.959;12345.396;  419.560; 4410.075
810.526;12936.330;  487.463; 4774.996
811.093;12736.198;  468.033; 4754.217
811.659;11837.999;  396.236; 4661.238
812.226;11236.533;  397.673; 4672.559
812.793;11297.001;  417.976; 4822.979
813.360;11570.536;  395.079; 5189.800
813.926;11975.771;  417.149; 5310.622
814.493;12240.738;  347.153; 5414.542
815.060;12327.206;  320.556; 5548.963
815.626;11680.507;  345.559; 5452.284
816.193;11153.042;  405.129; 5339.305
816.759;11065.576;  363.365; 5544.426
817.325;11500.811;  320.269; 5706.547
817.892;11867.212;  441.005; 5623.468
818.458;11898.180;  423.208; 5586.689
819.024;11613.647;  460.978; 5647.910
819.591;11081.882;  396.715; 5762.031
820.157;10769.383;  344.818; 6284.452
820.723;10716.685;  418.721; 6906.973
821.289;11077.919;  625.725; 7086.894
821.855;10941.286;  433.094; 7054.915
822.421;10744.421;  375.031; 7112.035
822.987;10693.488;  351.401; 7256.156
823.553;10468.689;  382.504; 7538.077
824.119;10325.091;  445.174; 7594.298
824.685;10040.226;  464.044; 7613.619
825.251; 9448.293;  440.714; 7644.140
825.816; 9093.694;  493.750; 7720.261
826.382; 9006.996;  434.787; 8014.282
826.948; 9266.563;  442.690; 8281.503
827.513; 9436.897;  389.727; 8289.624
828.079; 9481.433;  354.663; 8587.045
828.645; 9638.467;  414.766; 8821.865
829.210; 9527.734;  344.270; 9054.486
829.776; 9355.402;  427.573; 9054.607
830.341; 9208.471;  441.543; 9415.628
830.906; 8847.571;  455.779; 9932.449
831.472; 7957.539;  368.316;10150.271
832.037; 6996.707;  447.052; 9420.391
832.602; 6334.175;  376.156; 8664.912
833.167; 6614.276;  402.892; 8491.933
833.733; 6944.477;  449.562; 8872.854
834.298; 7007.878;  352.765; 9370.575
834.863; 6997.513;  426.135; 9610.695
835.428; 6928.214;  420.238; 9655.616
835.993; 7080.315;  429.042; 9437.838
836.558; 7322.649;  438.978; 9441.459
837.123; 7354.317;  544.548; 9600.979
837.688; 6964.185;  429.385; 9798.301
838.253; 6807.586;  420.754; 9902.921
838.817; 6640.754;  387.524;10339.742
839.382; 6649.456;  477.961;10548.363
839.947; 6569.123;  414.764;10252.484
840.511; 6432.958;  487.934;10040.005
841.076; 6004.692;  316.471;10099.926
841.641; 5887.093;  430.607;10347.347
842.205; 5682.961;  419.110;10817.368
842.770; 5688.996;  505.380;11435.289
843.334; 5620.030;  390.250;12072.409
843.898; 5596.131;  394.687;12635.431
844.463; 5709.032;  480.390;12537.252
845.027; 5552.667;  377.593;12759.673
845.591; 5410.401;  450.730;12821.993
846.156; 5132.569;  379.933;12520.914
846.720; 5050.704;  445.703;12390.436
847.284; 4825.438;  414.939;12956.456
847.848; 4544.206;  435.043;13240.177
848.412; 4234.507;  406.379;13216.998
848.976; 4276.341;  480.816;13014.619
849.540; 4309.176;  527.286;12355.740
850.104; 4259.011;  482.255;12208.761
850.668; 4081.012;  326.692;12106.882
851.232; 4095.246;  339.362;11862.103
851.796; 4300.347;  399.098;11700.523
852.359; 4399.482;  449.802;12375.944
852.923; 4355.616;  463.538;13087.966
853.487; 4207.384;  443.308;13297.187
854.050; 3950.585;  277.978;13851.207
854.614; 4118.687;  385.048;14854.229
855.177; 4187.054;  425.451;15802.149
855.741; 4147.622;  432.921;16603.570
856.304; 3948.256;  459.991;16359.891
856.868; 3615.191;  360.827;14365.512
857.431; 3505.525;  411.631;13361.333
857.995; 3499.493;  393.267;14130.554
858.558; 3596.028;  433.570;14883.175
859.121; 3722.262;  444.274;15754.195
859.684; 3736.397;  419.777;15995.017
860.247; 3653.398;  411.280;15149.537
860.810; 3544.966;  387.650;14640.358
861.374; 3659.667;  531.387;15551.079
861.937; 3531.335;  359.956;16519.801
862.500; 3634.536;  379.460;16796.521
863.062; 3619.303;  366.129;16538.742
863.625; 3646.971;  429.333;16716.764
864.188; 3558.439;  385.303;17055.084
864.751; 3521.107;  389.439;17197.705
865.314; 3478.275;  410.176;17151.625
865.876; 3355.809;  458.546;17783.547
866.439; 3169.077;  442.049;19283.467
867.002; 3110.378;  524.252;20256.389
867.564; 2951.713;  470.822;20485.410
868.127; 2858.214;  426.825;20789.730
868.689; 2895.415;  426.428;21981.951
869.252; 3023.916;  469.665;23803.771
869.814; 2978.551;  370.668;24974.094
870.377; 2970.685;  417.505;24690.314
870.939; 3056.420;  597.108;23963.436
871.501; 2811.188;  424.544;25167.156
872.063; 2625.822;  299.948;26995.477
872.626; 2676.756;  325.218;27443.098
873.188; 2780.758;  423.421;26718.418
873.750; 2794.925;  402.591;26558.840
874.312; 2730.060;  386.194;26701.561
874.874; 2742.761;  501.397;27970.582
875.436; 2607.029;  453.067;29173.402
875.998; 2577.363;  480.570;30376.623
876.560; 2539.431;  455.507;32507.344
877.122; 2402.266;  377.577;34833.066
877.683; 2345.767;  445.780;36458.285
878.245; 2129.101;  394.850;37248.207
878.807; 2119.836;  437.420;36758.027
879.369; 2147.837;  347.490;35223.551
879.930; 2303.305;  365.359;33824.969
880.492; 2447.139;  478.796;34436.492
881.053; 2279.707;  375.133;37745.313
881.615; 2202.208;  381.002;41184.633
882.176; 2137.143;  406.606;42871.555
882.738; 2164.344;  445.376;41693.074
883.299; 1998.245;  324.079;40289.895
883.860; 1935.113;  331.382;39231.215
884.422; 1988.614;  443.552;38264.039
884.983; 1851.348;  361.488;37171.859
885.544; 1874.250;  418.658;35842.379
886.105; 1765.451;  409.428;34810.000
886.666; 1671.518;  391.231;34519.020
887.227; 1579.153;  334.968;33905.641
887.788; 1618.587;  426.605;34502.965
888.349; 1529.989;  353.974;34241.785
888.910; 1626.490;  455.311;33722.203
889.471; 1597.258;  429.514;32539.625
890.032; 1531.225;  412.017;31528.346
890.593; 1521.960;  443.087;32655.068
891.153; 1437.794;  401.324;33882.289
891.714; 1328.962;  344.860;33318.711
892.275; 1303.097;  354.864;31848.930
892.835; 1383.731;  458.667;30339.752
893.396; 1319.366;  453.937;30074.973
893.956; 1216.600;  394.340;30338.393
894.517; 1207.234;  421.043;30864.113
895.077; 1192.402;  428.546;29766.734
895.638; 1245.737;  500.450;26379.557
896.198; 1077.738;  356.486;24056.277
896.758; 1131.572;  452.956;22961.898
897.319; 1052.540;  398.059;21772.020
897.879; 1032.508;  411.262;20877.539
898.439;  925.276;  335.866;19509.461
898.999; 1010.277;  438.869;17297.582
899.559;  977.745;  431.972;14712.002
900.119;  884.513;  358.775;12790.224
900.679;  987.581;  489.679;11586.744
901.239;  915.182;  437.948;10776.465
901.799;  888.916;  419.118; 9691.687
902.359;  827.884;  376.388; 8725.907
902.919;  811.852;  371.258; 8305.728
903.479;  809.920;  364.361; 8172.649
904.038;  772.787;  345.465; 7913.870
904.598;  703.189;  305.534; 7262.291
905.158;  785.390;  382.171; 6609.012
905.717;  777.724;  400.174; 6236.133
906.277;  783.759;  410.444; 5829.054
906.836;  787.293;  426.814; 5396.674
907.396;  778.628;  431.251; 4964.195
907.955;  773.195;  432.354; 4528.917
908.515;  722.963;  392.224; 4223.837
909.074;  720.364;  395.927; 4023.958
909.633;  723.132;  395.663; 4065.379
910.192;  813.767;  498.900; 4066.300
910.752;  696.767;  391.767; 3971.600
911.311;  691.733;  382.400; 3839.600
911.870;  672.967;  367.300; 3684.500
912.429;  754.433;  459.167; 3635.600
912.988;  735.767;  457.667; 3689.800
913.547;  644.700;  359.367; 3737.700
914.106;  694.200;  417.600; 3740.300
914.665;  685.033;  409.033; 3604.600
915.224;  729.200;  456.700; 3358.700
915.782;  647.467;  382.233; 3188.400
916.341;  735.767;  474.000; 3091.400
916.900;  641.800;  385.133; 3044.800
917.458;  617.133;  359.667; 2888.600
918.017;  665.000;  411.167; 2818.900
918.576;  637.700;  382.367; 2838.600
919.134;  586.167;  334.833; 2880.100
919.693;  628.367;  381.600; 2996.300
920.251;  615.633;  371.233; 3183.100
920.809;  593.867;  352.667; 3247.000
921.368;  628.933;  383.667; 3156.600
921.926;  594.933;  356.967; 2964.900
922.484;  636.667;  404.933; 2846.300
923.042;  616.600;  386.033; 2890.400
923.601;  701.733;  469.600; 2987.700
924.159;  662.800;  424.600; 3049.800
924.717;  596.267;  360.533; 3087.000
925.275;  639.300;  408.000; 3093.400
925.833;  548.200;  320.600; 3182.400
926.391;  661.700;  433.233; 3397.900
926.949;  614.133;  379.300; 3575.400
927.506;  645.833;  416.333; 3713.400
928.064;  627.800;  385.633; 3871.300
928.622;  624.200;  392.033; 4092.800
929.180;  583.600;  340.433; 4499.300
929.737;  579.800;  333.567; 4813.200
930.295;  663.633;  421.833; 5084.100
930.853;  599.967;  358.500; 5185.000
931.410;  585.900;  340.700; 5313.100
931.968;  665.167;  432.900; 5339.600
932.525;  640.200;  402.267; 5399.900
933.082;  566.100;  335.967; 5457.500
933.640;  654.567;  411.667; 5692.900
934.197;  628.967;  378.467; 5821.200
934.754;  644.867;  380.133; 5617.900
935.312;  621.267;  358.033; 5512.400
935.869;  727.467;  472.967; 5582.400
936.426;  618.800;  369.467; 5650.100
936.983;  632.267;  381.833; 5657.400
937.540;  602.167;  340.200; 5564.300
938.097;  687.600;  415.000; 5574.000
938.654;  648.033;  376.900; 5665.900
939.211;  682.500;  410.433; 5931.600
939.768;  661.433;  391.667; 6153.600
940.324;  646.100;  379.133; 6397.600
940.881;  626.533;  358.067; 6454.200
941.438;  721.633;  456.500; 6206.900
941.995;  710.067;  433.467; 6003.900
942.551;  610.767;  343.800; 6228.300
943.108;  661.967;  400.467; 6603.500
943.664;  617.033;  346.000; 7188.100
944.221;  777.333;  501.467; 7579.900
944.777;  607.300;  338.500; 7658.100
945.334;  619.667;  350.667; 7670.400
945.890;  669.933;  394.300; 7525.100
946.446;  676.033;  394.533; 7261.500
947.003;  684.367;  408.767; 6949.200
947.559;  751.633;  485.033; 6773.100
948.115;  723.967;  448.033; 6668.400
948.671;  678.467;  409.933; 6488.400
949.227;  596.667;  328.733; 6236.600
949.783;  592.900;  320.900; 6008.900
950.339;  686.800;  421.133; 5934.100
950.895;  716.833;  442.667; 5933.500
951.451;  648.533;  376.367; 6074.700
952.007;  699.167;  423.667; 6066.400
952.563;  647.067;  379.633; 5884.100
953.118;  627.300;  368.967; 5733.800
953.674;  649.600;  387.100; 5734.300
954.230;  643.300;  397.600; 6039.700
954.785;  638.567;  390.133; 6383.500
955.341;  687.400;  431.767; 6568.200
955.897;  575.967;  318.533; 6488.600
956.452;  665.433;  408.600; 6239.200
957.008;  764.467;  506.300; 5954.600
957.563;  709.033;  453.800; 5816.700
958.118;  615.600;  362.033; 5828.200
958.674;  659.000;  402.500; 5717.400
959.229;  708.300;  458.500; 5506.800
959.784;  580.433;  329.600; 5292.200
960.339;  701.200;  456.900; 5101.900
960.894;  671.633;  430.767; 5093.200
961.449;  594.767;  350.767; 5227.900
962.004;  851.800;  612.867; 5349.300
962.559;  598.933;  362.333; 5514.900
963.114;  523.167;  277.600; 5717.300
963.669;  634.900;  400.667; 5841.400
964.224;  603.633;  362.667; 5805.900
964.779;  569.633;  339.700; 5723.400
965.334;  703.167;  478.467; 5779.500
965.888;  601.500;  366.033; 5948.500
966.443;  667.100;  437.900; 6344.200
966.998;  553.800;  320.033; 6666.300
967.552;  624.333;  397.733; 6710.100
968.107;  601.067;  362.067; 6593.500
968.661;  638.467;  406.600; 6344.100
969.216;  588.067;  365.067; 6062.400
969.770;  635.800;  408.800; 5785.500
970.324;  634.233;  409.633; 5426.800
970.879;  653.200;  438.733; 5016.800
971.433;  648.600;  436.900; 4904.500
971.987;  612.500;  399.100; 4991.000
972.541;  626.867;  417.867; 4978.500
973.095;  693.333;  486.000; 4832.000
973.649;  545.067;  332.100; 4767.900
974.203;  559.000;  356.433; 4881.200
974.757;  577.767;  367.767; 4969.500
975.311;  594.267;  386.967; 4953.000
975.865;  600.033;  394.600; 4884.300
976.419;  580.433;  376.067; 4739.800
976.973;  575.933;  369.367; 4698.100
977.526;  638.267;  451.800; 4631.100
978.080;  524.267;  331.567; 4621.600
978.634;  619.533;  432.200; 4650.200
979.187;  609.900;  417.767; 4669.200
979.741;  695.767;  509.633; 4658.000
980.294;  527.767;  340.700; 4579.100
980.848;  484.267;  296.033; 4452.800
981.401;  562.867;  368.200; 4271.900
981.955;  582.133;  391.333; 4087.800
982.508;  505.767;  325.633; 3973.900
983.061;  630.867;  446.067; 3928.600
983.615;  537.133;  360.967; 3851.200
984.168;  508.400;  340.200; 3734.800
984.721;  583.067;  422.800; 3628.300
985.274;  580.733;  412.633; 3564.300
985.827;  560.167;  393.067; 3558.100
986.380;  480.933;  314.167; 3559.900
986.933;  582.700;  423.833; 3688.700
987.486;  576.200;  415.267; 3778.500
988.039;  581.233;  414.167; 3559.900
988.591;  602.533;  437.767; 3219.300
989.144;  479.933;  339.533; 2902.900
989.697;  506.033;  357.067; 2722.600
990.250;  571.167;  424.167; 2618.000
990.802;  498.800;  353.700; 2523.900
991.355;  658.433;  521.233; 2436.500
991.907;  582.500;  441.467; 2412.200
992.460;  506.567;  361.700; 2387.900
993.012;  506.367;  366.333; 2365.800
993.565;  472.033;  341.900; 2311.100
994.117;  653.833;  524.100; 2308.700
994.669;  476.167;  343.333; 2249.300
995.221;  544.600;  413.333; 2158.100
995.774;  534.400;  410.167; 2085.600
996.326;  505.367;  384.967; 2068.100
996.878;  574.733;  454.533; 1975.300
997.430;  473.867;  351.200; 1929.500
997.982;  506.900;  390.800; 1861.900
998.534;  507.067;  385.033; 1830.200
999.086;  500.833;  384.467; 1823.200
999.638;  447.500;  335.667; 1815.000
1000.190;  478.633;  366.200; 1796.600
1000.741;  510.700;  393.600; 1738.800
1001.293;  476.600;  357.200; 1666.200
1001.845;  469.667;  355.033; 1566.500
1002.396;  512.033;  399.333; 1471.900
1002.948;  515.200;  402.167; 1398.000
1003.500;  497.733;  388.033; 1356.500
1004.051;  643.467;  532.300; 1294.200
1004.603;  554.567;  451.533; 1190.000
1005.154;  424.267;  320.100; 1063.900
1005.705;  509.400;  405.700;  968.300
1006.257;  500.067;  395.333;  889.800
1006.808;  481.933;  384.400;  801.500
1007.359;  546.100;  460.567;  716.400
1007.910;  459.833;  362.067;  639.100
1008.461;  525.200;  429.700;  561.600
1009.013;  418.200;  329.067;  500.400
1009.564;  562.667;  478.833;  476.100
1010.115;  421.267;  330.767;  431.600
1010.665;  431.467;  346.767;  409.300
1011.216;  475.167;  394.800;  399.700
1011.767;  493.933;  407.800;  388.100
1012.318;  526.033;  435.767;  381.400
1012.869;  482.267;  398.267;  375.400
1013.419;  429.100;  340.933;  357.600
1013.970;  476.967;  394.100;  358.300
1014.521;  437.133;  354.733;  344.100
1015.071;  476.867;  395.700;  322.800
1015.622;  445.200;  367.733;  320.600
1016.172;  423.233;  347.033;  301.700
1016.723;  436.633;  350.367;  289.800
1017.273;  429.333;  344.400;  287.600
1017.823;  459.200;  376.933;  278.700
1018.374;  429.100;  351.667;  274.400
1018.924;  512.067;  424.033;  283.200
1019.474;  505.767;  425.667;  278.500
1020.024;  460.100;  389.867;  274.700
1020.574;  512.267;  438.233;  272.700
1021.124;  483.033;  400.767;  278.400
1021.674;  393.500;  315.367;  269.200
1022.224;  505.800;  423.400;  267.800
1022.774;  477.933;  400.700;  258.100
1023.324;  539.100;  456.967;  260.000
1023.874;  628.400;  549.633;  260.700
1024.423;  433.367;  363.267;  252.700
1024.973;  430.033;  358.933;  234.700
1025.523;  440.300;  365.800;  226.500
1026.072;  428.800;  355.467;  225.500
1026.622;  475.133;  399.133;  210.100
1027.172;  505.700;  435.167;  213.000
1027.721;  420.633;  351.433;  207.700
1028.270;  472.567;  401.900;  205.400
1028.820;  453.233;  380.533;  201.000
1029.369;  438.267;  367.467;  201.000
1029.918;  465.233;  385.900;  198.400
1030.468;  397.867;  325.833;  199.200
1031.017;  449.267;  381.633;  192.600
1031.566;  429.833;  363.400;  197.400
1032.115;  488.667;  425.267;  188.300
1032.664;  424.333;  354.600;  193.700
1033.213;  520.600;  446.433;  191.900
1033.762;  447.667;  377.967;  184.500
1034.311;  482.733;  412.700;  194.300
1034.860;  491.700;  421.533;  192.300
1035.408;  509.867;  447.733;  182.600
1035.957;  511.400;  440.967;  173.900
1036.506;  373.500;  304.100;  185.200
1037.055;  597.733;  532.100;  182.500
1037.603;  472.500;  402.633;  167.600
1038.152;  374.633;  309.400;  168.200
1038.700;  413.900;  340.400;  169.600
1039.249;  482.000;  417.500;  164.300
1039.797;  446.967;  387.233;  169.600
1040.345;  495.967;  433.367;  167.100
1040.894;  444.333;  371.300;  164.400
1041.442;  448.233;  384.767;  158.300
1041.990;  395.267;  331.267;  160.000
1042.538;  375.300;  312.367;  156.800
1043.087;  406.067;  336.367;  146.600
1043.635;  483.667;  412.967;  162.400
1044.183;  417.133;  353.500;  156.300
1044.731;  406.467;  342.567;  158.100
1045.279;  473.833;  413.567;  154.500
1045.827;  637.733;  573.967;  146.200
1046.374;  361.800;  299.167;  154.000
1046.922;  415.367;  358.967;  149.000
1047.470;  493.133;  427.433;  154.900
1048.018;  464.467;  394.800;  148.400
1048.565;  509.067;  444.500;  146.300
1049.113;  388.067;  329.500;  156.100
1049.660;  439.767;  375.867;  154.300
1050.208;  480.067;  413.500;  149.400
1050.755;  426.033;  364.900;  157.500
1051.303;  485.100;  426.667;  157.700
1051.850;  449.533;  390.100;  152.800
1052.397;  330.000;  271.900;  146.300
1052.945;  436.000;  375.400;  149.500
1053.492;  530.200;  471.667;  149.300
1054.039;  512.300;  457.767;  163.100
1054.586;  392.033;  347.000;  150.400
1055.133;  489.700;  428.800;  153.500
1055.680;  455.600;  395.833;  155.600
1056.227;  381.100;  317.867;  148.700
1056.774;  567.533;  503.267;  151.500
1057.321;  365.967;  309.267;  143.700
1057.868;  452.067;  399.467;  145.300
1058.415;  459.800;  401.933;  153.500
1058.961;  470.533;  417.933;  149.900
1059.508;  448.600;  392.800;  147.300
1060.055;  409.600;  351.033;  151.000
1060.601;  441.767;  379.200;  148.700
1061.148;  440.467;  380.600;  153.800
1061.694;  414.967;  364.667;  150.500
1062.241;  416.133;  360.333;  149.100
1062.787;  473.633;  410.800;  153.000
1063.334;  576.933;  513.867;  153.200
1063.880;  467.333;  420.267;  148.400
1064.426;  495.100;  451.600;  149.200
1064.972;  418.767;  366.667;  156.400
1065.518;  399.933;  345.300;  144.700
1066.065;  442.967;  386.267;  139.400
1066.611;  420.500;  371.200;  139.300
1067.157;  456.167;  397.733;  138.400
1067.703;  470.233;  417.400;  142.700
1068.249;  428.867;  378.867;  136.700
1068.794;  439.500;  394.133;  139.400
1069.340;  408.767;  354.500;  142.700
1069.886;  422.767;  364.600;  135.600
1070.432;  372.467;  328.600;  133.400
1070.977;  426.633;  371.933;  138.200
1071.523;  400.000;  346.267;  132.400
1072.068;  413.067;  358.633;  132.700
1072.614;  364.367;  317.667;  127.000
1073.160;  485.000;  435.933;  131.300
1073.705;  405.367;  351.367;  135.700
1074.250;  394.700;  339.467;  133.000
1074.796;  457.500;  412.067;  138.000
1075.341;  478.233;  420.333;  137.300
1075.886;  416.800;  363.200;  134.300
1076.431;  463.533;  408.600;  138.200
1076.976;  451.300;  404.467;  132.200
1077.521;  405.533;  359.500;  138.900
1078.067;  407.600;  356.133;  128.600
1078.612;  474.867;  422.200;  138.900
1079.156;  420.500;  369.767;  128.900
1079.701;  493.600;  437.200;  129.700
1080.246;  490.900;  442.000;  128.600
1080.791;  443.333;  392.800;  122.600
1081.336;  462.267;  418.900;  122.000
1081.880;  460.633;  408.800;  123.900
1082.425;  407.433;  351.200;  120.600
1082.970;  503.333;  452.833;  124.500
1083.514;  418.700;  369.400;  112.000
1084.059;  408.333;  365.167;  120.700
1084.603;  402.333;  349.000;  116.000
1085.147;  452.267;  407.600;  116.300
1085.692;  503.567;  458.200;  108.200
1086.236;  359.200;  306.800;  114.600
1086.780;  530.500;  479.933;  118.900
1087.325;  464.600;  411.767;  120.400
1087.869;  430.367;  384.667;  110.500
1088.413;  501.300;  450.600;  114.000
1088.957;  378.800;  330.000;  114.300
1089.501;  543.467;  488.833;  114.600
1090.045;  511.200;  461.333;  114.200
1090.589;  399.633;  354.333;  105.500
1091.133;  474.767;  428.267;  111.800
1091.676;  417.000;  371.467;  110.900
1092.220;  418.167;  375.600;  110.100
1092.764;  500.767;  459.100;  108.100
1093.307;  477.400;  423.833;  109.900
1093.851;  388.600;  335.600;  107.500
1094.395;  479.100;  438.200;   96.200
1094.938;  446.400;  398.667;   99.300
1095.482;  389.200;  343.733;   97.700
1096.025;  501.500;  459.767;   84.900
1096.568;  555.067;  513.500;   88.500
1097.112;  350.700;  310.867;   95.700
1097.655;  425.033;  372.633;   97.300
1098.198;  423.333;  373.400;   92.600
1098.741;  433.100;  392.000;   91.800
1099.285;  458.567;  417.433;   88.000
1099.828;  309.033;  260.733;   91.700
1100.371;  428.333;  387.200;   89.900
1100.914;  479.467;  434.033;   91.500
1101.457;  475.233;  436.300;   88.100
1101.999;  407.700;  356.733;   86.400
1102.542;  456.100;  412.200;   90.800
1103.085;  462.300;  422.433;   95.400
1103.628;  540.933;  497.733;   97.700
1104.170;  410.067;  370.933;   84.000
1104.713;  458.800;  406.567;   93.900
1105.256;  388.733;  349.367;   93.000
1105.798;  347.567;  308.400;   85.600
1106.341;  516.467;  472.167;   87.100
1106.883;  362.933;  320.500;   85.200
1107.425;  468.333;  426.200;   85.000
1107.968;  432.467;  390.500;   84.300
1108.510;  485.667;  443.500;   88.200
1109.052;  429.167;  397.067;   86.600
1109.594;  386.600;  351.400;   79.400
1110.136;  450.933;  413.033;   81.700
1110.679;  447.067;  397.800;   75.500
1111.221;  427.000;  380.933;   88.500
1111.763;  388.033;  348.200;   87.700
1112.304;  380.567;  342.800;   89.700
1112.846;  471.900;  427.133;   81.900
1113.388;  670.600;  629.167;   86.400
1113.930;  490.033;  444.067;   84.700
1114.472;  426.767;  385.833;   78.900
1115.013;  388.600;  341.267;   78.100
1115.555;  419.167;  380.600;   84.900
1116.097;  398.967;  359.133;   79.200
1116.638;  483.833;  441.733;   83.700
1117.180;  469.333;  428.567;   85.500
1117.721;  403.633;  362.733;   78.800
1118.262;  474.133;  438.667;   77.400
1118.804;  447.667;  405.200;   81.400
1119.345;  402.567;  368.600;   77.800
1119.886;  493.867;  455.000;   81.200
1120.427;  405.333;  372.933;   77.200
1120.969;  417.233;  385.600;   75.200
1121.510;  397.800;  353.567;   80.900
1122.051;  508.733;  473.000;   77.300
1122.592;  458.233;  425.333;   73.300
1123.133;  376.067;  347.133;   90.100
1123.673;  494.700;  463.567;   75.000
1124.214;  426.633;  391.600;   80.600
1124.755;  448.100;  415.133;   78.000
1125.296;  429.433;  397.300;   77.500
1125.836;  482.933;  446.667;   80.400
1126.377;  422.267;  380.900;   75.600
1126.918;  433.000;  397.167;   78.900
1127.458;  437.800;  399.333;   78.000
1127.999;  462.867;  424.367;   76.100
1128.539;  484.767;  445.933;   81.400
1129.079;  442.100;  407.767;   77.400
1129.620;  391.133;  355.933;   68.000
1130.160;  377.167;  341.400;   77.500
1130.700;  444.533;  414.767;   76.300
1131.240;  446.467;  413.600;   66.800
1131.781;  435.667;  400.667;   70.600
1132.321;  421.067;  380.733;   77.200
1132.861;  393.200;  357.267;   70.400
1133.401;  415.200;  378.367;   68.700
1133.941;  437.800;  405.533;   68.500
1134.481;  426.133;  385.733;   75.900
1135.020;  424.133;  392.900;   66.600
1135.560;  475.700;  439.233;   68.100
1136.100;  347.000;  315.133;   64.900
1136.640;  360.033;  322.667;   72.500
1137.179;  375.600;  342.733;   69.700
1137.719;  422.500;  389.533;   68.400
1138.258;  409.967;  377.700;   67.000
1138.798;  467.967;  429.133;   69.600
1139.337;  338.000;  300.733;   64.000
1139.877;  451.133;  418.133;   64.500
1140.416;  619.833;  588.033;   74.900
1140.955;  368.833;  331.367;   67.200
1141.494;  470.533;  434.300;   69.900
1142.034;  406.533;  377.467;   59.100
1142.573;  455.767;  422.867;   65.900
1143.112;  386.600;  349.200;   70.600
1143.651;  381.233;  343.267;   67.100
1144.190;  480.667;  454.700;   56.700
1144.729;  419.600;  389.333;   61.800
1145.267;  405.200;  367.233;   62.500
1145.806;  446.867;  409.133;   68.500
1146.345;  444.200;  409.467;   58.300
1146.884;  440.333;  406.600;   63.100
1147.422;  375.167;  334.233;   54.800
1147.961;  499.000;  467.400;   67.600
1148.500;  471.433;  441.033;   64.700
1149.038;  445.433;  412.300;   61.000
1149.577;  487.967;  457.667;   65.100
1150.115;  310.133;  279.100;   58.100
1150.653;  425.300;  391.267;   60.500
1151.192;  391.500;  355.000;   56.600
1151.730;  458.100;  429.700;   62.300
1152.268;  411.067;  377.700;   55.500
1152.806;  397.033;  370.033;   58.200
1153.344;  398.667;  372.433;   55.000
1153.882;  416.167;  389.233;   64.200
1154.421;  328.733;  292.567;   60.300
1154.958;  418.200;  387.233;   58.100
1155.496;  453.567;  426.200;   55.800
1156.034;  500.900;  476.100;   61.000
1156.572;  468.133;  434.467;   56.200
1157.110;  323.167;  300.300;   53.200
1157.647;  475.333;  448.900;   57.400
1158.185;  395.867;  369.133;   55.500
1158.723;  352.667;  326.500;   58.000
1159.260;  488.567;  460.033;   53.700
1159.798;  464.067;  434.733;   51.700
1160.335;  441.100;  406.900;   59.600

