
Integration time [ms]:   3.276
Averaging Nr. [scans]: 1000
Smoothing Nr. [pixels]: 0
Data measured with spectrometer [name]: 7414430SP
Wave   ;Sample   ;Dark     ;Reference
[nm]   ;[counts] ;[counts] ;[counts] 

288.544;  150.389;    7.793;  793.890
289.143;  153.205;    7.462;  681.602
289.742;  154.258;    8.602;  828.814
290.341;  140.725;    1.321;  789.841
290.940;  128.761;   -0.709;  730.702
291.538;  129.981;    0.881;  881.108
292.137;  130.302;    0.122;  792.581
292.736;  135.037;   -1.929;  975.101
293.335;  131.485;   -8.229;  735.086
293.934;  130.843;   -5.279;  781.677
294.532;  129.255;   -1.369; 1031.958
295.131;  116.361;   -7.641;  834.394
295.730;  115.831;   -8.420;  809.588
296.328;  114.781;   -5.611;  783.442
296.927;  116.264;   -5.781;  779.652
297.525;  116.946;   -6.361;  781.236
298.124;  107.463;  -11.382;  654.009
298.722;  110.638;   -7.641;  761.933
299.321;  108.720;   -6.811;  708.597
299.919;  107.458;   -6.991;  751.918
300.518;  103.470;  -10.362;  689.338
301.116;  104.614;   -9.581;  691.381
301.715;  105.927;   -4.891;  730.222
302.313;  104.650;   -8.801;  704.943
302.911;   99.918;   -8.522;  733.830
303.509;  104.232;   -6.171;  925.627
304.108;  102.725;   -7.311;  760.383
304.706;  102.079;   -8.321;  801.664
305.304;   96.778;  -10.222;  796.707
305.902;  101.388;   -6.021;  784.484
306.500;   97.263;   -4.971;  728.200
307.098;   96.171;   -7.061;  746.560
307.696;   94.099;   -8.801;  780.432
308.294;   94.456;   -6.411;  731.359
308.892;   96.698;   -2.901;  759.769
309.490;   93.559;   -5.041;  712.161
310.088;   91.242;   -5.002;  788.444
310.686;   95.008;   -2.041;  821.749
311.284;   91.300;   -2.351;  766.040
311.882;   88.742;   -4.422;  731.225
312.480;   85.954;   -4.192;  697.167
313.078;   86.859;   -1.172;  808.331
313.675;   87.237;   -2.601;  691.600
314.273;   83.288;   -1.312;  797.837
314.871;   82.141;   -3.942;  589.829
315.468;   80.178;   -2.802;  652.090
316.066;   83.511;   -0.701;  694.427
316.664;   76.335;   -4.362;  656.351
317.261;   80.479;   -2.872;  910.128
317.859;   74.752;   -2.022;  768.735
318.456;   76.800;   -0.531;  830.096
319.054;   72.060;   -3.912;  787.828
319.651;   70.908;   -4.752;  759.928
320.249;   70.445;   -2.602;  810.188
320.846;   67.658;   -0.821;  714.286
321.443;   65.452;   -4.642;  832.135
322.041;   62.212;   -5.002;  812.315
322.638;   60.380;   -3.982;  701.456
323.235;   61.847;   -3.411;  665.683
323.833;   58.664;   -7.361;  740.354
324.430;   53.306;   -8.611;  615.900
325.027;   55.315;   -4.061;  876.855
325.624;   54.958;   -4.031;  644.532
326.221;   52.216;   -7.481;  689.717
326.818;   51.279;   -5.281;  818.332
327.415;   54.654;   -7.460;  748.828
328.012;   54.573;   -5.510;  690.585
328.609;   53.395;   -7.880;  731.389
329.206;   50.726;   -8.331;  778.621
329.803;   50.635;   -5.121;  737.841
330.400;   54.622;   -4.510;  704.260
330.997;   56.146;   -6.441;  817.147
331.594;   54.079;   -8.831;  788.185
332.191;   59.284;   -7.621;  728.722
332.787;   62.191;   -4.591;  844.463
333.384;   60.948;   -7.412;  763.093
333.981;   58.675;   -8.293;  815.687
334.578;   61.616;   -7.052;  708.378
335.174;   65.141;   -3.102;  731.469
335.771;   64.158;   -5.943;  836.456
336.367;   60.933;   -7.393;  710.631
336.964;   64.281;   -4.063;  793.266
337.561;   62.194;   -3.813;  731.112
338.157;   59.396;   -4.654;  911.916
338.754;   56.042;   -7.934;  796.589
339.350;   53.555;   -4.414;  722.493
339.946;   56.192;   -4.664;  773.135
340.543;   47.904;   -6.375;  846.136
341.139;   42.718;   -9.815;  720.836
341.735;   40.255;   -4.526;  772.593
342.332;   40.220;   -4.895;  691.472
342.928;   39.572;   -4.295;  795.394
343.524;   33.686;   -5.476;  761.684
344.120;   29.671;   -5.856;  738.562
344.716;   33.683;   -2.155;  723.717
345.313;   31.538;   -6.275;  795.342
345.909;   26.309;   -8.815;  627.336
346.505;   27.103;   -5.305;  740.247
347.101;   28.782;   -2.674;  827.864
347.697;   29.056;   -4.344;  785.398
348.293;   23.349;   -9.975;  627.244
348.889;   24.094;   -5.774;  745.914
349.485;   24.085;   -5.004;  688.205
350.081;   24.575;   -4.704;  772.592
350.676;   19.488;   -6.635;  691.606
351.272;   23.268;   -4.504;  809.530
351.868;   24.113;   -3.914;  780.497
352.464;   20.980;   -9.044;  723.932
353.059;   17.345;   -8.314;  646.017
353.655;   20.965;   -7.024;  777.063
354.251;   21.899;   -5.343;  759.845
354.846;   16.415;   -8.604;  740.646
355.442;   13.680;   -6.945;  753.071
356.038;   15.555;   -7.564;  751.708
356.633;   16.658;   -5.814;  728.594
357.229;   14.381;   -7.364;  724.757
357.824;   11.831;   -8.024;  703.600
358.420;   10.440;   -9.384;  679.726
359.015;   12.395;   -5.104;  695.357
359.610;   12.516;   -6.854;  763.920
360.206;    6.331;  -10.185;  603.240
360.801;    9.250;   -7.054;  646.503
361.396;   11.726;   -5.034;  725.975
361.992;    8.038;   -8.284;  668.220
362.587;    4.503;   -8.625;  670.160
363.182;    6.547;   -7.674;  689.631
363.777;    8.000;   -5.164;  738.242
364.372;    7.430;   -8.604;  737.314
364.967;    3.136;   -9.055;  680.744
365.563;    6.709;   -6.114;  815.567
366.158;    4.553;   -5.814;  685.161
366.753;    5.810;   -7.854;  649.263
367.348;    4.020;   -7.804;  746.056
367.942;    3.084;   -7.954;  697.298
368.537;    2.615;   -4.984;  754.245
369.132;    2.871;   -8.564;  703.428
369.727;   -0.999;   -8.855;  638.079
370.322;    0.672;   -6.245;  580.186
370.917;   -0.363;   -6.425;  710.646
371.511;    3.372;   -6.294;  861.834
372.106;   -0.670;   -7.685;  776.964
372.701;   -4.012;   -7.335;  585.988
373.296;    2.268;   -4.564;  863.135
373.890;   -2.830;  -10.235;  647.840
374.485;   -4.973;   -7.885;  691.199
375.079;   -1.498;   -7.324;  738.685
375.674;    1.008;   -3.494;  812.970
376.268;   -3.577;   -8.525;  691.759
376.863;  -10.016;  -10.086;  580.327
377.457;   -3.808;   -7.025;  662.490
378.052;   -4.983;   -3.585;  764.884
378.646;   -6.150;   -7.595;  741.167
379.240;   -7.188;   -8.335;  721.176
379.835;   -5.372;   -5.785;  636.978
380.429;   -6.808;   -4.335;  562.557
381.023;   -7.122;   -6.805;  779.205
381.617;  -10.462;   -9.195;  680.106
382.212;   -7.309;   -6.905;  685.303
382.806;   -5.261;   -3.745;  760.690
383.400;   -9.090;   -7.745;  672.281
383.994;  -10.596;   -9.765;  664.870
384.588;   -6.943;   -6.564;  697.701
385.182;   -6.247;   -5.344;  726.624
385.776;   -6.936;   -8.514;  706.875
386.370;  -10.814;   -9.555;  681.968
386.964;   -9.174;   -8.715;  684.155
387.558;   -7.492;   -6.174;  598.360
388.152;  -10.683;   -8.725;  681.959
388.745;   -9.139;   -7.965;  814.707
389.339;   -8.268;   -5.924;  747.642
389.933;   -6.530;   -5.524;  695.370
390.527;   -7.167;   -7.114;  859.029
391.120;  -13.703;  -10.725;  595.318
391.714;  -10.550;   -8.035;  711.633
392.308;   -7.624;   -3.574;  780.253
392.901;  -11.063;   -7.245;  642.460
393.495;  -13.423;   -9.285;  595.414
394.089;  -10.916;   -5.895;  760.452
394.682;  -11.247;   -4.295;  697.188
395.275;  -11.818;   -9.875;  719.927
395.869;  -12.716;   -8.485;  667.314
396.462;  -11.780;   -7.455;  616.609
397.056;   -7.581;   -5.424;  776.621
397.649;  -12.219;   -6.605;  731.575
398.242;  -10.560;   -8.224;  712.645
398.836;   -9.400;   -7.474;  766.408
399.429;  -10.181;   -7.094;  631.041
400.022;  -13.634;   -9.475;  665.902
400.615;  -11.001;   -7.145;  805.609
401.208;   -9.328;   -7.174;  691.451
401.802;  -10.782;   -5.515;  699.329
402.395;  -11.737;   -9.875;  683.502
402.988;  -13.261;   -8.845;  696.627
403.581;  -10.882;   -8.874;  646.878
404.174;   -8.230;   -5.324;  686.568
404.767;  -10.793;   -9.575;  638.583
405.360;  -13.443;  -10.965;  621.445
405.953;   -8.494;   -8.764;  759.034
406.545;   -7.646;   -7.514;  725.342
407.138;  -10.980;  -10.025;  618.350
407.731;  -10.324;  -10.034;  613.303
408.324;   -6.709;   -9.374;  660.554
408.917;   -6.741;   -6.534;  681.864
409.509;   -9.179;   -8.004;  740.396
410.102;  -11.597;   -9.875;  643.948
410.695;   -5.901;   -8.604;  665.758
411.287;   -5.491;   -6.794;  599.821
411.880;   -6.308;   -9.334;  585.421
412.472;  -10.693;  -10.254;  613.092
413.065;   -7.387;   -6.714;  629.408
413.657;   -4.725;   -7.234;  576.678
414.250;   -5.782;  -10.544;  646.681
414.842;   -7.424;   -9.744;  676.353
415.434;   -5.332;   -6.994;  570.463
416.027;   -0.741;   -5.893;  652.196
416.619;   -2.436;   -7.264;  713.400
417.211;   -3.441;  -10.374;  599.352
417.804;    0.218;   -7.993;  628.499
418.396;   -3.280;   -7.234;  607.643
418.988;   -0.701;   -9.443;  659.238
419.580;   -4.615;  -10.724;  568.276
420.172;   -2.977;  -10.323;  536.196
420.764;    1.982;   -8.793;  672.482
421.356;    1.791;  -11.143;  636.898
421.948;    0.094;   -8.293;  677.661
422.540;    5.014;   -7.893;  680.027
423.132;    5.124;   -7.082;  600.641
423.724;    1.996;   -8.653;  561.267
424.316;    3.243;  -10.213;  621.345
424.908;    6.043;   -9.762;  591.517
425.500;    7.101;   -5.572;  647.978
426.092;    7.748;   -8.422;  648.268
426.683;    6.885;   -9.283;  684.836
427.275;    8.561;   -7.852;  641.471
427.867;   11.481;   -5.272;  668.948
428.458;   12.026;   -7.682;  732.344
429.050;    9.692;  -10.612;  680.749
429.642;   11.481;   -9.882;  743.124
430.233;   12.472;   -6.962;  569.356
430.825;   14.701;   -6.842;  724.809
431.416;   11.463;   -9.672;  698.241
432.008;   14.416;   -6.552;  651.723
432.599;   16.456;   -6.891;  656.073
433.190;   12.942;  -10.912;  637.670
433.782;   12.246;  -11.172;  590.395
434.373;   18.647;   -6.061;  884.765
434.964;   18.112;   -8.251;  602.920
435.556;   15.927;   -9.722;  634.537
436.147;   19.198;   -9.082;  758.490
436.738;   18.366;   -8.041;  701.099
437.329;   24.193;   -7.341;  721.723
437.920;   17.235;   -8.162;  666.688
438.511;   17.034;  -11.802;  564.526
439.103;   23.667;  -10.191;  623.998
439.694;   25.682;   -7.601;  681.583
440.285;   26.989;   -8.541;  764.432
440.876;   24.382;   -9.751;  845.738
441.466;   23.562;   -9.401;  575.162
442.057;   29.758;   -7.760;  665.814
442.648;   28.399;   -9.971;  746.255
443.239;   26.201;  -11.001;  620.477
443.830;   31.307;   -7.990;  704.958
444.421;   33.015;   -7.910;  655.474
445.011;   30.588;   -8.131;  693.619
445.602;   29.147;   -7.111;  743.126
446.193;   31.002;  -10.920;  488.117
446.783;   36.184;   -6.500;  640.397
447.374;   31.511;   -8.671;  692.759
447.964;   31.497;  -10.781;  713.770
448.555;   39.120;   -9.650;  822.742
449.145;   37.251;   -8.660;  662.853
449.736;   38.651;   -8.990;  803.179
450.326;   37.984;   -9.500;  713.626
450.917;   42.148;   -8.680;  675.324
451.507;   42.005;   -7.520;  600.661
452.097;   42.910;   -8.590;  746.267
452.688;   43.350;  -11.340;  742.160
453.278;   42.555;  -10.100;  566.840
453.868;   47.737;   -6.019;  793.550
454.458;   46.339;   -9.440;  651.141
455.048;   46.028;  -10.560;  711.783
455.639;   47.867;  -11.799;  567.096
456.229;   51.817;   -6.899;  710.694
456.819;   53.346;   -7.389;  751.158
457.409;   53.684;  -11.119;  773.993
457.999;   55.718;   -9.289;  737.505
458.589;   56.195;   -6.139;  686.606
459.179;   56.742;   -8.729;  717.658
459.769;   54.587;   -9.789;  627.099
460.358;   58.680;  -10.259;  797.262
460.948;   60.023;   -7.299;  689.503
461.538;   61.135;  -10.289;  660.677
462.128;   59.258;  -11.269;  664.934
462.717;   65.122;   -9.368;  710.326
463.307;   68.569;   -7.908;  705.846
463.897;   64.842;   -9.599;  656.942
464.486;   63.735;   -9.769;  837.128
465.076;   68.833;   -8.048;  733.776
465.666;   72.239;   -9.358;  652.900
466.255;   70.064;   -7.919;  785.651
466.845;   67.731;  -11.689;  666.749
467.434;   72.008;   -7.818;  725.873
468.023;   73.008;   -7.678;  658.357
468.613;   71.093;  -10.939;  713.946
469.202;   75.270;  -10.118;  646.507
469.791;   78.200;   -9.108;  737.811
470.381;   81.095;   -6.058;  742.813
470.970;   81.079;  -10.428;  711.099
471.559;   80.531;  -10.268;  733.291
472.148;   83.449;   -8.448;  675.737
472.738;   85.904;   -6.917;  765.466
473.327;   86.272;  -11.978;  637.529
473.916;   85.390;  -11.888;  737.446
474.505;   90.307;   -9.437;  751.703
475.094;   93.322;   -6.747;  806.570
475.683;   91.927;   -9.367;  797.699
476.272;   93.467;  -12.637;  730.632
476.861;   95.317;  -10.027;  706.754
477.449;  102.845;   -8.716;  728.487
478.038;   97.193;   -9.577;  692.513
478.627;   98.913;   -9.718;  714.852
479.216;  104.859;   -8.947;  769.441
479.805;  108.071;   -6.256;  783.375
480.393;  109.201;   -7.937; 1008.945
480.982;  107.761;   -7.717;  874.501
481.571;  113.219;   -9.266;  858.333
482.159;  113.929;   -7.636;  705.386
482.748;  115.177;   -9.667;  821.385
483.336;  118.815;  -10.376;  858.209
483.925;  120.032;   -7.147;  774.373
484.513;  126.466;   -7.996;  758.962
485.102;  123.143;  -10.027;  810.965
485.690;  132.653;  -10.446; 1011.050
486.278;  134.136;   -8.446;  979.329
486.867;  135.372;   -6.356;  809.662
487.455;  136.713;   -9.136;  898.229
488.043;  138.277;  -10.646;  748.361
488.631;  146.767;   -7.456; 1005.079
489.220;  150.456;   -6.636;  908.626
489.808;  152.209;  -11.036;  741.415
490.396;  159.847;  -10.246;  914.645
490.984;  165.882;   -8.556;  830.161
491.572;  176.835;   -5.886;  940.315
492.160;  183.619;   -9.486;  919.081
492.748;  196.409;  -10.976;  884.341
493.336;  219.680;   -8.776; 1019.693
493.924;  248.324;   -5.465;  958.077
494.512;  278.787;   -9.986; 1066.638
495.100;  320.146;  -10.636; 1103.280
495.687;  377.976;  -10.885; 1206.373
496.275;  445.830;   -8.126; 1150.796
496.863;  519.464;  -10.586; 1281.171
497.451;  626.433;  -11.926; 1386.805
498.038;  766.450;  -10.885; 1556.729
498.626;  878.635;   -6.315; 1741.407
499.214; 1027.920;   -7.326; 2016.609
499.801; 1247.149;  -11.906; 2220.633
500.389; 1495.329;  -10.466; 2312.494
500.976; 1834.949;   -5.236; 2744.849
501.564; 2287.074;   -8.936; 3148.565
502.151; 2697.050;  -13.176; 3515.999
502.738; 3192.176;  -10.646; 3971.274
503.326; 3582.578;   -9.525; 4403.796
503.913; 3982.380;  -10.856; 5161.749
504.500; 4368.276;  -11.586; 5986.420
505.088; 4787.646;  -10.336; 6381.201
505.675; 5347.147;   -6.355; 6925.547
506.262; 6085.432;   -9.046; 7619.060
506.849; 6804.125;  -10.416; 8733.969
507.436; 7308.970;  -10.305; 9790.121
508.023; 7948.491;   -5.496; 9985.472
508.610; 8213.354;   -7.856;10434.618
509.197; 8869.998;  -10.097;11198.435
509.784;10278.438;  -10.886;12391.194
510.371;11313.051;   -9.315;13603.713
510.958;12087.806;   -9.936;14426.586
511.545;12937.888;   -9.326;15243.775
512.132;13977.657;  -10.075;15945.876
512.719;14739.472;   -7.796;16340.369
513.305;15722.399;  -10.606;18011.766
513.892;16622.590;  -11.486;19754.971
514.479;18006.404;   -9.126;20967.805
515.066;19305.826;   -6.026;22299.793
515.652;20495.785;   -8.466;22908.660
516.239;22101.453;  -10.886;23798.875
516.825;23436.613;  -11.496;25567.275
517.412;24782.871;   -5.796;28154.959
517.998;25276.623;  -10.506;28344.111
518.585;25062.240;  -10.076;27134.219
519.171;25632.670;   -8.315;27268.576
519.758;27485.559;   -8.596;28964.129
520.344;29285.582;   -8.466;30664.494
520.930;29127.742;  -11.006;32550.605
521.516;31144.209;  -10.495;35422.895
522.103;33791.500;   -5.526;38280.004
522.689;34554.781;   -8.746;37835.117
523.275;33630.410;  -11.376;37288.613
523.861;34313.531;  -11.156;37281.395
524.447;35704.480;   -8.135;37846.949
525.033;35541.996;   -7.896;38321.949
525.619;35861.910;  -12.476;38579.285
526.205;37672.176;   -9.516;40622.875
526.791;40094.855;   -6.926;42258.836
527.377;40124.355;   -8.346;42966.902
527.963;41906.883;   -8.717;42018.949
528.549;40232.883;  -11.016;42476.828
529.135;39031.758;   -8.536;41854.852
529.721;38649.637;   -9.666;41237.711
530.306;38079.461;  -10.066;41259.445
530.892;37785.145;  -11.356;41506.047
531.478;39295.008;   -6.596;43559.613
532.063;42330.402;   -8.836;47695.563
532.649;42236.098;  -10.047;50808.324
533.235;43349.563;   -9.746;51787.500
533.820;44738.625;   -6.566;52145.035
534.406;46239.844;  -10.817;51133.488
534.991;46009.176;   -9.416;49996.805
535.576;44532.090;   -9.036;48882.852
536.162;44845.563;   -6.156;46942.285
536.747;46149.758;  -11.607;45711.746
537.333;50461.598;  -11.787;48510.180
537.918;52872.059;  -12.437;50439.891
538.503;51071.723;   -7.196;50863.711
539.088;48339.117;  -10.556;50906.922
539.673;48463.266;   -8.767;52621.965
540.259;48063.684;  -10.026;52368.094
540.844;44953.664;   -7.416;50879.109
541.429;46049.672;   -9.467;52077.777
542.014;49327.359;   -9.527;52716.695
542.599;48724.500;   -9.946;52363.281
543.184;46441.117;   -7.927;53187.137
543.769;48292.219;   -9.297;54697.605
544.354;47379.813;  -10.127;53913.914
544.938;45970.316;   -9.267;49680.164
545.523;47731.422;   -6.506;47386.277
546.108;49904.375;   -9.787;49151.949
546.693;52264.414;  -11.587;51384.637
547.278;52386.961;  -10.986;51853.254
547.862;49052.238;   -8.206;51173.750
548.447;44215.262;  -10.067;51691.395
549.031;44023.895;   -9.637;52456.703
549.616;49264.539;   -9.926;52714.516
550.201;47845.324;   -6.347;52414.598
550.785;48959.652;   -7.917;52355.059
551.370;48341.398;  -10.867;54589.453
551.954;48678.320;   -9.047;58267.348
552.538;49352.297;   -7.827;59062.176
553.123;47699.238;  -10.287;58115.285
553.707;46012.422;  -12.178;56556.285
554.291;47177.414;   -8.717;56201.668
554.876;49010.723;   -7.457;55335.762
555.460;49311.621;  -10.387;54155.703
556.044;50636.797;   -9.618;53721.484
556.628;49092.379;  -11.567;53731.016
557.212;47491.277;   -8.097;54312.531
557.796;45949.910;  -11.077;53797.773
558.380;45610.797;  -11.108;56145.984
558.964;46027.273;   -9.057;57277.930
559.548;46795.098;   -6.977;56459.641
560.132;45325.012;  -11.457;54434.543
560.716;44309.543;  -11.378;54800.617
561.300;45587.059;   -9.577;57606.945
561.884;46596.984;   -7.127;58972.445
562.467;45198.902;   -7.118;57327.570
563.051;44083.207;  -13.358;54962.434
563.635;44823.297;  -10.178;52594.473
564.219;45584.879;   -7.837;50610.410
564.802;46536.906;  -11.398;49551.180
565.386;46548.738;  -12.788;48370.953
565.969;45997.738;   -9.077;48178.871
566.553;45896.465;   -6.207;49957.305
567.136;45829.586;   -8.568;50369.594
567.720;41557.047;  -11.868;49492.004
568.303;39621.758;   -8.268;50616.352
568.887;39881.270;   -8.698;50727.148
569.470;39950.273;   -6.808;51698.379
570.053;38434.855;  -13.188;52122.078
570.637;36754.949;  -12.037;52536.438
571.220;36303.328;   -8.577;51186.098
571.803;36677.063;   -8.498;51032.762
572.386;39370.426;  -10.498;49609.887
572.969;41792.609;   -9.388;48285.926
573.552;39689.664;   -8.338;47624.285
574.135;38494.461;   -8.518;45498.641
574.718;35859.086;  -13.628;41970.434
575.301;34468.879;  -10.893;41447.137
575.884;33078.668;   -8.158;40923.836
576.467;34656.262;  -10.328;45267.723
577.050;37425.531;  -13.058;48175.543
577.633;38759.348;   -9.458;47729.328
578.216;37364.484;   -8.928;47579.793
578.799;36336.539;   -9.358;47820.996
579.381;34883.910;  -11.388;48115.551
579.964;33580.332;  -11.718;47333.766
580.547;35274.879;   -8.588;46668.969
581.129;36513.004;   -8.859;44466.141
581.712;37018.375;  -10.729;44164.922
582.294;37571.285;  -11.118;46477.855
582.877;37424.395;   -5.218;48244.254
583.459;34886.543;   -8.679;47437.895
584.042;33124.402;  -10.709;46943.219
584.624;34225.270;  -11.669;46792.227
585.206;33724.785;   -8.218;46557.250
585.789;34046.074;  -10.569;45793.773
586.371;36719.953;  -11.859;43836.391
586.953;36835.316;  -10.719;42972.492
587.536;38114.207;   -7.198;42487.211
588.118;37543.555;   -8.720;42086.414
588.700;34450.125;  -10.439;43389.930
589.282;33801.074;   -9.198;43646.039
589.864;34663.809;   -9.199;43438.109
590.446;35343.543;  -11.319;43151.926
591.028;34868.648;  -11.159;42781.867
591.610;34003.227;  -11.779;42839.098
592.192;31833.162;   -7.668;42820.402
592.774;30464.781;  -11.949;40724.277
593.356;29316.338;  -12.129;39874.789
593.937;28459.953;  -10.669;39980.648
594.519;30807.617;   -6.509;42069.633
595.101;32825.805;  -10.849;42976.031
595.683;32834.102;  -11.679;44084.441
596.264;34024.773;   -9.049;43478.797
596.846;33003.945;   -8.849;43803.672
597.427;32605.473;   -9.570;42986.934
598.009;34194.059;  -12.620;42832.219
598.591;34419.086;  -10.039;42580.086
599.172;33248.664;  -10.369;43061.805
599.753;33290.613;   -9.140;41691.469
600.335;34963.719;  -11.430;40692.520
600.916;33569.418;   -9.939;39982.422
601.498;31232.006;   -8.479;40318.617
602.079;29794.191;  -10.920;40670.609
602.660;30117.291;  -11.480;41450.898
603.241;31500.705;  -11.699;41137.738
603.823;30208.111;   -9.579;38868.797
604.404;30461.172;  -10.620;38182.785
604.985;31750.707;  -10.450;38078.047
605.566;31019.771;   -9.129;38056.633
606.147;31143.994;   -7.510;37020.418
606.728;32948.691;  -10.660;37883.359
607.309;31576.537;  -11.740;38748.273
607.890;30876.994;   -9.759;38850.230
608.471;30536.090;   -8.250;37457.918
609.051;29574.371;   -9.240;36066.457
609.632;28618.598;  -12.120;35991.074
610.213;29575.098;   -9.110;37402.641
610.794;30071.469;   -8.030;38383.363
611.374;29622.467;   -8.110;40562.387
611.955;29969.268;  -13.560;38533.727
612.536;31130.789;  -11.400;36951.789
613.116;31356.262;   -8.070;37197.891
613.697;31517.928;  -10.830;38411.125
614.277;30174.764;  -11.641;38673.938
614.858;31122.117;  -13.310;37075.863
615.438;30107.693;   -7.460;35092.906
616.019;27043.529;   -7.601;33666.301
616.599;27805.441;  -12.020;34189.023
617.179;29626.043;  -11.780;36952.047
617.760;30310.721;   -8.570;39582.574
618.340;31385.373;  -11.471;38943.977
618.920;32697.793;  -11.170;37594.156
619.500;32786.172;  -11.071;37866.938
620.080;32197.053;   -7.750;37869.043
620.660;33420.254;  -12.711;36868.617
621.241;34893.992;  -10.211;36352.309
621.821;34864.918;  -10.961;35459.520
622.401;33697.652;   -7.720;35207.414
622.980;32826.340;   -8.981;35980.422
623.560;31473.137;   -9.331;37351.328
624.140;30601.629;   -9.850;34388.582
624.720;25180.133;   -7.451;32368.764
625.300;21534.461;   -9.070;32638.629
625.880;24932.393;  -12.601;34599.035
626.459;29097.799;  -11.751;36831.738
627.039;32341.877;   -9.281;38299.098
627.619;32249.713;   -8.801;38289.574
628.198;30427.541;  -12.071;37220.695
628.778;29451.055;   -9.461;37632.563
629.357;30239.193;   -8.491;38003.012
629.937;30506.023;   -9.721;38402.039
630.516;29875.404;   -9.951;37868.801
631.096;29282.332;  -11.731;35760.410
631.675;32659.023;   -8.572;35225.219
632.254;37657.773;  -11.282;35130.289
632.834;37043.930;  -13.322;35794.570
633.413;34922.379;  -10.301;35788.922
633.992;31567.867;   -8.582;34532.863
634.571;32512.070;   -8.352;33590.113
635.151;35241.250;  -11.912;34943.863
635.730;33656.953;  -10.511;35352.523
636.309;30490.445;   -7.731;35366.605
636.888;28419.223;   -9.952;36165.637
637.467;29649.568;  -11.672;37515.902
638.046;31339.994;   -8.901;39288.695
638.625;34413.848;   -7.912;38279.699
639.204;33977.102;  -10.022;37741.598
639.782;32233.559;  -12.252;38364.551
640.361;28168.035;  -10.041;36740.621
640.940;25332.750;  -11.161;34950.082
641.519;26035.135;   -9.701;34137.398
642.097;29295.262;  -11.271;35654.258
642.676;32065.854;   -8.651;35637.957
643.255;32342.088;   -8.711;36567.074
643.833;31437.475;   -9.581;37809.434
644.412;31691.330;  -13.711;37337.293
644.990;31061.906;  -11.811;37018.531
645.569;31620.395;   -9.411;36518.469
646.147;30347.100;  -10.291;36186.430
646.726;29354.980;  -12.401;36267.688
647.304;30225.479;  -10.411;36647.625
647.882;32513.299;   -9.651;39286.742
648.461;34322.238;   -9.631;39157.703
649.039;32124.355;  -11.881;35412.883
649.617;31391.713;   -9.661;34744.918
650.195;31316.580;   -9.301;35403.098
650.773;29780.035;  -10.511;35053.797
651.352;27562.881;  -11.521;33756.816
651.930;25383.109;  -12.211;31868.773
652.508;23672.061;   -9.171;33121.551
653.086;27641.357;   -9.371;33564.793
653.663;30245.754;  -13.161;34054.668
654.241;29511.682;  -13.031;35693.309
654.819;31262.854;   -9.371;36422.906
655.397;31230.270;  -10.511;38213.484
655.975;31097.336;  -10.371;39507.625
656.553;30489.814;  -10.051;39498.223
657.130;28825.580;  -10.061;40395.480
657.708;28502.686;   -9.561;39242.020
658.286;28435.494;  -11.511;38920.020
658.863;29456.354;  -10.261;40202.898
659.441;32566.666;   -7.531;39677.938
660.018;31879.355;   -9.501;40413.355
660.596;30768.303;  -13.301;39931.414
661.173;32920.680;  -11.211;39604.531
661.750;33197.734;   -9.951;39700.070
662.328;32449.627;   -9.390;39292.809
662.905;31293.299;  -11.330;38235.648
663.482;26299.277;   -9.050;36212.305
664.060;24473.105;   -8.240;35944.945
664.637;27541.889;  -10.050;35170.785
665.214;29469.529;  -11.760;34197.523
665.791;30667.021;  -10.530;34549.520
666.368;29273.307;   -9.690;35118.578
666.945;30515.482;   -9.320;36019.418
667.522;32067.807;  -11.860;36048.438
668.099;31902.664;  -10.770;36243.914
668.676;30806.746;   -6.260;35958.875
669.253;29234.406;   -7.000;37384.730
669.830;29880.146;  -10.190;36779.629
670.407;29610.090;   -9.550;35231.289
670.984;29984.666;   -9.260;35544.270
671.560;30261.982;   -9.280;35466.867
672.137;28984.969;  -11.810;34280.863
672.714;29766.525;  -11.490;34632.863
673.290;30222.455;   -7.740;35135.422
673.867;30709.658;  -10.660;36114.480
674.443;30272.471;  -12.230;36152.859
675.020;28535.646;  -10.450;35327.238
675.596;29950.318;   -9.260;35795.176
676.173;30517.861;  -10.780;35430.355
676.749;30388.145;  -13.690;33549.516
677.326;30462.848;  -11.980;32210.012
677.902;30378.547;   -8.630;32068.871
678.478;29508.471;  -10.730;32583.891
679.054;29079.840;  -10.520;32088.928
679.631;29310.689;  -11.920;30978.848
680.207;30802.668;   -7.490;33160.887
680.783;32371.469;   -9.860;35570.363
681.359;31416.063;  -13.380;36125.184
681.935;30685.025;  -12.480;35240.922
682.511;29687.205;   -7.900;34429.961
683.087;29852.723;   -7.710;34463.680
683.663;29760.938;  -11.480;34648.898
684.239;28415.514;  -14.090;34546.457
684.815;28006.264;   -7.560;35586.375
685.390;28450.771;   -9.910;35821.895
685.966;28987.764;  -11.159;35085.871
686.542;31569.072;  -11.169;34198.230
687.118;33349.469;   -5.959;32847.707
687.693;33125.305;  -10.329;32794.027
688.269;32803.371;  -12.059;33072.367
688.844;30911.314;  -10.909;33141.664
689.420;28640.367;   -8.019;33965.742
689.995;26371.234;   -8.399;34655.523
690.571;25205.629;  -10.949;33576.742
691.146;25747.111;   -9.619;32657.219
691.722;25172.430;   -8.999;32526.979
692.297;25712.914;  -11.589;33014.617
692.872;27653.768;  -11.739;34012.254
693.448;26926.693;  -11.059;34237.434
694.023;26167.979;  -10.139;34142.672
694.598;28213.693;   -9.029;34132.031
695.173;28292.695;  -13.319;34205.250
695.748;27635.424;  -10.169;32882.488
696.323;27426.684;   -8.339;32864.906
696.898;27740.361;   -8.169;33170.004
697.473;27590.996;  -12.309;32432.984
698.048;27032.047;  -10.989;31649.303
698.623;27309.729;   -9.329;30778.141
699.198;29468.314;   -9.849;31140.119
699.773;30000.941;  -12.329;31764.299
700.348;28274.369;  -10.389;31780.816
700.922;28148.170;   -9.269;32046.375
701.497;28588.598;   -9.329;32603.574
702.072;28570.303;  -10.789;34799.871
702.646;27532.506;  -10.839;35793.172
703.221;26012.906;   -9.099;35201.590
703.795;27944.480;  -10.939;34764.527
704.370;28096.578;  -12.859;34307.367
704.944;28646.039;  -11.559;33509.887
705.519;29750.252;   -7.939;31388.584
706.093;31259.111;  -10.499;31340.104
706.668;31117.676;  -11.289;32630.281
707.242;30108.943;  -11.509;32728.779
707.816;28645.979;   -9.639;32947.238
708.390;27074.553;  -11.429;33277.855
708.965;27952.707;  -11.869;33834.336
709.539;28556.598;  -11.689;33709.273
710.113;28982.926;  -10.478;33044.313
710.687;27938.713;  -10.228;31953.992
711.261;26050.188;  -13.698;30505.949
711.835;26071.459;  -13.378;30262.369
712.409;27113.596;   -9.698;31254.447
712.983;28754.799;  -11.898;32754.986
713.557;29412.457;  -15.138;34018.824
714.131;29075.951;  -14.098;34579.625
714.704;28317.029;   -9.958;33890.262
715.278;26220.240;  -10.028;33531.102
715.852;25518.887;  -11.148;33601.660
716.425;26400.555;   -9.068;33515.117
716.999;26986.385;  -10.038;33185.555
717.573;28053.822;   -9.798;33905.996
718.146;29141.803;  -12.378;35199.293
718.720;28678.939;  -11.918;35060.551
719.293;28028.408;   -8.088;34973.230
719.867;30876.086;  -10.888;36394.449
720.440;30221.268;  -11.938;36663.008
721.013;28411.482;  -12.818;35102.426
721.587;27388.117;  -10.298;33985.266
722.160;26679.230;  -10.048;33524.965
722.733;25712.178;  -12.108;32987.043
723.306;26144.047;  -10.818;33066.301
723.880;28207.117;   -8.908;33399.500
724.453;29330.740;   -9.878;33468.297
725.026;28226.428;  -11.188;33816.637
725.599;26219.680;  -11.678;32797.996
726.172;27204.627;   -9.618;33187.434
726.745;28445.475;   -8.258;35136.613
727.318;29834.785;  -12.978;35751.730
727.891;29773.143;  -12.148;35890.430
728.463;29303.611;   -8.968;34822.090
729.036;28582.393;  -10.188;32895.086
729.609;28974.430;  -11.788;31823.225
730.182;25880.805;  -11.788;31445.283
730.754;23410.340;  -10.268;32373.223
731.327;23414.611;   -9.998;33676.820
731.900;23974.352;  -12.228;33417.000
732.472;25430.406;  -13.848;31978.498
733.045;27023.492;   -8.698;30368.777
733.617;27047.707;  -10.607;30574.215
734.190;26383.193;  -11.507;31280.975
734.762;23223.871;  -13.647;31674.412
735.334;21849.543;   -9.767;31247.291
735.907;22765.541;   -9.897;29876.211
736.479;22681.834;  -11.637;29808.488
737.051;22244.102;   -9.567;30233.547
737.623;23209.182;   -8.187;31469.086
738.195;24360.873;  -11.187;31784.225
738.768;26485.406;  -12.337;32120.523
739.340;26048.379;  -12.227;32094.342
739.912;24561.006;  -11.057;31312.680
740.484;23330.990;  -10.207;31946.238
741.056;22584.650;  -10.047;32984.059
741.628;24510.871;  -13.627;33897.715
742.199;26772.926;   -7.177;33213.016
742.771;25081.514;  -10.797;31369.113
743.343;22698.174;  -11.997;31865.473
743.915;21769.492;  -12.867;32388.631
744.487;21944.926;   -7.617;31079.568
745.058;21970.799;   -9.557;30570.107
745.630;22349.717;   -9.877;29970.127
746.201;22916.666;  -14.177;29186.766
746.773;23067.883;   -9.237;28805.723
747.344;23058.965;   -9.847;29591.223
747.916;22045.596;  -11.657;31412.201
748.487;22481.816;  -10.587;32194.898
749.059;23652.365;   -8.707;32533.719
749.630;24404.352;  -10.537;32158.518
750.201;23654.176;  -11.687;30855.395
750.773;21895.795;  -11.647;28622.555
751.344;21853.705;   -7.147;28405.732
751.915;22917.596;   -9.757;28461.551
752.486;22327.629;  -12.427;27842.850
753.057;20252.221;  -12.227;27845.008
753.628;19342.967;  -10.417;27728.107
754.199;20575.250;  -11.767;27381.086
754.770;21398.721;  -11.187;25882.203
755.341;21291.664;  -10.507;25886.184
755.912;21130.236;   -9.387;26050.861
756.483;20499.607;  -10.647;26798.779
757.054;18656.164;  -11.837;27048.238
757.625;17439.602;  -12.716;26294.838
758.195;17425.537;   -9.666;26142.076
758.766;17303.160;   -8.656;26392.234
759.337;18100.350;  -12.856;26334.594
759.907;19871.389;  -13.366;27579.652
760.478;20597.826;   -8.576;28352.770
761.048;19728.990;  -10.526;27325.088
761.619;18892.004;  -11.116;26460.428
762.189;19131.748;  -12.136;26029.826
762.760;20564.188;   -9.456;26430.145
763.330;21463.031;   -7.136;26670.902
763.900;20641.592;  -11.786;26603.021
764.471;17942.396;  -11.546;25542.740
765.041;16665.178;   -8.096;24358.459
765.611;16770.428;   -8.876;23991.297
766.181;17281.021;  -12.196;24470.236
766.751;18237.273;  -11.636;24845.975
767.321;17815.924;  -10.156;24533.633
767.891;15737.346;  -11.766;24916.492
768.461;15299.454;  -14.936;24776.771
769.031;15924.230;  -12.356;24757.988
769.601;17357.396;   -7.526;24181.088
770.171;17121.467;  -10.766;23670.387
770.741;16576.059;  -13.176;22960.045
771.311;16999.223;  -10.616;22917.523
771.880;17211.242;   -9.576;23562.941
772.450;16869.889;  -10.336;24216.500
773.020;17044.189;  -13.516;24140.398
773.589;16473.150;  -13.466;24414.857
774.159;15877.298;   -8.686;23858.717
774.729;15468.681;   -9.476;22942.135
775.298;14910.652;  -13.666;22324.033
775.867;14490.662;  -11.716;21140.313
776.437;14471.194;   -9.906;20838.092
777.006;14204.256;  -12.166;20599.510
777.576;14137.753;  -12.356;20508.809
778.145;14395.291;  -11.646;20732.947
778.714;14267.802;   -8.226;21062.465
779.283;13508.634;   -9.556;20949.664
779.853;13103.119;  -14.116;20508.623
780.422;13541.318;  -11.506;20649.082
780.991;13136.454;   -9.556;21527.520
781.560;12081.626;   -9.095;22632.658
782.129;11937.189;  -12.135;23048.277
782.698;11920.451;  -10.865;23438.555
783.267;11472.349;   -9.335;23267.734
783.836;11513.511;  -11.045;22415.133
784.404;12596.818;  -13.865;20443.152
784.973;13067.387;  -13.095;19699.150
785.542;13018.541;  -11.575;19763.828
786.111;12916.531;   -9.705;20341.408
786.679;12332.757;  -12.105;20207.967
787.248;12054.139;  -12.455;19516.465
787.817;11849.095;  -11.535;18900.363
788.385;11411.952;   -9.765;17879.121
788.954;10816.313;  -14.005;17658.301
789.522;10341.988;  -11.955;17788.879
790.090;10871.018;  -10.135;18118.277
790.659;11171.131;  -10.975;18338.736
791.227;10667.915;  -13.375;18508.615
791.795;11159.633;  -12.375;17898.254
792.364;11440.324;  -10.725;17295.133
792.932;11620.473;   -9.715;16822.051
793.500;11844.640;  -12.675;17040.148
794.068;12193.417;  -13.495;17179.787
794.636;12283.260;  -10.885;16664.246
795.204;11809.828;  -11.045;16524.545
795.772;11872.184;  -13.175;17274.564
796.340;11378.111;  -12.445;17891.002
796.908;11221.764;   -9.735;17648.561
797.476;11092.589;   -9.815;17064.080
798.044;10657.264;  -13.985;16672.777
798.612; 9891.850;  -13.115;17023.996
799.180; 9498.981;  -10.185;16561.615
799.747; 9396.287;   -9.055;15962.773
800.315; 9147.641;  -12.385;15296.992
800.883; 8781.303;  -15.035;14801.771
801.450; 8745.052;  -10.365;14534.430
802.018; 8814.116;   -9.855;14173.248
802.585; 8983.703;  -11.905;14029.547
803.153; 9097.081;  -11.585;13836.846
803.720; 8952.028;   -9.095;13567.324
804.287; 8492.476;   -9.135;13360.622
804.855; 8092.428;  -11.604;13681.981
805.422; 7970.754;  -11.794;13536.560
805.989; 7945.324;  -10.734;13355.958
806.556; 8186.759;  -10.444;13747.896
807.124; 8500.642;  -12.764;13987.376
807.691; 8470.404;  -12.964;14038.674
808.258; 8198.855;  -11.134;14120.152
808.825; 7766.970;   -9.854;13860.111
809.392; 7800.736;  -10.504;13268.790
809.959; 7401.157;  -13.054;12680.389
810.526; 7049.129;   -8.294;12427.308
811.093; 7114.693;   -8.394;12030.105
811.659; 7614.131;  -12.304;11653.664
812.226; 8001.946;  -13.944;11637.183
812.793; 7649.327;  -10.484;11611.521
813.360; 7043.078;  -10.144;11885.181
813.926; 6766.699;  -11.684;12770.539
814.493; 6570.305;  -13.644;12677.638
815.060; 6224.951;   -9.724;11974.336
815.626; 6283.655;   -9.854;11594.715
816.193; 6683.644;  -13.254;11579.474
816.759; 6707.402;  -13.204;11666.972
817.325; 6807.192;   -9.434;11325.530
817.892; 7187.727;  -10.134;11105.369
818.458; 7589.750;  -13.474;10843.928
819.024; 7148.553;  -11.854;10714.406
819.591; 6813.259;  -10.244;10469.165
820.157; 6624.315;  -10.704;10235.523
820.723; 6180.022;  -12.324;10847.563
821.289; 5896.704;   -9.444;11040.980
821.855; 5746.521;   -8.374;10357.100
822.421; 5605.540;  -10.234; 9978.918
822.987; 5541.339;  -13.294; 9754.177
823.553; 5292.061;  -10.884;10065.755
824.119; 5176.314;   -8.884;10036.294
824.685; 5243.130;   -6.784;10029.192
825.251; 5309.952;  -12.004;10199.230
825.816; 5291.772;  -11.474; 9820.189
826.382; 5112.179;   -9.174; 9297.248
826.948; 5365.603;   -9.214; 9381.347
827.513; 5693.705;  -10.774; 9450.726
828.079; 5472.847;  -11.924; 9472.444
828.645; 4967.953;  -10.543; 9292.643
829.210; 4943.425;  -10.533; 9065.341
829.776; 4902.842;  -10.753; 9132.620
830.341; 4765.994;  -10.173; 9092.878
830.906; 4948.902;  -10.743; 9078.557
831.472; 5243.218;  -11.113; 8534.535
832.037; 4921.586;  -10.603; 8677.874
832.602; 4379.204;  -13.323; 8628.692
833.167; 4155.212;  -10.823; 8879.031
833.733; 4115.031;  -10.113; 9189.790
834.298; 4222.263;  -13.583; 9052.608
834.863; 4246.118;  -12.703; 8895.087
835.428; 4245.562;  -10.523; 8824.266
835.993; 4161.018;   -6.963; 8845.385
836.558; 4050.450;  -10.763; 8888.563
837.123; 4195.342;   -9.903; 8966.582
837.688; 4401.805;   -9.913; 8617.860
838.253; 4588.512;  -10.283; 8590.699
838.817; 4778.755;  -12.963; 8443.797
839.382; 4696.519;  -14.243; 8799.356
839.947; 4388.105;  -10.733; 8810.595
840.511; 4082.133;   -9.383; 8796.394
841.076; 3730.140;  -12.563; 8347.231
841.641; 3817.891;  -12.953; 8224.330
842.205; 3910.771;   -7.043; 8223.349
842.770; 4035.494;   -8.163; 8622.107
843.334; 4230.591;  -12.503; 8410.386
843.898; 4213.499;  -11.693; 8337.465
844.463; 4237.455;  -10.203; 8506.283
845.027; 4010.803;   -9.533; 8280.962
845.591; 3833.067;  -13.443; 8231.141
846.156; 3772.484;  -13.143; 7969.179
846.720; 3642.872;   -9.433; 7768.278
847.284; 3506.514;  -11.033; 7630.957
847.848; 3371.472;  -10.403; 7472.395
848.412; 3271.307;  -11.553; 7437.394
848.976; 3308.369;   -8.393; 7674.592
849.540; 3279.406;   -8.713; 7836.011
850.104; 3419.300;  -12.463; 7913.669
850.668; 3742.878;  -12.973; 7694.508
851.232; 3806.471;  -10.793; 7756.887
851.796; 3643.612;  -10.662; 7926.545
852.359; 3363.845;  -13.082; 7827.844
852.923; 3235.146;  -12.192; 7641.163
853.487; 3076.505;  -11.912; 7342.501
854.050; 3022.016;  -10.892; 7042.820
854.614; 3127.432;  -13.992; 7151.338
855.177; 3225.699;  -11.732; 7105.077
855.741; 3253.158;   -8.962; 6989.675
856.304; 3168.855;   -9.442; 6596.634
856.868; 3129.165;  -14.192; 6356.272
857.431; 3240.395;  -12.702; 6468.571
857.995; 3369.612;   -9.942; 6373.210
858.558; 3375.026;   -9.112; 6324.448
859.121; 3111.465;  -12.932; 6408.327
859.684; 2995.897;  -13.442; 6347.886
860.247; 3087.281;  -10.632; 6321.264
860.810; 3060.753;  -11.272; 6301.903
861.374; 2814.405;   -9.832; 6607.881
861.937; 2577.487;  -11.762; 6408.200
862.500; 2588.240;   -9.722; 6572.639
863.062; 2769.441;  -10.512; 6387.297
863.625; 2928.200;  -11.232; 6190.836
864.188; 3082.860;  -14.112; 5807.254
864.751; 3133.958;  -11.302; 5682.413
865.314; 3014.899;  -10.112; 5547.492
865.876; 2828.022;  -12.182; 5500.150
866.439; 2839.759;  -10.722; 5415.909
867.002; 2778.826;   -9.252; 5501.567
867.564; 2556.187;   -9.572; 5413.946
868.127; 2329.058;  -13.142; 5160.325
868.689; 2224.915;  -12.902; 5133.183
869.252; 2119.519;   -9.732; 5252.382
869.814; 2031.916;   -9.432; 5297.141
870.377; 2059.939;  -11.552; 5390.919
870.939; 2139.628;   -9.052; 5599.898
871.501; 2194.254;  -10.982; 5248.336
872.063; 2187.152;  -12.292; 4854.235
872.626; 2150.331;  -14.912; 4817.074
873.188; 2184.265;  -13.112; 4987.732
873.750; 2153.052;  -13.442; 4868.651
874.312; 2068.149;   -9.402; 4779.330
874.874; 1973.988;  -11.062; 4866.348
875.436; 1881.532;  -13.931; 4718.887
875.998; 1871.636;   -9.561; 4660.005
876.560; 1887.765;  -11.321; 4462.964
877.122; 1834.850;  -12.221; 4145.042
877.683; 1752.189;  -12.191; 4056.481
878.245; 1682.345;  -12.101; 3950.740
878.807; 1720.147;   -8.971; 4058.958
879.369; 1737.768;  -12.071; 3954.677
879.930; 1647.209;  -14.621; 3941.495
880.492; 1593.700;  -10.311; 4067.014
881.053; 1543.415;  -10.901; 3859.633
881.615; 1425.545;  -14.411; 3776.071
882.176; 1339.707;  -13.761; 3734.750
882.738; 1300.640;   -9.181; 3678.489
883.299; 1276.684;  -11.791; 3405.407
883.860; 1287.896;  -13.121; 3351.106
884.422; 1287.044;  -11.211; 3394.044
884.983; 1235.517;  -10.091; 3166.443
885.544; 1156.132;   -8.461; 3189.802
886.105; 1077.436;  -12.361; 3160.360
886.666; 1017.821;  -14.141; 3093.059
887.227;  964.927;  -11.361; 2941.957
887.788;  907.151;  -11.401; 2974.836
888.349;  846.221;  -13.791; 2721.214
888.910;  843.074;  -13.191; 2696.493
889.471;  849.753;   -9.881; 2560.172
890.032;  828.743;   -9.881; 2558.190
890.593;  805.661;  -10.371; 2567.669
891.153;  781.388;  -13.301; 2460.307
891.714;  732.461;  -11.431; 2372.046
892.275;  689.694;  -11.291; 2309.505
892.835;  646.684;  -11.471; 2382.543
893.396;  590.571;  -11.541; 2295.502
893.956;  536.321;  -11.181; 2162.420
894.517;  504.021;  -11.741; 2125.439
895.077;  502.038;  -11.671; 2086.978
895.638;  502.303;  -11.311; 2126.316
896.198;  475.039;   -9.831; 1838.275
896.758;  433.855;   -8.421; 1892.813
897.319;  406.321;  -12.351; 1792.232
897.879;  388.674;  -13.511; 1762.751
898.439;  363.515;  -12.001; 1661.149
898.999;  340.534;  -10.180; 1781.468
899.559;  331.857;  -12.030; 1703.347
900.119;  326.760;  -15.710; 1537.525
900.679;  322.488;   -8.900; 1638.384
901.239;  308.366;   -8.340; 1527.902
901.799;  299.072;  -13.910; 1456.441
902.359;  293.609;  -13.460; 1357.140
902.919;  287.043;  -11.490; 1331.118
903.479;  274.222;  -12.110; 1317.257
904.038;  255.098;  -11.720; 1262.595
904.598;  241.573;  -13.610; 1152.034
905.158;  237.289;  -11.040; 1240.893
905.717;  229.842;  -10.900; 1233.691
906.277;  217.901;  -15.080; 1217.330
906.836;  209.133;  -13.380; 1222.408
907.396;  200.154;  -10.780; 1193.047
907.955;  194.208;   -8.500; 1182.526
908.515;  188.771;  -12.760; 1099.364
909.074;  182.217;  -11.900; 1092.863
909.633;  177.749;   -8.950; 1069.121
910.192;  172.719;   -8.770; 1196.460
910.752;  167.844;  -12.390; 1029.960
911.311;  163.375;  -13.680; 1009.780
911.870;  161.530;  -12.370;  971.460
912.429;  163.832;  -10.900; 1094.080
912.988;  162.087;  -11.690; 1081.060
913.547;  157.063;  -13.240;  940.380
914.106;  151.500;  -11.990;  999.420
914.665;  149.863;   -9.990;  984.020
915.224;  149.105;  -12.880; 1035.760
915.782;  149.652;  -12.350;  922.560
916.341;  148.161;   -9.110; 1049.840
916.900;  144.082;   -9.270;  925.260
917.458;  142.729;  -13.240;  884.220
918.017;  142.652;  -13.550;  942.600
918.576;  141.542;  -12.320;  904.440
919.134;  139.633;  -11.490;  837.980
919.693;  138.101;  -13.670;  893.060
920.251;  135.740;  -15.470;  876.500
920.809;  134.714;  -11.290;  839.580
921.368;  134.171;  -10.210;  885.360
921.926;  133.665;  -12.140;  842.940
922.484;  132.538;  -13.080;  903.360
923.042;  132.552;  -11.720;  880.340
923.601;  134.790;   -7.480;  998.680
924.159;  133.724;  -11.570;  935.560
924.717;  130.663;  -13.840;  841.080
925.275;  130.137;  -10.640;  903.240
925.833;  130.000;  -11.540;  779.320
926.391;  131.455;  -12.960;  938.380
926.949;  128.505;  -14.130;  857.680
927.506;  128.937;  -11.750;  903.500
928.064;  129.527;  -10.250;  877.580
928.622;  129.245;  -13.030;  880.100
929.180;  127.702;  -13.400;  814.180
929.737;  129.596;  -10.700;  808.540
930.295;  134.336;  -10.070;  928.480
930.853;  134.699;  -11.960;  849.100
931.410;  135.255;  -13.120;  821.120
931.968;  134.390;  -10.770;  940.660
932.525;  134.779;  -10.680;  909.380
933.082;  134.450;  -13.130;  811.440
933.640;  135.869;  -13.210;  925.900
934.197;  133.614;  -11.060;  886.360
934.754;  135.227;   -9.580;  897.780
935.312;  138.332;  -14.000;  863.340
935.869;  142.500;  -10.710; 1012.980
936.426;  142.637;   -9.860;  872.800
936.983;  144.024;   -9.710;  889.020
937.540;  142.550;  -13.990;  838.280
938.097;  140.623;  -14.040;  940.120
938.654;  140.667;  -10.310;  898.860
939.211;  144.051;  -10.560;  952.480
939.768;  147.462;  -13.900;  915.420
940.324;  150.553;  -14.760;  904.200
940.881;  150.843;  -10.370;  878.500
941.438;  152.018;   -8.260; 1021.200
941.995;  148.402;  -12.540;  992.560
942.551;  145.432;  -14.670;  875.620
943.108;  146.134;  -10.450;  937.920
943.664;  149.234;  -10.750;  869.340
944.221;  151.297;  -11.550; 1088.140
944.777;  149.873;  -14.770;  869.680
945.334;  150.464;  -12.820;  884.840
945.890;  151.756;  -10.130;  946.480
946.446;  152.328;  -13.470;  947.020
947.003;  152.802;  -12.120;  964.940
947.559;  155.498;   -9.980; 1063.040
948.115;  156.213;   -9.080; 1026.540
948.671;  153.947;  -10.830;  967.300
949.227;  151.505;  -12.440;  859.560
949.783;  148.493;  -12.910;  858.900
950.339;  151.269;  -10.270;  991.000
950.895;  150.848;  -13.630; 1023.840
951.451;  150.320;  -15.100;  925.280
952.007;  149.886;  -11.330;  998.540
952.563;  150.943;  -10.580;  937.780
953.118;  148.991;  -13.440;  904.940
953.674;  149.091;  -12.710;  935.780
954.230;  148.130;  -10.350;  949.640
954.785;  145.576;   -9.190;  936.640
955.341;  144.087;  -11.200;  998.160
955.897;  142.133;  -16.560;  834.660
956.452;  143.026;  -12.570;  953.840
957.008;  143.072;   -7.970; 1083.640
957.563;  141.263;  -11.940; 1009.540
958.118;  136.504;  -13.450;  877.700
958.674;  137.408;  -12.030;  946.780
959.229;  138.983;   -9.410; 1013.980
959.784;  137.121;  -12.000;  832.400
960.339;  135.388;  -14.780; 1001.280
960.894;  131.556;   -9.860;  963.760
961.449;  127.606;   -9.970;  859.960
962.004;  127.963;  -10.900; 1212.840
962.559;  122.061;  -13.150;  860.140
963.114;  119.848;  -13.740;  742.480
963.669;  120.038;   -9.820;  915.500
964.224;  117.792;  -13.890;  874.340
964.779;  116.698;  -12.600;  828.420
965.334;  117.670;  -10.950; 1017.860
965.888;  118.518;  -11.170;  875.360
966.443;  119.772;  -12.540;  972.380
966.998;  118.782;  -15.780;  819.460
967.552;  117.673;   -9.760;  908.380
968.107;  114.852;   -9.060;  868.300
968.661;  115.795;  -11.950;  922.440
969.216;  115.892;  -12.800;  856.280
969.770;  116.201;  -11.210;  917.200
970.324;  115.547;  -11.610;  923.140
970.879;  112.217;  -11.370;  947.180
971.433;  108.741;  -12.540;  952.720
971.987;  104.042;  -11.320;  895.340
972.541;  101.215;  -10.720;  917.100
973.095;  100.418;   -9.680; 1009.460
973.649;   99.724;  -11.440;  809.480
974.203;   98.328;  -11.210;  829.040
974.757;   97.828;  -10.240;  855.220
975.311;   98.355;  -13.720;  872.600
975.865;   98.446;  -13.770;  881.820
976.419;   95.520;  -11.690;  857.400
976.973;   95.691;   -9.510;  849.620
977.526;   98.015;  -12.620;  949.920
978.080;   97.221;  -12.010;  796.780
978.634;   97.221;  -10.170;  921.320
979.187;   95.557;   -9.020;  905.400
979.741;   92.322;   -9.820; 1018.380
980.294;   88.837;  -14.870;  789.160
980.848;   86.084;  -12.380;  717.220
981.401;   88.104;  -10.350;  816.540
981.955;   90.614;  -13.720;  844.300
982.508;   89.447;  -11.490;  746.340
983.061;   89.730;  -10.000;  915.260
983.615;   87.049;  -11.480;  798.800
984.168;   83.586;  -13.220;  770.080
984.721;   82.237;  -13.960;  880.760
985.274;   81.540;  -10.870;  867.500
985.827;   80.813;   -9.790;  834.220
986.380;   78.132;  -13.120;  721.340
986.933;   78.087;  -12.450;  864.800
987.486;   75.552;  -10.210;  861.920
988.039;   75.041;   -8.430;  863.100
988.591;   72.817;  -10.520;  893.260
989.144;   70.433;  -14.860;  737.260
989.697;   69.048;  -13.080;  758.740
990.250;   70.520;  -10.150;  858.100
990.802;   70.153;  -13.430;  755.860
991.355;   70.453;  -12.750;  974.880
991.907;   68.374;  -12.040;  864.320
992.460;   66.295;  -11.330;  753.760
993.012;   65.138;  -13.610;  749.540
993.565;   63.989;  -13.460;  711.360
994.117;   66.086;   -9.360;  950.780
994.669;   61.940;  -11.300;  701.320
995.221;   61.045;  -13.540;  791.920
995.774;   58.368;  -13.430;  787.580
996.326;   56.960;  -12.520;  740.220
996.878;   57.792;  -10.950;  838.420
997.430;   55.008;  -14.300;  699.860
997.982;   54.002;  -13.760;  750.140
998.534;   54.052;  -11.530;  739.060
999.086;   52.650;  -10.310;  738.220
999.638;   52.084;  -12.530;  661.380
1000.190;   50.556;  -11.840;  699.320
1000.741;   49.849;  -10.260;  742.700
1001.293;   50.526;   -8.860;  686.020
1001.845;   48.656;  -13.700;  676.640
1002.396;   48.856;  -12.100;  743.400
1002.948;   48.389;  -12.760;  737.400
1003.500;   47.420;  -10.380;  723.780
1004.051;   47.813;  -11.900;  907.580
1004.603;   45.799;  -12.250;  791.820
1005.154;   41.696;  -13.210;  608.980
1005.705;   41.154;  -10.950;  723.960
1006.257;   40.736;  -13.880;  707.220
1006.808;   39.745;  -12.840;  685.460
1007.359;   39.415;  -10.570;  763.240
1007.910;   38.575;   -9.620;  646.640
1008.461;   38.349;  -13.630;  732.940
1009.013;   37.126;  -17.200;  588.340
1009.564;   38.209;  -10.200;  793.520
1010.115;   36.109;  -12.570;  597.040
1010.665;   35.873;  -15.150;  602.160
1011.216;   35.653;  -14.480;  667.920
1011.767;   34.133;  -11.340;  697.920
1012.318;   35.889;   -9.780;  736.980
1012.869;   34.898;  -12.380;  679.000
1013.419;   33.879;  -15.560;  603.120
1013.970;   34.417;  -11.010;  666.640
1014.521;   33.838;  -11.610;  620.620
1015.071;   33.904;  -13.450;  670.380
1015.622;   33.815;  -13.870;  635.460
1016.172;   32.220;  -11.610;  596.820
1016.723;   33.353;  -12.120;  614.380
1017.273;   32.397;  -13.620;  604.160
1017.823;   32.398;  -14.140;  650.340
1018.374;   31.508;  -12.800;  611.760
1018.924;   32.516;  -12.340;  716.880
1019.474;   32.358;  -11.410;  718.880
1020.024;   30.644;  -14.770;  657.580
1020.574;   31.399;   -9.780;  726.160
1021.124;   31.734;   -8.560;  673.580
1021.674;   30.521;  -15.190;  559.120
1022.224;   31.525;  -13.530;  708.940
1022.774;   30.994;  -13.280;  668.820
1023.324;   31.115;  -10.690;  753.520
1023.874;   32.107;  -10.240;  875.760
1024.423;   29.751;  -12.540;  613.700
1024.973;   28.954;  -10.010;  610.760
1025.523;   28.321;  -10.550;  620.960
1026.072;   28.645;  -13.560;  606.420
1026.622;   28.133;  -15.120;  675.740
1027.172;   29.134;  -11.260;  715.660
1027.721;   28.125;  -11.410;  601.220
1028.270;   28.327;  -13.530;  663.400
1028.820;   28.496;  -13.680;  638.080
1029.369;   27.887;  -13.520;  612.700
1029.918;   28.543;  -10.980;  649.840
1030.468;   28.036;  -13.530;  564.780
1031.017;   28.072;  -13.170;  634.800
1031.566;   26.645;  -12.200;  608.900
1032.115;   27.375;   -9.960;  694.500
1032.664;   26.412;  -13.210;  596.480
1033.213;   26.949;  -12.500;  735.420
1033.762;   26.160;  -11.910;  635.620
1034.311;   26.557;   -9.640;  677.220
1034.860;   27.017;  -13.310;  691.000
1035.408;   26.065;  -11.830;  722.720
1035.957;   26.227;  -12.000;  719.540
1036.506;   24.722;  -11.690;  530.800
1037.055;   27.602;  -10.990;  844.320
1037.603;   25.329;  -15.120;  664.000
1038.152;   23.757;  -12.450;  534.760
1038.700;   25.262;  -10.560;  585.740
1039.249;   24.188;  -11.080;  681.220
1039.797;   24.661;  -12.540;  633.360
1040.345;   24.605;  -11.920;  705.420
1040.894;   23.957;  -11.410;  625.300
1041.442;   24.625;  -14.320;  632.200
1041.990;   22.947;  -16.240;  559.160
1042.538;   22.927;  -11.680;  536.180
1043.087;   22.896;  -10.760;  570.860
1043.635;   24.035;  -11.850;  670.500
1044.183;   23.118;  -15.480;  586.400
1044.731;   22.807;  -11.770;  576.000
1045.279;   22.459;  -13.090;  674.920
1045.827;   24.302;  -12.440;  892.400
1046.374;   21.920;  -13.840;  515.420
1046.922;   21.013;  -13.220;  590.580
1047.470;   22.468;  -10.230;  691.300
1048.018;   23.049;  -14.590;  647.960
1048.565;   22.548;  -12.050;  708.600
1049.113;   20.620;  -11.650;  557.000
1049.660;   21.575;  -10.510;  629.660
1050.208;   21.830;  -13.310;  675.640
1050.755;   20.807;  -15.900;  606.580
1051.303;   21.408;  -11.430;  686.820
1051.850;   20.375;   -8.480;  635.120
1052.397;   18.902;  -15.010;  473.960
1052.945;   20.134;  -13.960;  617.760
1053.492;   21.053;  -13.150;  741.840
1054.039;   21.653;   -9.630;  720.180
1054.586;   20.077;  -13.680;  557.240
1055.133;   20.554;  -14.570;  693.140
1055.680;   20.013;  -13.820;  646.620
1056.227;   19.660;  -11.730;  542.780
1056.774;   20.586;  -12.480;  794.980
1057.321;   19.377;  -13.930;  523.260
1057.868;   19.565;  -11.690;  651.320
1058.415;   18.894;   -9.520;  651.980
1058.961;   19.651;  -13.160;  678.940
1059.508;   18.735;  -12.920;  643.820
1060.055;   18.480;  -11.920;  581.780
1060.601;   19.560;  -11.500;  624.300
1061.148;   18.331;  -14.330;  616.820
1061.694;   18.015;  -16.870;  592.580
1062.241;   18.021;  -10.330;  596.320
1062.787;   18.500;  -10.620;  663.140
1063.334;   19.864;  -10.110;  808.560
1063.880;   18.338;  -13.400;  668.360
1064.426;   17.926;  -10.680;  706.820
1064.972;   16.999;   -9.920;  601.340
1065.518;   16.753;  -10.980;  566.640
1066.065;   17.672;  -14.890;  624.460
1066.611;   17.086;  -12.870;  598.800
1067.157;   17.978;  -12.950;  641.860
1067.703;   17.149;  -13.540;  668.480
1068.249;   16.890;  -13.540;  605.220
1068.794;   16.327;  -12.600;  626.880
1069.340;   15.879;  -10.620;  578.960
1069.886;   16.408;  -12.830;  590.700
1070.432;   15.441;  -14.870;  541.720
1070.977;   14.627;  -11.980;  601.080
1071.523;   15.425;   -8.200;  573.060
1072.068;   15.987;  -12.330;  582.000
1072.614;   15.686;  -16.370;  527.760
1073.160;   16.549;  -11.100;  687.040
1073.705;   15.564;  -10.480;  572.520
1074.250;   15.312;  -14.520;  559.900
1074.796;   16.162;  -11.460;  655.160
1075.341;   15.340;  -11.950;  664.100
1075.886;   15.030;  -11.460;  594.240
1076.431;   15.115;  -13.770;  649.880
1076.976;   14.700;  -12.680;  639.220
1077.521;   14.254;  -13.170;  583.080
1078.067;   13.215;  -10.860;  579.400
1078.612;   14.144;  -13.920;  661.620
1079.156;   15.108;  -13.880;  601.540
1079.701;   14.538;  -13.120;  693.260
1080.246;   14.435;   -9.940;  696.300
1080.791;   14.318;  -14.740;  625.020
1081.336;   14.055;  -13.750;  659.320
1081.880;   14.327;  -13.400;  649.680
1082.425;   13.091;  -12.220;  573.480
1082.970;   15.017;  -11.610;  717.040
1083.514;   13.252;  -13.580;  597.000
1084.059;   12.151;  -12.810;  586.720
1084.603;   12.234;  -12.320;  565.840
1085.147;   13.323;  -13.190;  645.220
1085.692;   14.372;  -12.480;  716.800
1086.236;   11.597;  -13.020;  503.140
1086.780;   13.410;   -9.190;  751.440
1087.325;   13.427;  -12.480;  654.620
1087.869;   12.451;  -12.450;  610.700
1088.413;   13.038;  -12.240;  705.040
1088.957;   11.411;   -9.020;  543.400
1089.501;   13.891;  -10.320;  766.640
1090.045;   12.731;  -12.720;  726.480
1090.589;    9.703;  -13.690;  569.920
1091.133;   12.175;  -10.020;  673.340
1091.676;   12.120;  -12.330;  591.940
1092.220;   11.118;  -14.970;  600.920
1092.764;   12.115;  -12.430;  706.960
1093.307;   11.958;   -9.800;  673.780
1093.851;   10.427;  -14.970;  556.540
1094.395;   11.616;  -15.310;  683.140
1094.938;   10.365;  -10.370;  632.520
1095.482;   11.010;  -11.050;  559.800
1096.025;   11.521;  -11.840;  710.880
1096.568;   11.832;  -12.840;  779.280
1097.112;    8.934;  -14.700;  508.180
1097.655;   11.204;   -8.720;  603.000
1098.198;    9.066;  -13.610;  600.180
1098.741;    9.384;  -13.350;  612.860
1099.285;   10.310;  -11.230;  657.300
1099.828;    8.487;  -11.840;  439.400
1100.371;   10.275;  -10.840;  608.160
1100.914;    9.721;  -14.190;  682.660
1101.457;    9.271;  -11.240;  679.900
1101.999;    9.258;  -11.270;  584.680
1102.542;    9.029;  -11.480;  641.440
1103.085;    8.799;  -11.750;  658.500
1103.628;    9.946;  -11.400;  762.060
1104.170;    9.624;  -10.490;  588.280
1104.713;    9.705;  -10.600;  646.700
1105.256;    7.923;  -14.360;  557.440
1105.798;    7.650;  -13.210;  499.980
1106.341;    9.276;  -10.270;  728.900
1106.883;    8.004;  -12.200;  521.340
1107.425;    7.726;  -13.110;  668.180
1107.968;    8.348;  -12.840;  612.380
1108.510;    8.976;   -6.480;  684.960
1109.052;    6.971;  -13.940;  612.620
1109.594;    7.312;  -13.690;  554.440
1110.136;    7.499;  -11.880;  643.220
1110.679;    7.773;   -9.500;  633.080
1111.221;    7.817;  -14.160;  604.460
1111.763;    7.226;  -13.980;  559.220
1112.304;    6.184;  -13.880;  547.140
1112.846;    7.238;  -12.210;  666.240
1113.388;   10.151;  -11.390;  942.180
1113.930;    7.942;  -14.540;  694.200
1114.472;    6.381;  -12.640;  606.540
1115.013;    5.529;  -11.620;  551.280
1115.555;    6.733;  -13.640;  587.100
1116.097;    5.366;  -15.380;  579.480
1116.638;    6.145;  -12.640;  684.600
1117.180;    6.552;   -9.850;  667.740
1117.721;    6.195;  -13.690;  568.580
1118.262;    6.734;  -12.680;  677.960
1118.804;    6.722;  -12.530;  637.340
1119.345;    5.649;  -11.690;  578.400
1119.886;    6.975;  -13.380;  704.040
1120.427;    5.663;  -14.070;  589.020
1120.969;    5.582;  -13.500;  597.920
1121.510;    4.611;  -11.480;  563.060
1122.051;    5.930;  -12.830;  723.580
1122.592;    4.829;  -14.290;  655.420
1123.133;    4.020;  -12.400;  547.940
1123.673;    6.356;  -10.130;  706.480
1124.214;    5.420;  -12.930;  612.460
1124.755;    5.808;  -14.380;  639.460
1125.296;    5.470;  -14.000;  627.320
1125.836;    5.571;  -10.070;  691.500
1126.377;    5.260;  -12.640;  599.660
1126.918;    4.977;  -12.960;  614.980
1127.458;    4.544;  -13.350;  622.220
1127.999;    5.074;  -10.750;  656.980
1128.539;    5.887;  -12.350;  694.240
1129.079;    3.736;  -14.860;  632.720
1129.620;    3.458;  -13.840;  558.100
1130.160;    3.564;  -12.330;  539.480
1130.700;    4.811;  -14.530;  640.840
1131.240;    4.431;  -12.530;  643.700
1131.781;    3.786;  -14.450;  619.680
1132.321;    4.440;   -9.790;  599.120
1132.861;    2.788;  -14.860;  564.200
1133.401;    3.001;  -14.290;  593.940
1133.941;    3.356;  -11.750;  626.280
1134.481;    2.916;   -9.920;  597.580
1135.020;    2.830;  -12.290;  609.160
1135.560;    3.493;  -11.650;  674.940
1136.100;    2.576;  -16.270;  501.160
1136.640;    2.563;  -10.890;  510.480
1137.179;    2.785;  -14.180;  537.960
1137.719;    3.286;  -16.250;  605.400
1138.258;    2.531;  -14.230;  587.360
1138.798;    3.834;   -9.090;  663.780
1139.337;    2.176;  -15.130;  482.840
1139.877;    2.649;  -13.680;  642.360
1140.416;    4.637;  -11.320;  878.060
1140.955;    2.081;  -10.860;  535.380
1141.494;    3.011;  -12.920;  669.280
1142.034;    1.602;  -13.930;  583.520
1142.573;    2.968;  -11.440;  646.280
1143.112;    1.648;  -12.000;  553.480
1143.651;    2.235;  -13.670;  536.480
1144.190;    2.704;  -12.730;  691.640
1144.729;    1.636;  -14.560;  607.420
1145.267;    2.068;  -11.830;  584.900
1145.806;    3.157;  -12.230;  637.040
1146.345;    1.535;  -14.130;  635.020
1146.884;    1.072;  -11.590;  622.500
1147.422;    0.286;  -12.550;  533.060
1147.961;    3.809;  -11.180;  708.460
1148.500;    1.990;  -11.510;  669.720
1149.038;    3.037;  -11.640;  632.500
1149.577;    2.147;  -10.130;  698.640
1150.115;   -0.187;  -13.970;  452.280
1150.653;    0.868;  -14.520;  607.340
1151.192;    1.343;  -12.810;  552.920
1151.730;    0.925;   -9.100;  652.560
1152.268;    0.860;  -12.220;  589.520
1152.806;    0.964;  -14.140;  571.180
1153.344;   -0.847;  -12.350;  577.640
1153.882;    0.592;   -8.980;  600.060
1154.421;    0.248;  -15.190;  470.620
1154.958;    0.008;  -15.210;  595.240
1155.496;    0.888;  -12.850;  645.280
1156.034;    0.073;   -9.940;  721.880
1156.572;    1.997;  -13.570;  667.060
1157.110;   -0.624;  -14.590;  473.940
1157.647;    1.090;  -13.030;  676.960
1158.185;   -0.444;  -12.140;  564.320
1158.723;   -0.973;  -14.390;  509.200
1159.260;    0.036;  -14.090;  701.700
1159.798;    0.559;  -11.920;  658.160
1160.335;   -0.435;  -11.110;  631.820

