source
Integration time [ms]: 2924.932
Averaging Nr. [scans]: 20
Smoothing Nr. [pixels]: 0
Data measured with spectrometer [name]: 7414430SP
Wave   ;Sample   ;Dark     ;Reference
[nm]   ;[counts] ;[counts] ;[counts] 

288.544; 4080.442; 4004.872;    6.613
289.143; 3355.611; 3299.256;   14.216
289.742; 4351.983; 4251.540;   11.816
290.341; 4159.296; 4111.361;   -4.936
290.940; 3801.471; 3777.373;    0.852
291.538; 4783.030; 4707.574;    1.792
292.137; 4235.497; 4170.812;    6.262
292.736; 5535.146; 5393.361;    8.164
293.335; 3881.220; 3778.989;   -6.418
293.934; 4187.665; 4117.811;   -2.904
294.532; 5916.804; 5801.267;   -5.162
295.131; 4684.934; 4640.547;  -10.283
295.730; 4530.095; 4500.288;  -16.141
296.328; 4352.976; 4365.994;  -14.740
296.927; 4300.356; 4342.634;   -8.768
297.525; 4302.749; 4336.466;  -15.255
298.124; 3489.094; 3531.862;  -22.063
298.722; 4193.300; 4214.137;  -14.796
299.321; 3867.099; 3899.753;  -10.466
299.919; 4168.149; 4130.490;  -10.979
300.518; 3781.648; 3843.040;  -12.077
301.116; 3770.179; 3792.590;  -13.509
301.715; 4018.700; 4046.269;  -11.939
302.313; 3884.307; 3893.503;  -15.424
302.911; 4125.058; 4135.330;  -19.833
303.509; 5407.937; 5368.340;   -3.567
304.108; 4265.726; 4284.731;   -9.553
304.706; 4577.746; 4613.959;   -8.582
305.304; 4627.892; 4704.674;  -12.348
305.902; 4399.515; 4461.188;  -14.411
306.500; 4100.827; 4117.403;   -7.194
307.098; 4241.871; 4232.906;   -9.322
307.696; 4515.498; 4587.237;  -19.192
308.294; 4163.539; 4212.946;   -9.736
308.892; 4356.939; 4331.528;  -15.482
309.490; 4006.178; 4051.140;  -14.107
310.088; 4592.125; 4668.568;  -15.862
310.686; 4721.364; 4711.803;  -10.781
311.284; 4444.608; 4510.912;  -14.878
311.882; 4101.207; 4139.527;   -9.948
312.480; 3956.604; 3988.955;  -15.503
313.078; 4767.603; 4791.284;  -17.262
313.675; 3930.077; 3884.403;   -3.694
314.273; 4689.328; 4709.361;  -18.246
314.871; 3236.912; 3276.640;  -15.190
315.468; 3704.508; 3754.330;  -12.633
316.066; 3984.986; 4052.890;   -5.765
316.664; 3738.715; 3794.564;  -14.317
317.261; 5448.761; 5555.902;   -8.677
317.859; 4585.708; 4652.396;  -11.804
318.456; 4988.484; 5011.571;   -3.107
319.054; 4684.418; 4716.137;   -3.062
319.651; 4455.531; 4529.130;   -6.706
320.249; 4880.931; 4977.130;   -5.206
320.846; 4212.478; 4283.206;   -4.679
321.443; 5073.226; 5160.887;   -7.920
322.041; 4963.333; 5026.121;  -14.105
322.638; 4215.322; 4282.577;   -6.263
323.235; 3898.107; 3954.503;   -7.424
323.833; 4472.864; 4451.606;  -14.765
324.430; 3556.015; 3607.409;  -10.550
325.027; 5366.697; 5410.565;   -9.951
325.624; 3698.819; 3726.628;   -3.712
326.221; 4002.250; 3951.203;   -9.368
326.818; 4902.086; 4893.956;   -5.637
327.415; 4319.583; 4333.744;   -6.699
328.012; 3944.442; 3991.363;   -5.713
328.609; 4185.840; 4204.979;   -9.983
329.206; 4577.917; 4595.310;   -7.154
329.803; 4219.511; 4225.813;   -1.682
330.400; 3980.066; 3877.572;   -2.741
330.997; 4701.093; 4713.837;   -4.339
331.594; 4561.352; 4493.480;  -10.278
332.191; 4037.744; 4046.772;   -6.967
332.787; 4837.794; 4859.509;   -0.480
333.384; 4278.092; 4236.477;  -10.333
333.981; 4648.102; 4744.055;  -19.900
334.578; 3891.292; 3922.830;  -19.816
335.174; 4042.498; 4050.195;  -15.844
335.771; 4795.994; 4859.239;  -12.670
336.367; 3993.986; 4053.226;  -21.124
336.964; 4561.244; 4616.107;  -18.226
337.561; 4136.245; 4199.910;  -13.311
338.157; 5383.160; 5375.854;  -19.006
338.754; 4590.033; 4619.875;  -19.418
339.350; 4093.869; 4118.209;  -29.433
339.946; 4371.829; 4391.344;  -16.622
340.543; 4938.678; 4961.918;  -16.744
341.139; 4105.551; 4154.743;  -21.841
341.735; 4551.997; 4668.368;  -25.012
342.332; 3953.859; 4021.362;  -19.156
342.928; 4658.568; 4737.046;  -20.443
343.524; 4493.967; 4572.464;  -14.397
344.120; 4328.095; 4397.049;  -20.654
344.716; 4101.860; 4221.877;   -5.730
345.313; 4703.554; 4712.446;  -10.929
345.909; 3544.652; 3655.193;  -19.843
346.505; 4339.316; 4426.506;  -19.645
347.101; 4875.063; 5000.581;   -9.618
347.697; 4631.769; 4692.275;  -10.305
348.293; 3536.294; 3620.353;  -23.189
348.889; 4370.476; 4417.444;  -18.418
349.485; 3923.828; 3980.762;  -10.476
350.081; 4554.993; 4612.747;  -17.320
350.676; 4023.453; 4079.775;  -21.088
351.272; 4786.759; 4856.050;  -12.821
351.868; 4523.350; 4536.760;  -13.165
352.464; 4190.505; 4249.741;  -12.464
353.059; 3714.280; 3782.819;  -22.547
353.655; 4615.170; 4661.791;   -9.379
354.251; 4443.904; 4499.201;   -8.266
354.846; 4372.347; 4412.991;  -17.705
355.442; 4405.866; 4481.572;   -9.317
356.038; 4385.319; 4525.406;  -11.049
356.633; 4234.201; 4281.432;  -10.006
357.229; 4238.736; 4303.316;  -13.120
357.824; 4121.439; 4140.241;  -15.647
358.420; 3927.822; 4018.266;  -19.204
359.015; 4008.173; 4067.584;  -12.263
359.610; 4549.797; 4606.188;  -16.421
360.206; 3432.157; 3551.018;  -20.074
360.801; 3699.169; 3838.341;  -13.277
361.396; 4251.479; 4259.344;   -5.822
361.992; 3890.089; 3982.240;  -11.247
362.587; 3918.501; 3985.521;  -21.502
363.182; 4021.529; 4146.565;   -7.461
363.777; 4413.230; 4434.884;   -8.719
364.372; 4377.982; 4450.940;  -14.590
364.967; 4039.332; 4072.359;  -15.145
365.563; 4866.755; 4938.675;   -7.192
366.158; 4000.317; 4048.153;   -5.662
366.753; 3776.994; 3835.066;   -8.378
367.348; 4437.441; 4576.362;  -14.990
367.942; 4089.269; 4205.275;   -6.005
368.537; 4496.096; 4557.541;  -11.504
369.132; 4162.037; 4253.185;  -10.576
369.727; 3705.532; 3805.293;  -12.573
370.322; 3392.609; 3446.272;  -11.560
370.917; 4246.653; 4289.775;  -10.388
371.511; 5296.813; 5351.712;   -9.161
372.106; 4730.731; 4822.359;  -10.245
372.701; 3430.567; 3432.243;  -10.158
373.296; 5235.202; 5310.169;   -4.719
373.890; 3858.651; 3894.521;  -11.802
374.485; 4170.100; 4274.071;  -13.500
375.079; 4499.452; 4625.038;   -6.276
375.674; 4968.302; 5053.103;   -0.447
376.268; 4128.668; 4183.562;   -6.916
376.863; 3460.334; 3615.571;  -14.483
377.457; 3988.890; 4058.109;   -6.903
378.052; 4658.006; 4868.634;   -9.844
378.646; 4562.304; 4700.512;  -12.601
379.240; 4415.008; 4535.690;  -14.715
379.835; 3866.512; 3941.328;  -12.331
380.429; 3355.723; 3420.872;   -9.074
381.023; 4820.013; 4920.868;   -1.729
381.617; 4166.670; 4245.103;  -13.714
382.212; 4165.925; 4297.125;   -7.060
382.806; 4688.990; 4785.109;   -2.303
383.400; 4168.252; 4277.259;   -0.815
383.994; 4118.407; 4258.437;   -4.429
384.588; 4324.616; 4396.703;   -6.261
385.182; 4520.271; 4632.528;    0.008
385.776; 4416.146; 4437.672;   -3.247
386.370; 4226.723; 4346.740;   -1.030
386.964; 4255.270; 4357.947;   -1.346
387.558; 3687.621; 3764.463;   -2.020
388.152; 4249.588; 4357.790;   -5.345
388.745; 5187.786; 5306.734;   -2.774
389.339; 4608.111; 4780.656;    3.510
389.933; 4263.784; 4349.325;    5.280
390.527; 5496.863; 5602.647;    2.610
391.120; 3708.468; 3857.112;   -7.914
391.714; 4418.449; 4509.531;   -1.903
392.308; 4942.606; 5092.478;    6.023
392.901; 4034.527; 4174.247;   -4.103
393.495; 3741.250; 3904.268;    3.284
394.089; 4913.360; 5029.075;    8.655
394.682; 4445.612; 4644.196;    2.312
395.275; 4589.979; 4735.237;   -7.402
395.869; 4251.313; 4388.000;   -1.072
396.462; 3885.551; 4044.653;    6.454
397.056; 4934.004; 5062.422;    8.494
397.649; 4724.382; 4871.228;    1.599
398.242; 4581.533; 4745.809;    3.153
398.836; 4905.556; 5108.413;   11.395
399.429; 3976.778; 4053.697;   14.695
400.022; 4280.741; 4396.715;    3.627
400.615; 5246.631; 5410.425;    8.383
401.208; 4374.641; 4546.560;   13.295
401.802; 4474.788; 4629.921;    6.211
402.395; 4422.241; 4625.715;    7.227
402.988; 4473.028; 4596.787;    2.700
403.581; 4058.124; 4213.322;   11.225
404.174; 4338.038; 4471.635;   18.922
404.767; 4034.505; 4175.896;   14.169
405.360; 3983.469; 4173.365;    8.999
405.953; 4880.389; 5057.438;   13.138
406.545; 4661.993; 4833.878;   13.937
407.138; 3942.233; 4114.612;   10.869
407.731; 3932.031; 4069.622;   12.768
408.324; 4189.683; 4273.654;   22.921
408.917; 4389.371; 4523.528;   15.308
409.509; 4789.872; 5007.134;   12.239
410.102; 4174.042; 4357.968;   13.741
410.695; 4268.583; 4401.719;   20.249
411.287; 3825.205; 3967.872;   21.793
411.880; 3733.449; 3921.375;   22.965
412.472; 3915.392; 4132.297;   15.082
413.065; 4083.413; 4308.910;   23.423
413.657; 3682.839; 3820.216;   21.077
414.250; 4129.067; 4250.866;   12.349
414.842; 4351.232; 4509.203;   20.423
415.434; 3675.113; 3809.557;   19.906
416.027; 4138.157; 4325.970;   26.574
416.619; 4603.954; 4790.135;   15.705
417.211; 3800.243; 3975.460;   17.791
417.804; 3982.111; 4173.345;   30.244
418.396; 3909.782; 4008.785;   24.177
418.988; 4233.071; 4365.438;   24.904
419.580; 3629.711; 3810.303;   20.692
420.172; 3454.055; 3614.520;   22.275
420.764; 4273.426; 4434.264;   26.773
421.356; 4111.603; 4188.661;   25.731
421.948; 4336.499; 4444.088;   24.876
422.540; 4317.090; 4483.511;   30.042
423.132; 3810.314; 3983.983;   32.728
423.724; 3566.307; 3637.839;   21.317
424.316; 3958.537; 4112.873;   29.359
424.908; 3764.665; 3997.367;   28.798
425.500; 4150.198; 4264.327;   30.512
426.092; 4123.841; 4340.961;   26.741
426.683; 4458.845; 4602.689;   27.029
427.275; 4075.021; 4322.062;   32.611
427.867; 4222.179; 4357.680;   33.796
428.458; 4697.682; 4719.802;   34.453
429.050; 4351.674; 4472.920;   34.255
429.642; 4749.462; 4904.574;   39.082
430.233; 3508.246; 3700.852;   41.138
430.825; 4689.231; 4863.868;   31.581
431.416; 4456.046; 4599.205;   35.755
432.008; 4084.731; 4258.065;   40.566
432.599; 4102.230; 4266.196;   46.322
433.190; 4036.113; 4185.377;   46.897
433.782; 3571.826; 3748.174;   41.069
434.373; 5632.464; 5734.475;   48.778
434.964; 3752.571; 3935.906;   50.078
435.556; 3985.959; 4172.583;   52.381
436.147; 4819.076; 4922.821;   38.251
436.738; 4414.207; 4581.724;   47.237
437.329; 4516.163; 4636.000;   61.304
437.920; 4140.986; 4312.915;   48.611
438.511; 3484.927; 3755.493;   44.910
439.103; 3860.794; 4047.706;   62.404
439.694; 4263.382; 4411.228;   63.075
440.285; 4675.481; 4875.909;   61.033
440.876; 5402.206; 5532.987;   57.249
441.466; 3508.162; 3600.550;   61.306
442.057; 4093.846; 4178.541;   65.773
442.648; 4699.479; 4815.787;   65.676
443.239; 3831.879; 4012.525;   55.963
443.830; 4378.101; 4556.653;   69.631
444.421; 4025.941; 4164.494;   69.943
445.011; 4269.720; 4444.168;   72.791
445.602; 4632.709; 4821.428;   68.848
446.193; 2892.775; 3018.191;   80.044
446.783; 3836.038; 3949.635;   82.599
447.374; 4233.826; 4376.666;   77.419
447.964; 4424.266; 4640.990;   72.605
448.555; 5061.171; 5200.660;   82.041
449.145; 4038.083; 4128.810;   76.230
449.736; 5005.934; 5093.613;   75.545
450.326; 4376.462; 4477.328;   67.945
450.917; 4085.292; 4196.076;   77.598
451.507; 3603.438; 3757.701;   68.027
452.097; 4604.219; 4683.275;   67.771
452.688; 4488.350; 4642.245;   62.884
453.278; 3252.906; 3406.741;   65.512
453.868; 4894.237; 4984.095;   71.796
454.458; 3913.219; 4058.473;   60.956
455.048; 4294.678; 4482.895;   62.356
455.639; 3330.183; 3443.851;   58.782
456.229; 4268.430; 4431.926;   65.209
456.819; 4510.510; 4636.764;   61.466
457.409; 4704.791; 4802.470;   59.967
457.999; 4402.070; 4534.702;   58.093
458.589; 4015.083; 4049.433;   59.536
459.179; 4300.167; 4389.261;   55.994
459.769; 3670.230; 3801.729;   43.624
460.358; 4767.329; 4861.320;   46.978
460.948; 4057.692; 4203.052;   49.821
461.538; 3863.035; 3886.752;   54.678
462.128; 3878.080; 4015.926;   49.309
462.717; 4149.966; 4282.368;   52.774
463.307; 4119.498; 4202.590;   48.101
463.897; 3790.035; 3841.817;   45.606
464.486; 5052.311; 5152.632;   45.010
465.076; 4307.590; 4421.511;   45.519
465.666; 3695.391; 3791.290;   50.058
466.255; 4659.134; 4804.949;   44.463
466.845; 3794.413; 3955.533;   41.206
467.434; 4220.262; 4347.861;   44.847
468.023; 3703.355; 3783.693;   46.760
468.613; 4126.083; 4233.433;   39.736
469.202; 3643.492; 3741.830;   46.461
469.791; 4219.830; 4303.615;   47.944
470.381; 4193.182; 4319.803;   47.529
470.970; 4022.289; 4070.103;   43.773
471.559; 4225.079; 4293.165;   41.646
472.148; 3741.819; 3868.137;   37.914
472.738; 4332.918; 4408.269;   48.071
473.327; 3482.227; 3583.690;   47.871
473.916; 4161.404; 4264.824;   37.716
474.505; 4232.227; 4256.887;   40.256
475.094; 4623.004; 4695.866;   43.269
475.683; 4488.696; 4565.050;   36.499
476.272; 4040.981; 4097.065;   44.542
476.861; 3859.554; 3948.931;   42.297
477.449; 3946.971; 3969.882;   46.878
478.038; 3710.064; 3777.025;   35.156
478.627; 3852.875; 3876.568;   42.514
479.216; 4190.587; 4207.407;   43.937
479.805; 4237.856; 4278.832;   51.393
480.393; 5769.880; 5857.525;   53.239
480.982; 4909.968; 4896.465;   38.955
481.571; 4752.061; 4790.142;   45.436
482.159; 3647.251; 3691.654;   51.007
482.748; 4431.742; 4515.519;   49.695
483.336; 4637.154; 4598.579;   48.280
483.925; 3953.590; 4063.463;   47.166
484.513; 3920.085; 3935.260;   55.404
485.102; 4225.555; 4325.250;   54.238
485.690; 5564.650; 5619.982;   55.748
486.278; 5330.018; 5389.023;   55.934
486.867; 4120.284; 4127.811;   57.106
487.455; 4701.830; 4738.304;   56.979
488.043; 3643.569; 3691.629;   57.564
488.631; 5329.057; 5398.611;   57.432
489.220; 4655.708; 4672.864;   63.646
489.808; 3471.619; 3503.826;   65.449
490.396; 4605.337; 4640.186;   61.977
490.984; 3892.390; 3947.307;   68.834
491.572; 4595.226; 4567.773;   70.775
492.160; 4345.919; 4344.629;   67.564
492.748; 4004.482; 4080.360;   66.808
493.336; 4672.661; 4726.854;   79.747
493.924; 4031.010; 3995.183;   88.688
494.512; 4600.172; 4636.201;   84.120
495.100; 4494.586; 4472.669;   86.250
495.687; 4760.343; 4818.077;  103.074
496.275; 3854.165; 3908.229;  108.717
496.863; 4023.301; 3996.719;  107.035
497.451; 3975.119; 3961.695;  117.993
498.038; 4197.088; 4159.964;  120.116
498.626; 4036.816; 4050.548;  143.059
499.214; 4328.518; 4312.023;  153.434
499.801; 4209.204; 4222.907;  175.121
500.389; 3459.106; 3491.808;  185.617
500.976; 4400.556; 4402.742;  215.789
501.564; 4247.025; 4254.191;  240.321
502.151; 3047.723; 3080.938;  267.007
502.738; 3971.643; 4004.814;  317.961
503.326; 4059.416; 4175.680;  361.216
503.913; 4259.443; 4291.748;  401.433
504.500; 4395.151; 4366.851;  446.492
505.088; 3710.170; 3745.079;  512.063
505.675; 4072.323; 4029.045;  586.387
506.262; 4041.056; 4034.898;  671.021
506.849; 4142.074; 4133.520;  759.062
507.436; 4687.954; 4714.751;  849.788
508.023; 4127.491; 4087.889;  944.288
508.610; 4597.118; 4591.154; 1020.690
509.197; 4431.842; 4434.650; 1089.052
509.784; 4146.200; 4136.048; 1133.776
510.371; 3462.174; 3400.299; 1165.501
510.958; 4242.158; 4246.151; 1251.735
511.545; 4885.494; 4904.551; 1350.248
512.132; 4153.697; 4133.452; 1525.945
512.719; 3709.994; 3719.748; 1834.933
513.305; 3814.431; 3804.688; 1965.349
513.892; 4827.656; 4793.766; 1963.265
514.479; 4248.658; 4278.864; 2046.446
515.066; 4672.848; 4641.123; 2252.803
515.652; 4254.189; 4271.570; 2567.247
516.239; 4539.213; 4548.779; 2636.919
516.825; 3526.307; 3550.545; 2482.304
517.412; 5244.982; 5236.336; 2427.031
517.998; 4069.308; 4096.216; 2540.463
518.585; 4008.623; 3979.938; 2609.007
519.171; 4273.810; 4276.183; 2842.088
519.758; 3612.889; 3618.701; 3090.703
520.344; 4614.150; 4530.048; 3176.076
520.930; 3711.406; 3706.701; 3295.037
521.516; 4428.145; 4433.264; 3500.959
522.103; 4884.935; 4889.261; 3736.704
522.689; 4025.921; 3977.751; 3971.022
523.275; 4736.449; 4692.598; 4213.778
523.861; 4085.002; 4071.236; 4190.361
524.447; 4712.064; 4706.427; 4070.602
525.033; 4771.138; 4744.988; 4088.892
525.619; 3855.180; 3784.238; 4416.851
526.205; 3596.236; 3574.866; 4836.835
526.791; 4053.332; 3997.270; 4885.903
527.377; 3894.817; 3870.507; 4544.907
527.963; 4273.361; 4270.813; 4321.995
528.549; 4358.795; 4413.157; 4473.979
529.135; 3830.892; 3839.364; 4788.663
529.721; 4219.940; 4265.176; 4888.577
530.306; 5706.246; 5692.157; 4775.779
530.892; 4005.827; 4010.379; 4793.906
531.478; 3935.535; 3944.129; 4956.948
532.063; 3737.188; 3717.857; 5136.936
532.649; 5187.527; 5212.601; 5336.867
533.235; 3785.275; 3771.126; 5748.092
533.820; 4818.751; 4818.498; 6456.875
534.406; 4100.205; 4093.316; 6590.167
534.991; 3791.350; 3733.466; 6179.622
535.576; 4132.123; 4062.135; 6098.691
536.162; 5753.283; 5735.876; 6441.234
536.747; 3605.673; 3554.291; 6816.224
537.333; 3825.994; 3828.641; 6889.752
537.918; 4160.263; 4117.000; 7154.280
538.503; 3891.500; 3871.982; 7150.848
539.088; 4374.191; 4380.782; 7253.308
539.673; 4015.835; 3968.285; 7625.180
540.259; 3878.797; 3912.410; 8226.793
540.844; 3421.888; 3344.988; 8745.092
541.429; 5112.575; 5059.347; 8762.553
542.014; 3559.413; 3532.353; 8871.497
542.599; 4346.632; 4319.360; 8886.008
543.184; 3676.177; 3630.535; 9079.139
543.769; 3896.719; 3913.981; 9076.182
544.354; 4025.931; 4012.844; 8354.081
544.938; 4338.000; 4321.204; 8236.809
545.523; 5073.058; 5027.020; 8222.179
546.108; 4184.462; 4054.550; 8114.082
546.693; 4139.020; 4108.587; 8535.912
547.278; 4173.052; 4139.457; 9238.322
547.862; 4165.512; 4117.526; 9034.405
548.447; 4683.836; 4645.891; 7795.011
549.031; 4038.940; 4018.619; 7485.099
549.616; 4349.913; 4261.066; 7626.308
550.201; 3945.988; 3844.341; 7627.909
550.785; 4547.354; 4549.997; 7859.125
551.370; 3673.215; 3665.475; 7990.654
551.954; 4681.995; 4625.444; 8196.468
552.538; 4591.355; 4446.382; 7959.495
553.123; 3955.306; 3906.988; 7964.826
553.707; 4085.710; 4103.584; 8515.957
554.291; 4917.167; 4790.860; 8724.024
554.876; 4659.180; 4614.459; 8524.211
555.460; 3963.577; 3811.887; 8704.456
556.044; 3954.132; 3837.671; 9141.473
556.628; 4266.178; 4167.206; 9250.197
557.212; 4871.850; 4763.270; 9444.237
557.796; 4174.096; 4094.247; 9379.783
558.380; 4482.884; 4369.859; 9353.658
558.964; 4378.818; 4287.047; 9210.310
559.548; 3732.610; 3581.494; 8475.153
560.132; 4150.357; 3969.659; 7954.084
560.716; 3860.926; 3639.371; 7489.529
561.300; 3828.879; 3564.788; 7211.952
561.884; 4716.248; 4539.303; 7141.313
562.467; 4699.034; 4470.924; 7155.386
563.051; 4433.347; 4146.721; 7323.158
563.635; 4406.775; 4171.568; 7709.114
564.219; 4490.646; 4133.181; 7678.855
564.802; 4843.171; 4376.062; 7376.187
565.386; 4662.036; 4231.112; 7054.372
565.969; 5328.845; 4842.510; 6589.196
566.553; 5865.768; 5321.269; 6279.371
567.136; 5405.041; 4831.225; 5967.930
567.720; 4901.188; 4192.718; 5660.703
568.303; 5104.349; 4339.843; 5648.615
568.887; 5075.562; 4284.771; 5618.443
569.470; 5315.347; 4318.074; 5411.875
570.053; 5655.538; 4578.652; 5149.274
570.637; 5134.137; 3843.628; 5122.798
571.220; 6009.407; 4546.856; 4957.369
571.803; 6790.760; 5279.805; 4933.018
572.386; 5607.241; 4051.093; 4840.973
572.969; 5746.525; 4061.503; 4592.886
573.552; 6078.399; 4155.778; 4348.387
574.135; 5848.954; 3762.308; 4002.290
574.718; 6121.470; 3874.809; 3654.773
575.301; 6258.194; 3892.616; 3502.288
575.884; 6394.918; 3910.424; 3349.803
576.467; 7758.688; 4728.718; 3191.403
577.050; 7844.944; 4393.952; 3062.418
577.633; 9101.857; 5242.462; 3214.200
578.216; 8256.492; 4147.896; 3284.889
578.799; 8541.302; 4101.055; 3189.777
579.381;10302.016; 5402.434; 3064.502
579.964; 9310.560; 3852.584; 2888.357
580.547;10388.792; 4300.831; 2905.760
581.129;11790.939; 4986.127; 2966.849
581.712;11642.411; 4396.280; 2887.292
582.294;11707.624; 4247.921; 2771.631
582.877;13174.200; 5456.581; 2711.602
583.459;12329.370; 4171.833; 2577.049
584.042;12437.400; 4103.670; 2454.707
584.624;12457.655; 3804.849; 2305.893
585.206;12916.594; 3320.018; 2189.546
585.789;15201.876; 3974.330; 2112.577
586.371;16912.758; 4489.773; 2153.065
586.953;17895.848; 4581.680; 2197.806
587.536;18820.393; 4976.896; 2105.489
588.118;18204.588; 4125.898; 1963.911
588.700;19553.182; 4946.311; 1843.179
589.282;20385.832; 4478.893; 1813.834
589.864;21213.646; 4248.493; 1777.620
590.446;22023.371; 3476.439; 1733.780
591.028;24627.877; 4296.936; 1676.008
591.610;26271.555; 3482.980; 1631.649
592.192;28383.797; 4292.812; 1632.362
592.774;28028.025; 3808.945; 1569.507
593.356;28972.500; 4004.826; 1524.539
593.937;28623.938; 3923.071; 1569.720
594.519;29328.410; 4728.411; 1569.049
595.101;29362.158; 3603.511; 1545.452
595.683;31726.094; 4024.460; 1607.568
596.264;31937.592; 4157.249; 1615.506
596.846;32195.328; 4067.189; 1667.622
597.427;33293.340; 3835.020; 1670.469
598.009;34896.832; 3882.467; 1640.312
598.591;37284.199; 4617.474; 1541.022
599.172;38344.879; 4121.058; 1598.665
599.753;39088.695; 3645.451; 1619.068
600.335;41589.906; 4919.741; 1548.612
600.916;41012.441; 4172.339; 1607.510
601.498;42765.258; 4437.576; 1745.181
602.079;44470.344; 4193.329; 1801.011
602.660;44080.063; 4176.238; 1834.640
603.241;42554.555; 3399.530; 1787.351
603.823;44766.762; 4002.764; 1684.266
604.404;44713.105; 3710.807; 1654.241
604.985;43248.266; 3984.229; 1758.741
605.566;44778.727; 4719.880; 1697.679
606.147;46327.930; 4109.829; 1526.728
606.728;47390.590; 3695.372; 1484.086
607.309;49801.223; 3965.716; 1421.070
607.890;49813.707; 4032.323; 1369.867
608.471;48415.828; 3903.279; 1277.826
609.051;49313.219; 4298.694; 1180.416
609.632;48272.910; 3833.272; 1075.816
610.213;49754.855; 4153.741; 1053.313
610.794;50487.328; 4082.082;  979.442
611.374;50472.574; 4398.585;  917.414
611.955;50921.293; 3642.363;  819.987
612.536;51862.965; 4413.417;  752.627
613.116;51010.059; 3992.919;  690.799
613.697;49193.344; 3962.100;  674.974
614.277;47410.258; 3816.888;  663.846
614.858;46876.668; 3959.351;  665.898
615.438;46441.934; 4237.457;  660.712
616.019;47015.668; 4979.497;  632.732
616.599;46758.188; 3310.866;  551.759
617.179;48193.418; 3699.276;  512.871
617.760;51102.168; 5615.482;  473.655
618.340;50421.035; 4156.284;  440.004
618.920;51611.652; 5142.653;  429.731
619.500;50028.379; 4011.975;  441.361
620.080;49711.563; 3896.450;  425.202
620.660;49524.203; 3779.800;  408.164
621.241;49769.992; 4069.837;  387.161
621.821;50681.426; 4245.116;  378.017
622.401;50833.102; 4777.775;  379.188
622.980;48453.934; 3650.087;  350.019
623.560;48353.996; 4047.025;  336.446
624.140;46399.801; 4304.531;  336.473
624.720;44729.309; 4378.953;  334.974
625.300;43286.039; 3862.978;  325.717
625.880;42432.258; 4127.372;  308.519
626.459;44885.895; 4221.969;  307.117
627.039;46125.211; 3552.747;  290.890
627.619;50411.340; 5398.881;  286.635
628.198;53806.363; 4859.606;  282.535
628.778;54389.258; 4482.953;  285.474
629.357;51016.816; 3721.441;  284.103
629.937;48796.723; 4032.906;  292.178
630.516;48018.840; 5024.134;  290.749
631.096;47689.633; 3866.481;  285.489
631.675;48066.223; 4991.765;  287.022
632.254;45735.719; 3930.136;  286.038
632.834;47799.176; 4184.821;  276.451
633.413;49392.840; 4980.584;  279.447
633.992;47239.684; 4716.374;  264.508
634.571;45692.207; 4505.208;  271.010
635.151;46705.676; 3803.568;  277.338
635.730;49617.137; 4195.275;  289.305
636.309;50834.320; 4437.972;  285.306
636.888;49410.254; 4598.537;  254.051
637.467;46312.016; 3532.883;  230.324
638.046;48014.348; 5056.565;  253.349
638.625;46838.738; 4880.496;  246.866
639.204;44229.496; 4391.589;  240.825
639.782;43175.633; 4275.155;  261.970
640.361;44393.949; 4976.176;  277.780
640.940;44767.824; 3986.832;  270.101
641.519;44953.602; 4433.488;  248.622
642.097;43499.676; 4559.144;  239.843
642.676;43653.754; 4231.799;  244.264
643.255;44766.480; 4115.455;  234.985
643.833;44884.957; 4528.111;  244.406
644.412;45057.582; 4029.767;  244.927
644.990;46381.160; 4288.422;  249.948
645.569;47618.887; 4470.078;  249.569
646.147;48052.660; 4671.734;  243.290
646.726;47061.637; 4378.390;  249.511
647.304;47480.414; 4081.045;  228.032
647.882;46706.289; 3465.701;  214.552
648.461;44763.367; 4320.357;  214.973
649.039;44264.895; 4589.013;  223.394
649.617;46182.520; 4568.668;  261.415
650.195;45830.145; 4371.324;  298.736
650.773;45461.320; 4013.980;  309.557
651.352;44206.648; 3424.635;  297.978
651.930;43001.125; 3345.291;  289.399
652.508;44882.152; 4580.947;  285.620
653.086;43732.777; 4471.603;  272.241
653.663;43037.102; 3913.259;  265.062
654.241;43509.680; 3653.914;  286.083
654.819;42615.355; 3740.570;  286.404
655.397;41421.332; 3838.226;  291.825
655.975;41690.258; 4056.881;  299.145
656.553;41651.734; 5045.537;  288.866
657.130;38504.262; 3750.193;  304.087
657.708;38404.887; 4448.849;  302.908
658.286;39526.512; 4239.504;  294.629
658.863;40649.840; 4303.160;  293.350
659.441;42554.715; 4352.816;  318.671
660.018;44648.543; 4105.472;  333.692
660.596;46367.020; 3372.127;  335.013
661.173;46597.895; 3977.783;  371.534
661.750;44768.320; 3825.439;  365.155
662.328;44998.348; 4520.095;  349.976
662.905;42656.375; 4031.750;  332.997
663.482;41333.699; 4153.406;  321.717
664.060;42043.477; 3866.062;  314.438
664.637;44262.801; 4557.718;  306.259
665.214;44425.527; 4270.374;  314.580
665.791;46595.504; 4046.029;  334.501
666.368;47851.332; 4028.685;  329.222
666.945;47258.355; 4527.341;  342.143
667.522;45318.684; 3790.996;  370.964
668.099;44972.309; 4106.652;  396.885
668.676;44436.535; 4212.308;  391.706
669.253;44354.813; 5037.964;  369.627
669.830;43351.039; 4820.620;  360.348
670.407;40696.715; 4094.275;  344.769
670.984;40365.742; 4109.931;  322.890
671.560;42166.617; 4560.586;  316.910
672.137;42088.645; 4023.242;  322.531
672.714;43806.918; 4470.898;  318.552
673.290;44591.547; 4363.554;  324.473
673.867;46318.621; 3879.210;  340.594
674.443;45543.297; 3729.865;  319.515
675.020;45127.824; 4351.521;  286.336
675.596;44659.250; 4097.177;  247.557
676.173;45616.926; 3594.833;  227.778
676.749;46619.355; 3166.488;  224.399
677.326;47879.730; 3494.144;  230.520
677.902;47095.605; 3828.800;  241.841
678.478;44870.984; 3597.456;  239.762
679.054;46713.859; 6086.111;  248.583
679.631;46880.734; 4403.767;  237.503
680.207;48882.160; 5235.423;  245.924
680.783;46262.039; 3330.079;  224.845
681.359;48618.715; 4114.734;  209.666
681.935;51538.539; 4252.390;  191.687
682.511;52142.617; 4203.046;  210.008
683.087;50936.043; 4362.702;  213.329
683.663;49529.969; 4008.357;  216.850
684.239;49413.195; 3634.013;  229.471
684.815;51680.320; 4588.669;  248.792
685.390;53705.547; 5264.325;  231.813
685.966;53165.074; 4205.980;  221.234
686.542;52161.699; 3664.636;  214.255
687.118;52438.277; 4321.292;  212.276
687.693;54048.652; 4425.947;  233.096
688.269;55190.480; 4003.603;  246.917
688.844;55827.855; 4418.259;  236.938
689.420;53865.230; 4131.915;  242.059
689.995;52752.859; 5041.570;  245.480
690.571;51393.035; 4952.226;  244.701
691.146;50329.762; 4018.882;  251.922
691.722;50750.938; 4329.538;  284.743
692.297;51993.813; 3970.194;  320.664
692.872;51013.840; 3830.849;  313.885
693.448;51126.117; 3698.505;  290.106
694.023;53425.594; 4209.161;  304.327
694.598;51485.867; 4198.816;  319.648
695.173;49525.445; 3954.472;  323.169
695.748;49062.371; 3453.128;  376.389
696.323;49416.945; 4236.784;  397.610
696.898;48384.973; 4719.439;  430.231
697.473;46991.551; 3440.095;  454.952
698.048;48557.727; 4089.751;  478.973
698.623;48237.000; 3561.407;  477.094
699.198;51482.680; 4175.063;  496.915
699.773;54071.305; 3843.718;  490.236
700.348;55749.531; 3742.374;  519.957
700.922;58345.508; 4277.030;  575.678
701.497;58197.285; 4234.686;  621.399
702.072;58544.961; 4597.341;  664.420
702.646;58403.734; 4588.997;  690.541
703.221;57594.211; 4318.653;  748.862
703.795;57184.238; 3663.308;  774.282
704.370;54726.465; 3039.964;  799.803
704.944;53493.039; 3971.620;  875.824
705.519;53783.918; 4291.276;  902.945
706.093;54143.395; 3779.931;  889.266
706.668;55322.371; 4389.587;  903.487
707.242;54868.496; 4572.243;  881.708
707.816;54962.172; 4035.899;  892.329
708.390;55645.199; 4073.554;  970.250
708.965;54338.574; 4295.210;  984.671
709.539;54755.801; 4033.866; 1026.092
710.113;54811.129; 4135.521; 1067.913
710.687;52933.305; 4533.177; 1166.434
711.261;49372.031; 3765.833; 1190.854
711.835;47557.508; 3734.489; 1197.275
712.409;45920.730; 3419.145; 1308.096
712.983;45931.059; 3403.800; 1461.617
713.557;45927.434; 3466.456; 1611.838
714.131;46555.359; 3981.112; 1554.359
714.704;47818.188; 3760.768; 1520.780
715.278;49841.965; 4125.423; 1575.101
715.852;52465.738; 4521.079; 1689.822
716.425;51289.266; 5096.735; 1829.143
716.999;46795.793; 3431.391; 2008.664
717.573;48722.367; 4361.046; 2000.485
718.146;49823.395; 4987.702; 1914.506
718.720;48158.320; 4233.358; 1818.026
719.293;48098.098; 4355.014; 1734.147
719.867;49280.723; 3831.669; 1716.968
720.440;51332.898; 4798.325; 1918.589
721.013;49468.727; 3845.981; 1975.410
721.587;49465.754; 3472.636; 2073.331
722.160;50991.480; 4573.292; 2357.852
722.733;49595.957; 4164.948; 2657.073
723.306;47331.430; 4096.604; 2703.894
723.880;47643.207; 4244.260; 2549.415
724.453;48651.836; 4814.915; 2414.336
725.026;48612.461; 3909.571; 2298.557
725.599;49324.637; 4235.227; 2168.778
726.172;48704.113; 4374.882; 2106.099
726.745;48891.789; 4278.538; 2253.320
727.318;49447.766; 4563.194; 2404.740
727.891;48070.742; 4276.850; 2680.161
728.463;47233.168; 4229.505; 2838.882
729.036;46514.945; 3757.161; 2755.103
729.609;45757.570; 3724.817; 2731.824
730.182;47553.746; 4470.473; 2855.645
730.754;48658.121; 3111.128; 2946.866
731.327;49914.301; 4353.784; 2840.187
731.900;47137.574; 3433.440; 2647.608
732.472;46678.652; 4109.096; 2473.929
733.045;44621.277; 3983.751; 2445.750
733.617;41345.406; 3381.407; 2511.771
734.190;40350.980; 4327.063; 2581.592
734.762;39841.406; 4124.719; 2710.813
735.334;41112.332; 4136.375; 3005.733
735.907;42478.258; 4077.030; 3154.954
736.479;44557.387; 4675.686; 3171.675
737.051;45152.012; 4344.342; 3217.496
737.623;45214.539; 4452.998; 3246.217
738.195;45222.816; 3758.653; 2985.238
738.768;44977.539; 3243.309; 2727.559
739.340;45025.766; 3915.965; 2666.880
739.912;45325.043; 4524.621; 2769.601
740.484;45816.520; 4286.276; 2731.422
741.056;44880.445; 4036.932; 2963.043
741.628;44365.820; 3719.588; 3361.364
742.199;45504.949; 4753.243; 3641.185
742.771;45294.973; 3585.899; 3932.005
743.343;46945.750; 3760.555; 4319.926
743.915;47796.676; 4289.210; 4706.647
744.487;47156.953; 4446.866; 4874.968
745.058;46574.531; 4369.522; 4616.589
745.630;46900.656; 4455.178; 4253.410
746.201;45032.883; 3864.834; 4056.131
746.773;45991.559; 4326.489; 3772.952
747.344;47701.836; 4043.145; 3642.473
747.916;48563.910; 4192.801; 3752.294
748.487;47215.137; 4515.457; 4106.215
749.059;45985.414; 3592.112; 4457.835
749.630;45910.391; 3772.768; 4366.457
750.201;45178.766; 4062.424; 4600.078
750.773;44150.094; 3751.080; 4658.499
751.344;44836.969; 4126.735; 4609.319
751.915;43744.543; 4046.391; 4526.440
752.486;41777.223; 3753.047; 4536.061
753.057;40164.648; 4161.703; 4383.282
753.628;38368.523; 3771.358; 4296.503
754.199;38245.801; 3937.014; 4383.224
754.770;39442.828; 4304.670; 4653.545
755.341;40642.402; 4586.326; 4831.666
755.912;40247.379; 3993.981; 4831.387
756.483;41624.055; 4446.637; 4735.808
757.054;41937.281; 3869.293; 4685.029
757.625;42541.457; 3628.948; 4994.250
758.195;42845.434; 3497.604; 5051.471
758.766;44156.961; 4129.260; 5317.792
759.337;43840.238; 3423.916; 5646.512
759.907;43727.461; 3456.572; 5404.133
760.478;45169.988; 3820.227; 5090.954
761.048;45661.816; 4370.883; 4871.175
761.619;44456.293; 4274.539; 4589.396
762.189;43517.969; 4029.195; 4171.317
762.760;43965.992; 4531.850; 3872.538
763.330;43872.121; 4403.506; 3832.259
763.900;43687.898; 4172.162; 4150.180
764.471;42719.473; 3653.817; 4529.801
765.041;43809.801; 4621.473; 4715.922
765.611;43262.227; 4302.129; 4681.442
766.181;41649.402; 4007.785; 4717.063
766.751;41969.277; 4068.440; 4710.285
767.321;43070.355; 3645.096; 4450.305
767.891;44695.430; 4140.752; 4274.126
768.461;44699.406; 3966.408; 4215.047
769.031;44059.234; 4119.063; 4173.068
769.601;44144.961; 4663.719; 4174.689
770.171;41368.035; 3379.375; 4229.310
770.741;40755.613; 3923.031; 4352.031
771.311;39573.387; 4359.687; 4336.652
771.880;37550.664; 3706.342; 4300.873
772.450;37281.691; 3729.998; 4387.194
773.020;36980.766; 3441.654; 4220.415
773.589;36907.191; 3721.309; 4075.835
774.159;36802.121; 3805.965; 4105.756
774.729;36506.145; 3782.621; 4114.978
775.298;36152.023; 3778.277; 3693.298
775.867;36693.648; 3785.932; 3343.119
776.437;38557.223; 4079.588; 3062.040
777.006;38514.551; 3434.244; 2927.161
777.576;38479.727; 4317.899; 3046.482
778.145;36962.852; 4267.555; 3230.203
778.714;37249.129; 4007.211; 3253.324
779.283;38242.754; 4285.867; 3129.745
779.853;37756.082; 4049.523; 2983.566
780.422;37134.957; 4019.178; 2929.887
780.991;37166.836; 4325.834; 2863.908
781.560;38541.461; 4683.490; 2948.029
782.129;37861.188; 4208.146; 3074.149
782.698;37362.863; 4681.801; 2893.970
783.267;36101.891; 3794.457; 2721.391
783.836;37544.117; 4200.113; 2659.712
784.404;37502.293; 3570.769; 2622.233
784.973;35840.320; 3114.424; 2600.754
785.542;34646.094; 4043.080; 2528.475
786.111;33828.520; 4693.736; 2404.396
786.679;32841.398; 4274.392; 2365.717
787.248;31164.924; 3443.047; 2498.438
787.817;30749.650; 3802.703; 2645.659
788.385;30427.926; 4547.359; 2709.280
788.954;28612.352; 3478.015; 2620.500
789.522;29516.879; 4392.670; 2625.422
790.090;29604.805; 3528.326; 2743.843
790.659;32362.230; 3823.982; 2635.163
791.227;33699.457; 3888.637; 2495.484
791.795;35078.684; 4177.293; 2413.705
792.364;35930.660; 3594.949; 2345.326
792.932;37917.734; 4216.605; 2350.447
793.500;38553.863; 3858.260; 2429.768
794.068;37043.340; 3427.916; 2513.589
794.636;35813.164; 3702.572; 2664.310
795.204;34664.641; 3295.228; 2721.431
795.772;34534.617; 3651.884; 2802.052
796.340;35418.094; 3756.539; 2847.173
796.908;35080.270; 3289.195; 2997.194
797.476;33624.945; 3509.851; 3151.615
798.044;31387.672; 3250.507; 3110.735
798.612;31556.600; 3958.162; 2931.656
799.180;31987.025; 4086.818; 2785.777
799.747;31585.652; 4008.474; 2899.098
800.315;30369.627; 3435.129; 2955.519
800.883;28884.004; 3162.785; 2948.940
801.450;28576.881; 3940.441; 2965.361
802.018;28907.457; 4183.097; 3070.582
802.585;29137.684; 3985.752; 3156.103
803.153;30042.459; 3678.408; 3199.524
803.720;30753.734; 3694.064; 3168.845
804.287;30446.211; 3920.720; 3248.366
804.855;30677.438; 4450.375; 3406.187
805.422;29750.465; 3871.031; 3430.907
805.989;29216.641; 3599.687; 3453.528
806.556;29872.117; 3635.343; 3612.649
807.124;32529.143; 4369.999; 3736.570
807.691;32647.270; 3546.654; 3770.491
808.258;32161.746; 4007.310; 3705.012
808.825;31945.771; 4518.966; 3828.733
809.392;32860.648; 4664.622; 3986.754
809.959;32647.725; 4210.277; 4410.075
810.526;32074.350; 4871.933; 4774.996
811.093;29985.576; 4452.589; 4754.217
811.659;27751.303; 3920.244; 4661.238
812.226;26507.879; 3952.900; 4672.559
812.793;25990.906; 4135.556; 4822.979
813.360;25581.932; 3920.212; 5189.800
813.926;26425.158; 4139.867; 5310.622
814.493;27079.035; 3501.523; 5414.542
815.060;28011.461; 3204.179; 5548.963
815.626;29188.838; 3510.835; 5452.284
816.193;30940.813; 4119.490; 5339.305
816.759;30813.939; 3683.146; 5544.426
817.325;29962.965; 3265.802; 5706.547
817.892;30415.592; 4356.458; 5623.468
818.458;29683.768; 4214.113; 5586.689
819.024;29704.695; 4563.769; 5647.910
819.591;28441.271; 3965.425; 5762.031
820.157;27325.697; 3501.081; 6284.452
820.723;28925.574; 4153.736; 6906.973
821.289;31569.949; 6094.392; 7086.894
821.855;29092.775; 4335.048; 7054.915
822.421;27330.553; 3823.704; 7112.035
822.987;25843.529; 3493.359; 7256.156
823.553;25825.154; 3910.015; 7538.077
824.119;25914.682; 4447.671; 7594.298
824.685;25802.607; 4588.327; 7613.619
825.251;25207.084; 4401.982; 7644.140
825.816;24887.660; 4882.638; 7720.261
826.382;23649.285; 4369.294; 8014.282
826.948;23921.813; 4403.950; 8281.503
827.513;23654.789; 3895.605; 8289.624
828.079;23349.814; 3576.261; 8587.045
828.645;23519.391; 4168.917; 8821.865
829.210;23225.467; 3531.573; 9054.486
829.776;24373.994; 4259.229; 9054.607
830.341;24236.119; 4372.884; 9415.628
830.906;23066.346; 4558.540; 9932.449
831.472;20306.123; 3631.196;10150.271
832.037;19678.449; 4391.851; 9420.391
832.602;18314.875; 3781.507; 8664.912
833.167;18918.801; 4080.163; 8491.933
833.733;19828.078; 4406.818; 8872.854
834.298;19215.854; 3607.474; 9370.575
834.863;19768.830; 4193.130; 9610.695
835.428;20021.307; 4207.786; 9655.616
835.993;20232.182; 4255.441; 9437.838
836.558;20365.510; 4280.097; 9441.459
837.123;21574.734; 5278.753; 9600.979
837.688;20200.061; 4213.409; 9798.301
838.253;19476.787; 4126.064; 9902.921
838.817;18774.363; 3883.720;10339.742
839.382;19382.590; 4656.376;10548.363
839.947;18500.266; 4115.032;10252.484
840.511;18998.543; 4840.688;10040.005
841.076;16875.170; 3118.343;10099.926
841.641;17439.545; 4214.999;10347.347
842.205;16912.822; 4203.655;10817.368
842.770;17727.248; 4926.311;11435.289
843.334;17015.375; 3974.966;12072.409
843.898;17013.600; 3791.622;12635.431
844.463;17469.877; 4626.278;12537.252
845.027;16063.353; 3865.933;12759.673
845.591;16353.479; 4439.589;12821.993
846.156;15748.205; 3789.245;12520.914
846.720;15953.632; 4383.901;12390.436
847.284;14978.758; 4146.557;12956.456
847.848;14145.234; 4274.212;13240.177
848.412;13142.910; 4046.868;13216.998
848.976;13662.736; 4699.523;13014.619
849.540;14308.163; 5159.179;12355.740
850.104;14090.390; 4709.835;12208.761
850.668;12550.666; 3227.491;12106.882
851.232;12863.292; 3376.147;11862.103
851.796;13821.269; 3985.802;11700.523
852.359;14345.494; 4439.458;12375.944
852.923;14308.171; 4567.114;13087.966
853.487;13915.947; 4417.770;13297.187
854.050;12553.623; 2773.425;13851.207
854.614;14046.699; 3852.081;14854.229
855.177;14294.676; 4208.737;15802.149
855.741;13960.402; 4218.393;16603.570
856.304;13661.828; 4520.048;16359.891
856.868;12146.854; 3557.704;14365.512
857.431;12067.581; 4062.360;13361.333
857.995;11455.157; 3881.016;14130.554
858.558;11370.684; 4193.671;14883.175
859.121;11480.010; 4476.327;15754.195
859.684;11311.086; 4152.983;15995.017
860.247;11371.313; 4082.639;15149.537
860.810;11302.538; 3864.294;14640.358
861.374;12851.114; 5157.950;15551.079
861.937;11441.641; 3541.606;16519.801
862.500;11866.667; 3787.261;16796.521
863.062;11883.394; 3591.917;16538.742
863.625;12561.470; 4180.573;16716.764
864.188;12102.996; 3833.229;17055.084
864.751;11618.622; 3832.885;17197.705
865.314;11742.448; 4093.540;17151.625
865.876;12264.325; 4534.196;17783.547
866.439;12302.251; 4379.852;19283.467
867.002;12843.127; 5062.507;20256.389
867.564;12009.104; 4600.163;20485.410
868.127;11304.630; 4045.819;20789.730
868.689;11484.356; 4180.475;21981.951
869.252;11760.683; 4637.130;23803.771
869.814;10927.158; 3729.786;24974.094
870.377;11405.685; 4236.442;24690.314
870.939;12819.361; 5865.098;23963.436
871.501;10919.237; 4160.753;25167.156
872.063; 9593.414; 3072.409;26995.477
872.626; 9841.490; 3323.065;27443.098
873.188;10720.366; 4151.721;26718.418
873.750;10340.442; 3970.376;26558.840
874.312; 9909.119; 3832.032;26701.561
874.874;10715.495; 4907.688;27970.582
875.436;10084.722; 4414.344;29173.402
875.998;10143.548; 4739.000;30376.623
876.560; 9753.324; 4437.655;32507.344
877.122; 8859.000; 3676.311;34833.066
877.683; 8988.227; 4339.967;36458.285
878.245; 8057.653; 3923.623;37248.207
878.807; 8279.729; 4325.278;36758.027
879.369; 7566.455; 3526.934;35223.551
879.930; 7899.631; 3585.590;33824.969
880.492; 9012.508; 4693.246;34436.492
881.053; 7972.034; 3646.901;37745.313
881.615; 8041.460; 3793.557;41184.633
882.176; 8046.487; 3968.213;42871.555
882.738; 8578.363; 4449.869;41693.074
883.299; 7436.689; 3203.524;40289.895
883.860; 7431.266; 3346.180;39231.215
884.422; 8270.592; 4350.835;38264.039
884.983; 7340.368; 3590.491;37171.859
885.544; 7799.744; 4101.147;35842.379
886.105; 7730.021; 4077.803;34810.000
886.666; 7468.797; 3842.459;34519.020
887.227; 6882.073; 3331.115;33905.641
887.788; 7632.899; 4272.770;34502.965
888.349; 6717.326; 3443.426;34241.785
888.910; 7475.202; 4410.082;33722.203
889.471; 7198.828; 4171.737;32539.625
890.032; 6963.604; 4028.393;31528.346
890.593; 7198.130; 4343.049;32655.068
891.153; 6745.107; 3991.705;33882.289
891.714; 6012.483; 3489.360;33318.711
892.275; 6001.109; 3520.016;31848.930
892.835; 6843.585; 4429.672;30339.752
893.396; 6661.862; 4337.328;30074.973
893.956; 6164.888; 3918.983;30338.393
894.517; 6289.114; 4183.639;30864.113
895.077; 6254.241; 4235.295;29766.734
895.638; 6784.517; 4893.951;26379.557
896.198; 5357.143; 3579.606;24056.277
896.758; 6104.970; 4392.262;22961.898
897.319; 5571.396; 3949.918;21772.020
897.879; 5524.672; 4009.573;20877.539
898.439; 4755.098; 3333.229;19509.461
898.999; 5625.575; 4251.885;17297.582
899.559; 5473.451; 4199.541;14712.002
900.119; 4752.977; 3592.197;12790.224
900.679; 5884.003; 4769.853;11586.744
901.239; 5411.780; 4335.508;10776.465
901.799; 5110.156; 4095.164; 9691.687
902.359; 4642.282; 3620.820; 8725.907
902.919; 4582.108; 3640.475; 8305.728
903.479; 4585.635; 3625.131; 8172.649
904.038; 4427.011; 3439.787; 7913.870
904.598; 3934.387; 3087.443; 7262.291
905.158; 4692.063; 3872.098; 6609.012
905.717; 4854.040; 3925.754; 6236.133
906.277; 4887.316; 4036.410; 5829.054
906.836; 5087.542; 4257.065; 5396.674
907.396; 5028.869; 4280.721; 4964.195
907.955; 5049.195; 4195.377; 4528.917
908.515; 4639.571; 3844.033; 4223.837
909.074; 4655.447; 3904.688; 4023.958
909.633; 4692.474; 3933.344; 4065.379
910.192; 5646.700; 4879.000; 4066.300
910.752; 4638.600; 3836.000; 3971.600
911.311; 4540.050; 3829.000; 3839.600
911.870; 4381.050; 3733.000; 3684.500
912.429; 5257.550; 4522.000; 3635.600
912.988; 5157.100; 4439.000; 3689.800
913.547; 4308.800; 3665.000; 3737.700
914.106; 4804.250; 4118.000; 3740.300
914.665; 4772.650; 4086.000; 3604.600
915.224; 5192.400; 4420.000; 3358.700
915.782; 4482.650; 3749.000; 3188.400
916.341; 5334.700; 4630.000; 3091.400
916.900; 4516.850; 3842.000; 3044.800
917.458; 4315.200; 3646.000; 2888.600
918.017; 4754.000; 4041.000; 2818.900
918.576; 4563.100; 3844.000; 2838.600
919.134; 4046.050; 3296.000; 2880.100
919.693; 4506.100; 3810.000; 2996.300
920.251; 4416.950; 3730.000; 3183.100
920.809; 4186.000; 3478.000; 3247.000
921.368; 4440.350; 3701.000; 3156.600
921.926; 4259.250; 3509.000; 2964.900
922.484; 4666.800; 4010.000; 2846.300
923.042; 4505.900; 3810.000; 2890.400
923.601; 5345.900; 4590.000; 2987.700
924.159; 4912.250; 4172.000; 3049.800
924.717; 4280.750; 3556.000; 3087.000
925.275; 4714.350; 4012.000; 3093.400
925.833; 3916.150; 3174.000; 3182.400
926.391; 4941.200; 4162.000; 3397.900
926.949; 4484.750; 3691.000; 3575.400
927.506; 4748.900; 4103.000; 3713.400
928.064; 4558.600; 3777.000; 3871.300
928.622; 4625.450; 3866.000; 4092.800
929.180; 4174.850; 3448.000; 4499.300
929.737; 4062.650; 3313.000; 4813.200
930.295; 4936.200; 4149.000; 5084.100
930.853; 4352.850; 3612.000; 5185.000
931.410; 4131.750; 3428.000; 5313.100
931.968; 4966.900; 4289.000; 5339.600
932.525; 4686.550; 4008.000; 5399.900
933.082; 4052.850; 3316.000; 5457.500
933.640; 4852.650; 4121.000; 5692.900
934.197; 4536.200; 3753.000; 5821.200
934.754; 4586.700; 3810.000; 5617.900
935.312; 4392.150; 3661.000; 5512.400
935.869; 5401.950; 4593.000; 5582.400
936.426; 4407.550; 3648.000; 5650.100
936.983; 4524.150; 3704.000; 5657.400
937.540; 4135.150; 3380.000; 5564.300
938.097; 4871.100; 4024.000; 5574.000
938.654; 4492.350; 3680.000; 5665.900
939.211; 4851.900; 4017.000; 5931.600
939.768; 4646.050; 3775.000; 6153.600
940.324; 4507.500; 3749.000; 6397.600
940.881; 4330.400; 3571.000; 6454.200
941.438; 5242.950; 4445.000; 6206.900
941.995; 5057.150; 4294.000; 6003.900
942.551; 4171.850; 3385.000; 6228.300
943.108; 4606.000; 3850.000; 6603.500
943.664; 4210.000; 3403.000; 7188.100
944.221; 5663.000; 4794.000; 7579.900
944.777; 4163.800; 3410.000; 7658.100
945.334; 4236.900; 3458.000; 7670.400
945.890; 4658.850; 3830.000; 7525.100
946.446; 4688.150; 3923.000; 7261.500
947.003; 4801.650; 4052.000; 6949.200
947.559; 5422.600; 4598.000; 6773.100
948.115; 5153.750; 4390.000; 6668.400
948.671; 4765.050; 4048.000; 6488.400
949.227; 4030.400; 3255.000; 6236.600
949.783; 3946.900; 3263.000; 6008.900
950.339; 4844.250; 4058.000; 5934.100
950.895; 5117.500; 4358.000; 5933.500
951.451; 4445.050; 3643.000; 6074.700
952.007; 4941.050; 4221.000; 6066.400
952.563; 4509.850; 3731.000; 5884.100
953.118; 4363.500; 3556.000; 5733.800
953.674; 4623.200; 3860.000; 5734.300
954.230; 4647.250; 3829.000; 6039.700
954.785; 4650.550; 3788.000; 6383.500
955.341; 5042.550; 4249.000; 6568.200
955.897; 3988.750; 3263.000; 6488.600
956.452; 4816.450; 4057.000; 6239.200
957.008; 5755.700; 5006.000; 5954.600
957.563; 5220.400; 4383.000; 5816.700
958.118; 4299.750; 3554.000; 5828.200
958.674; 4725.050; 3987.000; 5717.400
959.229; 5305.150; 4500.000; 5506.800
959.784; 4093.950; 3326.000; 5292.200
960.339; 5251.300; 4567.000; 5101.900
960.894; 4982.200; 4254.000; 5093.200
961.449; 4265.400; 3559.000; 5227.900
962.004; 6680.950; 5871.000; 5349.300
962.559; 4316.400; 3556.000; 5514.900
963.114; 3512.800; 2827.000; 5717.300
963.669; 4628.150; 3950.000; 5841.400
964.224; 4427.000; 3697.000; 5805.900
964.779; 4107.650; 3383.000; 5723.400
965.334; 5270.850; 4557.000; 5779.500
965.888; 4367.350; 3623.000; 5948.500
966.443; 5051.900; 4260.000; 6344.200
966.998; 3927.450; 3258.000; 6666.300
967.552; 4554.850; 3851.000; 6710.100
968.107; 4291.800; 3640.000; 6593.500
968.661; 4687.100; 3999.000; 6344.100
969.216; 4223.550; 3593.000; 6062.400
969.770; 4661.550; 4038.000; 5785.500
970.324; 4704.600; 4009.000; 5426.800
970.879; 4912.650; 4247.000; 5016.800
971.433; 4948.350; 4333.000; 4904.500
971.987; 4584.200; 3974.000; 4991.000
972.541; 4732.950; 4010.000; 4978.500
973.095; 5329.850; 4668.000; 4832.000
973.649; 3976.050; 3347.000; 4767.900
974.203; 4110.950; 3486.000; 4881.200
974.757; 4279.000; 3708.000; 4969.500
975.311; 4444.500; 3822.000; 4953.000
975.865; 4487.200; 3895.000; 4884.300
976.419; 4337.300; 3723.000; 4739.800
976.973; 4273.550; 3686.000; 4698.100
977.526; 4958.700; 4377.000; 4631.100
978.080; 3917.850; 3376.000; 4621.600
978.634; 4737.950; 4113.000; 4650.200
979.187; 4650.100; 4137.000; 4669.200
979.741; 5439.400; 4854.000; 4658.000
980.294; 3915.400; 3414.000; 4579.100
980.848; 3469.550; 2939.000; 4452.800
981.401; 4148.400; 3632.000; 4271.900
981.955; 4391.050; 3940.000; 4087.800
982.508; 3706.400; 3172.000; 3973.900
983.061; 4887.800; 4384.000; 3928.600
983.615; 4035.500; 3473.000; 3851.200
984.168; 3873.100; 3349.000; 3734.800
984.721; 4627.700; 4191.000; 3628.300
985.274; 4521.300; 4087.000; 3564.300
985.827; 4332.550; 3823.000; 3558.100
986.380; 3586.500; 3166.000; 3559.900
986.933; 4543.350; 4046.000; 3688.700
987.486; 4562.250; 4111.000; 3778.500
988.039; 4517.450; 4083.000; 3559.900
988.591; 4810.100; 4361.000; 3219.300
989.144; 3752.150; 3366.000; 2902.900
989.697; 3971.700; 3520.000; 2722.600
990.250; 4659.250; 4261.000; 2618.000
990.802; 3967.800; 3589.000; 2523.900
991.355; 5524.200; 5030.000; 2436.500
991.907; 4787.975; 4323.500; 2412.200
992.460; 4051.750; 3617.000; 2387.900
993.012; 4064.450; 3668.000; 2365.800
993.565; 3807.400; 3432.000; 2311.100
994.117; 5421.850; 5024.000; 2308.700
994.669; 3807.250; 3413.000; 2249.300
995.221; 4464.900; 4098.000; 2158.100
995.774; 4380.650; 4019.000; 2085.600
996.326; 4095.100; 3727.000; 2068.100
996.878; 4800.100; 4501.000; 1975.300
997.430; 3878.900; 3556.000; 1929.500
997.982; 4237.050; 3876.000; 1861.900
998.534; 4197.500; 3923.000; 1830.200
999.086; 4168.950; 3791.000; 1823.200
999.638; 3646.200; 3274.000; 1815.000
1000.190; 3982.450; 3607.000; 1796.600
1000.741; 4233.750; 3881.000; 1738.800
1001.293; 3876.400; 3563.000; 1666.200
1001.845; 3872.750; 3473.000; 1566.500
1002.396; 4290.250; 3970.000; 1471.900
1002.948; 4263.650; 3993.000; 1398.000
1003.500; 4179.200; 3836.000; 1356.500
1004.051; 5518.600; 5191.000; 1294.200
1004.603; 4721.050; 4414.000; 1190.000
1005.154; 3480.150; 3256.000; 1063.900
1005.705; 4272.450; 4018.000;  968.300
1006.257; 4197.500; 3899.000;  889.800
1006.808; 4071.700; 3803.000;  801.500
1007.359; 4661.200; 4392.000;  716.400
1007.910; 3870.400; 3589.000;  639.100
1008.461; 4476.250; 4196.000;  561.600
1009.013; 3480.000; 3309.000;  500.400
1009.564; 4904.550; 4649.000;  476.100
1010.115; 3547.550; 3257.000;  431.600
1010.665; 3621.300; 3424.000;  409.300
1011.216; 4056.550; 3845.000;  399.700
1011.767; 4233.650; 4044.000;  388.100
1012.318; 4424.450; 4250.000;  381.400
1012.869; 4070.100; 3860.000;  375.400
1013.419; 3606.400; 3427.000;  357.600
1013.970; 4068.000; 3860.000;  358.300
1014.521; 3714.300; 3485.000;  344.100
1015.071; 4102.250; 3892.000;  322.800
1015.622; 3831.050; 3631.000;  320.600
1016.172; 3595.750; 3383.000;  301.700
1016.723; 3712.200; 3489.000;  289.800
1017.273; 3662.850; 3526.000;  287.600
1017.823; 3952.150; 3811.000;  278.700
1018.374; 3714.050; 3551.000;  274.400
1018.924; 4417.050; 4161.000;  283.200
1019.474; 4386.950; 4104.000;  278.500
1020.024; 3988.600; 3824.000;  274.700
1020.574; 4486.450; 4301.000;  272.700
1021.124; 4149.800; 3987.000;  278.400
1021.674; 3377.750; 3150.000;  269.200
1022.224; 4374.800; 4195.000;  267.800
1022.774; 4089.600; 3879.000;  258.100
1023.324; 4702.900; 4534.000;  260.000
1023.874; 5580.900; 5351.000;  260.700
1024.423; 3746.050; 3520.000;  252.700
1024.973; 3655.050; 3495.000;  234.700
1025.523; 3789.250; 3573.000;  226.500
1026.072; 3715.750; 3508.000;  225.500
1026.622; 4149.200; 4023.000;  210.100
1027.172; 4410.750; 4313.000;  213.000
1027.721; 3669.250; 3489.000;  207.700
1028.270; 4151.850; 3992.000;  205.400
1028.820; 3937.150; 3787.000;  201.000
1029.369; 3779.900; 3643.000;  201.000
1029.918; 3991.100; 3746.000;  198.400
1030.468; 3446.750; 3248.000;  199.200
1031.017; 3923.000; 3709.000;  192.600
1031.566; 3747.900; 3525.000;  197.400
1032.115; 4311.950; 4097.000;  188.300
1032.664; 3694.100; 3518.000;  193.700
1033.213; 4609.450; 4389.000;  191.900
1033.762; 3925.950; 3768.000;  184.500
1034.311; 4179.850; 3988.000;  194.300
1034.860; 4296.600; 4078.000;  192.300
1035.408; 4546.950; 4398.000;  182.600
1035.957; 4475.700; 4358.000;  173.900
1036.506; 3221.050; 3109.000;  185.200
1037.055; 5341.450; 5123.000;  182.500
1037.603; 4143.950; 3956.000;  167.600
1038.152; 3225.300; 3090.000;  168.200
1038.700; 3568.850; 3438.000;  169.600
1039.249; 4235.500; 4034.000;  164.300
1039.797; 3948.300; 3767.000;  169.600
1040.345; 4393.750; 4233.000;  167.100
1040.894; 3892.300; 3780.000;  164.400
1041.442; 3957.850; 3804.000;  158.300
1041.990; 3470.950; 3284.000;  160.000
1042.538; 3288.100; 3161.000;  156.800
1043.087; 3475.500; 3312.000;  146.600
1043.635; 4236.400; 4061.000;  162.400
1044.183; 3665.200; 3571.000;  156.300
1044.731; 3561.200; 3433.000;  158.100
1045.279; 4221.450; 4006.000;  154.500
1045.827; 5723.800; 5551.000;  146.200
1046.374; 3132.650; 2964.000;  154.000
1046.922; 3649.950; 3605.000;  149.000
1047.470; 4342.300; 4204.000;  154.900
1048.018; 4108.750; 3932.000;  148.400
1048.565; 4503.350; 4297.000;  146.300
1049.113; 3424.700; 3243.000;  156.100
1049.660; 3907.050; 3728.000;  154.300
1050.208; 4223.650; 4077.000;  149.400
1050.755; 3773.900; 3551.000;  157.500
1051.303; 4334.250; 4216.000;  157.700
1051.850; 3958.400; 3803.000;  152.800
1052.397; 2908.000; 2721.000;  146.300
1052.945; 3862.500; 3744.000;  149.500
1053.492; 4706.050; 4593.000;  149.300
1054.039; 4572.300; 4427.000;  163.100
1054.586; 3491.700; 3319.000;  150.400
1055.133; 4394.350; 4270.000;  153.500
1055.680; 4035.950; 3919.000;  155.600
1056.227; 3343.200; 3220.000;  148.700
1056.774; 5057.800; 4903.000;  151.500
1057.321; 3229.250; 3117.000;  143.700
1057.868; 4075.600; 3906.000;  145.300
1058.415; 4098.650; 4007.000;  153.500
1058.961; 4287.000; 4121.000;  149.900
1059.508; 4037.400; 3853.000;  147.300
1060.055; 3652.700; 3518.000;  151.000
1060.601; 3883.900; 3742.000;  148.700
1061.148; 3947.600; 3805.000;  153.800
1061.694; 3736.500; 3586.000;  150.500
1062.241; 3732.200; 3590.000;  149.100
1062.787; 4208.500; 4050.000;  153.000
1063.334; 5102.500; 4934.000;  153.200
1063.880; 4260.850; 4100.000;  148.400
1064.426; 4496.800; 4312.000;  149.200
1064.972; 3759.750; 3646.000;  156.400
1065.518; 3556.850; 3432.000;  144.700
1066.065; 3970.300; 3868.000;  139.400
1066.611; 3780.700; 3641.000;  139.300
1067.157; 4049.700; 4017.000;  138.400
1067.703; 4249.650; 4134.000;  142.700
1068.249; 3766.000; 3589.000;  136.700
1068.794; 3957.550; 3879.000;  139.400
1069.340; 3621.800; 3464.000;  142.700
1069.886; 3759.700; 3628.000;  135.600
1070.432; 3380.150; 3246.000;  133.400
1070.977; 3815.050; 3718.000;  138.200
1071.523; 3542.400; 3385.000;  132.400
1072.068; 3618.550; 3519.000;  132.700
1072.614; 3273.600; 3125.000;  127.000
1073.160; 4407.800; 4282.000;  131.300
1073.705; 3646.700; 3494.000;  135.700
1074.250; 3526.300; 3346.000;  133.000
1074.796; 4163.300; 4041.000;  138.000
1075.341; 4219.200; 4082.000;  137.300
1075.886; 3717.550; 3560.000;  134.300
1076.431; 4181.800; 4028.000;  138.200
1076.976; 4079.650; 3970.000;  132.200
1077.521; 3677.500; 3626.000;  138.900
1078.067; 3681.600; 3526.000;  128.600
1078.612; 4262.050; 4149.000;  138.900
1079.156; 3821.050; 3659.000;  128.900
1079.701; 4434.250; 4292.000;  129.700
1080.246; 4444.500; 4366.000;  128.600
1080.791; 4021.550; 3908.000;  122.600
1081.336; 4198.350; 4072.000;  122.000
1081.880; 4142.100; 4039.000;  123.900
1082.425; 3590.400; 3467.000;  120.600
1082.970; 4579.150; 4476.000;  124.500
1083.514; 3777.100; 3647.000;  112.000
1084.059; 3722.300; 3607.000;  120.700
1084.603; 3604.650; 3485.000;  116.000
1085.147; 4139.700; 3993.000;  116.300
1085.692; 4615.650; 4527.000;  108.200
1086.236; 3176.800; 3093.000;  114.600
1086.780; 4836.100; 4729.000;  118.900
1087.325; 4200.400; 4146.000;  120.400
1087.869; 3926.750; 3788.000;  110.500
1088.413; 4505.800; 4375.000;  114.000
1088.957; 3400.250; 3298.000;  114.300
1089.501; 4948.850; 4820.000;  114.600
1090.045; 4686.700; 4580.000;  114.200
1090.589; 3617.100; 3537.000;  105.500
1091.133; 4317.650; 4119.000;  111.800
1091.676; 3728.750; 3600.000;  110.900
1092.220; 3861.650; 3661.000;  110.100
1092.764; 4530.100; 4413.000;  108.100
1093.307; 4305.300; 4230.000;  109.900
1093.851; 3537.800; 3439.000;  107.500
1094.395; 4401.550; 4305.000;   96.200
1094.938; 4053.000; 3970.000;   99.300
1095.482; 3561.000; 3534.000;   97.700
1096.025; 4582.700; 4414.000;   84.900
1096.568; 4987.000; 4867.000;   88.500
1097.112; 3183.700; 3088.000;   95.700
1097.655; 3807.450; 3686.000;   97.300
1098.198; 3812.850; 3670.000;   92.600
1098.741; 3949.400; 3878.000;   91.800
1099.285; 4199.950; 4055.000;   88.000
1099.828; 2765.550; 2659.000;   91.700
1100.371; 3915.000; 3824.000;   89.900
1100.914; 4415.250; 4302.000;   91.500
1101.457; 4375.700; 4198.000;   88.100
1101.999; 3700.000; 3617.000;   86.400
1102.542; 4093.450; 4009.000;   90.800
1103.085; 4236.100; 4097.000;   95.400
1103.628; 4966.350; 4902.000;   97.700
1104.170; 3738.150; 3646.000;   84.000
1104.713; 4169.750; 4060.000;   93.900
1105.256; 3536.250; 3444.000;   93.000
1105.798; 3197.850; 3080.000;   85.600
1106.341; 4723.950; 4574.000;   87.100
1106.883; 3330.700; 3214.000;   85.200
1107.425; 4324.000; 4231.000;   85.000
1107.968; 3977.150; 3945.000;   84.300
1108.510; 4422.400; 4279.000;   88.200
1109.052; 3992.500; 3888.000;   86.600
1109.594; 3565.650; 3518.000;   79.400
1110.136; 4160.250; 4039.000;   81.700
1110.679; 4049.900; 3940.000;   75.500
1111.221; 3901.800; 3787.000;   88.500
1111.763; 3554.500; 3459.000;   87.700
1112.304; 3487.100; 3440.000;   89.700
1112.846; 4310.200; 4247.000;   81.900
1113.388; 6219.150; 6035.000;   86.400
1113.930; 4498.600; 4407.000;   84.700
1114.472; 3912.600; 3905.000;   78.900
1115.013; 3535.900; 3441.000;   78.100
1115.555; 3808.750; 3729.000;   84.900
1116.097; 3692.800; 3669.000;   79.200
1116.638; 4448.950; 4355.000;   83.700
1117.180; 4297.100; 4188.000;   85.500
1117.721; 3706.600; 3616.000;   78.800
1118.262; 4391.200; 4212.000;   77.400
1118.804; 4132.150; 4020.000;   81.400
1119.345; 3765.150; 3609.000;   77.800
1119.886; 4588.500; 4497.000;   81.200
1120.427; 3799.600; 3747.000;   77.200
1120.969; 3882.500; 3845.000;   75.200
1121.510; 3655.800; 3557.000;   80.900
1122.051; 4712.950; 4606.000;   77.300
1122.592; 4265.600; 4214.000;   73.300
1123.133; 3511.050; 3499.000;   90.100
1123.673; 4597.550; 4514.000;   75.000
1124.214; 3973.200; 3782.000;   80.600
1124.755; 4176.600; 4090.000;   78.000
1125.296; 4032.550; 3938.000;   77.500
1125.836; 4485.100; 4385.000;   80.400
1126.377; 3900.300; 3792.000;   75.600
1126.918; 4017.150; 3944.000;   78.900
1127.458; 4030.750; 3928.000;   78.000
1127.999; 4296.600; 4150.000;   76.100
1128.539; 4507.750; 4372.000;   81.400
1129.079; 4127.250; 4003.000;   77.400
1129.620; 3589.800; 3583.000;   68.000
1130.160; 3489.550; 3425.000;   77.500
1130.700; 4164.050; 4054.000;   76.300
1131.240; 4203.150; 4087.000;   66.800
1131.781; 4050.500; 3951.000;   70.600
1132.321; 3909.350; 3893.000;   77.200
1132.861; 3641.350; 3562.000;   70.400
1133.401; 3901.100; 3742.000;   68.700
1133.941; 4067.750; 3959.000;   68.500
1134.481; 3932.900; 3801.000;   75.900
1135.020; 3944.550; 3872.000;   66.600
1135.560; 4364.200; 4330.000;   68.100
1136.100; 3235.300; 3174.000;   64.900
1136.640; 3322.350; 3259.000;   72.500
1137.179; 3463.600; 3350.000;   69.700
1137.719; 3942.900; 3813.000;   68.400
1138.258; 3815.600; 3720.000;   67.000
1138.798; 4299.000; 4176.000;   69.600
1139.337; 3109.850; 3039.000;   64.000
1139.877; 4165.000; 4088.000;   64.500
1140.416; 5735.700; 5686.000;   74.900
1140.955; 3439.500; 3385.000;   67.200
1141.494; 4411.000; 4307.000;   69.900
1142.034; 3797.900; 3743.000;   59.100
1142.573; 4226.500; 4119.000;   65.900
1143.112; 3606.050; 3522.000;   70.600
1143.651; 3500.650; 3460.000;   67.100
1144.190; 4543.100; 4441.000;   56.700
1144.729; 3962.700; 3927.000;   61.800
1145.267; 3774.200; 3655.000;   62.500
1145.806; 4172.800; 4052.000;   68.500
1146.345; 4188.750; 4113.000;   58.300
1146.884; 4106.250; 4052.000;   63.100
1147.422; 3461.250; 3387.000;   54.800
1147.961; 4665.900; 4585.000;   67.600
1148.500; 4388.500; 4261.000;   64.700
1149.038; 4166.700; 4114.000;   61.000
1149.577; 4601.800; 4457.000;   65.100
1150.115; 2920.550; 2801.000;   58.100
1150.653; 3976.000; 3880.000;   60.500
1151.192; 3618.450; 3604.000;   56.600
1151.730; 4285.300; 4194.000;   62.300
1152.268; 3836.200; 3780.000;   55.500
1152.806; 3743.350; 3716.000;   58.200
1153.344; 3750.700; 3681.000;   55.000
1153.882; 3892.300; 3899.000;   64.200
1154.421; 3051.300; 2988.000;   60.300
1154.958; 3918.650; 3887.000;   58.100
1155.496; 4222.250; 4161.000;   55.800
1156.034; 4760.600; 4640.000;   61.000
1156.572; 4369.550; 4243.000;   56.200
1157.110; 3053.750; 2949.000;   53.200
1157.647; 4449.800; 4327.000;   57.400
1158.185; 3705.150; 3664.000;   55.500
1158.723; 3327.850; 3265.000;   58.000
1159.260; 4589.450; 4469.000;   53.700
1159.798; 4337.250; 4286.000;   51.700
1160.335; 4151.150; 4055.000;   59.600

