
Integration time [ms]:   3.276
Averaging Nr. [scans]: 1000
Smoothing Nr. [pixels]: 0
Data measured with spectrometer [name]: 7414430SP
Wave   ;Sample   ;Dark     ;Reference
[nm]   ;[counts] ;[counts] ;[counts] 

288.544;  150.196;    7.793;  793.890
289.143;  154.989;    7.462;  681.602
289.742;  154.180;    8.602;  828.814
290.341;  138.564;    1.321;  789.841
290.940;  128.441;   -0.709;  730.702
291.538;  129.866;    0.881;  881.108
292.137;  129.840;    0.122;  792.581
292.736;  134.618;   -1.929;  975.101
293.335;  131.475;   -8.229;  735.086
293.934;  132.221;   -5.279;  781.677
294.532;  129.412;   -1.369; 1031.958
295.131;  115.186;   -7.641;  834.394
295.730;  116.006;   -8.420;  809.588
296.328;  115.318;   -5.611;  783.442
296.927;  115.900;   -5.781;  779.652
297.525;  117.227;   -6.361;  781.236
298.124;  107.265;  -11.382;  654.009
298.722;  111.359;   -7.641;  761.933
299.321;  108.743;   -6.811;  708.597
299.919;  106.425;   -6.991;  751.918
300.518;  103.895;  -10.362;  689.338
301.116;  105.943;   -9.581;  691.381
301.715;  105.598;   -4.891;  730.222
302.313;  103.795;   -8.801;  704.943
302.911;  100.311;   -8.522;  733.830
303.509;  105.688;   -6.171;  925.627
304.108;  103.776;   -7.311;  760.383
304.706;  101.761;   -8.321;  801.664
305.304;   96.350;  -10.222;  796.707
305.902;  101.460;   -6.021;  784.484
306.500;   98.579;   -4.971;  728.200
307.098;   95.610;   -7.061;  746.560
307.696;   93.960;   -8.801;  780.432
308.294;   94.471;   -6.411;  731.359
308.892;   96.370;   -2.901;  759.769
309.490;   92.119;   -5.041;  712.161
310.088;   91.023;   -5.002;  788.444
310.686;   95.884;   -2.041;  821.749
311.284;   91.066;   -2.351;  766.040
311.882;   88.690;   -4.422;  731.225
312.480;   85.918;   -4.192;  697.167
313.078;   87.365;   -1.172;  808.331
313.675;   87.963;   -2.601;  691.600
314.273;   82.212;   -1.312;  797.837
314.871;   81.980;   -3.942;  589.829
315.468;   81.342;   -2.802;  652.090
316.066;   83.281;   -0.701;  694.427
316.664;   76.367;   -4.362;  656.351
317.261;   79.977;   -2.872;  910.128
317.859;   75.942;   -2.022;  768.735
318.456;   76.101;   -0.531;  830.096
319.054;   71.982;   -3.912;  787.828
319.651;   70.574;   -4.752;  759.928
320.249;   69.458;   -2.602;  810.188
320.846;   68.347;   -0.821;  714.286
321.443;   65.147;   -4.642;  832.135
322.041;   62.713;   -5.002;  812.315
322.638;   60.756;   -3.982;  701.456
323.235;   61.916;   -3.411;  665.683
323.833;   59.184;   -7.361;  740.354
324.430;   53.981;   -8.611;  615.900
325.027;   55.322;   -4.061;  876.855
325.624;   54.599;   -4.031;  644.532
326.221;   51.979;   -7.481;  689.717
326.818;   52.450;   -5.281;  818.332
327.415;   55.425;   -7.460;  748.828
328.012;   53.763;   -5.510;  690.585
328.609;   52.914;   -7.880;  731.389
329.206;   51.432;   -8.331;  778.621
329.803;   52.546;   -5.121;  737.841
330.400;   53.259;   -4.510;  704.260
330.997;   55.430;   -6.441;  817.147
331.594;   54.084;   -8.831;  788.185
332.191;   59.113;   -7.621;  728.722
332.787;   61.722;   -4.591;  844.463
333.384;   61.377;   -7.412;  763.093
333.981;   59.547;   -8.293;  815.687
334.578;   63.080;   -7.052;  708.378
335.174;   65.997;   -3.102;  731.469
335.771;   64.441;   -5.943;  836.456
336.367;   61.455;   -7.393;  710.631
336.964;   65.668;   -4.063;  793.266
337.561;   63.199;   -3.813;  731.112
338.157;   57.770;   -4.654;  911.916
338.754;   55.628;   -7.934;  796.589
339.350;   55.324;   -4.414;  722.493
339.946;   57.058;   -4.664;  773.135
340.543;   48.522;   -6.375;  846.136
341.139;   42.871;   -9.815;  720.836
341.735;   41.407;   -4.526;  772.593
342.332;   40.064;   -4.895;  691.472
342.928;   40.190;   -4.295;  795.394
343.524;   34.569;   -5.476;  761.684
344.120;   31.073;   -5.856;  738.562
344.716;   33.074;   -2.155;  723.717
345.313;   31.666;   -6.275;  795.342
345.909;   26.749;   -8.815;  627.336
346.505;   29.363;   -5.305;  740.247
347.101;   29.550;   -2.674;  827.864
347.697;   28.583;   -4.344;  785.398
348.293;   24.161;   -9.975;  627.244
348.889;   25.394;   -5.774;  745.914
349.485;   24.267;   -5.004;  688.205
350.081;   24.381;   -4.704;  772.592
350.676;   20.079;   -6.635;  691.606
351.272;   24.821;   -4.504;  809.530
351.868;   24.297;   -3.914;  780.497
352.464;   21.025;   -9.044;  723.932
353.059;   17.637;   -8.314;  646.017
353.655;   21.166;   -7.024;  777.063
354.251;   21.840;   -5.343;  759.845
354.846;   16.180;   -8.604;  740.646
355.442;   14.266;   -6.945;  753.071
356.038;   16.265;   -7.564;  751.708
356.633;   15.891;   -5.814;  728.594
357.229;   13.782;   -7.364;  724.757
357.824;   12.253;   -8.024;  703.600
358.420;   11.647;   -9.384;  679.726
359.015;   12.252;   -5.104;  695.357
359.610;   13.103;   -6.854;  763.920
360.206;    6.810;  -10.185;  603.240
360.801;   10.106;   -7.054;  646.503
361.396;   13.135;   -5.034;  725.975
361.992;    7.299;   -8.284;  668.220
362.587;    5.655;   -8.625;  670.160
363.182;    7.359;   -7.674;  689.631
363.777;    8.473;   -5.164;  738.242
364.372;    7.042;   -8.604;  737.314
364.967;    4.129;   -9.055;  680.744
365.563;    8.770;   -6.114;  815.567
366.158;    5.757;   -5.814;  685.161
366.753;    6.009;   -7.854;  649.263
367.348;    4.963;   -7.804;  746.056
367.942;    3.845;   -7.954;  697.298
368.537;    3.187;   -4.984;  754.245
369.132;    3.642;   -8.564;  703.428
369.727;   -0.223;   -8.855;  638.079
370.322;    1.687;   -6.245;  580.186
370.917;    1.325;   -6.425;  710.646
371.511;    3.124;   -6.294;  861.834
372.106;   -0.184;   -7.685;  776.964
372.701;   -2.330;   -7.335;  585.988
373.296;    2.766;   -4.564;  863.135
373.890;   -2.508;  -10.235;  647.840
374.485;   -4.272;   -7.885;  691.199
375.079;    0.278;   -7.324;  738.685
375.674;    1.084;   -3.494;  812.970
376.268;   -3.781;   -8.525;  691.759
376.863;   -9.659;  -10.086;  580.327
377.457;   -2.830;   -7.025;  662.490
378.052;   -4.207;   -3.585;  764.884
378.646;   -6.236;   -7.595;  741.167
379.240;   -5.679;   -8.335;  721.176
379.835;   -5.158;   -5.785;  636.978
380.429;   -6.482;   -4.335;  562.557
381.023;   -7.372;   -6.805;  779.205
381.617;   -9.530;   -9.195;  680.106
382.212;   -5.770;   -6.905;  685.303
382.806;   -5.229;   -3.745;  760.690
383.400;   -8.491;   -7.745;  672.281
383.994;  -10.197;   -9.765;  664.870
384.588;   -6.022;   -6.564;  697.701
385.182;   -5.348;   -5.344;  726.624
385.776;   -6.139;   -8.514;  706.875
386.370;   -9.544;   -9.555;  681.968
386.964;   -7.646;   -8.715;  684.155
387.558;   -6.519;   -6.174;  598.360
388.152;   -9.982;   -8.725;  681.959
388.745;   -8.611;   -7.965;  814.707
389.339;   -6.240;   -5.924;  747.642
389.933;   -5.948;   -5.524;  695.370
390.527;   -7.703;   -7.114;  859.029
391.120;  -12.859;  -10.725;  595.318
391.714;  -10.177;   -8.035;  711.633
392.308;   -6.628;   -3.574;  780.253
392.901;  -11.110;   -7.245;  642.460
393.495;  -12.355;   -9.285;  595.414
394.089;   -9.555;   -5.895;  760.452
394.682;  -10.225;   -4.295;  697.188
395.275;  -11.486;   -9.875;  719.927
395.869;  -12.237;   -8.485;  667.314
396.462;  -10.631;   -7.455;  616.609
397.056;   -7.396;   -5.424;  776.621
397.649;  -12.106;   -6.605;  731.575
398.242;   -9.637;   -8.224;  712.645
398.836;   -7.816;   -7.474;  766.408
399.429;   -9.046;   -7.094;  631.041
400.022;  -13.453;   -9.475;  665.902
400.615;  -10.991;   -7.145;  805.609
401.208;   -8.660;   -7.174;  691.451
401.802;  -10.753;   -5.515;  699.329
402.395;  -12.409;   -9.875;  683.502
402.988;  -14.039;   -8.845;  696.627
403.581;   -8.915;   -8.874;  646.878
404.174;   -7.073;   -5.324;  686.568
404.767;  -10.671;   -9.575;  638.583
405.360;  -12.805;  -10.965;  621.445
405.953;   -7.780;   -8.764;  759.034
406.545;   -7.317;   -7.514;  725.342
407.138;  -10.975;  -10.025;  618.350
407.731;   -9.787;  -10.034;  613.303
408.324;   -5.544;   -9.374;  660.554
408.917;   -6.727;   -6.534;  681.864
409.509;   -8.530;   -8.004;  740.396
410.102;  -10.206;   -9.875;  643.948
410.695;   -4.146;   -8.604;  665.758
411.287;   -5.735;   -6.794;  599.821
411.880;   -6.757;   -9.334;  585.421
412.472;   -9.586;  -10.254;  613.092
413.065;   -6.983;   -6.714;  629.408
413.657;   -3.898;   -7.234;  576.678
414.250;   -4.742;  -10.544;  646.681
414.842;   -6.066;   -9.744;  676.353
415.434;   -3.896;   -6.994;  570.463
416.027;   -0.100;   -5.893;  652.196
416.619;   -1.922;   -7.264;  713.400
417.211;   -2.481;  -10.374;  599.352
417.804;    1.557;   -7.993;  628.499
418.396;   -2.538;   -7.234;  607.643
418.988;   -0.812;   -9.443;  659.238
419.580;   -3.682;  -10.724;  568.276
420.172;   -1.545;  -10.323;  536.196
420.764;    2.835;   -8.793;  672.482
421.356;    1.377;  -11.143;  636.898
421.948;    0.384;   -8.293;  677.661
422.540;    5.829;   -7.893;  680.027
423.132;    5.162;   -7.082;  600.641
423.724;    1.266;   -8.653;  561.267
424.316;    3.012;  -10.213;  621.345
424.908;    7.280;   -9.762;  591.517
425.500;    8.122;   -5.572;  647.978
426.092;    7.955;   -8.422;  648.268
426.683;    6.732;   -9.283;  684.836
427.275;   10.167;   -7.852;  641.471
427.867;   11.555;   -5.272;  668.948
428.458;   11.864;   -7.682;  732.344
429.050;   10.754;  -10.612;  680.749
429.642;   13.368;   -9.882;  743.124
430.233;   12.884;   -6.962;  569.356
430.825;   14.545;   -6.842;  724.809
431.416;   11.925;   -9.672;  698.241
432.008;   15.591;   -6.552;  651.723
432.599;   16.456;   -6.891;  656.073
433.190;   13.193;  -10.912;  637.670
433.782;   12.285;  -11.172;  590.395
434.373;   20.358;   -6.061;  884.765
434.964;   19.036;   -8.251;  602.920
435.556;   16.408;   -9.722;  634.537
436.147;   19.801;   -9.082;  758.490
436.738;   20.056;   -8.041;  701.099
437.329;   23.988;   -7.341;  721.723
437.920;   17.153;   -8.162;  666.688
438.511;   17.511;  -11.802;  564.526
439.103;   24.470;  -10.191;  623.998
439.694;   26.023;   -7.601;  681.583
440.285;   26.450;   -8.541;  764.432
440.876;   24.895;   -9.751;  845.738
441.466;   24.943;   -9.401;  575.162
442.057;   30.212;   -7.760;  665.814
442.648;   28.788;   -9.971;  746.255
443.239;   26.997;  -11.001;  620.477
443.830;   32.376;   -7.990;  704.958
444.421;   34.497;   -7.910;  655.474
445.011;   30.321;   -8.131;  693.619
445.602;   30.246;   -7.111;  743.126
446.193;   32.578;  -10.920;  488.117
446.783;   36.692;   -6.500;  640.397
447.374;   31.981;   -8.671;  692.759
447.964;   32.119;  -10.781;  713.770
448.555;   41.610;   -9.650;  822.742
449.145;   37.615;   -8.660;  662.853
449.736;   38.282;   -8.990;  803.179
450.326;   38.107;   -9.500;  713.626
450.917;   43.357;   -8.680;  675.324
451.507;   42.068;   -7.520;  600.661
452.097;   43.551;   -8.590;  746.267
452.688;   44.040;  -11.340;  742.160
453.278;   44.520;  -10.100;  566.840
453.868;   48.634;   -6.019;  793.550
454.458;   46.423;   -9.440;  651.141
455.048;   46.928;  -10.560;  711.783
455.639;   48.366;  -11.799;  567.096
456.229;   52.628;   -6.899;  710.694
456.819;   54.215;   -7.389;  751.158
457.409;   53.607;  -11.119;  773.993
457.999;   56.856;   -9.289;  737.505
458.589;   56.390;   -6.139;  686.606
459.179;   56.606;   -8.729;  717.658
459.769;   54.327;   -9.789;  627.099
460.358;   60.092;  -10.259;  797.262
460.948;   59.624;   -7.299;  689.503
461.538;   60.908;  -10.289;  660.677
462.128;   59.035;  -11.269;  664.934
462.717;   66.543;   -9.368;  710.326
463.307;   69.846;   -7.908;  705.846
463.897;   65.031;   -9.599;  656.942
464.486;   64.372;   -9.769;  837.128
465.076;   69.757;   -8.048;  733.776
465.666;   72.292;   -9.358;  652.900
466.255;   70.219;   -7.919;  785.651
466.845;   69.537;  -11.689;  666.749
467.434;   72.236;   -7.818;  725.873
468.023;   73.816;   -7.678;  658.357
468.613;   71.404;  -10.939;  713.946
469.202;   75.658;  -10.118;  646.507
469.791;   79.935;   -9.108;  737.811
470.381;   81.833;   -6.058;  742.813
470.970;   81.315;  -10.428;  711.099
471.559;   81.579;  -10.268;  733.291
472.148;   84.926;   -8.448;  675.737
472.738;   87.700;   -6.917;  765.466
473.327;   87.070;  -11.978;  637.529
473.916;   86.552;  -11.888;  737.446
474.505;   91.280;   -9.437;  751.703
475.094;   94.321;   -6.747;  806.570
475.683;   93.387;   -9.367;  797.699
476.272;   94.414;  -12.637;  730.632
476.861;   97.834;  -10.027;  706.754
477.449;  104.600;   -8.716;  728.487
478.038;   98.286;   -9.577;  692.513
478.627;   99.353;   -9.718;  714.852
479.216;  107.411;   -8.947;  769.441
479.805;  109.712;   -6.256;  783.375
480.393;  108.966;   -7.937; 1008.945
480.982;  108.095;   -7.717;  874.501
481.571;  115.324;   -9.266;  858.333
482.159;  115.788;   -7.636;  705.386
482.748;  115.277;   -9.667;  821.385
483.336;  119.709;  -10.376;  858.209
483.925;  121.517;   -7.147;  774.373
484.513;  128.196;   -7.996;  758.962
485.102;  125.820;  -10.027;  810.965
485.690;  133.521;  -10.446; 1011.050
486.278;  135.718;   -8.446;  979.329
486.867;  136.917;   -6.356;  809.662
487.455;  139.758;   -9.136;  898.229
488.043;  140.758;  -10.646;  748.361
488.631;  149.963;   -7.456; 1005.079
489.220;  154.442;   -6.636;  908.626
489.808;  156.027;  -11.036;  741.415
490.396;  164.745;  -10.246;  914.645
490.984;  172.266;   -8.556;  830.161
491.572;  182.866;   -5.886;  940.315
492.160;  190.589;   -9.486;  919.081
492.748;  205.845;  -10.976;  884.341
493.336;  233.438;   -8.776; 1019.693
493.924;  263.869;   -5.465;  958.077
494.512;  302.539;   -9.986; 1066.638
495.100;  350.074;  -10.636; 1103.280
495.687;  415.430;  -10.885; 1206.373
496.275;  487.131;   -8.126; 1150.796
496.863;  559.402;  -10.586; 1281.171
497.451;  674.187;  -11.926; 1386.805
498.038;  844.522;  -10.885; 1556.729
498.626;  994.015;   -6.315; 1741.407
499.214; 1167.145;   -7.326; 2016.609
499.801; 1400.868;  -11.906; 2220.633
500.389; 1698.149;  -10.466; 2312.494
500.976; 2107.975;   -5.236; 2744.849
501.564; 2592.962;   -8.936; 3148.565
502.151; 3027.177;  -13.176; 3515.999
502.738; 3583.836;  -10.646; 3971.274
503.326; 4034.379;   -9.525; 4403.796
503.913; 4547.618;  -10.856; 5161.749
504.500; 4917.505;  -11.586; 5986.420
505.088; 5370.609;  -10.336; 6381.201
505.675; 6008.257;   -6.355; 6925.547
506.262; 6690.420;   -9.046; 7619.060
506.849; 7498.538;  -10.416; 8733.969
507.436; 8037.433;  -10.305; 9790.121
508.023; 8456.315;   -5.496; 9985.472
508.610; 8783.298;   -7.856;10434.618
509.197; 9657.874;  -10.097;11198.435
509.784;11424.276;  -10.886;12391.194
510.371;12782.547;   -9.315;13603.713
510.958;13620.161;   -9.936;14426.586
511.545;14193.802;   -9.326;15243.775
512.132;14584.300;  -10.075;15945.876
512.719;15138.517;   -7.796;16340.369
513.305;16780.107;  -10.606;18011.766
513.892;17809.025;  -11.486;19754.971
514.479;19242.227;   -9.126;20967.805
515.066;20488.486;   -6.026;22299.793
515.652;21588.498;   -8.466;22908.660
516.239;23251.896;  -10.886;23798.875
516.825;23770.471;  -11.496;25567.275
517.412;24243.066;   -5.796;28154.959
517.998;25305.611;  -10.506;28344.111
518.585;25807.027;  -10.076;27134.219
519.171;25866.939;   -8.315;27268.576
519.758;27519.516;   -8.596;28964.129
520.344;28906.307;   -8.466;30664.494
520.930;28815.285;  -11.006;32550.605
521.516;30609.039;  -10.495;35422.895
522.103;33489.105;   -5.526;38280.004
522.689;34588.820;   -8.746;37835.117
523.275;33446.168;  -11.376;37288.613
523.861;33620.699;  -11.156;37281.395
524.447;35565.238;   -8.135;37846.949
525.033;35744.848;   -7.896;38321.949
525.619;36108.625;  -12.476;38579.285
526.205;37045.844;   -9.516;40622.875
526.791;39653.820;   -6.926;42258.836
527.377;40134.441;   -8.346;42966.902
527.963;42024.324;   -8.717;42018.949
528.549;41489.551;  -11.016;42476.828
529.135;38959.438;   -8.536;41854.852
529.721;38094.605;   -9.666;41237.711
530.306;37627.168;  -10.066;41259.445
530.892;38079.180;  -11.356;41506.047
531.478;39076.324;   -6.596;43559.613
532.063;40896.273;   -8.836;47695.563
532.649;41568.695;  -10.047;50808.324
533.235;43612.828;   -9.746;51787.500
533.820;45121.680;   -6.566;52145.035
534.406;44995.641;  -10.817;51133.488
534.991;44055.301;   -9.416;49996.805
535.576;42727.992;   -9.036;48882.852
536.162;43568.383;   -6.156;46942.285
536.747;44368.258;  -11.607;45711.746
537.333;47243.371;  -11.787;48510.180
537.918;49832.961;  -12.437;50439.891
538.503;48495.121;   -7.196;50863.711
539.088;45886.273;  -10.556;50906.922
539.673;47660.055;   -8.767;52621.965
540.259;48231.039;  -10.026;52368.094
540.844;44672.516;   -7.416;50879.109
541.429;44726.285;   -9.467;52077.777
542.014;48307.020;   -9.527;52716.695
542.599;49155.965;   -9.946;52363.281
543.184;45577.398;   -7.927;53187.137
543.769;46052.000;   -9.297;54697.605
544.354;46571.145;  -10.127;53913.914
544.938;46264.176;   -9.267;49680.164
545.523;48558.055;   -6.506;47386.277
546.108;50262.188;   -9.787;49151.949
546.693;51794.168;  -11.587;51384.637
547.278;51589.746;  -10.986;51853.254
547.862;47915.102;   -8.206;51173.750
548.447;43583.641;  -10.067;51691.395
549.031;42936.762;   -9.637;52456.703
549.616;47520.523;   -9.926;52714.516
550.201;48051.402;   -6.347;52414.598
550.785;47519.980;   -7.917;52355.059
551.370;47110.906;  -10.867;54589.453
551.954;47847.430;   -9.047;58267.348
552.538;50014.242;   -7.827;59062.176
553.123;49134.879;  -10.287;58115.285
553.707;46724.426;  -12.178;56556.285
554.291;46554.242;   -8.717;56201.668
554.876;46241.637;   -7.457;55335.762
555.460;46788.023;  -10.387;54155.703
556.044;49433.520;   -9.618;53721.484
556.628;47420.574;  -11.567;53731.016
557.212;47309.488;   -8.097;54312.531
557.796;45996.664;  -11.077;53797.773
558.380;46442.484;  -11.108;56145.984
558.964;46419.184;   -9.057;57277.930
559.548;46081.898;   -6.977;56459.641
560.132;44191.234;  -11.457;54434.543
560.716;43409.730;  -11.378;54800.617
561.300;43418.254;   -9.577;57606.945
561.884;44765.309;   -7.127;58972.445
562.467;44368.621;   -7.118;57327.570
563.051;43767.215;  -13.358;54962.434
563.635;44154.285;  -10.178;52594.473
564.219;45621.133;   -7.837;50610.410
564.802;46376.367;  -11.398;49551.180
565.386;46321.543;  -12.788;48370.953
565.969;45800.434;   -9.077;48178.871
566.553;44959.363;   -6.207;49957.305
567.136;45080.961;   -8.568;50369.594
567.720;41514.203;  -11.868;49492.004
568.303;40165.645;   -8.268;50616.352
568.887;40003.219;   -8.698;50727.148
569.470;40277.855;   -6.808;51698.379
570.053;38623.180;  -13.188;52122.078
570.637;37325.039;  -12.037;52536.438
571.220;37100.063;   -8.577;51186.098
571.803;37700.285;   -8.498;51032.762
572.386;39687.449;  -10.498;49609.887
572.969;43063.297;   -9.388;48285.926
573.552;41777.035;   -8.338;47624.285
574.135;40992.074;   -8.518;45498.641
574.718;37974.465;  -13.628;41970.434
575.301;36664.973;  -10.893;41447.137
575.884;35355.477;   -8.158;40923.836
576.467;35598.789;  -10.328;45267.723
577.050;38452.707;  -13.058;48175.543
577.633;40254.188;   -9.458;47729.328
578.216;39006.293;   -8.928;47579.793
578.799;37994.020;   -9.358;47820.996
579.381;36591.266;  -11.388;48115.551
579.964;34770.516;  -11.718;47333.766
580.547;35840.648;   -8.588;46668.969
581.129;35995.742;   -8.859;44466.141
581.712;35759.695;  -10.729;44164.922
582.294;36349.613;  -11.118;46477.855
582.877;38007.969;   -5.218;48244.254
583.459;37016.613;   -8.679;47437.895
584.042;35081.059;  -10.709;46943.219
584.624;34848.102;  -11.669;46792.227
585.206;33770.684;   -8.218;46557.250
585.789;34437.809;  -10.569;45793.773
586.371;37559.484;  -11.859;43836.391
586.953;38041.168;  -10.719;42972.492
587.536;38405.875;   -7.198;42487.211
588.118;38574.816;   -8.720;42086.414
588.700;35468.027;  -10.439;43389.930
589.282;34483.293;   -9.198;43646.039
589.864;34802.934;   -9.199;43438.109
590.446;36363.047;  -11.319;43151.926
591.028;36227.789;  -11.159;42781.867
591.610;35354.816;  -11.779;42839.098
592.192;32115.301;   -7.668;42820.402
592.774;30461.924;  -11.949;40724.277
593.356;29680.432;  -12.129;39874.789
593.937;29942.627;  -10.669;39980.648
594.519;32139.836;   -6.509;42069.633
595.101;33715.074;  -10.849;42976.031
595.683;33883.055;  -11.679;44084.441
596.264;35017.410;   -9.049;43478.797
596.846;33898.582;   -8.849;43803.672
597.427;32627.211;   -9.570;42986.934
598.009;34388.648;  -12.620;42832.219
598.591;35200.219;  -10.039;42580.086
599.172;34974.895;  -10.369;43061.805
599.753;35249.664;   -9.140;41691.469
600.335;36213.406;  -11.430;40692.520
600.916;34195.801;   -9.939;39982.422
601.498;32766.053;   -8.479;40318.617
602.079;31741.375;  -10.920;40670.609
602.660;31159.531;  -11.480;41450.898
603.241;31252.813;  -11.699;41137.738
603.823;29746.525;   -9.579;38868.797
604.404;30480.732;  -10.620;38182.785
604.985;32065.830;  -10.450;38078.047
605.566;31219.898;   -9.129;38056.633
606.147;30908.568;   -7.510;37020.418
606.728;33574.668;  -10.660;37883.359
607.309;32869.184;  -11.740;38748.273
607.890;31892.883;   -9.759;38850.230
608.471;31346.738;   -8.250;37457.918
609.051;31267.344;   -9.240;36066.457
609.632;30030.678;  -12.120;35991.074
610.213;30455.037;   -9.110;37402.641
610.794;30953.469;   -8.030;38383.363
611.374;29544.398;   -8.110;40562.387
611.955;29203.746;  -13.560;38533.727
612.536;30859.316;  -11.400;36951.789
613.116;31179.676;   -8.070;37197.891
613.697;32064.127;  -10.830;38411.125
614.277;30369.162;  -11.641;38673.938
614.858;31079.162;  -13.310;37075.863
615.438;31452.119;   -7.460;35092.906
616.019;29168.504;   -7.601;33666.301
616.599;29343.557;  -12.020;34189.023
617.179;31173.902;  -11.780;36952.047
617.760;31434.426;   -8.570;39582.574
618.340;32734.236;  -11.471;38943.977
618.920;34229.371;  -11.170;37594.156
619.500;33539.465;  -11.071;37866.938
620.080;33210.172;   -7.750;37869.043
620.660;34043.402;  -12.711;36868.617
621.241;34596.262;  -10.211;36352.309
621.821;33737.004;  -10.961;35459.520
622.401;33571.832;   -7.720;35207.414
622.980;32749.820;   -8.981;35980.422
623.560;31221.207;   -9.331;37351.328
624.140;30571.996;   -9.850;34388.582
624.720;26717.973;   -7.451;32368.764
625.300;22724.844;   -9.070;32638.629
625.880;25300.424;  -12.601;34599.035
626.459;28835.275;  -11.751;36831.738
627.039;31463.787;   -9.281;38299.098
627.619;31336.859;   -8.801;38289.574
628.198;29785.557;  -12.071;37220.695
628.778;29878.023;   -9.461;37632.563
629.357;30914.912;   -8.491;38003.012
629.937;30500.863;   -9.721;38402.039
630.516;29407.904;   -9.951;37868.801
631.096;29565.037;  -11.731;35760.410
631.675;32499.254;   -8.572;35225.219
632.254;37566.461;  -11.282;35130.289
632.834;36760.055;  -13.322;35794.570
633.413;35613.020;  -10.301;35788.922
633.992;33221.332;   -8.582;34532.863
634.571;34421.195;   -8.352;33590.113
635.151;36249.852;  -11.912;34943.863
635.730;33983.430;  -10.511;35352.523
636.309;30848.166;   -7.731;35366.605
636.888;28280.350;   -9.952;36165.637
637.467;28435.648;  -11.672;37515.902
638.046;30532.959;   -8.901;39288.695
638.625;33389.465;   -7.912;38279.699
639.204;33314.250;  -10.022;37741.598
639.782;32046.676;  -12.252;38364.551
640.361;28862.719;  -10.041;36740.621
640.940;26138.428;  -11.161;34950.082
641.519;25542.352;   -9.701;34137.398
642.097;27611.354;  -11.271;35654.258
642.676;30994.490;   -8.651;35637.957
643.255;32785.422;   -8.711;36567.074
643.833;31492.301;   -9.581;37809.434
644.412;31763.932;  -13.711;37337.293
644.990;31580.594;  -11.811;37018.531
645.569;31547.768;   -9.411;36518.469
646.147;30149.117;  -10.291;36186.430
646.726;29213.920;  -12.401;36267.688
647.304;30487.861;  -10.411;36647.625
647.882;31610.688;   -9.651;39286.742
648.461;33201.047;   -9.631;39157.703
649.039;33197.535;  -11.881;35412.883
649.617;33067.324;   -9.661;34744.918
650.195;32708.910;   -9.301;35403.098
650.773;31745.863;  -10.511;35053.797
651.352;29697.299;  -11.521;33756.816
651.930;26590.809;  -12.211;31868.773
652.508;23595.408;   -9.171;33121.551
653.086;26884.842;   -9.371;33564.793
653.663;31097.197;  -13.161;34054.668
654.241;30041.723;  -13.031;35693.309
654.819;30660.977;   -9.371;36422.906
655.397;29638.805;  -10.511;38213.484
655.975;29447.672;  -10.371;39507.625
656.553;30206.447;  -10.051;39498.223
657.130;29426.445;  -10.061;40395.480
657.708;28994.236;   -9.561;39242.020
658.286;28819.764;  -11.511;38920.020
658.863;29339.396;  -10.261;40202.898
659.441;31105.105;   -7.531;39677.938
660.018;30543.752;   -9.501;40413.355
660.596;30061.082;  -13.301;39931.414
661.173;32009.557;  -11.211;39604.531
661.750;32216.824;   -9.951;39700.070
662.328;31014.498;   -9.390;39292.809
662.905;30264.340;  -11.330;38235.648
663.482;26108.063;   -9.050;36212.305
664.060;24047.672;   -8.240;35944.945
664.637;26495.559;  -10.050;35170.785
665.214;28076.807;  -11.760;34197.523
665.791;30140.408;  -10.530;34549.520
666.368;29717.594;   -9.690;35118.578
666.945;30180.307;   -9.320;36019.418
667.522;30993.965;  -11.860;36048.438
668.099;31114.811;  -10.770;36243.914
668.676;30868.809;   -6.260;35958.875
669.253;29645.393;   -7.000;37384.730
669.830;29348.387;  -10.190;36779.629
670.407;28741.332;   -9.550;35231.289
670.984;29834.324;   -9.260;35544.270
671.560;29706.631;   -9.280;35466.867
672.137;28073.814;  -11.810;34280.863
672.714;29013.871;  -11.490;34632.863
673.290;29475.209;   -7.740;35135.422
673.867;29232.076;  -10.660;36114.480
674.443;29872.521;  -12.230;36152.859
675.020;28215.684;  -10.450;35327.238
675.596;29441.914;   -9.260;35795.176
676.173;30367.354;  -10.780;35430.355
676.749;29324.939;  -13.690;33549.516
677.326;28968.070;  -11.980;32210.012
677.902;29207.598;   -8.630;32068.871
678.478;28478.803;  -10.730;32583.891
679.054;28664.813;  -10.520;32088.928
679.631;30442.461;  -11.920;30978.848
680.207;30940.621;   -7.490;33160.887
680.783;31786.482;   -9.860;35570.363
681.359;30835.338;  -13.380;36125.184
681.935;29370.826;  -12.480;35240.922
682.511;27928.387;   -7.900;34429.961
683.087;27692.076;   -7.710;34463.680
683.663;28103.156;  -11.480;34648.898
684.239;28403.434;  -14.090;34546.457
684.815;28525.305;   -7.560;35586.375
685.390;28645.197;   -9.910;35821.895
685.966;28952.807;  -11.159;35085.871
686.542;31313.039;  -11.169;34198.230
687.118;33458.418;   -5.959;32847.707
687.693;33266.332;  -10.329;32794.027
688.269;32286.730;  -12.059;33072.367
688.844;29663.400;  -10.909;33141.664
689.420;28404.443;   -8.019;33965.742
689.995;27382.996;   -8.399;34655.523
690.571;26630.652;  -10.949;33576.742
691.146;26996.143;   -9.619;32657.219
691.722;26024.756;   -8.999;32526.979
692.297;25031.385;  -11.589;33014.617
692.872;26618.145;  -11.739;34012.254
693.448;26999.186;  -11.059;34237.434
694.023;25629.734;  -10.139;34142.672
694.598;27340.443;   -9.029;34132.031
695.173;27546.838;  -13.319;34205.250
695.748;27021.279;  -10.169;32882.488
696.323;26869.459;   -8.339;32864.906
696.898;26280.057;   -8.169;33170.004
697.473;26179.914;  -12.309;32432.984
698.048;26462.795;  -10.989;31649.303
698.623;26979.189;   -9.329;30778.141
699.198;28213.193;   -9.849;31140.119
699.773;29240.586;  -12.329;31764.299
700.348;28549.729;  -10.389;31780.816
700.922;29134.865;   -9.269;32046.375
701.497;29584.047;   -9.329;32603.574
702.072;29467.564;  -10.789;34799.871
702.646;29229.020;  -10.839;35793.172
703.221;28412.705;   -9.099;35201.590
703.795;30062.590;  -10.939;34764.527
704.370;29437.268;  -12.859;34307.367
704.944;29105.422;  -11.559;33509.887
705.519;30409.953;   -7.939;31388.584
706.093;31624.732;  -10.499;31340.104
706.668;31530.156;  -11.289;32630.281
707.242;29857.342;  -11.509;32728.779
707.816;28697.443;   -9.639;32947.238
708.390;27079.879;  -11.429;33277.855
708.965;27410.441;  -11.869;33834.336
709.539;28061.316;  -11.689;33709.273
710.113;28465.902;  -10.478;33044.313
710.687;27709.992;  -10.228;31953.992
711.261;25240.633;  -13.698;30505.949
711.835;25051.051;  -13.378;30262.369
712.409;26157.432;   -9.698;31254.447
712.983;27436.262;  -11.898;32754.986
713.557;28625.779;  -15.138;34018.824
714.131;28572.393;  -14.098;34579.625
714.704;27306.631;   -9.958;33890.262
715.278;24727.947;  -10.028;33531.102
715.852;24973.748;  -11.148;33601.660
716.425;26575.953;   -9.068;33515.117
716.999;27002.238;  -10.038;33185.555
717.573;27391.748;   -9.798;33905.996
718.146;28288.945;  -12.378;35199.293
718.720;28341.879;  -11.918;35060.551
719.293;28547.592;   -8.088;34973.230
719.867;31106.355;  -10.888;36394.449
720.440;31391.051;  -11.938;36663.008
721.013;30492.178;  -12.818;35102.426
721.587;29136.482;  -10.298;33985.266
722.160;26636.039;  -10.048;33524.965
722.733;25305.379;  -12.108;32987.043
723.306;26077.896;  -10.818;33066.301
723.880;27589.191;   -8.908;33399.500
724.453;29593.412;   -9.878;33468.297
725.026;28867.387;  -11.188;33816.637
725.599;25739.770;  -11.678;32797.996
726.172;25778.604;   -9.618;33187.434
726.745;27398.576;   -8.258;35136.613
727.318;29163.223;  -12.978;35751.730
727.891;30063.428;  -12.148;35890.430
728.463;29973.064;   -8.968;34822.090
729.036;28552.520;  -10.188;32895.086
729.609;28567.717;  -11.788;31823.225
730.182;25040.693;  -11.788;31445.283
730.754;22822.033;  -10.268;32373.223
731.327;23279.539;   -9.998;33676.820
731.900;23041.131;  -12.228;33417.000
732.472;24216.281;  -13.848;31978.498
733.045;27031.689;   -8.698;30368.777
733.617;27274.826;  -10.607;30574.215
734.190;26585.094;  -11.507;31280.975
734.762;23825.271;  -13.647;31674.412
735.334;22407.502;   -9.767;31247.291
735.907;22901.104;   -9.897;29876.211
736.479;22748.518;  -11.637;29808.488
737.051;22173.529;   -9.567;30233.547
737.623;23135.672;   -8.187;31469.086
738.195;24001.924;  -11.187;31784.225
738.768;25602.676;  -12.337;32120.523
739.340;25678.121;  -12.227;32094.342
739.912;24288.297;  -11.057;31312.680
740.484;23635.135;  -10.207;31946.238
741.056;22715.025;  -10.047;32984.059
741.628;23832.891;  -13.627;33897.715
742.199;26107.428;   -7.177;33213.016
742.771;25216.135;  -10.797;31369.113
743.343;23124.955;  -11.997;31865.473
743.915;21600.295;  -12.867;32388.631
744.487;21383.576;   -7.617;31079.568
745.058;21953.211;   -9.557;30570.107
745.630;23226.088;   -9.877;29970.127
746.201;24752.861;  -14.177;29186.766
746.773;25128.580;   -9.237;28805.723
747.344;24556.604;   -9.847;29591.223
747.916;22687.631;  -11.657;31412.201
748.487;21802.771;  -10.587;32194.898
749.059;23078.410;   -8.707;32533.719
749.630;24284.660;  -10.537;32158.518
750.201;23656.082;  -11.687;30855.395
750.773;22572.848;  -11.647;28622.555
751.344;22649.609;   -7.147;28405.732
751.915;23427.408;   -9.757;28461.551
752.486;22503.352;  -12.427;27842.850
753.057;20236.570;  -12.227;27845.008
753.628;19200.623;  -10.417;27728.107
754.199;19736.199;  -11.767;27381.086
754.770;20683.100;  -11.187;25882.203
755.341;20951.334;  -10.507;25886.184
755.912;21010.701;   -9.387;26050.861
756.483;20538.693;  -10.647;26798.779
757.054;18887.984;  -11.837;27048.238
757.625;17698.256;  -12.716;26294.838
758.195;17445.928;   -9.666;26142.076
758.766;17151.838;   -8.656;26392.234
759.337;18067.881;  -12.856;26334.594
759.907;19587.725;  -13.366;27579.652
760.478;20636.162;   -8.576;28352.770
761.048;20810.689;  -10.526;27325.088
761.619;20287.541;  -11.116;26460.428
762.189;19711.180;  -12.136;26029.826
762.760;19908.580;   -9.456;26430.145
763.330;20781.463;   -7.136;26670.902
763.900;20102.994;  -11.786;26603.021
764.471;17325.236;  -11.546;25542.740
765.041;16245.401;   -8.096;24358.459
765.611;16997.480;   -8.876;23991.297
766.181;17629.779;  -12.196;24470.236
766.751;18362.406;  -11.636;24845.975
767.321;18197.936;  -10.156;24533.633
767.891;16010.592;  -11.766;24916.492
768.461;15181.884;  -14.936;24776.771
769.031;15529.301;  -12.356;24757.988
769.601;17253.455;   -7.526;24181.088
770.171;17482.689;  -10.766;23670.387
770.741;16801.938;  -13.176;22960.045
771.311;16804.285;  -10.616;22917.523
771.880;16972.236;   -9.576;23562.941
772.450;16604.248;  -10.336;24216.500
773.020;16623.697;  -13.516;24140.398
773.589;16298.922;  -13.466;24414.857
774.159;16033.918;   -8.686;23858.717
774.729;15694.408;   -9.476;22942.135
775.298;14985.574;  -13.666;22324.033
775.867;14443.621;  -11.716;21140.313
776.437;14600.476;   -9.906;20838.092
777.006;14485.243;  -12.166;20599.510
777.576;14441.259;  -12.356;20508.809
778.145;14599.028;  -11.646;20732.947
778.714;14396.723;   -8.226;21062.465
779.283;13361.937;   -9.556;20949.664
779.853;13055.055;  -14.116;20508.623
780.422;13491.532;  -11.506;20649.082
780.991;12954.688;   -9.556;21527.520
781.560;12072.647;   -9.095;22632.658
782.129;12005.521;  -12.135;23048.277
782.698;11741.638;  -10.865;23438.555
783.267;11336.561;   -9.335;23267.734
783.836;11293.465;  -11.045;22415.133
784.404;12021.917;  -13.865;20443.152
784.973;12081.875;  -13.095;19699.150
785.542;11833.007;  -11.575;19763.828
786.111;11780.738;   -9.705;20341.408
786.679;11646.190;  -12.105;20207.967
787.248;11635.957;  -12.455;19516.465
787.817;11262.020;  -11.535;18900.363
788.385;10681.379;   -9.765;17879.121
788.954; 9901.901;  -14.005;17658.301
789.522; 9575.620;  -11.955;17788.879
790.090;10213.029;  -10.135;18118.277
790.659;10660.151;  -10.975;18338.736
791.227;10144.678;  -13.375;18508.615
791.795;10491.241;  -12.375;17898.254
792.364;10840.174;  -10.725;17295.133
792.932;11062.933;   -9.715;16822.051
793.500;11113.309;  -12.675;17040.148
794.068;11292.585;  -13.495;17179.787
794.636;11507.818;  -10.885;16664.246
795.204;11022.545;  -11.045;16524.545
795.772;10745.138;  -13.175;17274.564
796.340;10225.540;  -12.445;17891.002
796.908;10052.903;   -9.735;17648.561
797.476; 9974.850;   -9.815;17064.080
798.044; 9513.997;  -13.985;16672.777
798.612; 8837.993;  -13.115;17023.996
799.180; 8622.466;  -10.185;16561.615
799.747; 8590.002;   -9.055;15962.773
800.315; 8347.093;  -12.385;15296.992
800.883; 8075.189;  -15.035;14801.771
801.450; 8009.299;  -10.365;14534.430
802.018; 8001.663;   -9.855;14173.248
802.585; 8006.989;  -11.905;14029.547
803.153; 8060.763;  -11.585;13836.846
803.720; 7953.940;   -9.095;13567.324
804.287; 7555.923;   -9.135;13360.622
804.855; 7140.090;  -11.604;13681.981
805.422; 7025.868;  -11.794;13536.560
805.989; 6903.055;  -10.734;13355.958
806.556; 7012.523;  -10.444;13747.896
807.124; 7407.748;  -12.764;13987.376
807.691; 7477.864;  -12.964;14038.674
808.258; 7353.250;  -11.134;14120.152
808.825; 7087.876;   -9.854;13860.111
809.392; 7131.025;  -10.504;13268.790
809.959; 6738.084;  -13.054;12680.389
810.526; 6349.442;   -8.294;12427.308
811.093; 6313.063;   -8.394;12030.105
811.659; 6863.106;  -12.304;11653.664
812.226; 7309.622;  -13.944;11637.183
812.793; 7060.125;  -10.484;11611.521
813.360; 6501.887;  -10.144;11885.181
813.926; 6029.683;  -11.684;12770.539
814.493; 5770.605;  -13.644;12677.638
815.060; 5394.831;   -9.724;11974.336
815.626; 5354.167;   -9.854;11594.715
816.193; 5762.594;  -13.254;11579.474
816.759; 5929.314;  -13.204;11666.972
817.325; 6145.910;   -9.434;11325.530
817.892; 6476.951;  -10.134;11105.369
818.458; 6849.896;  -13.474;10843.928
819.024; 6579.207;  -11.854;10714.406
819.591; 6307.729;  -10.244;10469.165
820.157; 6094.048;  -10.704;10235.523
820.723; 5738.264;  -12.324;10847.563
821.289; 5588.792;   -9.444;11040.980
821.855; 5600.967;   -8.374;10357.100
822.421; 5718.785;  -10.234; 9978.918
822.987; 5636.061;  -13.294; 9754.177
823.553; 5266.871;  -10.884;10065.755
824.119; 5128.732;   -8.884;10036.294
824.685; 5276.169;   -6.784;10029.192
825.251; 5338.636;  -12.004;10199.230
825.816; 5275.500;  -11.474; 9820.189
826.382; 5150.123;   -9.174; 9297.248
826.948; 5384.409;   -9.214; 9381.347
827.513; 5819.820;  -10.774; 9450.726
828.079; 5706.701;  -11.924; 9472.444
828.645; 5171.430;  -10.543; 9292.643
829.210; 5065.033;  -10.533; 9065.341
829.776; 5024.813;  -10.753; 9132.620
830.341; 4947.284;  -10.173; 9092.878
830.906; 5137.169;  -10.743; 9078.557
831.472; 5512.142;  -11.113; 8534.535
832.037; 5404.465;  -10.603; 8677.874
832.602; 4922.084;  -13.323; 8628.692
833.167; 4514.176;  -10.823; 8879.031
833.733; 4408.865;  -10.113; 9189.790
834.298; 4513.689;  -13.583; 9052.608
834.863; 4509.327;  -12.703; 8895.087
835.428; 4540.033;  -10.523; 8824.266
835.993; 4636.427;   -6.963; 8845.385
836.558; 4570.306;  -10.763; 8888.563
837.123; 4589.347;   -9.903; 8966.582
837.688; 4710.669;   -9.913; 8617.860
838.253; 4880.433;  -10.283; 8590.699
838.817; 5054.702;  -12.963; 8443.797
839.382; 5035.257;  -14.243; 8799.356
839.947; 4769.527;  -10.733; 8810.595
840.511; 4463.168;   -9.383; 8796.394
841.076; 4074.204;  -12.563; 8347.231
841.641; 4050.875;  -12.953; 8224.330
842.205; 4077.752;   -7.043; 8223.349
842.770; 4184.886;   -8.163; 8622.107
843.334; 4520.375;  -12.503; 8410.386
843.898; 4547.637;  -11.693; 8337.465
844.463; 4502.381;  -10.203; 8506.283
845.027; 4213.072;   -9.533; 8280.962
845.591; 4011.157;  -13.443; 8231.141
846.156; 4044.003;  -13.143; 7969.179
846.720; 3935.731;   -9.433; 7768.278
847.284; 3846.279;  -11.033; 7630.957
847.848; 3640.546;  -10.403; 7472.395
848.412; 3471.277;  -11.553; 7437.394
848.976; 3499.705;   -8.393; 7674.592
849.540; 3446.932;   -8.713; 7836.011
850.104; 3494.723;  -12.463; 7913.669
850.668; 3767.178;  -12.973; 7694.508
851.232; 3852.946;  -10.793; 7756.887
851.796; 3689.708;  -10.662; 7926.545
852.359; 3374.248;  -13.082; 7827.844
852.923; 3235.230;  -12.192; 7641.163
853.487; 3118.354;  -11.912; 7342.501
854.050; 3070.842;  -10.892; 7042.820
854.614; 3207.632;  -13.992; 7151.338
855.177; 3329.763;  -11.732; 7105.077
855.741; 3355.379;   -8.962; 6989.675
856.304; 3193.606;   -9.442; 6596.634
856.868; 3137.391;  -14.192; 6356.272
857.431; 3269.313;  -12.702; 6468.571
857.995; 3372.244;   -9.942; 6373.210
858.558; 3418.091;   -9.112; 6324.448
859.121; 3170.061;  -12.932; 6408.327
859.684; 3012.930;  -13.442; 6347.886
860.247; 3089.800;  -10.632; 6321.264
860.810; 3048.499;  -11.272; 6301.903
861.374; 2758.591;   -9.832; 6607.881
861.937; 2474.244;  -11.762; 6408.200
862.500; 2413.346;   -9.722; 6572.639
863.062; 2512.604;  -10.512; 6387.297
863.625; 2622.395;  -11.232; 6190.836
864.188; 2746.910;  -14.112; 5807.254
864.751; 2838.462;  -11.302; 5682.413
865.314; 2769.347;  -10.112; 5547.492
865.876; 2625.183;  -12.182; 5500.150
866.439; 2636.813;  -10.722; 5415.909
867.002; 2559.868;   -9.252; 5501.567
867.564; 2339.195;   -9.572; 5413.946
868.127; 2143.433;  -13.142; 5160.325
868.689; 2095.307;  -12.902; 5133.183
869.252; 2067.209;   -9.732; 5252.382
869.814; 1983.950;   -9.432; 5297.141
870.377; 1976.517;  -11.552; 5390.919
870.939; 2051.543;   -9.052; 5599.898
871.501; 2117.041;  -10.982; 5248.336
872.063; 2131.130;  -12.292; 4854.235
872.626; 2099.893;  -14.912; 4817.074
873.188; 2064.618;  -13.112; 4987.732
873.750; 2002.990;  -13.442; 4868.651
874.312; 1920.073;   -9.402; 4779.330
874.874; 1863.389;  -11.062; 4866.348
875.436; 1823.823;  -13.931; 4718.887
875.998; 1826.378;   -9.561; 4660.005
876.560; 1824.446;  -11.321; 4462.964
877.122; 1766.201;  -12.221; 4145.042
877.683; 1677.008;  -12.191; 4056.481
878.245; 1612.938;  -12.101; 3950.740
878.807; 1628.762;   -8.971; 4058.958
879.369; 1618.733;  -12.071; 3954.677
879.930; 1523.542;  -14.621; 3941.495
880.492; 1483.445;  -10.311; 4067.014
881.053; 1465.974;  -10.901; 3859.633
881.615; 1369.746;  -14.411; 3776.071
882.176; 1306.065;  -13.761; 3734.750
882.738; 1301.728;   -9.181; 3678.489
883.299; 1303.061;  -11.791; 3405.407
883.860; 1306.134;  -13.121; 3351.106
884.422; 1299.214;  -11.211; 3394.044
884.983; 1254.190;  -10.091; 3166.443
885.544; 1160.576;   -8.461; 3189.802
886.105; 1086.275;  -12.361; 3160.360
886.666; 1044.216;  -14.141; 3093.059
887.227;  999.823;  -11.361; 2941.957
887.788;  920.441;  -11.401; 2974.836
888.349;  848.364;  -13.791; 2721.214
888.910;  853.130;  -13.191; 2696.493
889.471;  865.267;   -9.881; 2560.172
890.032;  842.378;   -9.881; 2558.190
890.593;  803.637;  -10.371; 2567.669
891.153;  780.634;  -13.301; 2460.307
891.714;  741.996;  -11.431; 2372.046
892.275;  711.372;  -11.291; 2309.505
892.835;  676.501;  -11.471; 2382.543
893.396;  624.037;  -11.541; 2295.502
893.956;  571.933;  -11.181; 2162.420
894.517;  532.737;  -11.741; 2125.439
895.077;  526.208;  -11.671; 2086.978
895.638;  529.800;  -11.311; 2126.316
896.198;  504.810;   -9.831; 1838.275
896.758;  456.138;   -8.421; 1892.813
897.319;  421.727;  -12.351; 1792.232
897.879;  411.198;  -13.511; 1762.751
898.439;  387.720;  -12.001; 1661.149
898.999;  356.589;  -10.180; 1781.468
899.559;  344.386;  -12.030; 1703.347
900.119;  341.276;  -15.710; 1537.525
900.679;  339.139;   -8.900; 1638.384
901.239;  326.926;   -8.340; 1527.902
901.799;  315.918;  -13.910; 1456.441
902.359;  307.936;  -13.460; 1357.140
902.919;  299.303;  -11.490; 1331.118
903.479;  282.116;  -12.110; 1317.257
904.038;  258.423;  -11.720; 1262.595
904.598;  244.134;  -13.610; 1152.034
905.158;  238.373;  -11.040; 1240.893
905.717;  230.998;  -10.900; 1233.691
906.277;  219.128;  -15.080; 1217.330
906.836;  211.054;  -13.380; 1222.408
907.396;  203.947;  -10.780; 1193.047
907.955;  196.001;   -8.500; 1182.526
908.515;  189.588;  -12.760; 1099.364
909.074;  184.599;  -11.900; 1092.863
909.633;  177.768;   -8.950; 1069.121
910.192;  173.674;   -8.770; 1196.460
910.752;  168.905;  -12.390; 1029.960
911.311;  165.696;  -13.680; 1009.780
911.870;  163.019;  -12.370;  971.460
912.429;  162.160;  -10.900; 1094.080
912.988;  160.098;  -11.690; 1081.060
913.547;  155.904;  -13.240;  940.380
914.106;  151.726;  -11.990;  999.420
914.665;  147.606;   -9.990;  984.020
915.224;  146.599;  -12.880; 1035.760
915.782;  146.131;  -12.350;  922.560
916.341;  146.971;   -9.110; 1049.840
916.900;  142.210;   -9.270;  925.260
917.458;  140.987;  -13.240;  884.220
918.017;  140.603;  -13.550;  942.600
918.576;  140.500;  -12.320;  904.440
919.134;  137.225;  -11.490;  837.980
919.693;  134.858;  -13.670;  893.060
920.251;  133.553;  -15.470;  876.500
920.809;  132.223;  -11.290;  839.580
921.368;  131.804;  -10.210;  885.360
921.926;  130.762;  -12.140;  842.940
922.484;  129.972;  -13.080;  903.360
923.042;  130.026;  -11.720;  880.340
923.601;  131.497;   -7.480;  998.680
924.159;  130.538;  -11.570;  935.560
924.717;  128.116;  -13.840;  841.080
925.275;  127.859;  -10.640;  903.240
925.833;  126.938;  -11.540;  779.320
926.391;  127.373;  -12.960;  938.380
926.949;  124.783;  -14.130;  857.680
927.506;  126.722;  -11.750;  903.500
928.064;  126.760;  -10.250;  877.580
928.622;  125.600;  -13.030;  880.100
929.180;  124.496;  -13.400;  814.180
929.737;  126.513;  -10.700;  808.540
930.295;  130.471;  -10.070;  928.480
930.853;  132.515;  -11.960;  849.100
931.410;  132.255;  -13.120;  821.120
931.968;  132.032;  -10.770;  940.660
932.525;  131.298;  -10.680;  909.380
933.082;  130.723;  -13.130;  811.440
933.640;  132.589;  -13.210;  925.900
934.197;  130.906;  -11.060;  886.360
934.754;  131.328;   -9.580;  897.780
935.312;  133.833;  -14.000;  863.340
935.869;  138.262;  -10.710; 1012.980
936.426;  138.601;   -9.860;  872.800
936.983;  138.193;   -9.710;  889.020
937.540;  137.555;  -13.990;  838.280
938.097;  137.631;  -14.040;  940.120
938.654;  139.056;  -10.310;  898.860
939.211;  140.503;  -10.560;  952.480
939.768;  143.305;  -13.900;  915.420
940.324;  147.538;  -14.760;  904.200
940.881;  148.982;  -10.370;  878.500
941.438;  149.927;   -8.260; 1021.200
941.995;  145.526;  -12.540;  992.560
942.551;  142.502;  -14.670;  875.620
943.108;  142.084;  -10.450;  937.920
943.664;  143.405;  -10.750;  869.340
944.221;  147.644;  -11.550; 1088.140
944.777;  145.826;  -14.770;  869.680
945.334;  148.181;  -12.820;  884.840
945.890;  150.106;  -10.130;  946.480
946.446;  150.115;  -13.470;  947.020
947.003;  151.476;  -12.120;  964.940
947.559;  153.245;   -9.980; 1063.040
948.115;  151.561;   -9.080; 1026.540
948.671;  148.162;  -10.830;  967.300
949.227;  145.199;  -12.440;  859.560
949.783;  143.498;  -12.910;  858.900
950.339;  144.671;  -10.270;  991.000
950.895;  145.238;  -13.630; 1023.840
951.451;  144.781;  -15.100;  925.280
952.007;  146.681;  -11.330;  998.540
952.563;  147.695;  -10.580;  937.780
953.118;  146.464;  -13.440;  904.940
953.674;  145.645;  -12.710;  935.780
954.230;  146.693;  -10.350;  949.640
954.785;  145.349;   -9.190;  936.640
955.341;  142.930;  -11.200;  998.160
955.897;  141.248;  -16.560;  834.660
956.452;  141.975;  -12.570;  953.840
957.008;  140.111;   -7.970; 1083.640
957.563;  137.695;  -11.940; 1009.540
958.118;  132.827;  -13.450;  877.700
958.674;  134.570;  -12.030;  946.780
959.229;  134.992;   -9.410; 1013.980
959.784;  131.590;  -12.000;  832.400
960.339;  130.813;  -14.780; 1001.280
960.894;  126.381;   -9.860;  963.760
961.449;  122.767;   -9.970;  859.960
962.004;  123.518;  -10.900; 1212.840
962.559;  119.988;  -13.150;  860.140
963.114;  117.790;  -13.740;  742.480
963.669;  116.286;   -9.820;  915.500
964.224;  114.719;  -13.890;  874.340
964.779;  113.376;  -12.600;  828.420
965.334;  114.188;  -10.950; 1017.860
965.888;  113.681;  -11.170;  875.360
966.443;  114.655;  -12.540;  972.380
966.998;  114.434;  -15.780;  819.460
967.552;  114.640;   -9.760;  908.380
968.107;  110.270;   -9.060;  868.300
968.661;  110.807;  -11.950;  922.440
969.216;  111.672;  -12.800;  856.280
969.770;  111.786;  -11.210;  917.200
970.324;  110.303;  -11.610;  923.140
970.879;  107.268;  -11.370;  947.180
971.433;  105.410;  -12.540;  952.720
971.987;  100.442;  -11.320;  895.340
972.541;   96.722;  -10.720;  917.100
973.095;   95.988;   -9.680; 1009.460
973.649;   95.628;  -11.440;  809.480
974.203;   96.248;  -11.210;  829.040
974.757;   96.836;  -10.240;  855.220
975.311;   96.638;  -13.720;  872.600
975.865;   95.973;  -13.770;  881.820
976.419;   94.916;  -11.690;  857.400
976.973;   94.089;   -9.510;  849.620
977.526;   95.249;  -12.620;  949.920
978.080;   95.265;  -12.010;  796.780
978.634;   96.842;  -10.170;  921.320
979.187;   94.733;   -9.020;  905.400
979.741;   92.502;   -9.820; 1018.380
980.294;   86.988;  -14.870;  789.160
980.848;   85.438;  -12.380;  717.220
981.401;   87.315;  -10.350;  816.540
981.955;   88.103;  -13.720;  844.300
982.508;   87.391;  -11.490;  746.340
983.061;   89.673;  -10.000;  915.260
983.615;   85.745;  -11.480;  798.800
984.168;   82.466;  -13.220;  770.080
984.721;   82.341;  -13.960;  880.760
985.274;   81.945;  -10.870;  867.500
985.827;   79.275;   -9.790;  834.220
986.380;   78.313;  -13.120;  721.340
986.933;   76.449;  -12.450;  864.800
987.486;   75.617;  -10.210;  861.920
988.039;   74.304;   -8.430;  863.100
988.591;   72.467;  -10.520;  893.260
989.144;   70.086;  -14.860;  737.260
989.697;   69.597;  -13.080;  758.740
990.250;   70.062;  -10.150;  858.100
990.802;   69.190;  -13.430;  755.860
991.355;   69.525;  -12.750;  974.880
991.907;   67.358;  -12.040;  864.320
992.460;   65.191;  -11.330;  753.760
993.012;   63.536;  -13.610;  749.540
993.565;   63.768;  -13.460;  711.360
994.117;   66.166;   -9.360;  950.780
994.669;   61.962;  -11.300;  701.320
995.221;   60.397;  -13.540;  791.920
995.774;   58.145;  -13.430;  787.580
996.326;   56.778;  -12.520;  740.220
996.878;   57.107;  -10.950;  838.420
997.430;   54.289;  -14.300;  699.860
997.982;   53.158;  -13.760;  750.140
998.534;   53.239;  -11.530;  739.060
999.086;   51.577;  -10.310;  738.220
999.638;   50.325;  -12.530;  661.380
1000.190;   49.652;  -11.840;  699.320
1000.741;   50.167;  -10.260;  742.700
1001.293;   48.940;   -8.860;  686.020
1001.845;   47.396;  -13.700;  676.640
1002.396;   48.218;  -12.100;  743.400
1002.948;   48.303;  -12.760;  737.400
1003.500;   46.023;  -10.380;  723.780
1004.051;   46.317;  -11.900;  907.580
1004.603;   45.114;  -12.250;  791.820
1005.154;   41.024;  -13.210;  608.980
1005.705;   40.265;  -10.950;  723.960
1006.257;   39.052;  -13.880;  707.220
1006.808;   38.849;  -12.840;  685.460
1007.359;   39.050;  -10.570;  763.240
1007.910;   37.924;   -9.620;  646.640
1008.461;   37.191;  -13.630;  732.940
1009.013;   37.335;  -17.200;  588.340
1009.564;   38.273;  -10.200;  793.520
1010.115;   35.893;  -12.570;  597.040
1010.665;   35.235;  -15.150;  602.160
1011.216;   34.715;  -14.480;  667.920
1011.767;   34.858;  -11.340;  697.920
1012.318;   34.982;   -9.780;  736.980
1012.869;   33.669;  -12.380;  679.000
1013.419;   33.502;  -15.560;  603.120
1013.970;   34.541;  -11.010;  666.640
1014.521;   32.792;  -11.610;  620.620
1015.071;   33.060;  -13.450;  670.380
1015.622;   32.968;  -13.870;  635.460
1016.172;   32.646;  -11.610;  596.820
1016.723;   32.092;  -12.120;  614.380
1017.273;   31.132;  -13.620;  604.160
1017.823;   31.535;  -14.140;  650.340
1018.374;   31.791;  -12.800;  611.760
1018.924;   31.302;  -12.340;  716.880
1019.474;   31.554;  -11.410;  718.880
1020.024;   30.425;  -14.770;  657.580
1020.574;   32.429;   -9.780;  726.160
1021.124;   31.380;   -8.560;  673.580
1021.674;   29.232;  -15.190;  559.120
1022.224;   31.207;  -13.530;  708.940
1022.774;   30.833;  -13.280;  668.820
1023.324;   30.421;  -10.690;  753.520
1023.874;   31.846;  -10.240;  875.760
1024.423;   29.382;  -12.540;  613.700
1024.973;   29.457;  -10.010;  610.760
1025.523;   28.443;  -10.550;  620.960
1026.072;   28.414;  -13.560;  606.420
1026.622;   28.066;  -15.120;  675.740
1027.172;   29.361;  -11.260;  715.660
1027.721;   28.330;  -11.410;  601.220
1028.270;   27.827;  -13.530;  663.400
1028.820;   28.181;  -13.680;  638.080
1029.369;   27.903;  -13.520;  612.700
1029.918;   27.808;  -10.980;  649.840
1030.468;   26.604;  -13.530;  564.780
1031.017;   27.487;  -13.170;  634.800
1031.566;   26.344;  -12.200;  608.900
1032.115;   27.025;   -9.960;  694.500
1032.664;   25.768;  -13.210;  596.480
1033.213;   26.661;  -12.500;  735.420
1033.762;   26.088;  -11.910;  635.620
1034.311;   25.675;   -9.640;  677.220
1034.860;   25.758;  -13.310;  691.000
1035.408;   25.924;  -11.830;  722.720
1035.957;   27.036;  -12.000;  719.540
1036.506;   24.056;  -11.690;  530.800
1037.055;   26.205;  -10.990;  844.320
1037.603;   25.070;  -15.120;  664.000
1038.152;   23.571;  -12.450;  534.760
1038.700;   24.264;  -10.560;  585.740
1039.249;   23.389;  -11.080;  681.220
1039.797;   24.251;  -12.540;  633.360
1040.345;   24.496;  -11.920;  705.420
1040.894;   23.609;  -11.410;  625.300
1041.442;   23.122;  -14.320;  632.200
1041.990;   22.948;  -16.240;  559.160
1042.538;   22.816;  -11.680;  536.180
1043.087;   22.777;  -10.760;  570.860
1043.635;   23.467;  -11.850;  670.500
1044.183;   21.980;  -15.480;  586.400
1044.731;   22.586;  -11.770;  576.000
1045.279;   21.728;  -13.090;  674.920
1045.827;   23.950;  -12.440;  892.400
1046.374;   21.342;  -13.840;  515.420
1046.922;   21.528;  -13.220;  590.580
1047.470;   22.473;  -10.230;  691.300
1048.018;   21.512;  -14.590;  647.960
1048.565;   22.775;  -12.050;  708.600
1049.113;   20.784;  -11.650;  557.000
1049.660;   20.563;  -10.510;  629.660
1050.208;   21.014;  -13.310;  675.640
1050.755;   20.352;  -15.900;  606.580
1051.303;   21.028;  -11.430;  686.820
1051.850;   20.149;   -8.480;  635.120
1052.397;   18.151;  -15.010;  473.960
1052.945;   19.231;  -13.960;  617.760
1053.492;   21.622;  -13.150;  741.840
1054.039;   20.767;   -9.630;  720.180
1054.586;   19.420;  -13.680;  557.240
1055.133;   19.794;  -14.570;  693.140
1055.680;   20.360;  -13.820;  646.620
1056.227;   19.011;  -11.730;  542.780
1056.774;   20.830;  -12.480;  794.980
1057.321;   18.506;  -13.930;  523.260
1057.868;   18.557;  -11.690;  651.320
1058.415;   18.491;   -9.520;  651.980
1058.961;   18.557;  -13.160;  678.940
1059.508;   19.016;  -12.920;  643.820
1060.055;   18.859;  -11.920;  581.780
1060.601;   18.812;  -11.500;  624.300
1061.148;   18.028;  -14.330;  616.820
1061.694;   17.586;  -16.870;  592.580
1062.241;   18.040;  -10.330;  596.320
1062.787;   17.843;  -10.620;  663.140
1063.334;   19.088;  -10.110;  808.560
1063.880;   17.810;  -13.400;  668.360
1064.426;   18.412;  -10.680;  706.820
1064.972;   16.984;   -9.920;  601.340
1065.518;   15.790;  -10.980;  566.640
1066.065;   16.821;  -14.890;  624.460
1066.611;   16.616;  -12.870;  598.800
1067.157;   17.249;  -12.950;  641.860
1067.703;   16.284;  -13.540;  668.480
1068.249;   16.082;  -13.540;  605.220
1068.794;   16.671;  -12.600;  626.880
1069.340;   15.711;  -10.620;  578.960
1069.886;   15.639;  -12.830;  590.700
1070.432;   14.562;  -14.870;  541.720
1070.977;   15.286;  -11.980;  601.080
1071.523;   15.680;   -8.200;  573.060
1072.068;   15.257;  -12.330;  582.000
1072.614;   14.878;  -16.370;  527.760
1073.160;   15.607;  -11.100;  687.040
1073.705;   14.592;  -10.480;  572.520
1074.250;   14.561;  -14.520;  559.900
1074.796;   14.708;  -11.460;  655.160
1075.341;   15.449;  -11.950;  664.100
1075.886;   14.443;  -11.460;  594.240
1076.431;   13.978;  -13.770;  649.880
1076.976;   14.497;  -12.680;  639.220
1077.521;   14.157;  -13.170;  583.080
1078.067;   13.188;  -10.860;  579.400
1078.612;   14.493;  -13.920;  661.620
1079.156;   14.034;  -13.880;  601.540
1079.701;   14.436;  -13.120;  693.260
1080.246;   14.701;   -9.940;  696.300
1080.791;   13.443;  -14.740;  625.020
1081.336;   13.726;  -13.750;  659.320
1081.880;   14.112;  -13.400;  649.680
1082.425;   12.466;  -12.220;  573.480
1082.970;   14.400;  -11.610;  717.040
1083.514;   13.210;  -13.580;  597.000
1084.059;   12.090;  -12.810;  586.720
1084.603;   11.919;  -12.320;  565.840
1085.147;   11.850;  -13.190;  645.220
1085.692;   13.284;  -12.480;  716.800
1086.236;   11.432;  -13.020;  503.140
1086.780;   13.854;   -9.190;  751.440
1087.325;   12.536;  -12.480;  654.620
1087.869;   12.087;  -12.450;  610.700
1088.413;   13.045;  -12.240;  705.040
1088.957;   10.985;   -9.020;  543.400
1089.501;   12.403;  -10.320;  766.640
1090.045;   11.299;  -12.720;  726.480
1090.589;   10.871;  -13.690;  569.920
1091.133;   11.758;  -10.020;  673.340
1091.676;   11.075;  -12.330;  591.940
1092.220;   10.493;  -14.970;  600.920
1092.764;   12.114;  -12.430;  706.960
1093.307;   11.151;   -9.800;  673.780
1093.851;    9.736;  -14.970;  556.540
1094.395;   11.386;  -15.310;  683.140
1094.938;   10.227;  -10.370;  632.520
1095.482;   10.583;  -11.050;  559.800
1096.025;   10.851;  -11.840;  710.880
1096.568;   11.308;  -12.840;  779.280
1097.112;    9.159;  -14.700;  508.180
1097.655;   10.455;   -8.720;  603.000
1098.198;    8.852;  -13.610;  600.180
1098.741;    9.515;  -13.350;  612.860
1099.285;   11.037;  -11.230;  657.300
1099.828;    8.300;  -11.840;  439.400
1100.371;    9.064;  -10.840;  608.160
1100.914;    9.134;  -14.190;  682.660
1101.457;    9.655;  -11.240;  679.900
1101.999;    7.561;  -11.270;  584.680
1102.542;    9.031;  -11.480;  641.440
1103.085;    9.078;  -11.750;  658.500
1103.628;   10.407;  -11.400;  762.060
1104.170;    8.833;  -10.490;  588.280
1104.713;    8.847;  -10.600;  646.700
1105.256;    8.921;  -14.360;  557.440
1105.798;    7.456;  -13.210;  499.980
1106.341;    9.987;  -10.270;  728.900
1106.883;    7.555;  -12.200;  521.340
1107.425;    7.880;  -13.110;  668.180
1107.968;    9.154;  -12.840;  612.380
1108.510;    8.256;   -6.480;  684.960
1109.052;    7.133;  -13.940;  612.620
1109.594;    7.453;  -13.690;  554.440
1110.136;    8.721;  -11.880;  643.220
1110.679;    7.465;   -9.500;  633.080
1111.221;    7.719;  -14.160;  604.460
1111.763;    8.091;  -13.980;  559.220
1112.304;    7.198;  -13.880;  547.140
1112.846;    7.140;  -12.210;  666.240
1113.388;    9.660;  -11.390;  942.180
1113.930;    6.882;  -14.540;  694.200
1114.472;    7.014;  -12.640;  606.540
1115.013;    5.468;  -11.620;  551.280
1115.555;    5.753;  -13.640;  587.100
1116.097;    5.449;  -15.380;  579.480
1116.638;    6.816;  -12.640;  684.600
1117.180;    5.985;   -9.850;  667.740
1117.721;    6.044;  -13.690;  568.580
1118.262;    6.875;  -12.680;  677.960
1118.804;    7.693;  -12.530;  637.340
1119.345;    5.381;  -11.690;  578.400
1119.886;    6.182;  -13.380;  704.040
1120.427;    5.122;  -14.070;  589.020
1120.969;    5.286;  -13.500;  597.920
1121.510;    5.052;  -11.480;  563.060
1122.051;    5.404;  -12.830;  723.580
1122.592;    4.917;  -14.290;  655.420
1123.133;    4.107;  -12.400;  547.940
1123.673;    5.949;  -10.130;  706.480
1124.214;    4.970;  -12.930;  612.460
1124.755;    5.702;  -14.380;  639.460
1125.296;    5.426;  -14.000;  627.320
1125.836;    5.527;  -10.070;  691.500
1126.377;    4.331;  -12.640;  599.660
1126.918;    4.789;  -12.960;  614.980
1127.458;    4.480;  -13.350;  622.220
1127.999;    5.318;  -10.750;  656.980
1128.539;    4.585;  -12.350;  694.240
1129.079;    4.261;  -14.860;  632.720
1129.620;    4.090;  -13.840;  558.100
1130.160;    3.766;  -12.330;  539.480
1130.700;    4.059;  -14.530;  640.840
1131.240;    4.422;  -12.530;  643.700
1131.781;    3.862;  -14.450;  619.680
1132.321;    3.624;   -9.790;  599.120
1132.861;    2.948;  -14.860;  564.200
1133.401;    2.247;  -14.290;  593.940
1133.941;    3.541;  -11.750;  626.280
1134.481;    3.382;   -9.920;  597.580
1135.020;    2.772;  -12.290;  609.160
1135.560;    3.038;  -11.650;  674.940
1136.100;    3.110;  -16.270;  501.160
1136.640;    2.608;  -10.890;  510.480
1137.179;    1.862;  -14.180;  537.960
1137.719;    3.344;  -16.250;  605.400
1138.258;    2.974;  -14.230;  587.360
1138.798;    3.158;   -9.090;  663.780
1139.337;    1.228;  -15.130;  482.840
1139.877;    1.958;  -13.680;  642.360
1140.416;    4.567;  -11.320;  878.060
1140.955;    1.708;  -10.860;  535.380
1141.494;    1.831;  -12.920;  669.280
1142.034;    1.816;  -13.930;  583.520
1142.573;    3.685;  -11.440;  646.280
1143.112;    1.911;  -12.000;  553.480
1143.651;    1.649;  -13.670;  536.480
1144.190;    3.010;  -12.730;  691.640
1144.729;    2.833;  -14.560;  607.420
1145.267;    1.766;  -11.830;  584.900
1145.806;    2.698;  -12.230;  637.040
1146.345;    1.077;  -14.130;  635.020
1146.884;    1.888;  -11.590;  622.500
1147.422;    1.244;  -12.550;  533.060
1147.961;    2.423;  -11.180;  708.460
1148.500;    1.825;  -11.510;  669.720
1149.038;    2.753;  -11.640;  632.500
1149.577;    1.433;  -10.130;  698.640
1150.115;   -0.319;  -13.970;  452.280
1150.653;    1.035;  -14.520;  607.340
1151.192;    1.141;  -12.810;  552.920
1151.730;    1.265;   -9.100;  652.560
1152.268;   -0.184;  -12.220;  589.520
1152.806;    0.075;  -14.140;  571.180
1153.344;    0.118;  -12.350;  577.640
1153.882;    0.794;   -8.980;  600.060
1154.421;   -0.444;  -15.190;  470.620
1154.958;   -0.219;  -15.210;  595.240
1155.496;    1.292;  -12.850;  645.280
1156.034;    1.090;   -9.940;  721.880
1156.572;    1.001;  -13.570;  667.060
1157.110;   -1.040;  -14.590;  473.940
1157.647;    0.943;  -13.030;  676.960
1158.185;   -0.425;  -12.140;  564.320
1158.723;   -1.285;  -14.390;  509.200
1159.260;    0.245;  -14.090;  701.700
1159.798;    0.433;  -11.920;  658.160
1160.335;   -0.540;  -11.110;  631.820

