
Integration time [ms]:   3.276
Averaging Nr. [scans]: 1000
Smoothing Nr. [pixels]: 0
Data measured with spectrometer [name]: 7414430SP
Wave   ;Sample   ;Dark     ;Reference
[nm]   ;[counts] ;[counts] ;[counts] 

288.544;  150.449;    7.793;  793.890
289.143;  154.230;    7.462;  681.602
289.742;  154.362;    8.602;  828.814
290.341;  140.175;    1.321;  789.841
290.940;  129.437;   -0.709;  730.702
291.538;  130.054;    0.881;  881.108
292.137;  129.482;    0.122;  792.581
292.736;  134.258;   -1.929;  975.101
293.335;  131.107;   -8.229;  735.086
293.934;  131.115;   -5.279;  781.677
294.532;  130.304;   -1.369; 1031.958
295.131;  116.391;   -7.641;  834.394
295.730;  115.943;   -8.420;  809.588
296.328;  114.611;   -5.611;  783.442
296.927;  114.875;   -5.781;  779.652
297.525;  116.282;   -6.361;  781.236
298.124;  106.670;  -11.382;  654.009
298.722;  110.767;   -7.641;  761.933
299.321;  109.544;   -6.811;  708.597
299.919;  106.647;   -6.991;  751.918
300.518;  103.540;  -10.362;  689.338
301.116;  106.223;   -9.581;  691.381
301.715;  106.459;   -4.891;  730.222
302.313;  104.966;   -8.801;  704.943
302.911;   99.372;   -8.522;  733.830
303.509;  105.771;   -6.171;  925.627
304.108;  102.505;   -7.311;  760.383
304.706;  102.296;   -8.321;  801.664
305.304;   96.085;  -10.222;  796.707
305.902;  102.236;   -6.021;  784.484
306.500;   97.754;   -4.971;  728.200
307.098;   96.167;   -7.061;  746.560
307.696;   94.632;   -8.801;  780.432
308.294;   94.827;   -6.411;  731.359
308.892;   96.744;   -2.901;  759.769
309.490;   93.871;   -5.041;  712.161
310.088;   91.430;   -5.002;  788.444
310.686;   95.248;   -2.041;  821.749
311.284;   91.067;   -2.351;  766.040
311.882;   88.753;   -4.422;  731.225
312.480;   85.933;   -4.192;  697.167
313.078;   86.685;   -1.172;  808.331
313.675;   88.174;   -2.601;  691.600
314.273;   83.114;   -1.312;  797.837
314.871;   82.470;   -3.942;  589.829
315.468;   80.687;   -2.802;  652.090
316.066;   83.359;   -0.701;  694.427
316.664;   76.653;   -4.362;  656.351
317.261;   79.824;   -2.872;  910.128
317.859;   75.636;   -2.022;  768.735
318.456;   76.583;   -0.531;  830.096
319.054;   71.786;   -3.912;  787.828
319.651;   72.089;   -4.752;  759.928
320.249;   70.689;   -2.602;  810.188
320.846;   68.251;   -0.821;  714.286
321.443;   65.292;   -4.642;  832.135
322.041;   62.671;   -5.002;  812.315
322.638;   60.681;   -3.982;  701.456
323.235;   61.721;   -3.411;  665.683
323.833;   58.573;   -7.361;  740.354
324.430;   54.597;   -8.611;  615.900
325.027;   55.498;   -4.061;  876.855
325.624;   55.374;   -4.031;  644.532
326.221;   52.883;   -7.481;  689.717
326.818;   51.602;   -5.281;  818.332
327.415;   54.792;   -7.460;  748.828
328.012;   54.073;   -5.510;  690.585
328.609;   54.139;   -7.880;  731.389
329.206;   50.538;   -8.331;  778.621
329.803;   51.372;   -5.121;  737.841
330.400;   54.304;   -4.510;  704.260
330.997;   55.825;   -6.441;  817.147
331.594;   53.587;   -8.831;  788.185
332.191;   58.968;   -7.621;  728.722
332.787;   61.941;   -4.591;  844.463
333.384;   60.887;   -7.412;  763.093
333.981;   59.295;   -8.293;  815.687
334.578;   62.165;   -7.052;  708.378
335.174;   64.881;   -3.102;  731.469
335.771;   64.103;   -5.943;  836.456
336.367;   60.992;   -7.393;  710.631
336.964;   64.467;   -4.063;  793.266
337.561;   62.946;   -3.813;  731.112
338.157;   59.028;   -4.654;  911.916
338.754;   56.004;   -7.934;  796.589
339.350;   54.498;   -4.414;  722.493
339.946;   56.231;   -4.664;  773.135
340.543;   48.537;   -6.375;  846.136
341.139;   42.639;   -9.815;  720.836
341.735;   40.697;   -4.526;  772.593
342.332;   39.693;   -4.895;  691.472
342.928;   40.258;   -4.295;  795.394
343.524;   33.983;   -5.476;  761.684
344.120;   31.393;   -5.856;  738.562
344.716;   33.641;   -2.155;  723.717
345.313;   31.876;   -6.275;  795.342
345.909;   26.217;   -8.815;  627.336
346.505;   28.163;   -5.305;  740.247
347.101;   29.635;   -2.674;  827.864
347.697;   28.984;   -4.344;  785.398
348.293;   24.364;   -9.975;  627.244
348.889;   24.050;   -5.774;  745.914
349.485;   23.932;   -5.004;  688.205
350.081;   24.673;   -4.704;  772.592
350.676;   19.847;   -6.635;  691.606
351.272;   24.130;   -4.504;  809.530
351.868;   24.010;   -3.914;  780.497
352.464;   20.787;   -9.044;  723.932
353.059;   17.958;   -8.314;  646.017
353.655;   21.341;   -7.024;  777.063
354.251;   22.118;   -5.343;  759.845
354.846;   16.560;   -8.604;  740.646
355.442;   14.751;   -6.945;  753.071
356.038;   16.023;   -7.564;  751.708
356.633;   16.312;   -5.814;  728.594
357.229;   14.747;   -7.364;  724.757
357.824;   12.243;   -8.024;  703.600
358.420;   11.709;   -9.384;  679.726
359.015;   12.261;   -5.104;  695.357
359.610;   13.125;   -6.854;  763.920
360.206;    6.858;  -10.185;  603.240
360.801;   10.565;   -7.054;  646.503
361.396;   12.525;   -5.034;  725.975
361.992;    8.585;   -8.284;  668.220
362.587;    4.782;   -8.625;  670.160
363.182;    7.223;   -7.674;  689.631
363.777;    8.234;   -5.164;  738.242
364.372;    7.552;   -8.604;  737.314
364.967;    3.829;   -9.055;  680.744
365.563;    7.693;   -6.114;  815.567
366.158;    4.906;   -5.814;  685.161
366.753;    6.170;   -7.854;  649.263
367.348;    3.976;   -7.804;  746.056
367.942;    3.571;   -7.954;  697.298
368.537;    3.580;   -4.984;  754.245
369.132;    3.602;   -8.564;  703.428
369.727;   -0.902;   -8.855;  638.079
370.322;    0.985;   -6.245;  580.186
370.917;    0.238;   -6.425;  710.646
371.511;    3.198;   -6.294;  861.834
372.106;   -0.432;   -7.685;  776.964
372.701;   -3.520;   -7.335;  585.988
373.296;    2.206;   -4.564;  863.135
373.890;   -3.100;  -10.235;  647.840
374.485;   -5.229;   -7.885;  691.199
375.079;   -0.501;   -7.324;  738.685
375.674;    0.291;   -3.494;  812.970
376.268;   -4.222;   -8.525;  691.759
376.863;   -9.514;  -10.086;  580.327
377.457;   -2.790;   -7.025;  662.490
378.052;   -4.491;   -3.585;  764.884
378.646;   -6.006;   -7.595;  741.167
379.240;   -6.267;   -8.335;  721.176
379.835;   -5.618;   -5.785;  636.978
380.429;   -7.170;   -4.335;  562.557
381.023;   -6.343;   -6.805;  779.205
381.617;   -9.218;   -9.195;  680.106
382.212;   -6.462;   -6.905;  685.303
382.806;   -4.832;   -3.745;  760.690
383.400;   -8.622;   -7.745;  672.281
383.994;  -10.185;   -9.765;  664.870
384.588;   -6.680;   -6.564;  697.701
385.182;   -5.636;   -5.344;  726.624
385.776;   -6.830;   -8.514;  706.875
386.370;  -10.484;   -9.555;  681.968
386.964;   -8.927;   -8.715;  684.155
387.558;   -6.482;   -6.174;  598.360
388.152;   -9.916;   -8.725;  681.959
388.745;   -8.565;   -7.965;  814.707
389.339;   -7.550;   -5.924;  747.642
389.933;   -6.363;   -5.524;  695.370
390.527;   -7.177;   -7.114;  859.029
391.120;  -13.548;  -10.725;  595.318
391.714;  -10.635;   -8.035;  711.633
392.308;   -7.211;   -3.574;  780.253
392.901;  -10.711;   -7.245;  642.460
393.495;  -12.937;   -9.285;  595.414
394.089;  -10.133;   -5.895;  760.452
394.682;  -10.906;   -4.295;  697.188
395.275;  -11.517;   -9.875;  719.927
395.869;  -13.133;   -8.485;  667.314
396.462;  -11.441;   -7.455;  616.609
397.056;   -7.560;   -5.424;  776.621
397.649;  -12.336;   -6.605;  731.575
398.242;   -8.558;   -8.224;  712.645
398.836;   -8.373;   -7.474;  766.408
399.429;   -9.525;   -7.094;  631.041
400.022;  -13.675;   -9.475;  665.902
400.615;  -11.076;   -7.145;  805.609
401.208;   -8.635;   -7.174;  691.451
401.802;  -11.083;   -5.515;  699.329
402.395;  -12.610;   -9.875;  683.502
402.988;  -12.927;   -8.845;  696.627
403.581;   -9.691;   -8.874;  646.878
404.174;   -7.821;   -5.324;  686.568
404.767;  -10.630;   -9.575;  638.583
405.360;  -12.984;  -10.965;  621.445
405.953;   -7.606;   -8.764;  759.034
406.545;   -7.307;   -7.514;  725.342
407.138;  -10.980;  -10.025;  618.350
407.731;   -9.761;  -10.034;  613.303
408.324;   -6.301;   -9.374;  660.554
408.917;   -7.427;   -6.534;  681.864
409.509;   -8.843;   -8.004;  740.396
410.102;  -10.901;   -9.875;  643.948
410.695;   -4.977;   -8.604;  665.758
411.287;   -5.548;   -6.794;  599.821
411.880;   -7.161;   -9.334;  585.421
412.472;  -10.140;  -10.254;  613.092
413.065;   -7.666;   -6.714;  629.408
413.657;   -5.129;   -7.234;  576.678
414.250;   -5.222;  -10.544;  646.681
414.842;   -7.275;   -9.744;  676.353
415.434;   -4.735;   -6.994;  570.463
416.027;   -0.833;   -5.893;  652.196
416.619;   -2.657;   -7.264;  713.400
417.211;   -3.094;  -10.374;  599.352
417.804;    0.974;   -7.993;  628.499
418.396;   -3.128;   -7.234;  607.643
418.988;   -1.515;   -9.443;  659.238
419.580;   -3.934;  -10.724;  568.276
420.172;   -1.989;  -10.323;  536.196
420.764;    2.230;   -8.793;  672.482
421.356;    1.122;  -11.143;  636.898
421.948;   -0.047;   -8.293;  677.661
422.540;    4.684;   -7.893;  680.027
423.132;    4.687;   -7.082;  600.641
423.724;    1.325;   -8.653;  561.267
424.316;    3.430;  -10.213;  621.345
424.908;    6.437;   -9.762;  591.517
425.500;    7.308;   -5.572;  647.978
426.092;    8.061;   -8.422;  648.268
426.683;    6.845;   -9.283;  684.836
427.275;    9.517;   -7.852;  641.471
427.867;   11.466;   -5.272;  668.948
428.458;   11.494;   -7.682;  732.344
429.050;   10.388;  -10.612;  680.749
429.642;   12.703;   -9.882;  743.124
430.233;   13.099;   -6.962;  569.356
430.825;   14.170;   -6.842;  724.809
431.416;   11.631;   -9.672;  698.241
432.008;   15.636;   -6.552;  651.723
432.599;   16.141;   -6.891;  656.073
433.190;   12.755;  -10.912;  637.670
433.782;   12.665;  -11.172;  590.395
434.373;   19.774;   -6.061;  884.765
434.964;   18.474;   -8.251;  602.920
435.556;   16.746;   -9.722;  634.537
436.147;   19.616;   -9.082;  758.490
436.738;   19.056;   -8.041;  701.099
437.329;   24.697;   -7.341;  721.723
437.920;   16.837;   -8.162;  666.688
438.511;   16.790;  -11.802;  564.526
439.103;   24.142;  -10.191;  623.998
439.694;   25.582;   -7.601;  681.583
440.285;   26.780;   -8.541;  764.432
440.876;   23.930;   -9.751;  845.738
441.466;   23.526;   -9.401;  575.162
442.057;   29.375;   -7.760;  665.814
442.648;   28.938;   -9.971;  746.255
443.239;   26.256;  -11.001;  620.477
443.830;   31.290;   -7.990;  704.958
444.421;   33.514;   -7.910;  655.474
445.011;   29.285;   -8.131;  693.619
445.602;   29.429;   -7.111;  743.126
446.193;   31.000;  -10.920;  488.117
446.783;   36.535;   -6.500;  640.397
447.374;   31.806;   -8.671;  692.759
447.964;   32.307;  -10.781;  713.770
448.555;   40.894;   -9.650;  822.742
449.145;   37.860;   -8.660;  662.853
449.736;   37.018;   -8.990;  803.179
450.326;   38.094;   -9.500;  713.626
450.917;   42.293;   -8.680;  675.324
451.507;   42.893;   -7.520;  600.661
452.097;   43.254;   -8.590;  746.267
452.688;   43.884;  -11.340;  742.160
453.278;   43.827;  -10.100;  566.840
453.868;   48.537;   -6.019;  793.550
454.458;   46.078;   -9.440;  651.141
455.048;   45.448;  -10.560;  711.783
455.639;   47.995;  -11.799;  567.096
456.229;   51.759;   -6.899;  710.694
456.819;   53.649;   -7.389;  751.158
457.409;   54.325;  -11.119;  773.993
457.999;   56.583;   -9.289;  737.505
458.589;   56.227;   -6.139;  686.606
459.179;   56.079;   -8.729;  717.658
459.769;   54.429;   -9.789;  627.099
460.358;   59.385;  -10.259;  797.262
460.948;   59.808;   -7.299;  689.503
461.538;   60.902;  -10.289;  660.677
462.128;   59.197;  -11.269;  664.934
462.717;   65.981;   -9.368;  710.326
463.307;   68.447;   -7.908;  705.846
463.897;   64.403;   -9.599;  656.942
464.486;   64.320;   -9.769;  837.128
465.076;   68.590;   -8.048;  733.776
465.666;   71.799;   -9.358;  652.900
466.255;   70.136;   -7.919;  785.651
466.845;   69.375;  -11.689;  666.749
467.434;   72.598;   -7.818;  725.873
468.023;   73.234;   -7.678;  658.357
468.613;   71.312;  -10.939;  713.946
469.202;   75.151;  -10.118;  646.507
469.791;   79.749;   -9.108;  737.811
470.381;   81.713;   -6.058;  742.813
470.970;   81.037;  -10.428;  711.099
471.559;   80.596;  -10.268;  733.291
472.148;   84.024;   -8.448;  675.737
472.738;   86.308;   -6.917;  765.466
473.327;   85.407;  -11.978;  637.529
473.916;   86.589;  -11.888;  737.446
474.505;   90.266;   -9.437;  751.703
475.094;   93.658;   -6.747;  806.570
475.683;   92.752;   -9.367;  797.699
476.272;   93.846;  -12.637;  730.632
476.861;   96.476;  -10.027;  706.754
477.449;  103.751;   -8.716;  728.487
478.038;   98.176;   -9.577;  692.513
478.627;   99.132;   -9.718;  714.852
479.216;  105.545;   -8.947;  769.441
479.805;  109.020;   -6.256;  783.375
480.393;  108.441;   -7.937; 1008.945
480.982;  108.146;   -7.717;  874.501
481.571;  113.570;   -9.266;  858.333
482.159;  114.367;   -7.636;  705.386
482.748;  114.977;   -9.667;  821.385
483.336;  118.692;  -10.376;  858.209
483.925;  120.221;   -7.147;  774.373
484.513;  126.407;   -7.996;  758.962
485.102;  123.344;  -10.027;  810.965
485.690;  132.284;  -10.446; 1011.050
486.278;  134.579;   -8.446;  979.329
486.867;  135.449;   -6.356;  809.662
487.455;  136.982;   -9.136;  898.229
488.043;  138.389;  -10.646;  748.361
488.631;  147.276;   -7.456; 1005.079
489.220;  151.708;   -6.636;  908.626
489.808;  152.230;  -11.036;  741.415
490.396;  159.606;  -10.246;  914.645
490.984;  166.608;   -8.556;  830.161
491.572;  177.516;   -5.886;  940.315
492.160;  183.454;   -9.486;  919.081
492.748;  195.379;  -10.976;  884.341
493.336;  221.088;   -8.776; 1019.693
493.924;  248.648;   -5.465;  958.077
494.512;  278.494;   -9.986; 1066.638
495.100;  319.134;  -10.636; 1103.280
495.687;  377.391;  -10.885; 1206.373
496.275;  445.475;   -8.126; 1150.796
496.863;  519.412;  -10.586; 1281.171
497.451;  626.635;  -11.926; 1386.805
498.038;  765.085;  -10.885; 1556.729
498.626;  876.590;   -6.315; 1741.407
499.214; 1032.201;   -7.326; 2016.609
499.801; 1241.752;  -11.906; 2220.633
500.389; 1501.425;  -10.466; 2312.494
500.976; 1835.850;   -5.236; 2744.849
501.564; 2302.744;   -8.936; 3148.565
502.151; 2701.284;  -13.176; 3515.999
502.738; 3172.918;  -10.646; 3971.274
503.326; 3573.293;   -9.525; 4403.796
503.913; 3971.011;  -10.856; 5161.749
504.500; 4356.276;  -11.586; 5986.420
505.088; 4777.258;  -10.336; 6381.201
505.675; 5349.913;   -6.355; 6925.547
506.262; 6106.790;   -9.046; 7619.060
506.849; 6843.423;  -10.416; 8733.969
507.436; 7337.064;  -10.305; 9790.121
508.023; 7942.745;   -5.496; 9985.472
508.610; 8230.503;   -7.856;10434.618
509.197; 8910.868;  -10.097;11198.435
509.784;10362.681;  -10.886;12391.194
510.371;11471.995;   -9.315;13603.713
510.958;12261.730;   -9.936;14426.586
511.545;13086.160;   -9.326;15243.775
512.132;14057.640;  -10.075;15945.876
512.719;14682.905;   -7.796;16340.369
513.305;15662.373;  -10.606;18011.766
513.892;16445.947;  -11.486;19754.971
514.479;17841.906;   -9.126;20967.805
515.066;19416.742;   -6.026;22299.793
515.652;20761.807;   -8.466;22908.660
516.239;22272.164;  -10.886;23798.875
516.825;23464.596;  -11.496;25567.275
517.412;24599.520;   -5.796;28154.959
517.998;25131.338;  -10.506;28344.111
518.585;25165.047;  -10.076;27134.219
519.171;25771.199;   -8.315;27268.576
519.758;27301.475;   -8.596;28964.129
520.344;29251.631;   -8.466;30664.494
520.930;29310.162;  -11.006;32550.605
521.516;30925.945;  -10.495;35422.895
522.103;33482.508;   -5.526;38280.004
522.689;34098.707;   -8.746;37835.117
523.275;33524.332;  -11.376;37288.613
523.861;34745.949;  -11.156;37281.395
524.447;36189.035;   -8.135;37846.949
525.033;35898.672;   -7.896;38321.949
525.619;36059.480;  -12.476;38579.285
526.205;37859.840;   -9.516;40622.875
526.791;40352.414;   -6.926;42258.836
527.377;40618.859;   -8.346;42966.902
527.963;42281.887;   -8.717;42018.949
528.549;40612.992;  -11.016;42476.828
529.135;39358.316;   -8.536;41854.852
529.721;38807.027;   -9.666;41237.711
530.306;38087.070;  -10.066;41259.445
530.892;37831.105;  -11.356;41506.047
531.478;39395.832;   -6.596;43559.613
532.063;42464.730;   -8.836;47695.563
532.649;42772.609;  -10.047;50808.324
533.235;43811.891;   -9.746;51787.500
533.820;44585.691;   -6.566;52145.035
534.406;46056.898;  -10.817;51133.488
534.991;45902.059;   -9.416;49996.805
535.576;44363.547;   -9.036;48882.852
536.162;44870.246;   -6.156;46942.285
536.747;45885.008;  -11.607;45711.746
537.333;50088.016;  -11.787;48510.180
537.918;52968.004;  -12.437;50439.891
538.503;51262.387;   -7.196;50863.711
539.088;47941.938;  -10.556;50906.922
539.673;47932.328;   -8.767;52621.965
540.259;47667.387;  -10.026;52368.094
540.844;44902.297;   -7.416;50879.109
541.429;46180.441;   -9.467;52077.777
542.014;49227.180;   -9.527;52716.695
542.599;48606.582;   -9.946;52363.281
543.184;46332.965;   -7.927;53187.137
543.769;47944.215;   -9.297;54697.605
544.354;47162.898;  -10.127;53913.914
544.938;45774.395;   -9.267;49680.164
545.523;47690.758;   -6.506;47386.277
546.108;50354.176;   -9.787;49151.949
546.693;52610.559;  -11.587;51384.637
547.278;52293.516;  -10.986;51853.254
547.862;49241.453;   -8.206;51173.750
548.447;44641.301;  -10.067;51691.395
549.031;44092.160;   -9.637;52456.703
549.616;49211.289;   -9.926;52714.516
550.201;48270.266;   -6.347;52414.598
550.785;49415.770;   -7.917;52355.059
551.370;48573.043;  -10.867;54589.453
551.954;48337.629;   -9.047;58267.348
552.538;49220.730;   -7.827;59062.176
553.123;47556.324;  -10.287;58115.285
553.707;45270.203;  -12.178;56556.285
554.291;46405.410;   -8.717;56201.668
554.876;48440.578;   -7.457;55335.762
555.460;48817.641;  -10.387;54155.703
556.044;50214.820;   -9.618;53721.484
556.628;48796.852;  -11.567;53731.016
557.212;47385.906;   -8.097;54312.531
557.796;45803.070;  -11.077;53797.773
558.380;45680.055;  -11.108;56145.984
558.964;45957.074;   -9.057;57277.930
559.548;47077.055;   -6.977;56459.641
560.132;45405.715;  -11.457;54434.543
560.716;44106.898;  -11.378;54800.617
561.300;45222.348;   -9.577;57606.945
561.884;46264.457;   -7.127;58972.445
562.467;44771.945;   -7.118;57327.570
563.051;44210.938;  -13.358;54962.434
563.635;45316.242;  -10.178;52594.473
564.219;45386.539;   -7.837;50610.410
564.802;46175.078;  -11.398;49551.180
565.386;46246.535;  -12.788;48370.953
565.969;45664.766;   -9.077;48178.871
566.553;44950.059;   -6.207;49957.305
567.136;45201.328;   -8.568;50369.594
567.720;41349.703;  -11.868;49492.004
568.303;39164.227;   -8.268;50616.352
568.887;39286.371;   -8.698;50727.148
569.470;39523.492;   -6.808;51698.379
570.053;38210.496;  -13.188;52122.078
570.637;36645.496;  -12.037;52536.438
571.220;36389.867;   -8.577;51186.098
571.803;37060.691;   -8.498;51032.762
572.386;39575.020;  -10.498;49609.887
572.969;41955.086;   -9.388;48285.926
573.552;39762.430;   -8.338;47624.285
574.135;38343.535;   -8.518;45498.641
574.718;35895.250;  -13.628;41970.434
575.301;34826.582;  -10.893;41447.137
575.884;33757.918;   -8.158;40923.836
576.467;34982.477;  -10.328;45267.723
577.050;37207.121;  -13.058;48175.543
577.633;38760.906;   -9.458;47729.328
578.216;37702.809;   -8.928;47579.793
578.799;36739.574;   -9.358;47820.996
579.381;35547.316;  -11.388;48115.551
579.964;33865.609;  -11.718;47333.766
580.547;35468.738;   -8.588;46668.969
581.129;36608.141;   -8.859;44466.141
581.712;37302.520;  -10.729;44164.922
582.294;37939.684;  -11.118;46477.855
582.877;37868.684;   -5.218;48244.254
583.459;35266.512;   -8.679;47437.895
584.042;33337.738;  -10.709;46943.219
584.624;34055.199;  -11.669;46792.227
585.206;33388.984;   -8.218;46557.250
585.789;33377.598;  -10.569;45793.773
586.371;36299.363;  -11.859;43836.391
586.953;36802.813;  -10.719;42972.492
587.536;38118.504;   -7.198;42487.211
588.118;38025.426;   -8.720;42086.414
588.700;34592.684;  -10.439;43389.930
589.282;33713.887;   -9.198;43646.039
589.864;34388.000;   -9.199;43438.109
590.446;35299.477;  -11.319;43151.926
591.028;35258.316;  -11.159;42781.867
591.610;34275.746;  -11.779;42839.098
592.192;31748.740;   -7.668;42820.402
592.774;30315.254;  -11.949;40724.277
593.356;29056.961;  -12.129;39874.789
593.937;28059.129;  -10.669;39980.648
594.519;30183.629;   -6.509;42069.633
595.101;32482.188;  -10.849;42976.031
595.683;32558.979;  -11.679;44084.441
596.264;33701.938;   -9.049;43478.797
596.846;33081.781;   -8.849;43803.672
597.427;32903.539;   -9.570;42986.934
598.009;34583.977;  -12.620;42832.219
598.591;34974.730;  -10.039;42580.086
599.172;34005.148;  -10.369;43061.805
599.753;34078.309;   -9.140;41691.469
600.335;35557.824;  -11.430;40692.520
600.916;33883.320;   -9.939;39982.422
601.498;31438.133;   -8.479;40318.617
602.079;29914.904;  -10.920;40670.609
602.660;29884.811;  -11.480;41450.898
603.241;31554.998;  -11.699;41137.738
603.823;30319.287;   -9.579;38868.797
604.404;29946.424;  -10.620;38182.785
604.985;31450.176;  -10.450;38078.047
605.566;31174.230;   -9.129;38056.633
606.147;31267.596;   -7.510;37020.418
606.728;32978.336;  -10.660;37883.359
607.309;31802.377;  -11.740;38748.273
607.890;31186.605;   -9.759;38850.230
608.471;30528.527;   -8.250;37457.918
609.051;29507.783;   -9.240;36066.457
609.632;28446.402;  -12.120;35991.074
610.213;29345.090;   -9.110;37402.641
610.794;30047.869;   -8.030;38383.363
611.374;29498.740;   -8.110;40562.387
611.955;29851.285;  -13.560;38533.727
612.536;31139.914;  -11.400;36951.789
613.116;31207.543;   -8.070;37197.891
613.697;31537.594;  -10.830;38411.125
614.277;30051.373;  -11.641;38673.938
614.858;30996.906;  -13.310;37075.863
615.438;30025.568;   -7.460;35092.906
616.019;27188.469;   -7.601;33666.301
616.599;27980.494;  -12.020;34189.023
617.179;29741.602;  -11.780;36952.047
617.760;30562.152;   -8.570;39582.574
618.340;31734.359;  -11.471;38943.977
618.920;33189.883;  -11.170;37594.156
619.500;33055.012;  -11.071;37866.938
620.080;32246.379;   -7.750;37869.043
620.660;33393.563;  -12.711;36868.617
621.241;34637.871;  -10.211;36352.309
621.821;34690.148;  -10.961;35459.520
622.401;33681.930;   -7.720;35207.414
622.980;32969.305;   -8.981;35980.422
623.560;31586.291;   -9.331;37351.328
624.140;30421.996;   -9.850;34388.582
624.720;25136.896;   -7.451;32368.764
625.300;21521.730;   -9.070;32638.629
625.880;24985.613;  -12.601;34599.035
626.459;28992.273;  -11.751;36831.738
627.039;32120.633;   -9.281;38299.098
627.619;32163.150;   -8.801;38289.574
628.198;30487.303;  -12.071;37220.695
628.778;29604.406;   -9.461;37632.563
629.357;30356.086;   -8.491;38003.012
629.937;30435.604;   -9.721;38402.039
630.516;29813.682;   -9.951;37868.801
631.096;29384.557;  -11.731;35760.410
631.675;32213.576;   -8.572;35225.219
632.254;37371.516;  -11.282;35130.289
632.834;36907.355;  -13.322;35794.570
633.413;34971.168;  -10.301;35788.922
633.992;31961.258;   -8.582;34532.863
634.571;32710.736;   -8.352;33590.113
635.151;35802.141;  -11.912;34943.863
635.730;34245.082;  -10.511;35352.523
636.309;30754.635;   -7.731;35366.605
636.888;28192.576;   -9.952;36165.637
637.467;29045.229;  -11.672;37515.902
638.046;30730.736;   -8.901;39288.695
638.625;33875.348;   -7.912;38279.699
639.204;33634.273;  -10.022;37741.598
639.782;32078.057;  -12.252;38364.551
640.361;28297.145;  -10.041;36740.621
640.940;25391.979;  -11.161;34950.082
641.519;25988.088;   -9.701;34137.398
642.097;29078.383;  -11.271;35654.258
642.676;32083.459;   -8.651;35637.957
643.255;32597.268;   -8.711;36567.074
643.833;31718.689;   -9.581;37809.434
644.412;31839.926;  -13.711;37337.293
644.990;30995.242;  -11.811;37018.531
645.569;31008.994;   -9.411;36518.469
646.147;29749.445;  -10.291;36186.430
646.726;29258.732;  -12.401;36267.688
647.304;30416.307;  -10.411;36647.625
647.882;32399.201;   -9.651;39286.742
648.461;34174.984;   -9.631;39157.703
649.039;32322.500;  -11.881;35412.883
649.617;31760.307;   -9.661;34744.918
650.195;31532.801;   -9.301;35403.098
650.773;30022.936;  -10.511;35053.797
651.352;27572.576;  -11.521;33756.816
651.930;25139.117;  -12.211;31868.773
652.508;23533.752;   -9.171;33121.551
653.086;27510.211;   -9.371;33564.793
653.663;30288.160;  -13.161;34054.668
654.241;29174.227;  -13.031;35693.309
654.819;30852.867;   -9.371;36422.906
655.397;31062.768;  -10.511;38213.484
655.975;30880.229;  -10.371;39507.625
656.553;30533.969;  -10.051;39498.223
657.130;28915.441;  -10.061;40395.480
657.708;28307.354;   -9.561;39242.020
658.286;28363.465;  -11.511;38920.020
658.863;29545.740;  -10.261;40202.898
659.441;32501.076;   -7.531;39677.938
660.018;31899.689;   -9.501;40413.355
660.596;30817.148;  -13.301;39931.414
661.173;32984.160;  -11.211;39604.531
661.750;33182.387;   -9.951;39700.070
662.328;31843.207;   -9.390;39292.809
662.905;30755.072;  -11.330;38235.648
663.482;26364.422;   -9.050;36212.305
664.060;24455.256;   -8.240;35944.945
664.637;27313.797;  -10.050;35170.785
665.214;29254.506;  -11.760;34197.523
665.791;30617.574;  -10.530;34549.520
666.368;29428.307;   -9.690;35118.578
666.945;30363.260;   -9.320;36019.418
667.522;31897.531;  -11.860;36048.438
668.099;31532.654;  -10.770;36243.914
668.676;30481.689;   -6.260;35958.875
669.253;29175.396;   -7.000;37384.730
669.830;29894.854;  -10.190;36779.629
670.407;29576.750;   -9.550;35231.289
670.984;29536.645;   -9.260;35544.270
671.560;30087.412;   -9.280;35466.867
672.137;29143.076;  -11.810;34280.863
672.714;29884.336;  -11.490;34632.863
673.290;30475.484;   -7.740;35135.422
673.867;30696.174;  -10.660;36114.480
674.443;30538.207;  -12.230;36152.859
675.020;28900.578;  -10.450;35327.238
675.596;29967.234;   -9.260;35795.176
676.173;30454.814;  -10.780;35430.355
676.749;30226.480;  -13.690;33549.516
677.326;30153.672;  -11.980;32210.012
677.902;30067.965;   -8.630;32068.871
678.478;29347.684;  -10.730;32583.891
679.054;28805.400;  -10.520;32088.928
679.631;29080.969;  -11.920;30978.848
680.207;30757.652;   -7.490;33160.887
680.783;32496.766;   -9.860;35570.363
681.359;31539.053;  -13.380;36125.184
681.935;30699.205;  -12.480;35240.922
682.511;29699.799;   -7.900;34429.961
683.087;29757.645;   -7.710;34463.680
683.663;29456.215;  -11.480;34648.898
684.239;28275.438;  -14.090;34546.457
684.815;27966.000;   -7.560;35586.375
685.390;28343.098;   -9.910;35821.895
685.966;28918.529;  -11.159;35085.871
686.542;31501.008;  -11.169;34198.230
687.118;33407.191;   -5.959;32847.707
687.693;33432.914;  -10.329;32794.027
688.269;33182.641;  -12.059;33072.367
688.844;31459.008;  -10.909;33141.664
689.420;29272.816;   -8.019;33965.742
689.995;26887.418;   -8.399;34655.523
690.571;25545.100;  -10.949;33576.742
691.146;26076.031;   -9.619;32657.219
691.722;25518.756;   -8.999;32526.979
692.297;25498.479;  -11.589;33014.617
692.872;27387.344;  -11.739;34012.254
693.448;26893.191;  -11.059;34237.434
694.023;26064.232;  -10.139;34142.672
694.598;28014.574;   -9.029;34132.031
695.173;28293.174;  -13.319;34205.250
695.748;27691.355;  -10.169;32882.488
696.323;27814.754;   -8.339;32864.906
696.898;28137.969;   -8.169;33170.004
697.473;27893.775;  -12.309;32432.984
698.048;27252.688;  -10.989;31649.303
698.623;27288.121;   -9.329;30778.141
699.198;29305.553;   -9.849;31140.119
699.773;30066.350;  -12.329;31764.299
700.348;28269.148;  -10.389;31780.816
700.922;28179.545;   -9.269;32046.375
701.497;28894.113;   -9.329;32603.574
702.072;29071.719;  -10.789;34799.871
702.646;27845.750;  -10.839;35793.172
703.221;25927.451;   -9.099;35201.590
703.795;28135.090;  -10.939;34764.527
704.370;28484.332;  -12.859;34307.367
704.944;28805.031;  -11.559;33509.887
705.519;29721.160;   -7.939;31388.584
706.093;31273.520;  -10.499;31340.104
706.668;31517.627;  -11.289;32630.281
707.242;30431.920;  -11.509;32728.779
707.816;28800.859;   -9.639;32947.238
708.390;27225.736;  -11.429;33277.855
708.965;27769.895;  -11.869;33834.336
709.539;27874.502;  -11.689;33709.273
710.113;28458.904;  -10.478;33044.313
710.687;27923.555;  -10.228;31953.992
711.261;26234.215;  -13.698;30505.949
711.835;26095.133;  -13.378;30262.369
712.409;26901.615;   -9.698;31254.447
712.983;28673.840;  -11.898;32754.986
713.557;29547.461;  -15.138;34018.824
714.131;29054.465;  -14.098;34579.625
714.704;28070.830;   -9.958;33890.262
715.278;25910.125;  -10.028;33531.102
715.852;25051.516;  -11.148;33601.660
716.425;25900.662;   -9.068;33515.117
716.999;26543.855;  -10.038;33185.555
717.573;27538.189;   -9.798;33905.996
718.146;28688.668;  -12.378;35199.293
718.720;28566.471;  -11.918;35060.551
719.293;28016.176;   -8.088;34973.230
719.867;30914.518;  -10.888;36394.449
720.440;30570.197;  -11.938;36663.008
721.013;28808.352;  -12.818;35102.426
721.587;27453.678;  -10.298;33985.266
722.160;26595.775;  -10.048;33524.965
722.733;25579.088;  -12.108;32987.043
723.306;25906.240;  -10.818;33066.301
723.880;28189.166;   -8.908;33399.500
724.453;29879.777;   -9.878;33468.297
725.026;28874.893;  -11.188;33816.637
725.599;26396.387;  -11.678;32797.996
726.172;26961.709;   -9.618;33187.434
726.745;28058.568;   -8.258;35136.613
727.318;29356.313;  -12.978;35751.730
727.891;29716.570;  -12.148;35890.430
728.463;29396.576;   -8.968;34822.090
729.036;28498.301;  -10.188;32895.086
729.609;28824.113;  -11.788;31823.225
730.182;25804.066;  -11.788;31445.283
730.754;23249.031;  -10.268;32373.223
731.327;23180.547;   -9.998;33676.820
731.900;23632.592;  -12.228;33417.000
732.472;25106.871;  -13.848;31978.498
733.045;26960.674;   -8.698;30368.777
733.617;27058.543;  -10.607;30574.215
734.190;26616.424;  -11.507;31280.975
734.762;23765.646;  -13.647;31674.412
735.334;22125.281;   -9.767;31247.291
735.907;22713.451;   -9.897;29876.211
736.479;22764.711;  -11.637;29808.488
737.051;22438.889;   -9.567;30233.547
737.623;23342.309;   -8.187;31469.086
738.195;24196.785;  -11.187;31784.225
738.768;26148.633;  -12.337;32120.523
739.340;26161.543;  -12.227;32094.342
739.912;24881.938;  -11.057;31312.680
740.484;23469.174;  -10.207;31946.238
741.056;22452.885;  -10.047;32984.059
741.628;24301.545;  -13.627;33897.715
742.199;26524.957;   -7.177;33213.016
742.771;24857.229;  -10.797;31369.113
743.343;22575.107;  -11.997;31865.473
743.915;21627.748;  -12.867;32388.631
744.487;21789.791;   -7.617;31079.568
745.058;21994.266;   -9.557;30570.107
745.630;22461.238;   -9.877;29970.127
746.201;23233.016;  -14.177;29186.766
746.773;23529.736;   -9.237;28805.723
747.344;23355.613;   -9.847;29591.223
747.916;22047.789;  -11.657;31412.201
748.487;22269.893;  -10.587;32194.898
749.059;23408.752;   -8.707;32533.719
749.630;24096.854;  -10.537;32158.518
750.201;23207.619;  -11.687;30855.395
750.773;21456.369;  -11.647;28622.555
751.344;21442.969;   -7.147;28405.732
751.915;22673.164;   -9.757;28461.551
752.486;22472.646;  -12.427;27842.850
753.057;20280.723;  -12.227;27845.008
753.628;19146.500;  -10.417;27728.107
754.199;20236.904;  -11.767;27381.086
754.770;21125.938;  -11.187;25882.203
755.341;21117.611;  -10.507;25886.184
755.912;21095.973;   -9.387;26050.861
756.483;20478.477;  -10.647;26798.779
757.054;18719.568;  -11.837;27048.238
757.625;17519.248;  -12.716;26294.838
758.195;17368.465;   -9.666;26142.076
758.766;17148.100;   -8.656;26392.234
759.337;17906.949;  -12.856;26334.594
759.907;19603.371;  -13.366;27579.652
760.478;20446.961;   -8.576;28352.770
761.048;19840.834;  -10.526;27325.088
761.619;19033.879;  -11.116;26460.428
762.189;19105.832;  -12.136;26029.826
762.760;20255.863;   -9.456;26430.145
763.330;21302.006;   -7.136;26670.902
763.900;20661.971;  -11.786;26603.021
764.471;18054.471;  -11.546;25542.740
765.041;16873.434;   -8.096;24358.459
765.611;16965.053;   -8.876;23991.297
766.181;17338.600;  -12.196;24470.236
766.751;18211.031;  -11.636;24845.975
767.321;17974.805;  -10.156;24533.633
767.891;16103.928;  -11.766;24916.492
768.461;15619.847;  -14.936;24776.771
769.031;16153.441;  -12.356;24757.988
769.601;17656.018;   -7.526;24181.088
770.171;17418.355;  -10.766;23670.387
770.741;16632.936;  -13.176;22960.045
771.311;16874.922;  -10.616;22917.523
771.880;17206.129;   -9.576;23562.941
772.450;16876.900;  -10.336;24216.500
773.020;17011.168;  -13.516;24140.398
773.589;16492.080;  -13.466;24414.857
774.159;15860.344;   -8.686;23858.717
774.729;15392.273;   -9.476;22942.135
775.298;14849.722;  -13.666;22324.033
775.867;14441.575;  -11.716;21140.313
776.437;14516.539;   -9.906;20838.092
777.006;14311.419;  -12.166;20599.510
777.576;14250.313;  -12.356;20508.809
778.145;14387.277;  -11.646;20732.947
778.714;14244.660;   -8.226;21062.465
779.283;13464.763;   -9.556;20949.664
779.853;12966.756;  -14.116;20508.623
780.422;13405.419;  -11.506;20649.082
780.991;13003.220;   -9.556;21527.520
781.560;11913.203;   -9.095;22632.658
782.129;11787.774;  -12.135;23048.277
782.698;11812.110;  -10.865;23438.555
783.267;11387.517;   -9.335;23267.734
783.836;11379.351;  -11.045;22415.133
784.404;12488.847;  -13.865;20443.152
784.973;13047.664;  -13.095;19699.150
785.542;12930.557;  -11.575;19763.828
786.111;12718.456;   -9.705;20341.408
786.679;12161.106;  -12.105;20207.967
787.248;11906.612;  -12.455;19516.465
787.817;11779.701;  -11.535;18900.363
788.385;11409.362;   -9.765;17879.121
788.954;10852.421;  -14.005;17658.301
789.522;10355.632;  -11.955;17788.879
790.090;10900.316;  -10.135;18118.277
790.659;11262.712;  -10.975;18338.736
791.227;10771.000;  -13.375;18508.615
791.795;11217.287;  -12.375;17898.254
792.364;11595.038;  -10.725;17295.133
792.932;11920.902;   -9.715;16822.051
793.500;12065.605;  -12.675;17040.148
794.068;12281.015;  -13.495;17179.787
794.636;12386.188;  -10.885;16664.246
795.204;11855.790;  -11.045;16524.545
795.772;11955.933;  -13.175;17274.564
796.340;11485.304;  -12.445;17891.002
796.908;11312.853;   -9.735;17648.561
797.476;11186.100;   -9.815;17064.080
798.044;10716.811;  -13.985;16672.777
798.612; 9911.167;  -13.115;17023.996
799.180; 9498.790;  -10.185;16561.615
799.747; 9405.015;   -9.055;15962.773
800.315; 9176.789;  -12.385;15296.992
800.883; 8855.527;  -15.035;14801.771
801.450; 8861.693;  -10.365;14534.430
802.018; 8940.324;   -9.855;14173.248
802.585; 9099.775;  -11.905;14029.547
803.153; 9169.355;  -11.585;13836.846
803.720; 8982.582;   -9.095;13567.324
804.287; 8537.994;   -9.135;13360.622
804.855; 8137.377;  -11.604;13681.981
805.422; 8000.516;  -11.794;13536.560
805.989; 7983.805;  -10.734;13355.958
806.556; 8168.589;  -10.444;13747.896
807.124; 8412.777;  -12.764;13987.376
807.691; 8388.499;  -12.964;14038.674
808.258; 8192.907;  -11.134;14120.152
808.825; 7837.229;   -9.854;13860.111
809.392; 7868.899;  -10.504;13268.790
809.959; 7390.587;  -13.054;12680.389
810.526; 6991.764;   -8.294;12427.308
811.093; 7060.491;   -8.394;12030.105
811.659; 7637.656;  -12.304;11653.664
812.226; 8102.425;  -13.944;11637.183
812.793; 7796.857;  -10.484;11611.521
813.360; 7197.059;  -10.144;11885.181
813.926; 6922.373;  -11.684;12770.539
814.493; 6698.345;  -13.644;12677.638
815.060; 6309.855;   -9.724;11974.336
815.626; 6300.991;   -9.854;11594.715
816.193; 6691.982;  -13.254;11579.474
816.759; 6736.631;  -13.204;11666.972
817.325; 6808.163;   -9.434;11325.530
817.892; 7136.323;  -10.134;11105.369
818.458; 7552.693;  -13.474;10843.928
819.024; 7166.637;  -11.854;10714.406
819.591; 6814.544;  -10.244;10469.165
820.157; 6602.106;  -10.704;10235.523
820.723; 6143.392;  -12.324;10847.563
821.289; 5839.193;   -9.444;11040.980
821.855; 5728.366;   -8.374;10357.100
822.421; 5656.479;  -10.234; 9978.918
822.987; 5631.699;  -13.294; 9754.177
823.553; 5360.097;  -10.884;10065.755
824.119; 5213.829;   -8.884;10036.294
824.685; 5287.056;   -6.784;10029.192
825.251; 5354.928;  -12.004;10199.230
825.816; 5307.404;  -11.474; 9820.189
826.382; 5088.598;   -9.174; 9297.248
826.948; 5303.511;   -9.214; 9381.347
827.513; 5675.471;  -10.774; 9450.726
828.079; 5493.776;  -11.924; 9472.444
828.645; 4940.779;  -10.543; 9292.643
829.210; 4859.148;  -10.533; 9065.341
829.776; 4837.602;  -10.753; 9132.620
830.341; 4725.667;  -10.173; 9092.878
830.906; 4912.661;  -10.743; 9078.557
831.472; 5230.329;  -11.113; 8534.535
832.037; 4955.064;  -10.603; 8677.874
832.602; 4431.557;  -13.323; 8628.692
833.167; 4209.342;  -10.823; 8879.031
833.733; 4154.933;  -10.113; 9189.790
834.298; 4274.793;  -13.583; 9052.608
834.863; 4326.531;  -12.703; 8895.087
835.428; 4305.815;  -10.523; 8824.266
835.993; 4178.599;   -6.963; 8845.385
836.558; 4039.467;  -10.763; 8888.563
837.123; 4164.155;   -9.903; 8966.582
837.688; 4373.000;   -9.913; 8617.860
838.253; 4591.407;  -10.283; 8590.699
838.817; 4790.285;  -12.963; 8443.797
839.382; 4707.285;  -14.243; 8799.356
839.947; 4395.803;  -10.733; 8810.595
840.511; 4097.036;   -9.383; 8796.394
841.076; 3730.695;  -12.563; 8347.231
841.641; 3797.437;  -12.953; 8224.330
842.205; 3897.139;   -7.043; 8223.349
842.770; 4005.025;   -8.163; 8622.107
843.334; 4171.929;  -12.503; 8410.386
843.898; 4132.609;  -11.693; 8337.465
844.463; 4163.919;  -10.203; 8506.283
845.027; 3956.639;   -9.533; 8280.962
845.591; 3782.455;  -13.443; 8231.141
846.156; 3741.460;  -13.143; 7969.179
846.720; 3609.668;   -9.433; 7768.278
847.284; 3480.862;  -11.033; 7630.957
847.848; 3367.390;  -10.403; 7472.395
848.412; 3290.701;  -11.553; 7437.394
848.976; 3337.936;   -8.393; 7674.592
849.540; 3282.487;   -8.713; 7836.011
850.104; 3408.049;  -12.463; 7913.669
850.668; 3754.636;  -12.973; 7694.508
851.232; 3836.039;  -10.793; 7756.887
851.796; 3666.925;  -10.662; 7926.545
852.359; 3385.086;  -13.082; 7827.844
852.923; 3231.758;  -12.192; 7641.163
853.487; 3051.734;  -11.912; 7342.501
854.050; 2999.296;  -10.892; 7042.820
854.614; 3137.340;  -13.992; 7151.338
855.177; 3264.212;  -11.732; 7105.077
855.741; 3306.637;   -8.962; 6989.675
856.304; 3203.762;   -9.442; 6596.634
856.868; 3154.511;  -14.192; 6356.272
857.431; 3253.902;  -12.702; 6468.571
857.995; 3378.557;   -9.942; 6373.210
858.558; 3393.415;   -9.112; 6324.448
859.121; 3125.806;  -12.932; 6408.327
859.684; 3004.409;  -13.442; 6347.886
860.247; 3105.483;  -10.632; 6321.264
860.810; 3091.099;  -11.272; 6301.903
861.374; 2843.279;   -9.832; 6607.881
861.937; 2600.796;  -11.762; 6408.200
862.500; 2604.718;   -9.722; 6572.639
863.062; 2786.590;  -10.512; 6387.297
863.625; 2952.331;  -11.232; 6190.836
864.188; 3100.612;  -14.112; 5807.254
864.751; 3154.150;  -11.302; 5682.413
865.314; 3038.636;  -10.112; 5547.492
865.876; 2843.693;  -12.182; 5500.150
866.439; 2837.063;  -10.722; 5415.909
867.002; 2784.168;   -9.252; 5501.567
867.564; 2573.101;   -9.572; 5413.946
868.127; 2348.713;  -13.142; 5160.325
868.689; 2246.227;  -12.902; 5133.183
869.252; 2150.369;   -9.732; 5252.382
869.814; 2063.126;   -9.432; 5297.141
870.377; 2082.411;  -11.552; 5390.919
870.939; 2153.885;   -9.052; 5599.898
871.501; 2209.042;  -10.982; 5248.336
872.063; 2204.749;  -12.292; 4854.235
872.626; 2168.421;  -14.912; 4817.074
873.188; 2200.773;  -13.112; 4987.732
873.750; 2167.583;  -13.442; 4868.651
874.312; 2067.670;   -9.402; 4779.330
874.874; 1973.995;  -11.062; 4866.348
875.436; 1888.612;  -13.931; 4718.887
875.998; 1878.710;   -9.561; 4660.005
876.560; 1896.274;  -11.321; 4462.964
877.122; 1836.997;  -12.221; 4145.042
877.683; 1747.517;  -12.191; 4056.481
878.245; 1681.218;  -12.101; 3950.740
878.807; 1724.621;   -8.971; 4058.958
879.369; 1745.781;  -12.071; 3954.677
879.930; 1646.716;  -14.621; 3941.495
880.492; 1585.269;  -10.311; 4067.014
881.053; 1545.113;  -10.901; 3859.633
881.615; 1435.483;  -14.411; 3776.071
882.176; 1341.131;  -13.761; 3734.750
882.738; 1298.951;   -9.181; 3678.489
883.299; 1276.689;  -11.791; 3405.407
883.860; 1284.526;  -13.121; 3351.106
884.422; 1285.981;  -11.211; 3394.044
884.983; 1238.289;  -10.091; 3166.443
885.544; 1158.899;   -8.461; 3189.802
886.105; 1080.819;  -12.361; 3160.360
886.666; 1014.120;  -14.141; 3093.059
887.227;  960.240;  -11.361; 2941.957
887.788;  900.416;  -11.401; 2974.836
888.349;  838.660;  -13.791; 2721.214
888.910;  835.018;  -13.191; 2696.493
889.471;  843.855;   -9.881; 2560.172
890.032;  825.042;   -9.881; 2558.190
890.593;  800.932;  -10.371; 2567.669
891.153;  772.647;  -13.301; 2460.307
891.714;  725.494;  -11.431; 2372.046
892.275;  686.981;  -11.291; 2309.505
892.835;  647.046;  -11.471; 2382.543
893.396;  595.277;  -11.541; 2295.502
893.956;  541.974;  -11.181; 2162.420
894.517;  507.492;  -11.741; 2125.439
895.077;  503.735;  -11.671; 2086.978
895.638;  504.363;  -11.311; 2126.316
896.198;  474.947;   -9.831; 1838.275
896.758;  432.613;   -8.421; 1892.813
897.319;  404.921;  -12.351; 1792.232
897.879;  388.963;  -13.511; 1762.751
898.439;  364.649;  -12.001; 1661.149
898.999;  340.657;  -10.180; 1781.468
899.559;  332.376;  -12.030; 1703.347
900.119;  326.123;  -15.710; 1537.525
900.679;  323.523;   -8.900; 1638.384
901.239;  310.378;   -8.340; 1527.902
901.799;  298.808;  -13.910; 1456.441
902.359;  294.356;  -13.460; 1357.140
902.919;  287.041;  -11.490; 1331.118
903.479;  274.622;  -12.110; 1317.257
904.038;  254.813;  -11.720; 1262.595
904.598;  239.557;  -13.610; 1152.034
905.158;  236.651;  -11.040; 1240.893
905.717;  229.742;  -10.900; 1233.691
906.277;  220.236;  -15.080; 1217.330
906.836;  209.690;  -13.380; 1222.408
907.396;  201.727;  -10.780; 1193.047
907.955;  194.588;   -8.500; 1182.526
908.515;  188.939;  -12.760; 1099.364
909.074;  182.503;  -11.900; 1092.863
909.633;  177.934;   -8.950; 1069.121
910.192;  173.089;   -8.770; 1196.460
910.752;  167.943;  -12.390; 1029.960
911.311;  164.279;  -13.680; 1009.780
911.870;  162.698;  -12.370;  971.460
912.429;  163.361;  -10.900; 1094.080
912.988;  161.755;  -11.690; 1081.060
913.547;  156.959;  -13.240;  940.380
914.106;  152.200;  -11.990;  999.420
914.665;  149.192;   -9.990;  984.020
915.224;  148.970;  -12.880; 1035.760
915.782;  148.741;  -12.350;  922.560
916.341;  148.180;   -9.110; 1049.840
916.900;  144.627;   -9.270;  925.260
917.458;  141.913;  -13.240;  884.220
918.017;  142.225;  -13.550;  942.600
918.576;  141.937;  -12.320;  904.440
919.134;  140.962;  -11.490;  837.980
919.693;  138.200;  -13.670;  893.060
920.251;  136.235;  -15.470;  876.500
920.809;  135.366;  -11.290;  839.580
921.368;  134.389;  -10.210;  885.360
921.926;  133.835;  -12.140;  842.940
922.484;  132.115;  -13.080;  903.360
923.042;  132.648;  -11.720;  880.340
923.601;  135.210;   -7.480;  998.680
924.159;  134.533;  -11.570;  935.560
924.717;  129.942;  -13.840;  841.080
925.275;  130.360;  -10.640;  903.240
925.833;  129.871;  -11.540;  779.320
926.391;  131.117;  -12.960;  938.380
926.949;  128.945;  -14.130;  857.680
927.506;  129.915;  -11.750;  903.500
928.064;  129.793;  -10.250;  877.580
928.622;  129.276;  -13.030;  880.100
929.180;  129.277;  -13.400;  814.180
929.737;  130.076;  -10.700;  808.540
930.295;  133.715;  -10.070;  928.480
930.853;  135.374;  -11.960;  849.100
931.410;  135.265;  -13.120;  821.120
931.968;  135.921;  -10.770;  940.660
932.525;  135.394;  -10.680;  909.380
933.082;  135.796;  -13.130;  811.440
933.640;  135.617;  -13.210;  925.900
934.197;  134.168;  -11.060;  886.360
934.754;  135.319;   -9.580;  897.780
935.312;  137.915;  -14.000;  863.340
935.869;  142.089;  -10.710; 1012.980
936.426;  142.718;   -9.860;  872.800
936.983;  144.296;   -9.710;  889.020
937.540;  142.944;  -13.990;  838.280
938.097;  141.550;  -14.040;  940.120
938.654;  141.985;  -10.310;  898.860
939.211;  144.367;  -10.560;  952.480
939.768;  147.076;  -13.900;  915.420
940.324;  150.664;  -14.760;  904.200
940.881;  150.989;  -10.370;  878.500
941.438;  152.628;   -8.260; 1021.200
941.995;  148.613;  -12.540;  992.560
942.551;  145.913;  -14.670;  875.620
943.108;  147.013;  -10.450;  937.920
943.664;  148.849;  -10.750;  869.340
944.221;  152.938;  -11.550; 1088.140
944.777;  150.326;  -14.770;  869.680
945.334;  150.505;  -12.820;  884.840
945.890;  151.824;  -10.130;  946.480
946.446;  151.534;  -13.470;  947.020
947.003;  153.559;  -12.120;  964.940
947.559;  155.990;   -9.980; 1063.040
948.115;  155.121;   -9.080; 1026.540
948.671;  154.071;  -10.830;  967.300
949.227;  151.819;  -12.440;  859.560
949.783;  149.115;  -12.910;  858.900
950.339;  150.172;  -10.270;  991.000
950.895;  150.049;  -13.630; 1023.840
951.451;  149.719;  -15.100;  925.280
952.007;  150.342;  -11.330;  998.540
952.563;  150.893;  -10.580;  937.780
953.118;  149.380;  -13.440;  904.940
953.674;  149.838;  -12.710;  935.780
954.230;  148.693;  -10.350;  949.640
954.785;  146.204;   -9.190;  936.640
955.341;  143.851;  -11.200;  998.160
955.897;  141.396;  -16.560;  834.660
956.452;  143.123;  -12.570;  953.840
957.008;  142.409;   -7.970; 1083.640
957.563;  140.828;  -11.940; 1009.540
958.118;  136.390;  -13.450;  877.700
958.674;  136.862;  -12.030;  946.780
959.229;  137.354;   -9.410; 1013.980
959.784;  135.922;  -12.000;  832.400
960.339;  134.723;  -14.780; 1001.280
960.894;  132.114;   -9.860;  963.760
961.449;  127.011;   -9.970;  859.960
962.004;  128.284;  -10.900; 1212.840
962.559;  122.661;  -13.150;  860.140
963.114;  120.474;  -13.740;  742.480
963.669;  120.080;   -9.820;  915.500
964.224;  118.610;  -13.890;  874.340
964.779;  116.714;  -12.600;  828.420
965.334;  118.093;  -10.950; 1017.860
965.888;  117.352;  -11.170;  875.360
966.443;  120.466;  -12.540;  972.380
966.998;  119.032;  -15.780;  819.460
967.552;  119.263;   -9.760;  908.380
968.107;  114.443;   -9.060;  868.300
968.661;  115.915;  -11.950;  922.440
969.216;  116.388;  -12.800;  856.280
969.770;  116.846;  -11.210;  917.200
970.324;  115.107;  -11.610;  923.140
970.879;  113.285;  -11.370;  947.180
971.433;  109.172;  -12.540;  952.720
971.987;  104.390;  -11.320;  895.340
972.541;  101.747;  -10.720;  917.100
973.095;  101.780;   -9.680; 1009.460
973.649;   99.649;  -11.440;  809.480
974.203;   98.655;  -11.210;  829.040
974.757;   98.839;  -10.240;  855.220
975.311;   99.021;  -13.720;  872.600
975.865;   97.774;  -13.770;  881.820
976.419;   96.593;  -11.690;  857.400
976.973;   95.976;   -9.510;  849.620
977.526;   98.275;  -12.620;  949.920
978.080;   96.590;  -12.010;  796.780
978.634;   98.996;  -10.170;  921.320
979.187;   96.461;   -9.020;  905.400
979.741;   93.135;   -9.820; 1018.380
980.294;   89.497;  -14.870;  789.160
980.848;   87.159;  -12.380;  717.220
981.401;   89.093;  -10.350;  816.540
981.955;   90.977;  -13.720;  844.300
982.508;   90.718;  -11.490;  746.340
983.061;   91.313;  -10.000;  915.260
983.615;   86.730;  -11.480;  798.800
984.168;   84.147;  -13.220;  770.080
984.721;   82.584;  -13.960;  880.760
985.274;   82.776;  -10.870;  867.500
985.827;   81.259;   -9.790;  834.220
986.380;   78.910;  -13.120;  721.340
986.933;   77.877;  -12.450;  864.800
987.486;   76.346;  -10.210;  861.920
988.039;   75.447;   -8.430;  863.100
988.591;   73.160;  -10.520;  893.260
989.144;   70.333;  -14.860;  737.260
989.697;   69.321;  -13.080;  758.740
990.250;   70.265;  -10.150;  858.100
990.802;   69.788;  -13.430;  755.860
991.355;   70.496;  -12.750;  974.880
991.907;   68.632;  -12.040;  864.320
992.460;   66.767;  -11.330;  753.760
993.012;   65.024;  -13.610;  749.540
993.565;   64.736;  -13.460;  711.360
994.117;   66.678;   -9.360;  950.780
994.669;   62.603;  -11.300;  701.320
995.221;   60.770;  -13.540;  791.920
995.774;   58.295;  -13.430;  787.580
996.326;   57.533;  -12.520;  740.220
996.878;   57.277;  -10.950;  838.420
997.430;   54.796;  -14.300;  699.860
997.982;   54.294;  -13.760;  750.140
998.534;   54.008;  -11.530;  739.060
999.086;   52.749;  -10.310;  738.220
999.638;   51.731;  -12.530;  661.380
1000.190;   50.085;  -11.840;  699.320
1000.741;   50.657;  -10.260;  742.700
1001.293;   49.973;   -8.860;  686.020
1001.845;   49.350;  -13.700;  676.640
1002.396;   48.777;  -12.100;  743.400
1002.948;   49.103;  -12.760;  737.400
1003.500;   47.121;  -10.380;  723.780
1004.051;   47.116;  -11.900;  907.580
1004.603;   45.937;  -12.250;  791.820
1005.154;   42.032;  -13.210;  608.980
1005.705;   41.119;  -10.950;  723.960
1006.257;   41.089;  -13.880;  707.220
1006.808;   40.521;  -12.840;  685.460
1007.359;   40.646;  -10.570;  763.240
1007.910;   39.155;   -9.620;  646.640
1008.461;   38.606;  -13.630;  732.940
1009.013;   37.799;  -17.200;  588.340
1009.564;   39.119;  -10.200;  793.520
1010.115;   36.883;  -12.570;  597.040
1010.665;   36.825;  -15.150;  602.160
1011.216;   35.851;  -14.480;  667.920
1011.767;   36.541;  -11.340;  697.920
1012.318;   35.365;   -9.780;  736.980
1012.869;   34.718;  -12.380;  679.000
1013.419;   33.868;  -15.560;  603.120
1013.970;   35.545;  -11.010;  666.640
1014.521;   33.850;  -11.610;  620.620
1015.071;   34.264;  -13.450;  670.380
1015.622;   33.645;  -13.870;  635.460
1016.172;   33.707;  -11.610;  596.820
1016.723;   33.186;  -12.120;  614.380
1017.273;   32.931;  -13.620;  604.160
1017.823;   32.679;  -14.140;  650.340
1018.374;   32.940;  -12.800;  611.760
1018.924;   32.427;  -12.340;  716.880
1019.474;   32.361;  -11.410;  718.880
1020.024;   31.582;  -14.770;  657.580
1020.574;   32.229;   -9.780;  726.160
1021.124;   32.281;   -8.560;  673.580
1021.674;   30.424;  -15.190;  559.120
1022.224;   31.373;  -13.530;  708.940
1022.774;   31.498;  -13.280;  668.820
1023.324;   31.528;  -10.690;  753.520
1023.874;   32.566;  -10.240;  875.760
1024.423;   29.612;  -12.540;  613.700
1024.973;   29.469;  -10.010;  610.760
1025.523;   29.579;  -10.550;  620.960
1026.072;   29.508;  -13.560;  606.420
1026.622;   28.236;  -15.120;  675.740
1027.172;   30.012;  -11.260;  715.660
1027.721;   28.554;  -11.410;  601.220
1028.270;   28.883;  -13.530;  663.400
1028.820;   29.058;  -13.680;  638.080
1029.369;   28.628;  -13.520;  612.700
1029.918;   28.572;  -10.980;  649.840
1030.468;   27.608;  -13.530;  564.780
1031.017;   28.046;  -13.170;  634.800
1031.566;   27.474;  -12.200;  608.900
1032.115;   27.632;   -9.960;  694.500
1032.664;   26.552;  -13.210;  596.480
1033.213;   27.356;  -12.500;  735.420
1033.762;   27.026;  -11.910;  635.620
1034.311;   26.304;   -9.640;  677.220
1034.860;   27.247;  -13.310;  691.000
1035.408;   26.686;  -11.830;  722.720
1035.957;   26.961;  -12.000;  719.540
1036.506;   24.864;  -11.690;  530.800
1037.055;   27.331;  -10.990;  844.320
1037.603;   25.173;  -15.120;  664.000
1038.152;   23.660;  -12.450;  534.760
1038.700;   24.145;  -10.560;  585.740
1039.249;   24.221;  -11.080;  681.220
1039.797;   24.340;  -12.540;  633.360
1040.345;   25.349;  -11.920;  705.420
1040.894;   24.212;  -11.410;  625.300
1041.442;   24.648;  -14.320;  632.200
1041.990;   23.515;  -16.240;  559.160
1042.538;   22.996;  -11.680;  536.180
1043.087;   22.946;  -10.760;  570.860
1043.635;   24.496;  -11.850;  670.500
1044.183;   22.650;  -15.480;  586.400
1044.731;   22.912;  -11.770;  576.000
1045.279;   22.538;  -13.090;  674.920
1045.827;   24.712;  -12.440;  892.400
1046.374;   22.468;  -13.840;  515.420
1046.922;   21.445;  -13.220;  590.580
1047.470;   23.020;  -10.230;  691.300
1048.018;   22.675;  -14.590;  647.960
1048.565;   23.105;  -12.050;  708.600
1049.113;   20.973;  -11.650;  557.000
1049.660;   21.306;  -10.510;  629.660
1050.208;   22.066;  -13.310;  675.640
1050.755;   21.314;  -15.900;  606.580
1051.303;   21.888;  -11.430;  686.820
1051.850;   20.946;   -8.480;  635.120
1052.397;   19.212;  -15.010;  473.960
1052.945;   19.937;  -13.960;  617.760
1053.492;   21.688;  -13.150;  741.840
1054.039;   20.980;   -9.630;  720.180
1054.586;   20.190;  -13.680;  557.240
1055.133;   21.060;  -14.570;  693.140
1055.680;   20.567;  -13.820;  646.620
1056.227;   19.848;  -11.730;  542.780
1056.774;   21.882;  -12.480;  794.980
1057.321;   18.638;  -13.930;  523.260
1057.868;   19.212;  -11.690;  651.320
1058.415;   18.474;   -9.520;  651.980
1058.961;   19.923;  -13.160;  678.940
1059.508;   19.192;  -12.920;  643.820
1060.055;   19.319;  -11.920;  581.780
1060.601;   19.936;  -11.500;  624.300
1061.148;   19.011;  -14.330;  616.820
1061.694;   17.957;  -16.870;  592.580
1062.241;   18.557;  -10.330;  596.320
1062.787;   18.301;  -10.620;  663.140
1063.334;   19.800;  -10.110;  808.560
1063.880;   17.934;  -13.400;  668.360
1064.426;   18.152;  -10.680;  706.820
1064.972;   17.927;   -9.920;  601.340
1065.518;   17.038;  -10.980;  566.640
1066.065;   17.782;  -14.890;  624.460
1066.611;   16.959;  -12.870;  598.800
1067.157;   17.874;  -12.950;  641.860
1067.703;   17.643;  -13.540;  668.480
1068.249;   17.222;  -13.540;  605.220
1068.794;   16.814;  -12.600;  626.880
1069.340;   16.117;  -10.620;  578.960
1069.886;   16.486;  -12.830;  590.700
1070.432;   15.464;  -14.870;  541.720
1070.977;   15.263;  -11.980;  601.080
1071.523;   15.946;   -8.200;  573.060
1072.068;   16.277;  -12.330;  582.000
1072.614;   15.201;  -16.370;  527.760
1073.160;   16.731;  -11.100;  687.040
1073.705;   15.056;  -10.480;  572.520
1074.250;   15.629;  -14.520;  559.900
1074.796;   16.302;  -11.460;  655.160
1075.341;   16.231;  -11.950;  664.100
1075.886;   15.703;  -11.460;  594.240
1076.431;   15.361;  -13.770;  649.880
1076.976;   14.339;  -12.680;  639.220
1077.521;   14.848;  -13.170;  583.080
1078.067;   14.020;  -10.860;  579.400
1078.612;   15.092;  -13.920;  661.620
1079.156;   14.262;  -13.880;  601.540
1079.701;   15.035;  -13.120;  693.260
1080.246;   15.001;   -9.940;  696.300
1080.791;   14.026;  -14.740;  625.020
1081.336;   14.342;  -13.750;  659.320
1081.880;   14.522;  -13.400;  649.680
1082.425;   12.944;  -12.220;  573.480
1082.970;   14.670;  -11.610;  717.040
1083.514;   12.904;  -13.580;  597.000
1084.059;   12.845;  -12.810;  586.720
1084.603;   13.340;  -12.320;  565.840
1085.147;   13.363;  -13.190;  645.220
1085.692;   13.965;  -12.480;  716.800
1086.236;   11.862;  -13.020;  503.140
1086.780;   13.801;   -9.190;  751.440
1087.325;   13.465;  -12.480;  654.620
1087.869;   12.812;  -12.450;  610.700
1088.413;   13.385;  -12.240;  705.040
1088.957;   11.442;   -9.020;  543.400
1089.501;   13.427;  -10.320;  766.640
1090.045;   12.437;  -12.720;  726.480
1090.589;   10.705;  -13.690;  569.920
1091.133;   11.976;  -10.020;  673.340
1091.676;   11.931;  -12.330;  591.940
1092.220;   11.467;  -14.970;  600.920
1092.764;   12.958;  -12.430;  706.960
1093.307;   11.589;   -9.800;  673.780
1093.851;   10.571;  -14.970;  556.540
1094.395;   11.940;  -15.310;  683.140
1094.938;   11.280;  -10.370;  632.520
1095.482;   10.874;  -11.050;  559.800
1096.025;   12.363;  -11.840;  710.880
1096.568;   12.268;  -12.840;  779.280
1097.112;    9.433;  -14.700;  508.180
1097.655;   11.354;   -8.720;  603.000
1098.198;   10.056;  -13.610;  600.180
1098.741;    9.726;  -13.350;  612.860
1099.285;   11.310;  -11.230;  657.300
1099.828;    9.200;  -11.840;  439.400
1100.371;   10.770;  -10.840;  608.160
1100.914;   10.073;  -14.190;  682.660
1101.457;    9.755;  -11.240;  679.900
1101.999;    9.996;  -11.270;  584.680
1102.542;   10.469;  -11.480;  641.440
1103.085;    8.925;  -11.750;  658.500
1103.628;    9.864;  -11.400;  762.060
1104.170;    8.960;  -10.490;  588.280
1104.713;    9.374;  -10.600;  646.700
1105.256;    8.644;  -14.360;  557.440
1105.798;    8.254;  -13.210;  499.980
1106.341;   10.112;  -10.270;  728.900
1106.883;    8.903;  -12.200;  521.340
1107.425;    8.787;  -13.110;  668.180
1107.968;    8.183;  -12.840;  612.380
1108.510;    9.440;   -6.480;  684.960
1109.052;    7.563;  -13.940;  612.620
1109.594;    7.737;  -13.690;  554.440
1110.136;    8.474;  -11.880;  643.220
1110.679;    7.699;   -9.500;  633.080
1111.221;    8.210;  -14.160;  604.460
1111.763;    7.452;  -13.980;  559.220
1112.304;    7.078;  -13.880;  547.140
1112.846;    7.815;  -12.210;  666.240
1113.388;   10.775;  -11.390;  942.180
1113.930;    7.846;  -14.540;  694.200
1114.472;    6.272;  -12.640;  606.540
1115.013;    5.870;  -11.620;  551.280
1115.555;    6.286;  -13.640;  587.100
1116.097;    5.583;  -15.380;  579.480
1116.638;    7.273;  -12.640;  684.600
1117.180;    7.298;   -9.850;  667.740
1117.721;    6.672;  -13.690;  568.580
1118.262;    7.302;  -12.680;  677.960
1118.804;    6.495;  -12.530;  637.340
1119.345;    5.385;  -11.690;  578.400
1119.886;    6.883;  -13.380;  704.040
1120.427;    5.637;  -14.070;  589.020
1120.969;    5.624;  -13.500;  597.920
1121.510;    5.792;  -11.480;  563.060
1122.051;    6.408;  -12.830;  723.580
1122.592;    5.526;  -14.290;  655.420
1123.133;    4.875;  -12.400;  547.940
1123.673;    7.058;  -10.130;  706.480
1124.214;    5.293;  -12.930;  612.460
1124.755;    6.361;  -14.380;  639.460
1125.296;    5.487;  -14.000;  627.320
1125.836;    6.184;  -10.070;  691.500
1126.377;    4.069;  -12.640;  599.660
1126.918;    5.679;  -12.960;  614.980
1127.458;    4.526;  -13.350;  622.220
1127.999;    5.343;  -10.750;  656.980
1128.539;    5.137;  -12.350;  694.240
1129.079;    4.704;  -14.860;  632.720
1129.620;    3.879;  -13.840;  558.100
1130.160;    3.531;  -12.330;  539.480
1130.700;    4.983;  -14.530;  640.840
1131.240;    5.257;  -12.530;  643.700
1131.781;    4.659;  -14.450;  619.680
1132.321;    4.676;   -9.790;  599.120
1132.861;    3.165;  -14.860;  564.200
1133.401;    3.499;  -14.290;  593.940
1133.941;    3.975;  -11.750;  626.280
1134.481;    3.472;   -9.920;  597.580
1135.020;    3.617;  -12.290;  609.160
1135.560;    4.122;  -11.650;  674.940
1136.100;    2.365;  -16.270;  501.160
1136.640;    3.440;  -10.890;  510.480
1137.179;    2.917;  -14.180;  537.960
1137.719;    3.283;  -16.250;  605.400
1138.258;    3.112;  -14.230;  587.360
1138.798;    3.066;   -9.090;  663.780
1139.337;    1.826;  -15.130;  482.840
1139.877;    2.972;  -13.680;  642.360
1140.416;    4.816;  -11.320;  878.060
1140.955;    1.644;  -10.860;  535.380
1141.494;    2.832;  -12.920;  669.280
1142.034;    2.144;  -13.930;  583.520
1142.573;    3.691;  -11.440;  646.280
1143.112;    2.526;  -12.000;  553.480
1143.651;    3.064;  -13.670;  536.480
1144.190;    2.485;  -12.730;  691.640
1144.729;    2.312;  -14.560;  607.420
1145.267;    2.364;  -11.830;  584.900
1145.806;    2.683;  -12.230;  637.040
1146.345;    1.465;  -14.130;  635.020
1146.884;    1.856;  -11.590;  622.500
1147.422;    1.725;  -12.550;  533.060
1147.961;    3.239;  -11.180;  708.460
1148.500;    2.825;  -11.510;  669.720
1149.038;    2.507;  -11.640;  632.500
1149.577;    2.370;  -10.130;  698.640
1150.115;   -0.142;  -13.970;  452.280
1150.653;    1.775;  -14.520;  607.340
1151.192;    1.825;  -12.810;  552.920
1151.730;    1.406;   -9.100;  652.560
1152.268;    0.884;  -12.220;  589.520
1152.806;    1.068;  -14.140;  571.180
1153.344;   -0.226;  -12.350;  577.640
1153.882;    0.918;   -8.980;  600.060
1154.421;    0.053;  -15.190;  470.620
1154.958;    0.582;  -15.210;  595.240
1155.496;    2.018;  -12.850;  645.280
1156.034;    0.760;   -9.940;  721.880
1156.572;    2.350;  -13.570;  667.060
1157.110;   -0.044;  -14.590;  473.940
1157.647;    1.016;  -13.030;  676.960
1158.185;   -0.353;  -12.140;  564.320
1158.723;   -1.330;  -14.390;  509.200
1159.260;    0.680;  -14.090;  701.700
1159.798;    0.710;  -11.920;  658.160
1160.335;    0.215;  -11.110;  631.820

