
Integration time [ms]:   3.276
Averaging Nr. [scans]: 1000
Smoothing Nr. [pixels]: 0
Data measured with spectrometer [name]: 7414430SP
Wave   ;Sample   ;Dark     ;Reference
[nm]   ;[counts] ;[counts] ;[counts] 

288.544;  150.510;    7.793;  793.890
289.143;  154.430;    7.462;  681.602
289.742;  154.512;    8.602;  828.814
290.341;  140.340;    1.321;  789.841
290.940;  129.514;   -0.709;  730.702
291.538;  130.367;    0.881;  881.108
292.137;  130.189;    0.122;  792.581
292.736;  134.002;   -1.929;  975.101
293.335;  131.784;   -8.229;  735.086
293.934;  131.785;   -5.279;  781.677
294.532;  129.821;   -1.369; 1031.958
295.131;  115.689;   -7.641;  834.394
295.730;  117.157;   -8.420;  809.588
296.328;  114.913;   -5.611;  783.442
296.927;  116.394;   -5.781;  779.652
297.525;  117.370;   -6.361;  781.236
298.124;  107.330;  -11.382;  654.009
298.722;  111.224;   -7.641;  761.933
299.321;  108.746;   -6.811;  708.597
299.919;  106.179;   -6.991;  751.918
300.518;  104.170;  -10.362;  689.338
301.116;  105.932;   -9.581;  691.381
301.715;  106.163;   -4.891;  730.222
302.313;  104.855;   -8.801;  704.943
302.911;   99.689;   -8.522;  733.830
303.509;  105.488;   -6.171;  925.627
304.108;  102.936;   -7.311;  760.383
304.706;  101.960;   -8.321;  801.664
305.304;   96.478;  -10.222;  796.707
305.902;  102.880;   -6.021;  784.484
306.500;   96.936;   -4.971;  728.200
307.098;   96.030;   -7.061;  746.560
307.696;   94.355;   -8.801;  780.432
308.294;   94.597;   -6.411;  731.359
308.892;   96.060;   -2.901;  759.769
309.490;   92.918;   -5.041;  712.161
310.088;   91.499;   -5.002;  788.444
310.686;   95.610;   -2.041;  821.749
311.284;   90.482;   -2.351;  766.040
311.882;   89.238;   -4.422;  731.225
312.480;   86.157;   -4.192;  697.167
313.078;   87.272;   -1.172;  808.331
313.675;   88.501;   -2.601;  691.600
314.273;   83.488;   -1.312;  797.837
314.871;   82.189;   -3.942;  589.829
315.468;   80.543;   -2.802;  652.090
316.066;   82.936;   -0.701;  694.427
316.664;   75.750;   -4.362;  656.351
317.261;   80.848;   -2.872;  910.128
317.859;   75.624;   -2.022;  768.735
318.456;   76.784;   -0.531;  830.096
319.054;   72.949;   -3.912;  787.828
319.651;   70.629;   -4.752;  759.928
320.249;   70.030;   -2.602;  810.188
320.846;   68.449;   -0.821;  714.286
321.443;   65.756;   -4.642;  832.135
322.041;   62.771;   -5.002;  812.315
322.638;   60.776;   -3.982;  701.456
323.235;   61.923;   -3.411;  665.683
323.833;   58.492;   -7.361;  740.354
324.430;   54.835;   -8.611;  615.900
325.027;   55.580;   -4.061;  876.855
325.624;   55.144;   -4.031;  644.532
326.221;   52.164;   -7.481;  689.717
326.818;   51.749;   -5.281;  818.332
327.415;   54.318;   -7.460;  748.828
328.012;   53.980;   -5.510;  690.585
328.609;   53.749;   -7.880;  731.389
329.206;   51.014;   -8.331;  778.621
329.803;   51.498;   -5.121;  737.841
330.400;   54.115;   -4.510;  704.260
330.997;   55.292;   -6.441;  817.147
331.594;   53.501;   -8.831;  788.185
332.191;   59.348;   -7.621;  728.722
332.787;   62.032;   -4.591;  844.463
333.384;   60.796;   -7.412;  763.093
333.981;   59.326;   -8.293;  815.687
334.578;   62.636;   -7.052;  708.378
335.174;   64.895;   -3.102;  731.469
335.771;   64.018;   -5.943;  836.456
336.367;   61.368;   -7.393;  710.631
336.964;   65.993;   -4.063;  793.266
337.561;   62.656;   -3.813;  731.112
338.157;   59.035;   -4.654;  911.916
338.754;   56.214;   -7.934;  796.589
339.350;   54.257;   -4.414;  722.493
339.946;   57.137;   -4.664;  773.135
340.543;   48.445;   -6.375;  846.136
341.139;   43.562;   -9.815;  720.836
341.735;   41.232;   -4.526;  772.593
342.332;   40.398;   -4.895;  691.472
342.928;   39.805;   -4.295;  795.394
343.524;   33.634;   -5.476;  761.684
344.120;   30.587;   -5.856;  738.562
344.716;   32.841;   -2.155;  723.717
345.313;   31.337;   -6.275;  795.342
345.909;   26.506;   -8.815;  627.336
346.505;   28.684;   -5.305;  740.247
347.101;   28.818;   -2.674;  827.864
347.697;   28.570;   -4.344;  785.398
348.293;   23.173;   -9.975;  627.244
348.889;   24.632;   -5.774;  745.914
349.485;   24.334;   -5.004;  688.205
350.081;   24.541;   -4.704;  772.592
350.676;   19.684;   -6.635;  691.606
351.272;   24.378;   -4.504;  809.530
351.868;   23.711;   -3.914;  780.497
352.464;   21.190;   -9.044;  723.932
353.059;   17.371;   -8.314;  646.017
353.655;   20.927;   -7.024;  777.063
354.251;   21.379;   -5.343;  759.845
354.846;   16.701;   -8.604;  740.646
355.442;   14.361;   -6.945;  753.071
356.038;   16.243;   -7.564;  751.708
356.633;   15.583;   -5.814;  728.594
357.229;   14.186;   -7.364;  724.757
357.824;   12.069;   -8.024;  703.600
358.420;   11.972;   -9.384;  679.726
359.015;   11.752;   -5.104;  695.357
359.610;   12.941;   -6.854;  763.920
360.206;    7.089;  -10.185;  603.240
360.801;   10.283;   -7.054;  646.503
361.396;   11.551;   -5.034;  725.975
361.992;    7.237;   -8.284;  668.220
362.587;    5.237;   -8.625;  670.160
363.182;    7.196;   -7.674;  689.631
363.777;    7.861;   -5.164;  738.242
364.372;    6.989;   -8.604;  737.314
364.967;    3.166;   -9.055;  680.744
365.563;    7.849;   -6.114;  815.567
366.158;    5.371;   -5.814;  685.161
366.753;    5.685;   -7.854;  649.263
367.348;    4.805;   -7.804;  746.056
367.942;    3.839;   -7.954;  697.298
368.537;    2.893;   -4.984;  754.245
369.132;    3.459;   -8.564;  703.428
369.727;   -0.224;   -8.855;  638.079
370.322;    0.570;   -6.245;  580.186
370.917;    0.566;   -6.425;  710.646
371.511;    3.498;   -6.294;  861.834
372.106;   -0.828;   -7.685;  776.964
372.701;   -3.635;   -7.335;  585.988
373.296;    1.770;   -4.564;  863.135
373.890;   -2.840;  -10.235;  647.840
374.485;   -4.761;   -7.885;  691.199
375.079;   -0.574;   -7.324;  738.685
375.674;    0.278;   -3.494;  812.970
376.268;   -4.074;   -8.525;  691.759
376.863;   -9.416;  -10.086;  580.327
377.457;   -3.210;   -7.025;  662.490
378.052;   -5.073;   -3.585;  764.884
378.646;   -5.930;   -7.595;  741.167
379.240;   -6.258;   -8.335;  721.176
379.835;   -4.937;   -5.785;  636.978
380.429;   -7.768;   -4.335;  562.557
381.023;   -7.956;   -6.805;  779.205
381.617;   -9.579;   -9.195;  680.106
382.212;   -5.835;   -6.905;  685.303
382.806;   -5.819;   -3.745;  760.690
383.400;   -9.331;   -7.745;  672.281
383.994;  -10.497;   -9.765;  664.870
384.588;   -6.955;   -6.564;  697.701
385.182;   -5.494;   -5.344;  726.624
385.776;   -7.361;   -8.514;  706.875
386.370;   -9.612;   -9.555;  681.968
386.964;   -8.969;   -8.715;  684.155
387.558;   -7.129;   -6.174;  598.360
388.152;  -11.359;   -8.725;  681.959
388.745;   -9.123;   -7.965;  814.707
389.339;   -6.845;   -5.924;  747.642
389.933;   -6.219;   -5.524;  695.370
390.527;   -7.214;   -7.114;  859.029
391.120;  -13.349;  -10.725;  595.318
391.714;  -10.179;   -8.035;  711.633
392.308;   -8.116;   -3.574;  780.253
392.901;  -10.677;   -7.245;  642.460
393.495;  -13.246;   -9.285;  595.414
394.089;  -10.234;   -5.895;  760.452
394.682;  -11.631;   -4.295;  697.188
395.275;  -12.022;   -9.875;  719.927
395.869;  -12.731;   -8.485;  667.314
396.462;  -11.400;   -7.455;  616.609
397.056;   -7.698;   -5.424;  776.621
397.649;  -12.327;   -6.605;  731.575
398.242;  -10.005;   -8.224;  712.645
398.836;   -8.853;   -7.474;  766.408
399.429;  -10.005;   -7.094;  631.041
400.022;  -12.900;   -9.475;  665.902
400.615;  -10.859;   -7.145;  805.609
401.208;   -8.356;   -7.174;  691.451
401.802;  -11.305;   -5.515;  699.329
402.395;  -12.852;   -9.875;  683.502
402.988;  -13.576;   -8.845;  696.627
403.581;   -9.605;   -8.874;  646.878
404.174;   -7.817;   -5.324;  686.568
404.767;  -10.212;   -9.575;  638.583
405.360;  -13.271;  -10.965;  621.445
405.953;   -7.496;   -8.764;  759.034
406.545;   -7.256;   -7.514;  725.342
407.138;  -11.487;  -10.025;  618.350
407.731;   -9.973;  -10.034;  613.303
408.324;   -5.513;   -9.374;  660.554
408.917;   -6.524;   -6.534;  681.864
409.509;   -8.842;   -8.004;  740.396
410.102;  -11.054;   -9.875;  643.948
410.695;   -5.060;   -8.604;  665.758
411.287;   -5.892;   -6.794;  599.821
411.880;   -6.879;   -9.334;  585.421
412.472;   -9.866;  -10.254;  613.092
413.065;   -6.959;   -6.714;  629.408
413.657;   -4.917;   -7.234;  576.678
414.250;   -4.737;  -10.544;  646.681
414.842;   -6.748;   -9.744;  676.353
415.434;   -4.525;   -6.994;  570.463
416.027;   -0.603;   -5.893;  652.196
416.619;   -2.473;   -7.264;  713.400
417.211;   -3.581;  -10.374;  599.352
417.804;    0.609;   -7.993;  628.499
418.396;   -2.823;   -7.234;  607.643
418.988;   -1.551;   -9.443;  659.238
419.580;   -3.787;  -10.724;  568.276
420.172;   -1.718;  -10.323;  536.196
420.764;    2.346;   -8.793;  672.482
421.356;    0.718;  -11.143;  636.898
421.948;    0.006;   -8.293;  677.661
422.540;    5.359;   -7.893;  680.027
423.132;    4.311;   -7.082;  600.641
423.724;    1.294;   -8.653;  561.267
424.316;    2.646;  -10.213;  621.345
424.908;    6.510;   -9.762;  591.517
425.500;    7.364;   -5.572;  647.978
426.092;    6.996;   -8.422;  648.268
426.683;    6.365;   -9.283;  684.836
427.275;    9.596;   -7.852;  641.471
427.867;   10.734;   -5.272;  668.948
428.458;   10.828;   -7.682;  732.344
429.050;   10.530;  -10.612;  680.749
429.642;   12.522;   -9.882;  743.124
430.233;   13.258;   -6.962;  569.356
430.825;   13.988;   -6.842;  724.809
431.416;   11.232;   -9.672;  698.241
432.008;   15.476;   -6.552;  651.723
432.599;   15.884;   -6.891;  656.073
433.190;   12.178;  -10.912;  637.670
433.782;   12.896;  -11.172;  590.395
434.373;   20.127;   -6.061;  884.765
434.964;   18.490;   -8.251;  602.920
435.556;   16.394;   -9.722;  634.537
436.147;   19.273;   -9.082;  758.490
436.738;   19.777;   -8.041;  701.099
437.329;   24.768;   -7.341;  721.723
437.920;   17.031;   -8.162;  666.688
438.511;   17.070;  -11.802;  564.526
439.103;   24.463;  -10.191;  623.998
439.694;   25.541;   -7.601;  681.583
440.285;   26.373;   -8.541;  764.432
440.876;   24.910;   -9.751;  845.738
441.466;   24.768;   -9.401;  575.162
442.057;   29.498;   -7.760;  665.814
442.648;   28.606;   -9.971;  746.255
443.239;   26.947;  -11.001;  620.477
443.830;   31.507;   -7.990;  704.958
444.421;   33.514;   -7.910;  655.474
445.011;   29.181;   -8.131;  693.619
445.602;   29.415;   -7.111;  743.126
446.193;   31.364;  -10.920;  488.117
446.783;   36.574;   -6.500;  640.397
447.374;   31.369;   -8.671;  692.759
447.964;   32.374;  -10.781;  713.770
448.555;   40.656;   -9.650;  822.742
449.145;   37.405;   -8.660;  662.853
449.736;   37.696;   -8.990;  803.179
450.326;   37.917;   -9.500;  713.626
450.917;   42.711;   -8.680;  675.324
451.507;   42.465;   -7.520;  600.661
452.097;   42.443;   -8.590;  746.267
452.688;   44.392;  -11.340;  742.160
453.278;   44.306;  -10.100;  566.840
453.868;   48.475;   -6.019;  793.550
454.458;   46.179;   -9.440;  651.141
455.048;   45.996;  -10.560;  711.783
455.639;   48.537;  -11.799;  567.096
456.229;   51.497;   -6.899;  710.694
456.819;   53.076;   -7.389;  751.158
457.409;   53.600;  -11.119;  773.993
457.999;   57.567;   -9.289;  737.505
458.589;   56.668;   -6.139;  686.606
459.179;   56.886;   -8.729;  717.658
459.769;   55.068;   -9.789;  627.099
460.358;   59.947;  -10.259;  797.262
460.948;   59.687;   -7.299;  689.503
461.538;   61.145;  -10.289;  660.677
462.128;   58.897;  -11.269;  664.934
462.717;   65.624;   -9.368;  710.326
463.307;   68.295;   -7.908;  705.846
463.897;   64.495;   -9.599;  656.942
464.486;   63.821;   -9.769;  837.128
465.076;   68.707;   -8.048;  733.776
465.666;   71.693;   -9.358;  652.900
466.255;   69.629;   -7.919;  785.651
466.845;   68.848;  -11.689;  666.749
467.434;   72.391;   -7.818;  725.873
468.023;   73.661;   -7.678;  658.357
468.613;   70.643;  -10.939;  713.946
469.202;   74.797;  -10.118;  646.507
469.791;   79.004;   -9.108;  737.811
470.381;   81.227;   -6.058;  742.813
470.970;   80.370;  -10.428;  711.099
471.559;   80.622;  -10.268;  733.291
472.148;   84.180;   -8.448;  675.737
472.738;   86.996;   -6.917;  765.466
473.327;   86.645;  -11.978;  637.529
473.916;   86.533;  -11.888;  737.446
474.505;   90.930;   -9.437;  751.703
475.094;   93.448;   -6.747;  806.570
475.683;   92.758;   -9.367;  797.699
476.272;   94.321;  -12.637;  730.632
476.861;   96.995;  -10.027;  706.754
477.449;  103.768;   -8.716;  728.487
478.038;   98.324;   -9.577;  692.513
478.627;   98.750;   -9.718;  714.852
479.216;  106.499;   -8.947;  769.441
479.805;  108.618;   -6.256;  783.375
480.393;  108.061;   -7.937; 1008.945
480.982;  107.358;   -7.717;  874.501
481.571;  114.133;   -9.266;  858.333
482.159;  114.118;   -7.636;  705.386
482.748;  114.201;   -9.667;  821.385
483.336;  119.796;  -10.376;  858.209
483.925;  120.393;   -7.147;  774.373
484.513;  127.240;   -7.996;  758.962
485.102;  124.142;  -10.027;  810.965
485.690;  133.109;  -10.446; 1011.050
486.278;  134.879;   -8.446;  979.329
486.867;  135.832;   -6.356;  809.662
487.455;  135.981;   -9.136;  898.229
488.043;  138.465;  -10.646;  748.361
488.631;  147.283;   -7.456; 1005.079
489.220;  151.846;   -6.636;  908.626
489.808;  152.562;  -11.036;  741.415
490.396;  160.618;  -10.246;  914.645
490.984;  167.407;   -8.556;  830.161
491.572;  177.252;   -5.886;  940.315
492.160;  183.605;   -9.486;  919.081
492.748;  195.819;  -10.976;  884.341
493.336;  220.555;   -8.776; 1019.693
493.924;  249.077;   -5.465;  958.077
494.512;  277.617;   -9.986; 1066.638
495.100;  318.858;  -10.636; 1103.280
495.687;  377.367;  -10.885; 1206.373
496.275;  445.580;   -8.126; 1150.796
496.863;  520.850;  -10.586; 1281.171
497.451;  631.429;  -11.926; 1386.805
498.038;  769.783;  -10.885; 1556.729
498.626;  882.530;   -6.315; 1741.407
499.214; 1034.503;   -7.326; 2016.609
499.801; 1248.750;  -11.906; 2220.633
500.389; 1511.028;  -10.466; 2312.494
500.976; 1846.661;   -5.236; 2744.849
501.564; 2308.979;   -8.936; 3148.565
502.151; 2711.985;  -13.176; 3515.999
502.738; 3201.636;  -10.646; 3971.274
503.326; 3604.495;   -9.525; 4403.796
503.913; 4002.927;  -10.856; 5161.749
504.500; 4386.790;  -11.586; 5986.420
505.088; 4822.027;  -10.336; 6381.201
505.675; 5390.153;   -6.355; 6925.547
506.262; 6158.616;   -9.046; 7619.060
506.849; 6901.377;  -10.416; 8733.969
507.436; 7403.104;  -10.305; 9790.121
508.023; 8025.000;   -5.496; 9985.472
508.610; 8290.617;   -7.856;10434.618
509.197; 8960.699;  -10.097;11198.435
509.784;10452.034;  -10.886;12391.194
510.371;11507.483;   -9.315;13603.713
510.958;12255.204;   -9.936;14426.586
511.545;13122.492;   -9.326;15243.775
512.132;14153.628;  -10.075;15945.876
512.719;14843.822;   -7.796;16340.369
513.305;15765.434;  -10.606;18011.766
513.892;16552.174;  -11.486;19754.971
514.479;17990.680;   -9.126;20967.805
515.066;19503.770;   -6.026;22299.793
515.652;20794.594;   -8.466;22908.660
516.239;22269.418;  -10.886;23798.875
516.825;23526.764;  -11.496;25567.275
517.412;24714.975;   -5.796;28154.959
517.998;25283.697;  -10.506;28344.111
518.585;25236.637;  -10.076;27134.219
519.171;25842.773;   -8.315;27268.576
519.758;27422.236;   -8.596;28964.129
520.344;29243.086;   -8.466;30664.494
520.930;29259.457;  -11.006;32550.605
521.516;31063.836;  -10.495;35422.895
522.103;33635.316;   -5.526;38280.004
522.689;34363.121;   -8.746;37835.117
523.275;33663.555;  -11.376;37288.613
523.861;34628.250;  -11.156;37281.395
524.447;36012.465;   -8.135;37846.949
525.033;35782.844;   -7.896;38321.949
525.619;36070.012;  -12.476;38579.285
526.205;37960.992;   -9.516;40622.875
526.791;40326.906;   -6.926;42258.836
527.377;40469.234;   -8.346;42966.902
527.963;42281.051;   -8.717;42018.949
528.549;40482.270;  -11.016;42476.828
529.135;39170.770;   -8.536;41854.852
529.721;38690.410;   -9.666;41237.711
530.306;38013.770;  -10.066;41259.445
530.892;37795.949;  -11.356;41506.047
531.478;39305.184;   -6.596;43559.613
532.063;42314.148;   -8.836;47695.563
532.649;42431.410;  -10.047;50808.324
533.235;43565.109;   -9.746;51787.500
533.820;44592.008;   -6.566;52145.035
534.406;46080.223;  -10.817;51133.488
534.991;45920.891;   -9.416;49996.805
535.576;44473.738;   -9.036;48882.852
536.162;44847.281;   -6.156;46942.285
536.747;45951.500;  -11.607;45711.746
537.333;50152.496;  -11.787;48510.180
537.918;52954.973;  -12.437;50439.891
538.503;51262.094;   -7.196;50863.711
539.088;48060.625;  -10.556;50906.922
539.673;48089.145;   -8.767;52621.965
540.259;47851.969;  -10.026;52368.094
540.844;44901.332;   -7.416;50879.109
541.429;46013.664;   -9.467;52077.777
542.014;49209.313;   -9.527;52716.695
542.599;48677.426;   -9.946;52363.281
543.184;46379.703;   -7.927;53187.137
543.769;47985.539;   -9.297;54697.605
544.354;47085.262;  -10.127;53913.914
544.938;45710.078;   -9.267;49680.164
545.523;47638.832;   -6.506;47386.277
546.108;50264.574;   -9.787;49151.949
546.693;52518.875;  -11.587;51384.637
547.278;52334.840;  -10.986;51853.254
547.862;49067.355;   -8.206;51173.750
548.447;44298.547;  -10.067;51691.395
549.031;43937.098;   -9.637;52456.703
549.616;49018.395;   -9.926;52714.516
550.201;47950.848;   -6.347;52414.598
550.785;49161.402;   -7.917;52355.059
551.370;48417.059;  -10.867;54589.453
551.954;48497.242;   -9.047;58267.348
552.538;49286.898;   -7.827;59062.176
553.123;47661.676;  -10.287;58115.285
553.707;45634.703;  -12.178;56556.285
554.291;46827.297;   -8.717;56201.668
554.876;48848.988;   -7.457;55335.762
555.460;49171.676;  -10.387;54155.703
556.044;50364.023;   -9.618;53721.484
556.628;48814.406;  -11.567;53731.016
557.212;47341.051;   -8.097;54312.531
557.796;45878.680;  -11.077;53797.773
558.380;45585.066;  -11.108;56145.984
558.964;45805.402;   -9.057;57277.930
559.548;46899.012;   -6.977;56459.641
560.132;45465.879;  -11.457;54434.543
560.716;44288.434;  -11.378;54800.617
561.300;45594.863;   -9.577;57606.945
561.884;46648.094;   -7.127;58972.445
562.467;45143.695;   -7.118;57327.570
563.051;44285.297;  -13.358;54962.434
563.635;45040.676;  -10.178;52594.473
564.219;45391.844;   -7.837;50610.410
564.802;46286.633;  -11.398;49551.180
565.386;46450.965;  -12.788;48370.953
565.969;45912.652;   -9.077;48178.871
566.553;45523.879;   -6.207;49957.305
567.136;45775.125;   -8.568;50369.594
567.720;41664.242;  -11.868;49492.004
568.303;39635.352;   -8.268;50616.352
568.887;39790.691;   -8.698;50727.148
569.470;39943.770;   -6.808;51698.379
570.053;38485.188;  -13.188;52122.078
570.637;36937.902;  -12.037;52536.438
571.220;36614.930;   -8.577;51186.098
571.803;37055.992;   -8.498;51032.762
572.386;39611.305;  -10.498;49609.887
572.969;42061.281;   -9.388;48285.926
573.552;39900.715;   -8.338;47624.285
574.135;38612.875;   -8.518;45498.641
574.718;36106.965;  -13.628;41970.434
575.301;34883.855;  -10.893;41447.137
575.884;33660.746;   -8.158;40923.836
576.467;35027.715;  -10.328;45267.723
577.050;37485.828;  -13.058;48175.543
577.633;38897.586;   -9.458;47729.328
578.216;37663.277;   -8.928;47579.793
578.799;36649.422;   -9.358;47820.996
579.381;35300.340;  -11.388;48115.551
579.964;33731.305;  -11.718;47333.766
580.547;35529.277;   -8.588;46668.969
581.129;36760.238;   -8.859;44466.141
581.712;37360.590;  -10.729;44164.922
582.294;37991.168;  -11.118;46477.855
582.877;37861.031;   -5.218;48244.254
583.459;35224.719;   -8.679;47437.895
584.042;33417.160;  -10.709;46943.219
584.624;34346.734;  -11.669;46792.227
585.206;33776.387;   -8.218;46557.250
585.789;33901.563;  -10.569;45793.773
586.371;36646.047;  -11.859;43836.391
586.953;37020.195;  -10.719;42972.492
587.536;38419.387;   -7.198;42487.211
588.118;38040.879;   -8.720;42086.414
588.700;34645.082;  -10.439;43389.930
589.282;33880.148;   -9.198;43646.039
589.864;34731.762;   -9.199;43438.109
590.446;35553.055;  -11.319;43151.926
591.028;35283.816;  -11.159;42781.867
591.610;34300.859;  -11.779;42839.098
592.192;31914.736;   -7.668;42820.402
592.774;30526.236;  -11.949;40724.277
593.356;29263.254;  -12.129;39874.789
593.937;28270.775;  -10.669;39980.648
594.519;30534.156;   -6.509;42069.633
595.101;32759.281;  -10.849;42976.031
595.683;32815.348;  -11.679;44084.441
596.264;34005.211;   -9.049;43478.797
596.846;33159.871;   -8.849;43803.672
597.427;32846.418;   -9.570;42986.934
598.009;34503.055;  -12.620;42832.219
598.591;34798.238;  -10.039;42580.086
599.172;33744.379;  -10.369;43061.805
599.753;33826.809;   -9.140;41691.469
600.335;35514.488;  -11.430;40692.520
600.916;33951.117;   -9.939;39982.422
601.498;31380.691;   -8.479;40318.617
602.079;29882.941;  -10.920;40670.609
602.660;30089.068;  -11.480;41450.898
603.241;31689.262;  -11.699;41137.738
603.823;30421.861;   -9.579;38868.797
604.404;30282.777;  -10.620;38182.785
604.985;31636.256;  -10.450;38078.047
605.566;31035.656;   -9.129;38056.633
606.147;31183.816;   -7.510;37020.418
606.728;32990.996;  -10.660;37883.359
607.309;31741.936;  -11.740;38748.273
607.890;31132.178;   -9.759;38850.230
608.471;30591.479;   -8.250;37457.918
609.051;29605.383;   -9.240;36066.457
609.632;28583.979;  -12.120;35991.074
610.213;29550.941;   -9.110;37402.641
610.794;30119.320;   -8.030;38383.363
611.374;29549.051;   -8.110;40562.387
611.955;29917.773;  -13.560;38533.727
612.536;31196.670;  -11.400;36951.789
613.116;31271.830;   -8.070;37197.891
613.697;31502.035;  -10.830;38411.125
614.277;30113.926;  -11.641;38673.938
614.858;30988.207;  -13.310;37075.863
615.438;29995.654;   -7.460;35092.906
616.019;27178.795;   -7.601;33666.301
616.599;27903.043;  -12.020;34189.023
617.179;29740.813;  -11.780;36952.047
617.760;30658.289;   -8.570;39582.574
618.340;31746.438;  -11.471;38943.977
618.920;33091.211;  -11.170;37594.156
619.500;32893.941;  -11.071;37866.938
620.080;32124.047;   -7.750;37869.043
620.660;33339.957;  -12.711;36868.617
621.241;34681.898;  -10.211;36352.309
621.821;34775.781;  -10.961;35459.520
622.401;33726.527;   -7.720;35207.414
622.980;32975.477;   -8.981;35980.422
623.560;31578.162;   -9.331;37351.328
624.140;30487.156;   -9.850;34388.582
624.720;25113.047;   -7.451;32368.764
625.300;21561.750;   -9.070;32638.629
625.880;25061.529;  -12.601;34599.035
626.459;29159.426;  -11.751;36831.738
627.039;32327.197;   -9.281;38299.098
627.619;32198.945;   -8.801;38289.574
628.198;30509.359;  -12.071;37220.695
628.778;29654.047;   -9.461;37632.563
629.357;30420.094;   -8.491;38003.012
629.937;30525.113;   -9.721;38402.039
630.516;29927.502;   -9.951;37868.801
631.096;29487.563;  -11.731;35760.410
631.675;32546.912;   -8.572;35225.219
632.254;37598.027;  -11.282;35130.289
632.834;36945.324;  -13.322;35794.570
633.413;34856.313;  -10.301;35788.922
633.992;31754.109;   -8.582;34532.863
634.571;32658.572;   -8.352;33590.113
635.151;35557.480;  -11.912;34943.863
635.730;33920.848;  -10.511;35352.523
636.309;30612.531;   -7.731;35366.605
636.888;28373.631;   -9.952;36165.637
637.467;29420.023;  -11.672;37515.902
638.046;31112.662;   -8.901;39288.695
638.625;34160.977;   -7.912;38279.699
639.204;33706.461;  -10.022;37741.598
639.782;32108.459;  -12.252;38364.551
640.361;28348.043;  -10.041;36740.621
640.940;25466.779;  -11.161;34950.082
641.519;26089.840;   -9.701;34137.398
642.097;29174.125;  -11.271;35654.258
642.676;32025.119;   -8.651;35637.957
643.255;32414.207;   -8.711;36567.074
643.833;31513.961;   -9.581;37809.434
644.412;31778.563;  -13.711;37337.293
644.990;31077.234;  -11.811;37018.531
645.569;31275.352;   -9.411;36518.469
646.147;29910.055;  -10.291;36186.430
646.726;29256.938;  -12.401;36267.688
647.304;30360.059;  -10.411;36647.625
647.882;32394.705;   -9.651;39286.742
648.461;34149.074;   -9.631;39157.703
649.039;32279.479;  -11.881;35412.883
649.617;31645.859;   -9.661;34744.918
650.195;31388.631;   -9.301;35403.098
650.773;29810.418;  -10.511;35053.797
651.352;27454.986;  -11.521;33756.816
651.930;25206.395;  -12.211;31868.773
652.508;23672.553;   -9.171;33121.551
653.086;27634.643;   -9.371;33564.793
653.663;30284.771;  -13.161;34054.668
654.241;29319.012;  -13.031;35693.309
654.819;31073.178;   -9.371;36422.906
655.397;31156.738;  -10.511;38213.484
655.975;30977.949;  -10.371;39507.625
656.553;30616.184;  -10.051;39498.223
657.130;28940.477;  -10.061;40395.480
657.708;28375.467;   -9.561;39242.020
658.286;28386.014;  -11.511;38920.020
658.863;29548.803;  -10.261;40202.898
659.441;32546.684;   -7.531;39677.938
660.018;31918.301;   -9.501;40413.355
660.596;30906.803;  -13.301;39931.414
661.173;33017.594;  -11.211;39604.531
661.750;33105.262;   -9.951;39700.070
662.328;31934.816;   -9.390;39292.809
662.905;30929.885;  -11.330;38235.648
663.482;26393.979;   -9.050;36212.305
664.060;24607.449;   -8.240;35944.945
664.637;27530.967;  -10.050;35170.785
665.214;29444.396;  -11.760;34197.523
665.791;30738.111;  -10.530;34549.520
666.368;29432.225;   -9.690;35118.578
666.945;30404.730;   -9.320;36019.418
667.522;31952.447;  -11.860;36048.438
668.099;31803.084;  -10.770;36243.914
668.676;30749.754;   -6.260;35958.875
669.253;29333.850;   -7.000;37384.730
669.830;29978.270;  -10.190;36779.629
670.407;29648.088;   -9.550;35231.289
670.984;29755.217;   -9.260;35544.270
671.560;30109.160;   -9.280;35466.867
672.137;29103.246;  -11.810;34280.863
672.714;29937.840;  -11.490;34632.863
673.290;30340.416;   -7.740;35135.422
673.867;30700.916;  -10.660;36114.480
674.443;30390.350;  -12.230;36152.859
675.020;28719.191;  -10.450;35327.238
675.596;29892.305;   -9.260;35795.176
676.173;30334.127;  -10.780;35430.355
676.749;30214.502;  -13.690;33549.516
677.326;30283.217;  -11.980;32210.012
677.902;30225.398;   -8.630;32068.871
678.478;29509.426;  -10.730;32583.891
679.054;29102.438;  -10.520;32088.928
679.631;29257.650;  -11.920;30978.848
680.207;30760.928;   -7.490;33160.887
680.783;32418.586;   -9.860;35570.363
681.359;31542.311;  -13.380;36125.184
681.935;30870.854;  -12.480;35240.922
682.511;29807.998;   -7.900;34429.961
683.087;29944.475;   -7.710;34463.680
683.663;29708.279;  -11.480;34648.898
684.239;28373.715;  -14.090;34546.457
684.815;28003.037;   -7.560;35586.375
685.390;28356.525;   -9.910;35821.895
685.966;28804.156;  -11.159;35085.871
686.542;31354.561;  -11.169;34198.230
687.118;33330.043;   -5.959;32847.707
687.693;33400.715;  -10.329;32794.027
688.269;33123.063;  -12.059;33072.367
688.844;31236.270;  -10.909;33141.664
689.420;28906.949;   -8.019;33965.742
689.995;26555.053;   -8.399;34655.523
690.571;25307.699;  -10.949;33576.742
691.146;25917.293;   -9.619;32657.219
691.722;25428.709;   -8.999;32526.979
692.297;25633.865;  -11.589;33014.617
692.872;27575.416;  -11.739;34012.254
693.448;26918.363;  -11.059;34237.434
694.023;26126.666;  -10.139;34142.672
694.598;28155.303;   -9.029;34132.031
695.173;28324.613;  -13.319;34205.250
695.748;27514.949;  -10.169;32882.488
696.323;27471.430;   -8.339;32864.906
696.898;27796.902;   -8.169;33170.004
697.473;27595.902;  -12.309;32432.984
698.048;27077.881;  -10.989;31649.303
698.623;27252.311;   -9.329;30778.141
699.198;29367.559;   -9.849;31140.119
699.773;30091.268;  -12.329;31764.299
700.348;28297.938;  -10.389;31780.816
700.922;28183.295;   -9.269;32046.375
701.497;28804.299;   -9.329;32603.574
702.072;28911.746;  -10.789;34799.871
702.646;27723.586;  -10.839;35793.172
703.221;25946.566;   -9.099;35201.590
703.795;27993.342;  -10.939;34764.527
704.370;28295.355;  -12.859;34307.367
704.944;28793.889;  -11.559;33509.887
705.519;29707.084;   -7.939;31388.584
706.093;31230.809;  -10.499;31340.104
706.668;31334.188;  -11.289;32630.281
707.242;30234.865;  -11.509;32728.779
707.816;28702.645;   -9.639;32947.238
708.390;27158.430;  -11.429;33277.855
708.965;27863.338;  -11.869;33834.336
709.539;28240.225;  -11.689;33709.273
710.113;28742.059;  -10.478;33044.313
710.687;27897.650;  -10.228;31953.992
711.261;26105.033;  -13.698;30505.949
711.835;26043.273;  -13.378;30262.369
712.409;27011.488;   -9.698;31254.447
712.983;28812.527;  -11.898;32754.986
713.557;29601.900;  -15.138;34018.824
714.131;29198.857;  -14.098;34579.625
714.704;28303.645;   -9.958;33890.262
715.278;26123.004;  -10.028;33531.102
715.852;25280.932;  -11.148;33601.660
716.425;26209.238;   -9.068;33515.117
716.999;26813.766;  -10.038;33185.555
717.573;27780.770;   -9.798;33905.996
718.146;28837.309;  -12.378;35199.293
718.720;28617.678;  -11.918;35060.551
719.293;28071.814;   -8.088;34973.230
719.867;30949.457;  -10.888;36394.449
720.440;30458.885;  -11.938;36663.008
721.013;28703.418;  -12.818;35102.426
721.587;27415.422;  -10.298;33985.266
722.160;26617.736;  -10.048;33524.965
722.733;25659.547;  -12.108;32987.043
723.306;25980.473;  -10.818;33066.301
723.880;28262.158;   -8.908;33399.500
724.453;29806.072;   -9.878;33468.297
725.026;28726.580;  -11.188;33816.637
725.599;26357.096;  -11.678;32797.996
726.172;27108.344;   -9.618;33187.434
726.745;28258.818;   -8.258;35136.613
727.318;29625.758;  -12.978;35751.730
727.891;29876.686;  -12.148;35890.430
728.463;29476.729;   -8.968;34822.090
729.036;28600.230;  -10.188;32895.086
729.609;28974.789;  -11.788;31823.225
730.182;25856.209;  -11.788;31445.283
730.754;23336.088;  -10.268;32373.223
731.327;23337.488;   -9.998;33676.820
731.900;23798.869;  -12.228;33417.000
732.472;25249.986;  -13.848;31978.498
733.045;26997.783;   -8.698;30368.777
733.617;27093.064;  -10.607;30574.215
734.190;26559.830;  -11.507;31280.975
734.762;23535.119;  -13.647;31674.412
735.334;22031.979;   -9.767;31247.291
735.907;22843.021;   -9.897;29876.211
736.479;22816.471;  -11.637;29808.488
737.051;22378.598;   -9.567;30233.547
737.623;23328.459;   -8.187;31469.086
738.195;24344.979;  -11.187;31784.225
738.768;26387.719;  -12.337;32120.523
739.340;26251.939;  -12.227;32094.342
739.912;24841.313;  -11.057;31312.680
740.484;23459.475;  -10.207;31946.238
741.056;22617.199;  -10.047;32984.059
741.628;24469.223;  -13.627;33897.715
742.199;26615.668;   -7.177;33213.016
742.771;24930.660;  -10.797;31369.113
743.343;22582.781;  -11.997;31865.473
743.915;21637.875;  -12.867;32388.631
744.487;21849.447;   -7.617;31079.568
745.058;22021.066;   -9.557;30570.107
745.630;22456.885;   -9.877;29970.127
746.201;23092.684;  -14.177;29186.766
746.773;23308.303;   -9.237;28805.723
747.344;23177.074;   -9.847;29591.223
747.916;22019.326;  -11.657;31412.201
748.487;22401.463;  -10.587;32194.898
749.059;23573.109;   -8.707;32533.719
749.630;24202.322;  -10.537;32158.518
750.201;23347.170;  -11.687;30855.395
750.773;21605.354;  -11.647;28622.555
751.344;21596.842;   -7.147;28405.732
751.915;22775.691;   -9.757;28461.551
752.486;22411.496;  -12.427;27842.850
753.057;20175.852;  -12.227;27845.008
753.628;19104.510;  -10.417;27728.107
754.199;20295.916;  -11.767;27381.086
754.770;21248.576;  -11.187;25882.203
755.341;21200.354;  -10.507;25886.184
755.912;21092.750;   -9.387;26050.861
756.483;20513.633;  -10.647;26798.779
757.054;18761.719;  -11.837;27048.238
757.625;17586.498;  -12.716;26294.838
758.195;17454.527;   -9.666;26142.076
758.766;17213.006;   -8.656;26392.234
759.337;18015.430;  -12.856;26334.594
759.907;19798.291;  -13.366;27579.652
760.478;20618.191;   -8.576;28352.770
761.048;19869.717;  -10.526;27325.088
761.619;19067.570;  -11.116;26460.428
762.189;19211.775;  -12.136;26029.826
762.760;20405.857;   -9.456;26430.145
763.330;21361.066;   -7.136;26670.902
763.900;20628.975;  -11.786;26603.021
764.471;18025.395;  -11.546;25542.740
765.041;16815.479;   -8.096;24358.459
765.611;16913.107;   -8.876;23991.297
766.181;17340.590;  -12.196;24470.236
766.751;18267.693;  -11.636;24845.975
767.321;17949.535;  -10.156;24533.633
767.891;15976.917;  -11.766;24916.492
768.461;15504.026;  -14.936;24776.771
769.031;16062.760;  -12.356;24757.988
769.601;17539.895;   -7.526;24181.088
770.171;17341.623;  -10.766;23670.387
770.741;16738.236;  -13.176;22960.045
771.311;17037.725;  -10.616;22917.523
771.880;17294.396;   -9.576;23562.941
772.450;16953.146;  -10.336;24216.500
773.020;17083.973;  -13.516;24140.398
773.589;16495.363;  -13.466;24414.857
774.159;15851.398;   -8.686;23858.717
774.729;15425.233;   -9.476;22942.135
775.298;14893.445;  -13.666;22324.033
775.867;14504.303;  -11.716;21140.313
776.437;14513.806;   -9.906;20838.092
777.006;14261.243;  -12.166;20599.510
777.576;14202.550;  -12.356;20508.809
778.145;14413.640;  -11.646;20732.947
778.714;14249.613;   -8.226;21062.465
779.283;13480.215;   -9.556;20949.664
779.853;13077.275;  -14.116;20508.623
780.422;13563.553;  -11.506;20649.082
780.991;13146.579;   -9.556;21527.520
781.560;12013.881;   -9.095;22632.658
782.129;11856.655;  -12.135;23048.277
782.698;11883.244;  -10.865;23438.555
783.267;11497.382;   -9.335;23267.734
783.836;11489.806;  -11.045;22415.133
784.404;12526.511;  -13.865;20443.152
784.973;13041.416;  -13.095;19699.150
785.542;12965.063;  -11.575;19763.828
786.111;12801.482;   -9.705;20341.408
786.679;12250.715;  -12.105;20207.967
787.248;11997.215;  -12.455;19516.465
787.817;11826.099;  -11.535;18900.363
788.385;11427.095;   -9.765;17879.121
788.954;10851.324;  -14.005;17658.301
789.522;10350.904;  -11.955;17788.879
790.090;10901.285;  -10.135;18118.277
790.659;11243.689;  -10.975;18338.736
791.227;10765.549;  -13.375;18508.615
791.795;11256.765;  -12.375;17898.254
792.364;11585.989;  -10.725;17295.133
792.932;11806.396;   -9.715;16822.051
793.500;11952.037;  -12.675;17040.148
794.068;12196.332;  -13.495;17179.787
794.636;12304.085;  -10.885;16664.246
795.204;11814.141;  -11.045;16524.545
795.772;11895.753;  -13.175;17274.564
796.340;11435.148;  -12.445;17891.002
796.908;11270.831;   -9.735;17648.561
797.476;11129.550;   -9.815;17064.080
798.044;10678.038;  -13.985;16672.777
798.612; 9867.568;  -13.115;17023.996
799.180; 9484.650;  -10.185;16561.615
799.747; 9414.879;   -9.055;15962.773
800.315; 9175.275;  -12.385;15296.992
800.883; 8824.759;  -15.035;14801.771
801.450; 8797.221;  -10.365;14534.430
802.018; 8840.032;   -9.855;14173.248
802.585; 8988.607;  -11.905;14029.547
803.153; 9076.882;  -11.585;13836.846
803.720; 8916.404;   -9.095;13567.324
804.287; 8470.710;   -9.135;13360.622
804.855; 8079.842;  -11.604;13681.981
805.422; 7960.022;  -11.794;13536.560
805.989; 7956.960;  -10.734;13355.958
806.556; 8162.874;  -10.444;13747.896
807.124; 8418.844;  -12.764;13987.376
807.691; 8378.428;  -12.964;14038.674
808.258; 8153.209;  -11.134;14120.152
808.825; 7810.115;   -9.854;13860.111
809.392; 7851.593;  -10.504;13268.790
809.959; 7390.161;  -13.054;12680.389
810.526; 7006.907;   -8.294;12427.308
811.093; 7078.305;   -8.394;12030.105
811.659; 7633.891;  -12.304;11653.664
812.226; 8060.294;  -13.944;11637.183
812.793; 7711.922;  -10.484;11611.521
813.360; 7096.592;  -10.144;11885.181
813.926; 6831.561;  -11.684;12770.539
814.493; 6633.642;  -13.644;12677.638
815.060; 6281.893;   -9.724;11974.336
815.626; 6314.622;   -9.854;11594.715
816.193; 6705.337;  -13.254;11579.474
816.759; 6727.601;  -13.204;11666.972
817.325; 6807.990;   -9.434;11325.530
817.892; 7184.621;  -10.134;11105.369
818.458; 7608.896;  -13.474;10843.928
819.024; 7197.910;  -11.854;10714.406
819.591; 6860.127;  -10.244;10469.165
820.157; 6655.212;  -10.704;10235.523
820.723; 6185.888;  -12.324;10847.563
821.289; 5887.132;   -9.444;11040.980
821.855; 5765.065;   -8.374;10357.100
822.421; 5677.352;  -10.234; 9978.918
822.987; 5649.778;  -13.294; 9754.177
823.553; 5383.065;  -10.884;10065.755
824.119; 5240.106;   -8.884;10036.294
824.685; 5302.296;   -6.784;10029.192
825.251; 5364.266;  -12.004;10199.230
825.816; 5336.825;  -11.474; 9820.189
826.382; 5144.098;   -9.174; 9297.248
826.948; 5375.908;   -9.214; 9381.347
827.513; 5722.213;  -10.774; 9450.726
828.079; 5501.316;  -11.924; 9472.444
828.645; 4966.428;  -10.543; 9292.643
829.210; 4929.782;  -10.533; 9065.341
829.776; 4916.519;  -10.753; 9132.620
830.341; 4796.027;  -10.173; 9092.878
830.906; 4978.638;  -10.743; 9078.557
831.472; 5276.286;  -11.113; 8534.535
832.037; 4971.290;  -10.603; 8677.874
832.602; 4431.944;  -13.323; 8628.692
833.167; 4206.304;  -10.823; 8879.031
833.733; 4159.430;  -10.113; 9189.790
834.298; 4272.821;  -13.583; 9052.608
834.863; 4311.841;  -12.703; 8895.087
835.428; 4291.550;  -10.523; 8824.266
835.993; 4177.423;   -6.963; 8845.385
836.558; 4058.856;  -10.763; 8888.563
837.123; 4208.797;   -9.903; 8966.582
837.688; 4427.316;   -9.913; 8617.860
838.253; 4632.995;  -10.283; 8590.699
838.817; 4820.429;  -12.963; 8443.797
839.382; 4726.089;  -14.243; 8799.356
839.947; 4418.586;  -10.733; 8810.595
840.511; 4122.184;   -9.383; 8796.394
841.076; 3760.076;  -12.563; 8347.231
841.641; 3829.135;  -12.953; 8224.330
842.205; 3923.228;   -7.043; 8223.349
842.770; 4053.523;   -8.163; 8622.107
843.334; 4237.919;  -12.503; 8410.386
843.898; 4195.947;  -11.693; 8337.465
844.463; 4214.307;  -10.203; 8506.283
845.027; 3982.334;   -9.533; 8280.962
845.591; 3809.328;  -13.443; 8231.141
846.156; 3769.354;  -13.143; 7969.179
846.720; 3649.831;   -9.433; 7768.278
847.284; 3523.997;  -11.033; 7630.957
847.848; 3395.793;  -10.403; 7472.395
848.412; 3306.031;  -11.553; 7437.394
848.976; 3345.947;   -8.393; 7674.592
849.540; 3296.874;   -8.713; 7836.011
850.104; 3425.179;  -12.463; 7913.669
850.668; 3760.460;  -12.973; 7694.508
851.232; 3834.422;  -10.793; 7756.887
851.796; 3674.072;  -10.662; 7926.545
852.359; 3394.701;  -13.082; 7827.844
852.923; 3240.983;  -12.192; 7641.163
853.487; 3067.635;  -11.912; 7342.501
854.050; 3020.221;  -10.892; 7042.820
854.614; 3144.700;  -13.992; 7151.338
855.177; 3262.291;  -11.732; 7105.077
855.741; 3295.886;   -8.962; 6989.675
856.304; 3198.088;   -9.442; 6596.634
856.868; 3150.172;  -14.192; 6356.272
857.431; 3251.517;  -12.702; 6468.571
857.995; 3374.572;   -9.942; 6373.210
858.558; 3379.937;   -9.112; 6324.448
859.121; 3113.872;  -12.932; 6408.327
859.684; 3000.809;  -13.442; 6347.886
860.247; 3097.390;  -10.632; 6321.264
860.810; 3074.909;  -11.272; 6301.903
861.374; 2822.076;   -9.832; 6607.881
861.937; 2583.390;  -11.762; 6408.200
862.500; 2588.997;   -9.722; 6572.639
863.062; 2765.559;  -10.512; 6387.297
863.625; 2923.017;  -11.232; 6190.836
864.188; 3075.199;  -14.112; 5807.254
864.751; 3136.502;  -11.302; 5682.413
865.314; 3025.424;  -10.112; 5547.492
865.876; 2836.084;  -12.182; 5500.150
866.439; 2833.869;  -10.722; 5415.909
867.002; 2773.027;   -9.252; 5501.567
867.564; 2560.295;   -9.572; 5413.946
868.127; 2341.169;  -13.142; 5160.325
868.689; 2239.571;  -12.902; 5133.183
869.252; 2139.253;   -9.732; 5252.382
869.814; 2050.827;   -9.432; 5297.141
870.377; 2067.629;  -11.552; 5390.919
870.939; 2139.201;   -9.052; 5599.898
871.501; 2194.077;  -10.982; 5248.336
872.063; 2191.324;  -12.292; 4854.235
872.626; 2156.923;  -14.912; 4817.074
873.188; 2190.746;  -13.112; 4987.732
873.750; 2153.872;  -13.442; 4868.651
874.312; 2058.238;   -9.402; 4779.330
874.874; 1965.443;  -11.062; 4866.348
875.436; 1875.387;  -13.931; 4718.887
875.998; 1860.720;   -9.561; 4660.005
876.560; 1877.656;  -11.321; 4462.964
877.122; 1820.002;  -12.221; 4145.042
877.683; 1737.814;  -12.191; 4056.481
878.245; 1676.168;  -12.101; 3950.740
878.807; 1716.718;   -8.971; 4058.958
879.369; 1736.056;  -12.071; 3954.677
879.930; 1638.624;  -14.621; 3941.495
880.492; 1580.745;  -10.311; 4067.014
881.053; 1538.248;  -10.901; 3859.633
881.615; 1431.734;  -14.411; 3776.071
882.176; 1341.695;  -13.761; 3734.750
882.738; 1297.872;   -9.181; 3678.489
883.299; 1274.987;  -11.791; 3405.407
883.860; 1280.968;  -13.121; 3351.106
884.422; 1280.744;  -11.211; 3394.044
884.983; 1232.018;  -10.091; 3166.443
885.544; 1148.430;   -8.461; 3189.802
886.105; 1070.579;  -12.361; 3160.360
886.666; 1010.729;  -14.141; 3093.059
887.227;  957.428;  -11.361; 2941.957
887.788;  897.986;  -11.401; 2974.836
888.349;  838.664;  -13.791; 2721.214
888.910;  837.908;  -13.191; 2696.493
889.471;  848.111;   -9.881; 2560.172
890.032;  828.734;   -9.881; 2558.190
890.593;  806.423;  -10.371; 2567.669
891.153;  780.096;  -13.301; 2460.307
891.714;  731.345;  -11.431; 2372.046
892.275;  689.250;  -11.291; 2309.505
892.835;  648.238;  -11.471; 2382.543
893.396;  596.294;  -11.541; 2295.502
893.956;  541.352;  -11.181; 2162.420
894.517;  507.839;  -11.741; 2125.439
895.077;  503.872;  -11.671; 2086.978
895.638;  503.081;  -11.311; 2126.316
896.198;  475.770;   -9.831; 1838.275
896.758;  433.798;   -8.421; 1892.813
897.319;  404.896;  -12.351; 1792.232
897.879;  388.094;  -13.511; 1762.751
898.439;  364.319;  -12.001; 1661.149
898.999;  341.046;  -10.180; 1781.468
899.559;  331.836;  -12.030; 1703.347
900.119;  327.222;  -15.710; 1537.525
900.679;  323.167;   -8.900; 1638.384
901.239;  309.767;   -8.340; 1527.902
901.799;  299.647;  -13.910; 1456.441
902.359;  294.042;  -13.460; 1357.140
902.919;  288.754;  -11.490; 1331.118
903.479;  274.483;  -12.110; 1317.257
904.038;  255.189;  -11.720; 1262.595
904.598;  240.586;  -13.610; 1152.034
905.158;  237.272;  -11.040; 1240.893
905.717;  229.742;  -10.900; 1233.691
906.277;  218.987;  -15.080; 1217.330
906.836;  209.065;  -13.380; 1222.408
907.396;  201.545;  -10.780; 1193.047
907.955;  194.343;   -8.500; 1182.526
908.515;  188.514;  -12.760; 1099.364
909.074;  183.502;  -11.900; 1092.863
909.633;  178.248;   -8.950; 1069.121
910.192;  173.066;   -8.770; 1196.460
910.752;  167.458;  -12.390; 1029.960
911.311;  164.523;  -13.680; 1009.780
911.870;  162.209;  -12.370;  971.460
912.429;  163.639;  -10.900; 1094.080
912.988;  162.661;  -11.690; 1081.060
913.547;  157.921;  -13.240;  940.380
914.106;  153.243;  -11.990;  999.420
914.665;  149.277;   -9.990;  984.020
915.224;  148.703;  -12.880; 1035.760
915.782;  149.148;  -12.350;  922.560
916.341;  148.955;   -9.110; 1049.840
916.900;  145.008;   -9.270;  925.260
917.458;  143.481;  -13.240;  884.220
918.017;  142.333;  -13.550;  942.600
918.576;  141.616;  -12.320;  904.440
919.134;  139.796;  -11.490;  837.980
919.693;  138.082;  -13.670;  893.060
920.251;  136.408;  -15.470;  876.500
920.809;  135.453;  -11.290;  839.580
921.368;  134.729;  -10.210;  885.360
921.926;  134.167;  -12.140;  842.940
922.484;  132.724;  -13.080;  903.360
923.042;  132.737;  -11.720;  880.340
923.601;  135.559;   -7.480;  998.680
924.159;  133.708;  -11.570;  935.560
924.717;  129.624;  -13.840;  841.080
925.275;  131.429;  -10.640;  903.240
925.833;  130.981;  -11.540;  779.320
926.391;  131.029;  -12.960;  938.380
926.949;  128.755;  -14.130;  857.680
927.506;  130.177;  -11.750;  903.500
928.064;  129.502;  -10.250;  877.580
928.622;  129.129;  -13.030;  880.100
929.180;  127.864;  -13.400;  814.180
929.737;  130.842;  -10.700;  808.540
930.295;  133.727;  -10.070;  928.480
930.853;  135.061;  -11.960;  849.100
931.410;  134.984;  -13.120;  821.120
931.968;  135.768;  -10.770;  940.660
932.525;  134.985;  -10.680;  909.380
933.082;  135.492;  -13.130;  811.440
933.640;  135.364;  -13.210;  925.900
934.197;  134.492;  -11.060;  886.360
934.754;  134.984;   -9.580;  897.780
935.312;  137.603;  -14.000;  863.340
935.869;  142.165;  -10.710; 1012.980
936.426;  142.935;   -9.860;  872.800
936.983;  144.196;   -9.710;  889.020
937.540;  143.057;  -13.990;  838.280
938.097;  141.074;  -14.040;  940.120
938.654;  141.206;  -10.310;  898.860
939.211;  145.445;  -10.560;  952.480
939.768;  147.241;  -13.900;  915.420
940.324;  151.008;  -14.760;  904.200
940.881;  151.287;  -10.370;  878.500
941.438;  152.348;   -8.260; 1021.200
941.995;  148.123;  -12.540;  992.560
942.551;  146.041;  -14.670;  875.620
943.108;  147.036;  -10.450;  937.920
943.664;  148.603;  -10.750;  869.340
944.221;  152.390;  -11.550; 1088.140
944.777;  149.549;  -14.770;  869.680
945.334;  151.343;  -12.820;  884.840
945.890;  152.645;  -10.130;  946.480
946.446;  151.750;  -13.470;  947.020
947.003;  153.499;  -12.120;  964.940
947.559;  156.408;   -9.980; 1063.040
948.115;  155.578;   -9.080; 1026.540
948.671;  153.748;  -10.830;  967.300
949.227;  150.984;  -12.440;  859.560
949.783;  148.705;  -12.910;  858.900
950.339;  150.480;  -10.270;  991.000
950.895;  150.765;  -13.630; 1023.840
951.451;  149.741;  -15.100;  925.280
952.007;  149.802;  -11.330;  998.540
952.563;  150.777;  -10.580;  937.780
953.118;  149.493;  -13.440;  904.940
953.674;  148.710;  -12.710;  935.780
954.230;  148.444;  -10.350;  949.640
954.785;  146.515;   -9.190;  936.640
955.341;  143.489;  -11.200;  998.160
955.897;  142.255;  -16.560;  834.660
956.452;  143.516;  -12.570;  953.840
957.008;  142.972;   -7.970; 1083.640
957.563;  140.625;  -11.940; 1009.540
958.118;  135.838;  -13.450;  877.700
958.674;  136.984;  -12.030;  946.780
959.229;  137.709;   -9.410; 1013.980
959.784;  135.800;  -12.000;  832.400
960.339;  135.143;  -14.780; 1001.280
960.894;  132.232;   -9.860;  963.760
961.449;  128.233;   -9.970;  859.960
962.004;  127.708;  -10.900; 1212.840
962.559;  122.567;  -13.150;  860.140
963.114;  121.380;  -13.740;  742.480
963.669;  120.003;   -9.820;  915.500
964.224;  118.247;  -13.890;  874.340
964.779;  117.335;  -12.600;  828.420
965.334;  118.503;  -10.950; 1017.860
965.888;  117.771;  -11.170;  875.360
966.443;  120.098;  -12.540;  972.380
966.998;  118.971;  -15.780;  819.460
967.552;  118.562;   -9.760;  908.380
968.107;  115.120;   -9.060;  868.300
968.661;  115.408;  -11.950;  922.440
969.216;  116.064;  -12.800;  856.280
969.770;  116.721;  -11.210;  917.200
970.324;  116.531;  -11.610;  923.140
970.879;  112.369;  -11.370;  947.180
971.433;  109.651;  -12.540;  952.720
971.987;  104.271;  -11.320;  895.340
972.541;  100.796;  -10.720;  917.100
973.095;  101.988;   -9.680; 1009.460
973.649;   99.628;  -11.440;  809.480
974.203;   98.678;  -11.210;  829.040
974.757;   98.554;  -10.240;  855.220
975.311;   97.382;  -13.720;  872.600
975.865;   97.600;  -13.770;  881.820
976.419;   96.359;  -11.690;  857.400
976.973;   96.742;   -9.510;  849.620
977.526;   97.899;  -12.620;  949.920
978.080;   97.039;  -12.010;  796.780
978.634;   98.174;  -10.170;  921.320
979.187;   96.171;   -9.020;  905.400
979.741;   93.586;   -9.820; 1018.380
980.294;   88.911;  -14.870;  789.160
980.848;   87.108;  -12.380;  717.220
981.401;   88.897;  -10.350;  816.540
981.955;   90.942;  -13.720;  844.300
982.508;   89.778;  -11.490;  746.340
983.061;   89.732;  -10.000;  915.260
983.615;   86.627;  -11.480;  798.800
984.168;   83.337;  -13.220;  770.080
984.721;   82.362;  -13.960;  880.760
985.274;   82.754;  -10.870;  867.500
985.827;   81.194;   -9.790;  834.220
986.380;   78.501;  -13.120;  721.340
986.933;   77.771;  -12.450;  864.800
987.486;   76.619;  -10.210;  861.920
988.039;   75.405;   -8.430;  863.100
988.591;   73.606;  -10.520;  893.260
989.144;   70.587;  -14.860;  737.260
989.697;   69.938;  -13.080;  758.740
990.250;   70.935;  -10.150;  858.100
990.802;   69.109;  -13.430;  755.860
991.355;   70.419;  -12.750;  974.880
991.907;   68.492;  -12.040;  864.320
992.460;   66.564;  -11.330;  753.760
993.012;   65.702;  -13.610;  749.540
993.565;   64.238;  -13.460;  711.360
994.117;   66.216;   -9.360;  950.780
994.669;   62.793;  -11.300;  701.320
995.221;   59.924;  -13.540;  791.920
995.774;   59.136;  -13.430;  787.580
996.326;   57.418;  -12.520;  740.220
996.878;   56.533;  -10.950;  838.420
997.430;   55.006;  -14.300;  699.860
997.982;   54.630;  -13.760;  750.140
998.534;   54.696;  -11.530;  739.060
999.086;   52.868;  -10.310;  738.220
999.638;   51.092;  -12.530;  661.380
1000.190;   50.317;  -11.840;  699.320
1000.741;   50.538;  -10.260;  742.700
1001.293;   50.383;   -8.860;  686.020
1001.845;   48.374;  -13.700;  676.640
1002.396;   48.246;  -12.100;  743.400
1002.948;   48.075;  -12.760;  737.400
1003.500;   46.998;  -10.380;  723.780
1004.051;   47.414;  -11.900;  907.580
1004.603;   46.054;  -12.250;  791.820
1005.154;   42.314;  -13.210;  608.980
1005.705;   41.685;  -10.950;  723.960
1006.257;   40.311;  -13.880;  707.220
1006.808;   39.336;  -12.840;  685.460
1007.359;   40.029;  -10.570;  763.240
1007.910;   38.345;   -9.620;  646.640
1008.461;   38.450;  -13.630;  732.940
1009.013;   37.878;  -17.200;  588.340
1009.564;   38.629;  -10.200;  793.520
1010.115;   36.561;  -12.570;  597.040
1010.665;   36.466;  -15.150;  602.160
1011.216;   36.535;  -14.480;  667.920
1011.767;   35.761;  -11.340;  697.920
1012.318;   36.160;   -9.780;  736.980
1012.869;   34.701;  -12.380;  679.000
1013.419;   34.628;  -15.560;  603.120
1013.970;   35.406;  -11.010;  666.640
1014.521;   34.305;  -11.610;  620.620
1015.071;   33.691;  -13.450;  670.380
1015.622;   33.519;  -13.870;  635.460
1016.172;   32.923;  -11.610;  596.820
1016.723;   33.428;  -12.120;  614.380
1017.273;   33.381;  -13.620;  604.160
1017.823;   32.740;  -14.140;  650.340
1018.374;   32.304;  -12.800;  611.760
1018.924;   32.181;  -12.340;  716.880
1019.474;   32.783;  -11.410;  718.880
1020.024;   30.995;  -14.770;  657.580
1020.574;   31.611;   -9.780;  726.160
1021.124;   31.940;   -8.560;  673.580
1021.674;   30.873;  -15.190;  559.120
1022.224;   31.934;  -13.530;  708.940
1022.774;   31.323;  -13.280;  668.820
1023.324;   31.719;  -10.690;  753.520
1023.874;   32.363;  -10.240;  875.760
1024.423;   30.177;  -12.540;  613.700
1024.973;   29.901;  -10.010;  610.760
1025.523;   29.020;  -10.550;  620.960
1026.072;   28.695;  -13.560;  606.420
1026.622;   28.921;  -15.120;  675.740
1027.172;   29.884;  -11.260;  715.660
1027.721;   28.446;  -11.410;  601.220
1028.270;   28.291;  -13.530;  663.400
1028.820;   28.684;  -13.680;  638.080
1029.369;   28.451;  -13.520;  612.700
1029.918;   27.920;  -10.980;  649.840
1030.468;   27.233;  -13.530;  564.780
1031.017;   27.681;  -13.170;  634.800
1031.566;   27.452;  -12.200;  608.900
1032.115;   27.722;   -9.960;  694.500
1032.664;   26.191;  -13.210;  596.480
1033.213;   26.614;  -12.500;  735.420
1033.762;   26.751;  -11.910;  635.620
1034.311;   26.440;   -9.640;  677.220
1034.860;   27.046;  -13.310;  691.000
1035.408;   26.691;  -11.830;  722.720
1035.957;   27.216;  -12.000;  719.540
1036.506;   25.067;  -11.690;  530.800
1037.055;   27.473;  -10.990;  844.320
1037.603;   25.764;  -15.120;  664.000
1038.152;   23.717;  -12.450;  534.760
1038.700;   25.071;  -10.560;  585.740
1039.249;   24.319;  -11.080;  681.220
1039.797;   23.980;  -12.540;  633.360
1040.345;   24.583;  -11.920;  705.420
1040.894;   25.211;  -11.410;  625.300
1041.442;   23.390;  -14.320;  632.200
1041.990;   22.532;  -16.240;  559.160
1042.538;   23.052;  -11.680;  536.180
1043.087;   22.797;  -10.760;  570.860
1043.635;   23.881;  -11.850;  670.500
1044.183;   23.200;  -15.480;  586.400
1044.731;   22.995;  -11.770;  576.000
1045.279;   22.491;  -13.090;  674.920
1045.827;   24.338;  -12.440;  892.400
1046.374;   21.904;  -13.840;  515.420
1046.922;   21.689;  -13.220;  590.580
1047.470;   23.055;  -10.230;  691.300
1048.018;   22.609;  -14.590;  647.960
1048.565;   22.556;  -12.050;  708.600
1049.113;   21.129;  -11.650;  557.000
1049.660;   21.899;  -10.510;  629.660
1050.208;   21.931;  -13.310;  675.640
1050.755;   21.059;  -15.900;  606.580
1051.303;   21.700;  -11.430;  686.820
1051.850;   21.382;   -8.480;  635.120
1052.397;   18.955;  -15.010;  473.960
1052.945;   20.329;  -13.960;  617.760
1053.492;   22.225;  -13.150;  741.840
1054.039;   21.366;   -9.630;  720.180
1054.586;   19.630;  -13.680;  557.240
1055.133;   20.792;  -14.570;  693.140
1055.680;   21.046;  -13.820;  646.620
1056.227;   19.681;  -11.730;  542.780
1056.774;   20.443;  -12.480;  794.980
1057.321;   18.377;  -13.930;  523.260
1057.868;   19.557;  -11.690;  651.320
1058.415;   19.250;   -9.520;  651.980
1058.961;   19.985;  -13.160;  678.940
1059.508;   19.250;  -12.920;  643.820
1060.055;   19.504;  -11.920;  581.780
1060.601;   19.578;  -11.500;  624.300
1061.148;   19.229;  -14.330;  616.820
1061.694;   17.749;  -16.870;  592.580
1062.241;   18.624;  -10.330;  596.320
1062.787;   18.727;  -10.620;  663.140
1063.334;   19.704;  -10.110;  808.560
1063.880;   18.230;  -13.400;  668.360
1064.426;   18.551;  -10.680;  706.820
1064.972;   17.976;   -9.920;  601.340
1065.518;   16.702;  -10.980;  566.640
1066.065;   18.490;  -14.890;  624.460
1066.611;   16.764;  -12.870;  598.800
1067.157;   18.294;  -12.950;  641.860
1067.703;   17.061;  -13.540;  668.480
1068.249;   17.200;  -13.540;  605.220
1068.794;   16.998;  -12.600;  626.880
1069.340;   15.946;  -10.620;  578.960
1069.886;   16.353;  -12.830;  590.700
1070.432;   15.336;  -14.870;  541.720
1070.977;   15.903;  -11.980;  601.080
1071.523;   15.656;   -8.200;  573.060
1072.068;   15.893;  -12.330;  582.000
1072.614;   16.000;  -16.370;  527.760
1073.160;   16.118;  -11.100;  687.040
1073.705;   14.932;  -10.480;  572.520
1074.250;   14.989;  -14.520;  559.900
1074.796;   15.873;  -11.460;  655.160
1075.341;   15.920;  -11.950;  664.100
1075.886;   15.289;  -11.460;  594.240
1076.431;   14.787;  -13.770;  649.880
1076.976;   14.393;  -12.680;  639.220
1077.521;   14.111;  -13.170;  583.080
1078.067;   14.016;  -10.860;  579.400
1078.612;   14.751;  -13.920;  661.620
1079.156;   14.083;  -13.880;  601.540
1079.701;   14.642;  -13.120;  693.260
1080.246;   15.823;   -9.940;  696.300
1080.791;   14.299;  -14.740;  625.020
1081.336;   13.942;  -13.750;  659.320
1081.880;   13.502;  -13.400;  649.680
1082.425;   13.899;  -12.220;  573.480
1082.970;   14.830;  -11.610;  717.040
1083.514;   13.712;  -13.580;  597.000
1084.059;   12.686;  -12.810;  586.720
1084.603;   12.180;  -12.320;  565.840
1085.147;   12.721;  -13.190;  645.220
1085.692;   13.836;  -12.480;  716.800
1086.236;   12.268;  -13.020;  503.140
1086.780;   14.094;   -9.190;  751.440
1087.325;   12.793;  -12.480;  654.620
1087.869;   13.527;  -12.450;  610.700
1088.413;   13.491;  -12.240;  705.040
1088.957;   12.018;   -9.020;  543.400
1089.501;   13.129;  -10.320;  766.640
1090.045;   12.414;  -12.720;  726.480
1090.589;   10.607;  -13.690;  569.920
1091.133;   11.993;  -10.020;  673.340
1091.676;   12.389;  -12.330;  591.940
1092.220;   11.899;  -14.970;  600.920
1092.764;   12.585;  -12.430;  706.960
1093.307;   11.853;   -9.800;  673.780
1093.851;   10.146;  -14.970;  556.540
1094.395;   11.371;  -15.310;  683.140
1094.938;   10.839;  -10.370;  632.520
1095.482;   10.875;  -11.050;  559.800
1096.025;   11.612;  -11.840;  710.880
1096.568;   11.935;  -12.840;  779.280
1097.112;    9.680;  -14.700;  508.180
1097.655;   10.557;   -8.720;  603.000
1098.198;    9.593;  -13.610;  600.180
1098.741;   10.072;  -13.350;  612.860
1099.285;   10.580;  -11.230;  657.300
1099.828;    8.768;  -11.840;  439.400
1100.371;   10.000;  -10.840;  608.160
1100.914;    9.958;  -14.190;  682.660
1101.457;    9.941;  -11.240;  679.900
1101.999;    8.470;  -11.270;  584.680
1102.542;    9.596;  -11.480;  641.440
1103.085;    9.833;  -11.750;  658.500
1103.628;   10.830;  -11.400;  762.060
1104.170;    9.041;  -10.490;  588.280
1104.713;    9.677;  -10.600;  646.700
1105.256;    8.337;  -14.360;  557.440
1105.798;    7.916;  -13.210;  499.980
1106.341;    9.433;  -10.270;  728.900
1106.883;    9.199;  -12.200;  521.340
1107.425;    8.256;  -13.110;  668.180
1107.968;    8.556;  -12.840;  612.380
1108.510;    8.609;   -6.480;  684.960
1109.052;    7.618;  -13.940;  612.620
1109.594;    7.382;  -13.690;  554.440
1110.136;    8.309;  -11.880;  643.220
1110.679;    8.015;   -9.500;  633.080
1111.221;    8.290;  -14.160;  604.460
1111.763;    7.606;  -13.980;  559.220
1112.304;    7.409;  -13.880;  547.140
1112.846;    7.735;  -12.210;  666.240
1113.388;   10.244;  -11.390;  942.180
1113.930;    7.369;  -14.540;  694.200
1114.472;    6.851;  -12.640;  606.540
1115.013;    5.723;  -11.620;  551.280
1115.555;    5.731;  -13.640;  587.100
1116.097;    5.820;  -15.380;  579.480
1116.638;    7.081;  -12.640;  684.600
1117.180;    7.278;   -9.850;  667.740
1117.721;    6.834;  -13.690;  568.580
1118.262;    6.951;  -12.680;  677.960
1118.804;    6.809;  -12.530;  637.340
1119.345;    5.889;  -11.690;  578.400
1119.886;    6.904;  -13.380;  704.040
1120.427;    5.781;  -14.070;  589.020
1120.969;    5.511;  -13.500;  597.920
1121.510;    5.713;  -11.480;  563.060
1122.051;    6.013;  -12.830;  723.580
1122.592;    5.340;  -14.290;  655.420
1123.133;    4.157;  -12.400;  547.940
1123.673;    6.356;  -10.130;  706.480
1124.214;    5.243;  -12.930;  612.460
1124.755;    6.146;  -14.380;  639.460
1125.296;    5.883;  -14.000;  627.320
1125.836;    5.811;  -10.070;  691.500
1126.377;    4.727;  -12.640;  599.660
1126.918;    5.604;  -12.960;  614.980
1127.458;    4.365;  -13.350;  622.220
1127.999;    5.362;  -10.750;  656.980
1128.539;    5.101;  -12.350;  694.240
1129.079;    3.976;  -14.860;  632.720
1129.620;    4.055;  -13.840;  558.100
1130.160;    3.519;  -12.330;  539.480
1130.700;    4.574;  -14.530;  640.840
1131.240;    5.076;  -12.530;  643.700
1131.781;    3.930;  -14.450;  619.680
1132.321;    4.329;   -9.790;  599.120
1132.861;    2.625;  -14.860;  564.200
1133.401;    2.734;  -14.290;  593.940
1133.941;    4.339;  -11.750;  626.280
1134.481;    3.840;   -9.920;  597.580
1135.020;    3.259;  -12.290;  609.160
1135.560;    3.598;  -11.650;  674.940
1136.100;    3.186;  -16.270;  501.160
1136.640;    2.680;  -10.890;  510.480
1137.179;    2.746;  -14.180;  537.960
1137.719;    3.009;  -16.250;  605.400
1138.258;    3.040;  -14.230;  587.360
1138.798;    4.176;   -9.090;  663.780
1139.337;    1.153;  -15.130;  482.840
1139.877;    2.656;  -13.680;  642.360
1140.416;    4.702;  -11.320;  878.060
1140.955;    2.390;  -10.860;  535.380
1141.494;    2.692;  -12.920;  669.280
1142.034;    2.301;  -13.930;  583.520
1142.573;    3.759;  -11.440;  646.280
1143.112;    2.174;  -12.000;  553.480
1143.651;    2.164;  -13.670;  536.480
1144.190;    2.768;  -12.730;  691.640
1144.729;    2.158;  -14.560;  607.420
1145.267;    2.225;  -11.830;  584.900
1145.806;    2.879;  -12.230;  637.040
1146.345;    1.340;  -14.130;  635.020
1146.884;    1.928;  -11.590;  622.500
1147.422;    1.556;  -12.550;  533.060
1147.961;    3.199;  -11.180;  708.460
1148.500;    2.442;  -11.510;  669.720
1149.038;    2.173;  -11.640;  632.500
1149.577;    2.542;  -10.130;  698.640
1150.115;    0.091;  -13.970;  452.280
1150.653;    1.393;  -14.520;  607.340
1151.192;    1.485;  -12.810;  552.920
1151.730;    1.553;   -9.100;  652.560
1152.268;    0.775;  -12.220;  589.520
1152.806;    0.514;  -14.140;  571.180
1153.344;    0.101;  -12.350;  577.640
1153.882;    1.220;   -8.980;  600.060
1154.421;   -0.226;  -15.190;  470.620
1154.958;    0.221;  -15.210;  595.240
1155.496;    2.192;  -12.850;  645.280
1156.034;    1.472;   -9.940;  721.880
1156.572;    1.901;  -13.570;  667.060
1157.110;   -0.166;  -14.590;  473.940
1157.647;    1.326;  -13.030;  676.960
1158.185;   -0.309;  -12.140;  564.320
1158.723;   -1.106;  -14.390;  509.200
1159.260;    0.410;  -14.090;  701.700
1159.798;    0.462;  -11.920;  658.160
1160.335;    0.295;  -11.110;  631.820

