
Integration time [ms]:   3.276
Averaging Nr. [scans]: 1000
Smoothing Nr. [pixels]: 0
Data measured with spectrometer [name]: 7414430SP
Wave   ;Sample   ;Dark     ;Reference
[nm]   ;[counts] ;[counts] ;[counts] 

288.544;  151.430;    7.793;  793.890
289.143;  155.838;    7.462;  681.602
289.742;  154.799;    8.602;  828.814
290.341;  140.028;    1.321;  789.841
290.940;  130.327;   -0.709;  730.702
291.538;  131.595;    0.881;  881.108
292.137;  130.253;    0.122;  792.581
292.736;  135.822;   -1.929;  975.101
293.335;  131.426;   -8.229;  735.086
293.934;  132.190;   -5.279;  781.677
294.532;  130.659;   -1.369; 1031.958
295.131;  116.089;   -7.641;  834.394
295.730;  116.691;   -8.420;  809.588
296.328;  115.274;   -5.611;  783.442
296.927;  116.560;   -5.781;  779.652
297.525;  117.190;   -6.361;  781.236
298.124;  107.444;  -11.382;  654.009
298.722;  111.501;   -7.641;  761.933
299.321;  109.471;   -6.811;  708.597
299.919;  108.165;   -6.991;  751.918
300.518;  103.963;  -10.362;  689.338
301.116;  105.775;   -9.581;  691.381
301.715;  105.624;   -4.891;  730.222
302.313;  104.755;   -8.801;  704.943
302.911;   99.795;   -8.522;  733.830
303.509;  105.300;   -6.171;  925.627
304.108;  103.584;   -7.311;  760.383
304.706;  102.796;   -8.321;  801.664
305.304;   96.620;  -10.222;  796.707
305.902;  102.364;   -6.021;  784.484
306.500;   98.563;   -4.971;  728.200
307.098;   96.379;   -7.061;  746.560
307.696;   95.346;   -8.801;  780.432
308.294;   95.805;   -6.411;  731.359
308.892;   97.242;   -2.901;  759.769
309.490;   92.289;   -5.041;  712.161
310.088;   91.839;   -5.002;  788.444
310.686;   95.789;   -2.041;  821.749
311.284;   92.062;   -2.351;  766.040
311.882;   89.783;   -4.422;  731.225
312.480;   85.648;   -4.192;  697.167
313.078;   87.900;   -1.172;  808.331
313.675;   87.931;   -2.601;  691.600
314.273;   83.782;   -1.312;  797.837
314.871;   82.979;   -3.942;  589.829
315.468;   81.229;   -2.802;  652.090
316.066;   83.293;   -0.701;  694.427
316.664;   76.359;   -4.362;  656.351
317.261;   80.245;   -2.872;  910.128
317.859;   76.293;   -2.022;  768.735
318.456;   76.902;   -0.531;  830.096
319.054;   71.799;   -3.912;  787.828
319.651;   71.607;   -4.752;  759.928
320.249;   70.503;   -2.602;  810.188
320.846;   67.987;   -0.821;  714.286
321.443;   65.273;   -4.642;  832.135
322.041;   62.640;   -5.002;  812.315
322.638;   60.982;   -3.982;  701.456
323.235;   61.391;   -3.411;  665.683
323.833;   59.483;   -7.361;  740.354
324.430;   55.171;   -8.611;  615.900
325.027;   55.617;   -4.061;  876.855
325.624;   54.867;   -4.031;  644.532
326.221;   52.268;   -7.481;  689.717
326.818;   51.875;   -5.281;  818.332
327.415;   55.155;   -7.460;  748.828
328.012;   54.233;   -5.510;  690.585
328.609;   53.170;   -7.880;  731.389
329.206;   51.197;   -8.331;  778.621
329.803;   51.349;   -5.121;  737.841
330.400;   53.813;   -4.510;  704.260
330.997;   55.455;   -6.441;  817.147
331.594;   53.735;   -8.831;  788.185
332.191;   59.532;   -7.621;  728.722
332.787;   61.940;   -4.591;  844.463
333.384;   61.024;   -7.412;  763.093
333.981;   59.325;   -8.293;  815.687
334.578;   62.433;   -7.052;  708.378
335.174;   65.823;   -3.102;  731.469
335.771;   64.026;   -5.943;  836.456
336.367;   61.473;   -7.393;  710.631
336.964;   65.070;   -4.063;  793.266
337.561;   62.396;   -3.813;  731.112
338.157;   58.469;   -4.654;  911.916
338.754;   56.338;   -7.934;  796.589
339.350;   54.234;   -4.414;  722.493
339.946;   56.847;   -4.664;  773.135
340.543;   48.261;   -6.375;  846.136
341.139;   43.004;   -9.815;  720.836
341.735;   40.964;   -4.526;  772.593
342.332;   39.499;   -4.895;  691.472
342.928;   39.569;   -4.295;  795.394
343.524;   34.171;   -5.476;  761.684
344.120;   31.419;   -5.856;  738.562
344.716;   33.785;   -2.155;  723.717
345.313;   31.855;   -6.275;  795.342
345.909;   27.093;   -8.815;  627.336
346.505;   28.357;   -5.305;  740.247
347.101;   28.509;   -2.674;  827.864
347.697;   29.897;   -4.344;  785.398
348.293;   23.988;   -9.975;  627.244
348.889;   25.063;   -5.774;  745.914
349.485;   23.614;   -5.004;  688.205
350.081;   24.500;   -4.704;  772.592
350.676;   19.589;   -6.635;  691.606
351.272;   24.904;   -4.504;  809.530
351.868;   24.070;   -3.914;  780.497
352.464;   20.725;   -9.044;  723.932
353.059;   17.487;   -8.314;  646.017
353.655;   20.890;   -7.024;  777.063
354.251;   21.855;   -5.343;  759.845
354.846;   16.146;   -8.604;  740.646
355.442;   13.779;   -6.945;  753.071
356.038;   17.066;   -7.564;  751.708
356.633;   15.815;   -5.814;  728.594
357.229;   13.325;   -7.364;  724.757
357.824;   12.964;   -8.024;  703.600
358.420;   12.074;   -9.384;  679.726
359.015;   12.410;   -5.104;  695.357
359.610;   13.119;   -6.854;  763.920
360.206;    7.698;  -10.185;  603.240
360.801;   10.036;   -7.054;  646.503
361.396;   11.762;   -5.034;  725.975
361.992;    7.391;   -8.284;  668.220
362.587;    4.085;   -8.625;  670.160
363.182;    7.292;   -7.674;  689.631
363.777;    8.015;   -5.164;  738.242
364.372;    7.477;   -8.604;  737.314
364.967;    3.945;   -9.055;  680.744
365.563;    7.667;   -6.114;  815.567
366.158;    5.741;   -5.814;  685.161
366.753;    5.722;   -7.854;  649.263
367.348;    4.141;   -7.804;  746.056
367.942;    4.560;   -7.954;  697.298
368.537;    3.064;   -4.984;  754.245
369.132;    3.461;   -8.564;  703.428
369.727;   -1.088;   -8.855;  638.079
370.322;    0.166;   -6.245;  580.186
370.917;    0.293;   -6.425;  710.646
371.511;    3.040;   -6.294;  861.834
372.106;   -0.300;   -7.685;  776.964
372.701;   -3.780;   -7.335;  585.988
373.296;    2.064;   -4.564;  863.135
373.890;   -2.929;  -10.235;  647.840
374.485;   -4.059;   -7.885;  691.199
375.079;   -1.017;   -7.324;  738.685
375.674;    0.336;   -3.494;  812.970
376.268;   -3.903;   -8.525;  691.759
376.863;   -9.677;  -10.086;  580.327
377.457;   -3.152;   -7.025;  662.490
378.052;   -5.137;   -3.585;  764.884
378.646;   -6.171;   -7.595;  741.167
379.240;   -6.192;   -8.335;  721.176
379.835;   -5.182;   -5.785;  636.978
380.429;   -7.514;   -4.335;  562.557
381.023;   -7.844;   -6.805;  779.205
381.617;   -8.910;   -9.195;  680.106
382.212;   -6.526;   -6.905;  685.303
382.806;   -5.183;   -3.745;  760.690
383.400;   -9.936;   -7.745;  672.281
383.994;  -10.509;   -9.765;  664.870
384.588;   -6.606;   -6.564;  697.701
385.182;   -5.345;   -5.344;  726.624
385.776;   -6.724;   -8.514;  706.875
386.370;  -10.290;   -9.555;  681.968
386.964;   -8.379;   -8.715;  684.155
387.558;   -6.998;   -6.174;  598.360
388.152;  -10.739;   -8.725;  681.959
388.745;   -8.974;   -7.965;  814.707
389.339;   -6.813;   -5.924;  747.642
389.933;   -5.590;   -5.524;  695.370
390.527;   -7.412;   -7.114;  859.029
391.120;  -13.027;  -10.725;  595.318
391.714;  -10.456;   -8.035;  711.633
392.308;   -7.410;   -3.574;  780.253
392.901;  -11.025;   -7.245;  642.460
393.495;  -12.402;   -9.285;  595.414
394.089;  -10.397;   -5.895;  760.452
394.682;  -11.296;   -4.295;  697.188
395.275;  -11.378;   -9.875;  719.927
395.869;  -13.038;   -8.485;  667.314
396.462;  -11.319;   -7.455;  616.609
397.056;   -7.983;   -5.424;  776.621
397.649;  -11.858;   -6.605;  731.575
398.242;   -9.842;   -8.224;  712.645
398.836;   -8.368;   -7.474;  766.408
399.429;   -9.729;   -7.094;  631.041
400.022;  -13.414;   -9.475;  665.902
400.615;  -10.669;   -7.145;  805.609
401.208;   -8.316;   -7.174;  691.451
401.802;  -11.162;   -5.515;  699.329
402.395;  -12.434;   -9.875;  683.502
402.988;  -13.288;   -8.845;  696.627
403.581;  -10.102;   -8.874;  646.878
404.174;   -7.864;   -5.324;  686.568
404.767;  -10.469;   -9.575;  638.583
405.360;  -12.305;  -10.965;  621.445
405.953;   -7.222;   -8.764;  759.034
406.545;   -6.972;   -7.514;  725.342
407.138;  -11.584;  -10.025;  618.350
407.731;   -9.816;  -10.034;  613.303
408.324;   -5.767;   -9.374;  660.554
408.917;   -6.533;   -6.534;  681.864
409.509;   -8.817;   -8.004;  740.396
410.102;  -10.515;   -9.875;  643.948
410.695;   -3.849;   -8.604;  665.758
411.287;   -5.633;   -6.794;  599.821
411.880;   -6.471;   -9.334;  585.421
412.472;   -9.707;  -10.254;  613.092
413.065;   -6.868;   -6.714;  629.408
413.657;   -5.652;   -7.234;  576.678
414.250;   -4.115;  -10.544;  646.681
414.842;   -5.971;   -9.744;  676.353
415.434;   -4.384;   -6.994;  570.463
416.027;   -0.180;   -5.893;  652.196
416.619;   -1.908;   -7.264;  713.400
417.211;   -2.771;  -10.374;  599.352
417.804;    1.733;   -7.993;  628.499
418.396;   -2.858;   -7.234;  607.643
418.988;   -0.879;   -9.443;  659.238
419.580;   -4.260;  -10.724;  568.276
420.172;   -1.758;  -10.323;  536.196
420.764;    2.922;   -8.793;  672.482
421.356;    1.236;  -11.143;  636.898
421.948;    0.126;   -8.293;  677.661
422.540;    4.996;   -7.893;  680.027
423.132;    4.720;   -7.082;  600.641
423.724;    1.058;   -8.653;  561.267
424.316;    2.956;  -10.213;  621.345
424.908;    6.285;   -9.762;  591.517
425.500;    7.664;   -5.572;  647.978
426.092;    8.232;   -8.422;  648.268
426.683;    6.566;   -9.283;  684.836
427.275;    9.695;   -7.852;  641.471
427.867;   10.824;   -5.272;  668.948
428.458;   11.268;   -7.682;  732.344
429.050;   10.571;  -10.612;  680.749
429.642;   13.354;   -9.882;  743.124
430.233;   13.052;   -6.962;  569.356
430.825;   14.352;   -6.842;  724.809
431.416;   11.820;   -9.672;  698.241
432.008;   16.293;   -6.552;  651.723
432.599;   15.589;   -6.891;  656.073
433.190;   13.247;  -10.912;  637.670
433.782;   12.364;  -11.172;  590.395
434.373;   20.160;   -6.061;  884.765
434.964;   18.474;   -8.251;  602.920
435.556;   15.922;   -9.722;  634.537
436.147;   19.526;   -9.082;  758.490
436.738;   19.355;   -8.041;  701.099
437.329;   24.198;   -7.341;  721.723
437.920;   16.963;   -8.162;  666.688
438.511;   17.197;  -11.802;  564.526
439.103;   24.393;  -10.191;  623.998
439.694;   25.939;   -7.601;  681.583
440.285;   26.658;   -8.541;  764.432
440.876;   25.103;   -9.751;  845.738
441.466;   25.120;   -9.401;  575.162
442.057;   29.066;   -7.760;  665.814
442.648;   28.307;   -9.971;  746.255
443.239;   27.220;  -11.001;  620.477
443.830;   31.561;   -7.990;  704.958
444.421;   33.612;   -7.910;  655.474
445.011;   30.056;   -8.131;  693.619
445.602;   30.274;   -7.111;  743.126
446.193;   31.578;  -10.920;  488.117
446.783;   36.412;   -6.500;  640.397
447.374;   31.987;   -8.671;  692.759
447.964;   32.750;  -10.781;  713.770
448.555;   40.031;   -9.650;  822.742
449.145;   37.120;   -8.660;  662.853
449.736;   38.618;   -8.990;  803.179
450.326;   38.269;   -9.500;  713.626
450.917;   44.148;   -8.680;  675.324
451.507;   43.022;   -7.520;  600.661
452.097;   42.644;   -8.590;  746.267
452.688;   43.916;  -11.340;  742.160
453.278;   44.279;  -10.100;  566.840
453.868;   48.840;   -6.019;  793.550
454.458;   45.402;   -9.440;  651.141
455.048;   46.909;  -10.560;  711.783
455.639;   48.573;  -11.799;  567.096
456.229;   51.924;   -6.899;  710.694
456.819;   53.654;   -7.389;  751.158
457.409;   54.528;  -11.119;  773.993
457.999;   57.010;   -9.289;  737.505
458.589;   56.758;   -6.139;  686.606
459.179;   57.012;   -8.729;  717.658
459.769;   54.568;   -9.789;  627.099
460.358;   60.652;  -10.259;  797.262
460.948;   58.920;   -7.299;  689.503
461.538;   61.455;  -10.289;  660.677
462.128;   59.614;  -11.269;  664.934
462.717;   66.125;   -9.368;  710.326
463.307;   68.994;   -7.908;  705.846
463.897;   65.032;   -9.599;  656.942
464.486;   64.089;   -9.769;  837.128
465.076;   68.973;   -8.048;  733.776
465.666;   71.792;   -9.358;  652.900
466.255;   70.446;   -7.919;  785.651
466.845;   69.377;  -11.689;  666.749
467.434;   72.811;   -7.818;  725.873
468.023;   73.546;   -7.678;  658.357
468.613;   71.543;  -10.939;  713.946
469.202;   76.099;  -10.118;  646.507
469.791;   79.295;   -9.108;  737.811
470.381;   81.329;   -6.058;  742.813
470.970;   81.564;  -10.428;  711.099
471.559;   81.261;  -10.268;  733.291
472.148;   84.299;   -8.448;  675.737
472.738;   86.690;   -6.917;  765.466
473.327;   87.300;  -11.978;  637.529
473.916;   86.743;  -11.888;  737.446
474.505;   90.347;   -9.437;  751.703
475.094;   93.814;   -6.747;  806.570
475.683;   92.576;   -9.367;  797.699
476.272;   94.716;  -12.637;  730.632
476.861;   97.031;  -10.027;  706.754
477.449;  103.741;   -8.716;  728.487
478.038;   97.607;   -9.577;  692.513
478.627;   99.376;   -9.718;  714.852
479.216;  106.773;   -8.947;  769.441
479.805;  109.233;   -6.256;  783.375
480.393;  107.951;   -7.937; 1008.945
480.982;  107.181;   -7.717;  874.501
481.571;  114.266;   -9.266;  858.333
482.159;  115.159;   -7.636;  705.386
482.748;  114.348;   -9.667;  821.385
483.336;  119.765;  -10.376;  858.209
483.925;  120.019;   -7.147;  774.373
484.513;  127.177;   -7.996;  758.962
485.102;  123.864;  -10.027;  810.965
485.690;  132.867;  -10.446; 1011.050
486.278;  135.033;   -8.446;  979.329
486.867;  135.553;   -6.356;  809.662
487.455;  137.738;   -9.136;  898.229
488.043;  139.437;  -10.646;  748.361
488.631;  148.314;   -7.456; 1005.079
489.220;  152.429;   -6.636;  908.626
489.808;  152.768;  -11.036;  741.415
490.396;  160.560;  -10.246;  914.645
490.984;  167.010;   -8.556;  830.161
491.572;  177.343;   -5.886;  940.315
492.160;  183.458;   -9.486;  919.081
492.748;  197.578;  -10.976;  884.341
493.336;  220.703;   -8.776; 1019.693
493.924;  247.431;   -5.465;  958.077
494.512;  278.605;   -9.986; 1066.638
495.100;  317.644;  -10.636; 1103.280
495.687;  376.689;  -10.885; 1206.373
496.275;  444.194;   -8.126; 1150.796
496.863;  518.353;  -10.586; 1281.171
497.451;  624.408;  -11.926; 1386.805
498.038;  766.693;  -10.885; 1556.729
498.626;  884.258;   -6.315; 1741.407
499.214; 1047.391;   -7.326; 2016.609
499.801; 1262.731;  -11.906; 2220.633
500.389; 1516.066;  -10.466; 2312.494
500.976; 1833.151;   -5.236; 2744.849
501.564; 2301.797;   -8.936; 3148.565
502.151; 2681.860;  -13.176; 3515.999
502.738; 3123.852;  -10.646; 3971.274
503.326; 3556.792;   -9.525; 4403.796
503.913; 3995.849;  -10.856; 5161.749
504.500; 4411.183;  -11.586; 5986.420
505.088; 4811.042;  -10.336; 6381.201
505.675; 5395.703;   -6.355; 6925.547
506.262; 6134.786;   -9.046; 7619.060
506.849; 6920.271;  -10.416; 8733.969
507.436; 7503.204;  -10.305; 9790.121
508.023; 8124.241;   -5.496; 9985.472
508.610; 8362.242;   -7.856;10434.618
509.197; 8995.752;  -10.097;11198.435
509.784;10446.836;  -10.886;12391.194
510.371;11732.005;   -9.315;13603.713
510.958;12525.310;   -9.936;14426.586
511.545;13247.325;   -9.326;15243.775
512.132;14167.970;  -10.075;15945.876
512.719;14725.995;   -7.796;16340.369
513.305;15930.362;  -10.606;18011.766
513.892;16716.199;  -11.486;19754.971
514.479;17958.697;   -9.126;20967.805
515.066;19523.145;   -6.026;22299.793
515.652;21316.629;   -8.466;22908.660
516.239;22662.578;  -10.886;23798.875
516.825;23497.051;  -11.496;25567.275
517.412;24582.701;   -5.796;28154.959
517.998;25501.137;  -10.506;28344.111
518.585;25448.588;  -10.076;27134.219
519.171;25984.119;   -8.315;27268.576
519.758;27981.467;   -8.596;28964.129
520.344;30205.320;   -8.466;30664.494
520.930;29852.270;  -11.006;32550.605
521.516;30845.943;  -10.495;35422.895
522.103;32825.156;   -5.526;38280.004
522.689;33483.105;   -8.746;37835.117
523.275;33019.090;  -11.376;37288.613
523.861;34742.000;  -11.156;37281.395
524.447;36707.066;   -8.135;37846.949
525.033;36559.992;   -7.896;38321.949
525.619;36799.969;  -12.476;38579.285
526.205;38227.832;   -9.516;40622.875
526.791;41317.609;   -6.926;42258.836
527.377;41213.281;   -8.346;42966.902
527.963;42131.758;   -8.717;42018.949
528.549;41460.398;  -11.016;42476.828
529.135;40107.059;   -8.536;41854.852
529.721;38884.391;   -9.666;41237.711
530.306;38170.895;  -10.066;41259.445
530.892;37949.258;  -11.356;41506.047
531.478;39100.473;   -6.596;43559.613
532.063;42768.820;   -8.836;47695.563
532.649;44117.535;  -10.047;50808.324
533.235;44566.660;   -9.746;51787.500
533.820;44562.223;   -6.566;52145.035
534.406;45898.563;  -10.817;51133.488
534.991;45895.207;   -9.416;49996.805
535.576;44113.773;   -9.036;48882.852
536.162;44901.277;   -6.156;46942.285
536.747;46279.711;  -11.607;45711.746
537.333;49070.828;  -11.787;48510.180
537.918;52094.539;  -12.437;50439.891
538.503;51648.754;   -7.196;50863.711
539.088;48153.719;  -10.556;50906.922
539.673;48138.477;   -8.767;52621.965
540.259;48893.055;  -10.026;52368.094
540.844;46188.301;   -7.416;50879.109
541.429;48030.977;   -9.467;52077.777
542.014;50237.145;   -9.527;52716.695
542.599;49148.746;   -9.946;52363.281
543.184;45792.008;   -7.927;53187.137
543.769;46822.805;   -9.297;54697.605
544.354;47142.520;  -10.127;53913.914
544.938;45699.586;   -9.267;49680.164
545.523;47416.266;   -6.506;47386.277
546.108;50348.879;   -9.787;49151.949
546.693;52368.027;  -11.587;51384.637
547.278;52707.445;  -10.986;51853.254
547.862;49708.117;   -8.206;51173.750
548.447;45023.547;  -10.067;51691.395
549.031;44060.359;   -9.637;52456.703
549.616;48690.852;   -9.926;52714.516
550.201;48557.070;   -6.347;52414.598
550.785;49912.840;   -7.917;52355.059
551.370;49103.047;  -10.867;54589.453
551.954;48550.379;   -9.047;58267.348
552.538;49463.660;   -7.827;59062.176
553.123;47912.707;  -10.287;58115.285
553.707;45530.934;  -12.178;56556.285
554.291;47100.805;   -8.717;56201.668
554.876;50491.344;   -7.457;55335.762
555.460;50711.656;  -10.387;54155.703
556.044;50548.516;   -9.618;53721.484
556.628;48043.434;  -11.567;53731.016
557.212;46757.371;   -8.097;54312.531
557.796;45773.074;  -11.077;53797.773
558.380;46001.066;  -11.108;56145.984
558.964;46029.641;   -9.057;57277.930
559.548;46958.547;   -6.977;56459.641
560.132;45000.086;  -11.457;54434.543
560.716;43318.227;  -11.378;54800.617
561.300;44536.141;   -9.577;57606.945
561.884;45696.359;   -7.127;58972.445
562.467;43475.637;   -7.118;57327.570
563.051;42615.113;  -13.358;54962.434
563.635;44308.348;  -10.178;52594.473
564.219;45150.703;   -7.837;50610.410
564.802;45836.652;  -11.398;49551.180
565.386;45250.938;  -12.788;48370.953
565.969;44527.250;   -9.077;48178.871
566.553;43270.906;   -6.207;49957.305
567.136;44308.816;   -8.568;50369.594
567.720;41106.492;  -11.868;49492.004
568.303;38967.121;   -8.268;50616.352
568.887;38946.559;   -8.698;50727.148
569.470;39643.922;   -6.808;51698.379
570.053;38862.102;  -13.188;52122.078
570.637;36221.957;  -12.037;52536.438
571.220;35801.766;   -8.577;51186.098
571.803;36920.656;   -8.498;51032.762
572.386;39147.184;  -10.498;49609.887
572.969;41694.527;   -9.388;48285.926
573.552;40131.395;   -8.338;47624.285
574.135;38420.406;   -8.518;45498.641
574.718;35823.633;  -13.628;41970.434
575.301;35174.391;  -10.893;41447.137
575.884;34525.152;   -8.158;40923.836
576.467;35780.430;  -10.328;45267.723
577.050;37305.977;  -13.058;48175.543
577.633;38278.344;   -9.458;47729.328
578.216;37483.367;   -8.928;47579.793
578.799;36693.316;   -9.358;47820.996
579.381;35690.152;  -11.388;48115.551
579.964;33517.352;  -11.718;47333.766
580.547;35692.020;   -8.588;46668.969
581.129;36555.566;   -8.859;44466.141
581.712;37354.098;  -10.729;44164.922
582.294;37691.645;  -11.118;46477.855
582.877;37755.367;   -5.218;48244.254
583.459;36073.461;   -8.679;47437.895
584.042;33874.184;  -10.709;46943.219
584.624;33630.000;  -11.669;46792.227
585.206;33484.906;   -8.218;46557.250
585.789;33881.242;  -10.569;45793.773
586.371;36190.570;  -11.859;43836.391
586.953;36799.832;  -10.719;42972.492
587.536;37674.891;   -7.198;42487.211
588.118;38300.621;   -8.720;42086.414
588.700;34229.836;  -10.439;43389.930
589.282;33186.434;   -9.198;43646.039
589.864;34308.508;   -9.199;43438.109
590.446;35621.074;  -11.319;43151.926
591.028;35416.438;  -11.159;42781.867
591.610;34046.680;  -11.779;42839.098
592.192;31242.672;   -7.668;42820.402
592.774;29948.137;  -11.949;40724.277
593.356;28975.338;  -12.129;39874.789
593.937;27970.193;  -10.669;39980.648
594.519;30259.141;   -6.509;42069.633
595.101;32362.008;  -10.849;42976.031
595.683;32333.520;  -11.679;44084.441
596.264;33176.105;   -9.049;43478.797
596.846;33156.363;   -8.849;43803.672
597.427;33076.723;   -9.570;42986.934
598.009;34278.512;  -12.620;42832.219
598.591;34440.992;  -10.039;42580.086
599.172;34067.289;  -10.369;43061.805
599.753;34252.797;   -9.140;41691.469
600.335;35531.078;  -11.430;40692.520
600.916;33710.742;   -9.939;39982.422
601.498;31657.566;   -8.479;40318.617
602.079;30113.836;  -10.920;40670.609
602.660;29757.547;  -11.480;41450.898
603.241;31594.543;  -11.699;41137.738
603.823;30329.166;   -9.579;38868.797
604.404;29322.010;  -10.620;38182.785
604.985;31086.283;  -10.450;38078.047
605.566;31261.816;   -9.129;38056.633
606.147;31217.576;   -7.510;37020.418
606.728;32641.479;  -10.660;37883.359
607.309;31258.527;  -11.740;38748.273
607.890;31230.734;   -9.759;38850.230
608.471;30821.742;   -8.250;37457.918
609.051;30008.133;   -9.240;36066.457
609.632;28621.004;  -12.120;35991.074
610.213;28768.783;   -9.110;37402.641
610.794;29656.082;   -8.030;38383.363
611.374;29708.963;   -8.110;40562.387
611.955;30662.920;  -13.560;38533.727
612.536;31954.857;  -11.400;36951.789
613.116;31396.779;   -8.070;37197.891
613.697;31646.879;  -10.830;38411.125
614.277;29818.814;  -11.641;38673.938
614.858;30635.451;  -13.310;37075.863
615.438;30420.178;   -7.460;35092.906
616.019;28329.301;   -7.601;33666.301
616.599;28420.650;  -12.020;34189.023
617.179;29963.965;  -11.780;36952.047
617.760;31170.186;   -8.570;39582.574
618.340;31843.469;  -11.471;38943.977
618.920;32630.002;  -11.170;37594.156
619.500;32707.969;  -11.071;37866.938
620.080;31792.064;   -7.750;37869.043
620.660;32820.738;  -12.711;36868.617
621.241;34632.156;  -10.211;36352.309
621.821;35263.617;  -10.961;35459.520
622.401;34022.656;   -7.720;35207.414
622.980;32797.270;   -8.981;35980.422
623.560;31315.832;   -9.331;37351.328
624.140;29935.203;   -9.850;34388.582
624.720;25164.934;   -7.451;32368.764
625.300;21809.850;   -9.070;32638.629
625.880;25254.234;  -12.601;34599.035
626.459;29456.553;  -11.751;36831.738
627.039;32283.641;   -9.281;38299.098
627.619;32087.449;   -8.801;38289.574
628.198;30575.156;  -12.071;37220.695
628.778;29553.695;   -9.461;37632.563
629.357;30097.311;   -8.491;38003.012
629.937;30365.377;   -9.721;38402.039
630.516;29955.299;   -9.951;37868.801
631.096;29719.158;  -11.731;35760.410
631.675;31795.211;   -8.572;35225.219
632.254;36955.113;  -11.282;35130.289
632.834;36630.816;  -13.322;35794.570
633.413;35045.293;  -10.301;35788.922
633.992;32533.602;   -8.582;34532.863
634.571;32887.570;   -8.352;33590.113
635.151;35403.480;  -11.912;34943.863
635.730;34108.945;  -10.511;35352.523
636.309;31006.854;   -7.731;35366.605
636.888;28384.740;   -9.952;36165.637
637.467;28666.799;  -11.672;37515.902
638.046;29989.160;   -8.901;39288.695
638.625;32783.680;   -7.912;38279.699
639.204;32701.734;  -10.022;37741.598
639.782;31750.305;  -12.252;38364.551
640.361;28038.047;  -10.041;36740.621
640.940;25359.295;  -11.161;34950.082
641.519;26085.279;   -9.701;34137.398
642.097;28977.963;  -11.271;35654.258
642.676;31629.576;   -8.651;35637.957
643.255;32958.645;   -8.711;36567.074
643.833;32356.043;   -9.581;37809.434
644.412;32435.590;  -13.711;37337.293
644.990;31425.914;  -11.811;37018.531
645.569;31131.594;   -9.411;36518.469
646.147;30667.539;  -10.291;36186.430
646.726;30894.750;  -12.401;36267.688
647.304;31817.217;  -10.411;36647.625
647.882;32953.633;   -9.651;39286.742
648.461;34486.301;   -9.631;39157.703
649.039;33020.813;  -11.881;35412.883
649.617;32019.285;   -9.661;34744.918
650.195;31073.449;   -9.301;35403.098
650.773;29740.564;  -10.511;35053.797
651.352;27581.463;  -11.521;33756.816
651.930;25348.871;  -12.211;31868.773
652.508;23763.043;   -9.171;33121.551
653.086;27560.201;   -9.371;33564.793
653.663;30703.758;  -13.161;34054.668
654.241;29276.846;  -13.031;35693.309
654.819;30471.676;   -9.371;36422.906
655.397;30315.869;  -10.511;38213.484
655.975;29858.039;  -10.371;39507.625
656.553;29538.588;  -10.051;39498.223
657.130;28133.725;  -10.061;40395.480
657.708;27480.217;   -9.561;39242.020
658.286;27631.207;  -11.511;38920.020
658.863;28811.383;  -10.261;40202.898
659.441;32160.412;   -7.531;39677.938
660.018;32270.768;   -9.501;40413.355
660.596;30794.328;  -13.301;39931.414
661.173;32142.305;  -11.211;39604.531
661.750;32589.689;   -9.951;39700.070
662.328;31584.654;   -9.390;39292.809
662.905;30730.988;  -11.330;38235.648
663.482;26619.215;   -9.050;36212.305
664.060;24722.477;   -8.240;35944.945
664.637;27495.758;  -10.050;35170.785
665.214;28784.797;  -11.760;34197.523
665.791;30356.619;  -10.530;34549.520
666.368;29597.539;   -9.690;35118.578
666.945;30018.049;   -9.320;36019.418
667.522;31489.371;  -11.860;36048.438
668.099;31270.090;  -10.770;36243.914
668.676;29948.932;   -6.260;35958.875
669.253;28620.443;   -7.000;37384.730
669.830;28769.084;  -10.190;36779.629
670.407;28768.066;   -9.550;35231.289
670.984;28794.303;   -9.260;35544.270
671.560;29734.988;   -9.280;35466.867
672.137;29070.670;  -11.810;34280.863
672.714;29978.717;  -11.490;34632.863
673.290;31177.145;   -7.740;35135.422
673.867;31175.943;  -10.660;36114.480
674.443;30925.484;  -12.230;36152.859
675.020;28870.383;  -10.450;35327.238
675.596;29767.535;   -9.260;35795.176
676.173;30490.697;  -10.780;35430.355
676.749;30173.732;  -13.690;33549.516
677.326;29896.736;  -11.980;32210.012
677.902;29741.414;   -8.630;32068.871
678.478;29212.723;  -10.730;32583.891
679.054;28296.980;  -10.520;32088.928
679.631;28664.611;  -11.920;30978.848
680.207;30011.838;   -7.490;33160.887
680.783;31374.643;   -9.860;35570.363
681.359;30473.449;  -13.380;36125.184
681.935;30298.576;  -12.480;35240.922
682.511;30372.047;   -7.900;34429.961
683.087;30838.705;   -7.710;34463.680
683.663;30005.107;  -11.480;34648.898
684.239;28520.207;  -14.090;34546.457
684.815;27801.627;   -7.560;35586.375
685.390;27802.771;   -9.910;35821.895
685.966;28312.105;  -11.159;35085.871
686.542;30805.000;  -11.169;34198.230
687.118;33314.793;   -5.959;32847.707
687.693;33857.570;  -10.329;32794.027
688.269;33471.512;  -12.059;33072.367
688.844;31685.764;  -10.909;33141.664
689.420;29784.072;   -8.019;33965.742
689.995;28014.994;   -8.399;34655.523
690.571;26505.459;  -10.949;33576.742
691.146;26427.053;   -9.619;32657.219
691.722;26354.338;   -8.999;32526.979
692.297;25925.736;  -11.589;33014.617
692.872;27143.844;  -11.739;34012.254
693.448;27034.826;  -11.059;34237.434
694.023;26063.924;  -10.139;34142.672
694.598;27916.582;   -9.029;34132.031
695.173;28669.512;  -13.319;34205.250
695.748;27618.723;  -10.169;32882.488
696.323;27422.992;   -8.339;32864.906
696.898;27620.633;   -8.169;33170.004
697.473;27944.629;  -12.309;32432.984
698.048;27376.383;  -10.989;31649.303
698.623;27057.688;   -9.329;30778.141
699.198;28364.549;   -9.849;31140.119
699.773;29758.795;  -12.329;31764.299
700.348;28647.363;  -10.389;31780.816
700.922;28641.916;   -9.269;32046.375
701.497;29736.572;   -9.329;32603.574
702.072;30028.705;  -10.789;34799.871
702.646;28538.197;  -10.839;35793.172
703.221;26366.607;   -9.099;35201.590
703.795;28066.320;  -10.939;34764.527
704.370;28517.891;  -12.859;34307.367
704.944;28779.404;  -11.559;33509.887
705.519;29377.916;   -7.939;31388.584
706.093;30531.762;  -10.499;31340.104
706.668;30942.215;  -11.289;32630.281
707.242;29810.902;  -11.509;32728.779
707.816;28601.037;   -9.639;32947.238
708.390;27153.924;  -11.429;33277.855
708.965;27643.135;  -11.869;33834.336
709.539;27792.537;  -11.689;33709.273
710.113;27809.174;  -10.478;33044.313
710.687;27243.410;  -10.228;31953.992
711.261;25712.463;  -13.698;30505.949
711.835;25456.736;  -13.378;30262.369
712.409;25770.646;   -9.698;31254.447
712.983;27738.043;  -11.898;32754.986
713.557;29070.658;  -15.138;34018.824
714.131;29040.781;  -14.098;34579.625
714.704;28063.432;   -9.958;33890.262
715.278;25518.641;  -10.028;33531.102
715.852;24353.547;  -11.148;33601.660
716.425;25470.654;   -9.068;33515.117
716.999;26649.912;  -10.038;33185.555
717.573;27513.168;   -9.798;33905.996
718.146;28480.324;  -12.378;35199.293
718.720;28572.061;  -11.918;35060.551
719.293;28580.203;   -8.088;34973.230
719.867;31532.205;  -10.888;36394.449
720.440;31280.508;  -11.938;36663.008
721.013;29467.088;  -12.818;35102.426
721.587;27828.879;  -10.298;33985.266
722.160;26561.340;  -10.048;33524.965
722.733;25567.256;  -12.108;32987.043
723.306;25834.439;  -10.818;33066.301
723.880;27889.029;   -8.908;33399.500
724.453;30172.904;   -9.878;33468.297
725.026;29547.809;  -11.188;33816.637
725.599;26733.828;  -11.678;32797.996
726.172;26565.354;   -9.618;33187.434
726.745;27583.498;   -8.258;35136.613
727.318;28829.918;  -12.978;35751.730
727.891;29588.213;  -12.148;35890.430
728.463;29093.377;   -8.968;34822.090
729.036;27684.563;  -10.188;32895.086
729.609;28145.158;  -11.788;31823.225
730.182;25465.936;  -11.788;31445.283
730.754;23178.146;  -10.268;32373.223
731.327;23609.879;   -9.998;33676.820
731.900;24019.941;  -12.228;33417.000
732.472;24604.484;  -13.848;31978.498
733.045;26026.012;   -8.698;30368.777
733.617;26124.031;  -10.607;30574.215
734.190;26534.768;  -11.507;31280.975
734.762;24368.902;  -13.647;31674.412
735.334;22486.520;   -9.767;31247.291
735.907;22822.770;   -9.897;29876.211
736.479;23068.645;  -11.637;29808.488
737.051;22675.963;   -9.567;30233.547
737.623;23160.924;   -8.187;31469.086
738.195;23470.270;  -11.187;31784.225
738.768;25501.287;  -12.337;32120.523
739.340;26488.865;  -12.227;32094.342
739.912;25711.982;  -11.057;31312.680
740.484;24264.941;  -10.207;31946.238
741.056;22553.457;  -10.047;32984.059
741.628;23499.436;  -13.627;33897.715
742.199;25578.650;   -7.177;33213.016
742.771;24549.137;  -10.797;31369.113
743.343;22637.465;  -11.997;31865.473
743.915;21664.465;  -12.867;32388.631
744.487;21521.973;   -7.617;31079.568
745.058;21522.773;   -9.557;30570.107
745.630;22186.209;   -9.877;29970.127
746.201;23578.730;  -14.177;29186.766
746.773;24389.934;   -9.237;28805.723
747.344;24141.947;   -9.847;29591.223
747.916;22223.023;  -11.657;31412.201
748.487;22173.000;  -10.587;32194.898
749.059;23520.541;   -8.707;32533.719
749.630;24306.135;  -10.537;32158.518
750.201;23409.588;  -11.687;30855.395
750.773;21738.041;  -11.647;28622.555
751.344;21360.131;   -7.147;28405.732
751.915;22098.623;   -9.757;28461.551
752.486;22277.656;  -12.427;27842.850
753.057;20490.607;  -12.227;27845.008
753.628;19325.709;  -10.417;27728.107
754.199;20116.336;  -11.767;27381.086
754.770;21123.068;  -11.187;25882.203
755.341;21434.227;  -10.507;25886.184
755.912;21637.533;   -9.387;26050.861
756.483;21179.012;  -10.647;26798.779
757.054;19397.674;  -11.837;27048.238
757.625;17948.010;  -12.716;26294.838
758.195;17725.605;   -9.666;26142.076
758.766;17423.875;   -8.656;26392.234
759.337;17968.268;  -12.856;26334.594
759.907;19354.291;  -13.366;27579.652
760.478;20267.814;   -8.576;28352.770
761.048;19809.275;  -10.526;27325.088
761.619;18826.225;  -11.116;26460.428
762.189;18869.402;  -12.136;26029.826
762.760;19862.861;   -9.456;26430.145
763.330;21008.273;   -7.136;26670.902
763.900;20631.533;  -11.786;26603.021
764.471;18304.166;  -11.546;25542.740
765.041;16904.020;   -8.096;24358.459
765.611;16653.721;   -8.876;23991.297
766.181;16880.471;  -12.196;24470.236
766.751;18064.426;  -11.636;24845.975
767.321;17950.785;  -10.156;24533.633
767.891;15934.982;  -11.766;24916.492
768.461;15283.245;  -14.936;24776.771
769.031;15738.651;  -12.356;24757.988
769.601;17417.705;   -7.526;24181.088
770.171;17567.326;  -10.766;23670.387
770.741;16630.111;  -13.176;22960.045
771.311;16578.467;  -10.616;22917.523
771.880;17201.238;   -9.576;23562.941
772.450;17258.324;  -10.336;24216.500
773.020;17222.207;  -13.516;24140.398
773.589;16349.540;  -13.466;24414.857
774.159;15633.603;   -8.686;23858.717
774.729;15262.640;   -9.476;22942.135
775.298;14935.553;  -13.666;22324.033
775.867;14505.447;  -11.716;21140.313
776.437;14698.251;   -9.906;20838.092
777.006;14461.039;  -12.166;20599.510
777.576;14022.105;  -12.356;20508.809
778.145;13952.254;  -11.646;20732.947
778.714;14080.170;   -8.226;21062.465
779.283;13637.606;   -9.556;20949.664
779.853;13108.024;  -14.116;20508.623
780.422;13477.092;  -11.506;20649.082
780.991;13067.324;   -9.556;21527.520
781.560;11790.954;   -9.095;22632.658
782.129;11555.802;  -12.135;23048.277
782.698;11554.426;  -10.865;23438.555
783.267;11221.179;   -9.335;23267.734
783.836;11152.677;  -11.045;22415.133
784.404;12110.563;  -13.865;20443.152
784.973;12806.115;  -13.095;19699.150
785.542;12893.320;  -11.575;19763.828
786.111;12701.382;   -9.705;20341.408
786.679;12228.483;  -12.105;20207.967
787.248;11940.778;  -12.455;19516.465
787.817;11744.345;  -11.535;18900.363
788.385;11430.595;   -9.765;17879.121
788.954;10908.148;  -14.005;17658.301
789.522;10264.410;  -11.955;17788.879
790.090;10588.560;  -10.135;18118.277
790.659;11208.244;  -10.975;18338.736
791.227;10894.364;  -13.375;18508.615
791.795;11248.503;  -12.375;17898.254
792.364;11520.968;  -10.725;17295.133
792.932;11837.686;   -9.715;16822.051
793.500;12142.865;  -12.675;17040.148
794.068;12373.269;  -13.495;17179.787
794.636;12542.764;  -10.885;16664.246
795.204;11882.704;  -11.045;16524.545
795.772;11821.787;  -13.175;17274.564
796.340;11342.404;  -12.445;17891.002
796.908;11088.315;   -9.735;17648.561
797.476;10970.278;   -9.815;17064.080
798.044;10602.721;  -13.985;16672.777
798.612; 9890.613;  -13.115;17023.996
799.180; 9499.843;  -10.185;16561.615
799.747; 9327.752;   -9.055;15962.773
800.315; 9013.810;  -12.385;15296.992
800.883; 8840.248;  -15.035;14801.771
801.450; 9061.752;  -10.365;14534.430
802.018; 9176.795;   -9.855;14173.248
802.585; 9171.528;  -11.905;14029.547
803.153; 9164.453;  -11.585;13836.846
803.720; 8980.138;   -9.095;13567.324
804.287; 8470.881;   -9.135;13360.622
804.855; 7953.574;  -11.604;13681.981
805.422; 7827.789;  -11.794;13536.560
805.989; 7917.239;  -10.734;13355.958
806.556; 8111.586;  -10.444;13747.896
807.124; 8380.632;  -12.764;13987.376
807.691; 8352.664;  -12.964;14038.674
808.258; 8171.142;  -11.134;14120.152
808.825; 7838.487;   -9.854;13860.111
809.392; 7941.194;  -10.504;13268.790
809.959; 7497.349;  -13.054;12680.389
810.526; 7001.148;   -8.294;12427.308
811.093; 6962.487;   -8.394;12030.105
811.659; 7578.090;  -12.304;11653.664
812.226; 8176.135;  -13.944;11637.183
812.793; 7951.965;  -10.484;11611.521
813.360; 7312.614;  -10.144;11885.181
813.926; 6982.454;  -11.684;12770.539
814.493; 6797.543;  -13.644;12677.638
815.060; 6424.991;   -9.724;11974.336
815.626; 6349.088;   -9.854;11594.715
816.193; 6675.007;  -13.254;11579.474
816.759; 6715.104;  -13.204;11666.972
817.325; 6750.648;   -9.434;11325.530
817.892; 7095.893;  -10.134;11105.369
818.458; 7523.228;  -13.474;10843.928
819.024; 7197.249;  -11.854;10714.406
819.591; 6909.462;  -10.244;10469.165
820.157; 6727.356;  -10.704;10235.523
820.723; 6229.295;  -12.324;10847.563
821.289; 5921.622;   -9.444;11040.980
821.855; 5856.713;   -8.374;10357.100
822.421; 5834.269;  -10.234; 9978.918
822.987; 5787.043;  -13.294; 9754.177
823.553; 5406.928;  -10.884;10065.755
824.119; 5195.480;   -8.884;10036.294
824.685; 5336.572;   -6.784;10029.192
825.251; 5484.841;  -12.004;10199.230
825.816; 5438.800;  -11.474; 9820.189
826.382; 5140.627;   -9.174; 9297.248
826.948; 5253.113;   -9.214; 9381.347
827.513; 5651.343;  -10.774; 9450.726
828.079; 5559.429;  -11.924; 9472.444
828.645; 4967.271;  -10.543; 9292.643
829.210; 4753.787;  -10.533; 9065.341
829.776; 4711.604;  -10.753; 9132.620
830.341; 4593.381;  -10.173; 9092.878
830.906; 4733.103;  -10.743; 9078.557
831.472; 5072.310;  -11.113; 8534.535
832.037; 4910.002;  -10.603; 8677.874
832.602; 4428.219;  -13.323; 8628.692
833.167; 4178.250;  -10.823; 8879.031
833.733; 4123.207;  -10.113; 9189.790
834.298; 4260.287;  -13.583; 9052.608
834.863; 4403.836;  -12.703; 8895.087
835.428; 4430.663;  -10.523; 8824.266
835.993; 4278.615;   -6.963; 8845.385
836.558; 4094.278;  -10.763; 8888.563
837.123; 4149.863;   -9.903; 8966.582
837.688; 4397.149;   -9.913; 8617.860
838.253; 4658.813;  -10.283; 8590.699
838.817; 4836.009;  -12.963; 8443.797
839.382; 4747.852;  -14.243; 8799.356
839.947; 4449.140;  -10.733; 8810.595
840.511; 4158.050;   -9.383; 8796.394
841.076; 3794.534;  -12.563; 8347.231
841.641; 3848.002;  -12.953; 8224.330
842.205; 3957.019;   -7.043; 8223.349
842.770; 3974.456;   -8.163; 8622.107
843.334; 4081.406;  -12.503; 8410.386
843.898; 4039.522;  -11.693; 8337.465
844.463; 4035.665;  -10.203; 8506.283
845.027; 3844.066;   -9.533; 8280.962
845.591; 3674.358;  -13.443; 8231.141
846.156; 3674.361;  -13.143; 7969.179
846.720; 3598.838;   -9.433; 7768.278
847.284; 3503.589;  -11.033; 7630.957
847.848; 3372.490;  -10.403; 7472.395
848.412; 3277.538;  -11.553; 7437.394
848.976; 3309.496;   -8.393; 7674.592
849.540; 3216.542;   -8.713; 7836.011
850.104; 3256.848;  -12.463; 7913.669
850.668; 3595.816;  -12.973; 7694.508
851.232; 3767.290;  -10.793; 7756.887
851.796; 3645.061;  -10.662; 7926.545
852.359; 3334.444;  -13.082; 7827.844
852.923; 3152.219;  -12.192; 7641.163
853.487; 3024.546;  -11.912; 7342.501
854.050; 3009.838;  -10.892; 7042.820
854.614; 3137.145;  -13.992; 7151.338
855.177; 3235.502;  -11.732; 7105.077
855.741; 3269.175;   -8.962; 6989.675
856.304; 3169.113;   -9.442; 6596.634
856.868; 3147.293;  -14.192; 6356.272
857.431; 3275.345;  -12.702; 6468.571
857.995; 3414.396;   -9.942; 6373.210
858.558; 3454.070;   -9.112; 6324.448
859.121; 3200.459;  -12.932; 6408.327
859.684; 3014.007;  -13.442; 6347.886
860.247; 3099.657;  -10.632; 6321.264
860.810; 3134.697;  -11.272; 6301.903
861.374; 2904.351;   -9.832; 6607.881
861.937; 2647.412;  -11.762; 6408.200
862.500; 2641.523;   -9.722; 6572.639
863.062; 2774.917;  -10.512; 6387.297
863.625; 2899.268;  -11.232; 6190.836
864.188; 3057.318;  -14.112; 5807.254
864.751; 3149.583;  -11.302; 5682.413
865.314; 3078.495;  -10.112; 5547.492
865.876; 2859.624;  -12.182; 5500.150
866.439; 2820.000;  -10.722; 5415.909
867.002; 2782.662;   -9.252; 5501.567
867.564; 2608.499;   -9.572; 5413.946
868.127; 2405.413;  -13.142; 5160.325
868.689; 2284.900;  -12.902; 5133.183
869.252; 2177.144;   -9.732; 5252.382
869.814; 2072.501;   -9.432; 5297.141
870.377; 2069.951;  -11.552; 5390.919
870.939; 2129.202;   -9.052; 5599.898
871.501; 2205.903;  -10.982; 5248.336
872.063; 2227.489;  -12.292; 4854.235
872.626; 2168.320;  -14.912; 4817.074
873.188; 2151.354;  -13.112; 4987.732
873.750; 2120.232;  -13.442; 4868.651
874.312; 2046.144;   -9.402; 4779.330
874.874; 1969.597;  -11.062; 4866.348
875.436; 1893.197;  -13.931; 4718.887
875.998; 1885.645;   -9.561; 4660.005
876.560; 1911.142;  -11.321; 4462.964
877.122; 1856.506;  -12.221; 4145.042
877.683; 1751.536;  -12.191; 4056.481
878.245; 1671.527;  -12.101; 3950.740
878.807; 1708.736;   -8.971; 4058.958
879.369; 1734.108;  -12.071; 3954.677
879.930; 1647.750;  -14.621; 3941.495
880.492; 1582.055;  -10.311; 4067.014
881.053; 1551.943;  -10.901; 3859.633
881.615; 1458.306;  -14.411; 3776.071
882.176; 1362.751;  -13.761; 3734.750
882.738; 1311.334;   -9.181; 3678.489
883.299; 1288.803;  -11.791; 3405.407
883.860; 1276.530;  -13.121; 3351.106
884.422; 1262.701;  -11.211; 3394.044
884.983; 1221.817;  -10.091; 3166.443
885.544; 1154.940;   -8.461; 3189.802
886.105; 1083.618;  -12.361; 3160.360
886.666; 1018.141;  -14.141; 3093.059
887.227;  960.808;  -11.361; 2941.957
887.788;  902.090;  -11.401; 2974.836
888.349;  834.788;  -13.791; 2721.214
888.910;  827.817;  -13.191; 2696.493
889.471;  832.490;   -9.881; 2560.172
890.032;  814.302;   -9.881; 2558.190
890.593;  785.589;  -10.371; 2567.669
891.153;  759.829;  -13.301; 2460.307
891.714;  717.037;  -11.431; 2372.046
892.275;  684.385;  -11.291; 2309.505
892.835;  651.692;  -11.471; 2382.543
893.396;  603.776;  -11.541; 2295.502
893.956;  547.444;  -11.181; 2162.420
894.517;  505.875;  -11.741; 2125.439
895.077;  497.438;  -11.671; 2086.978
895.638;  500.487;  -11.311; 2126.316
896.198;  475.279;   -9.831; 1838.275
896.758;  433.716;   -8.421; 1892.813
897.319;  403.760;  -12.351; 1792.232
897.879;  389.228;  -13.511; 1762.751
898.439;  365.064;  -12.001; 1661.149
898.999;  340.364;  -10.180; 1781.468
899.559;  329.956;  -12.030; 1703.347
900.119;  326.279;  -15.710; 1537.525
900.679;  320.941;   -8.900; 1638.384
901.239;  308.227;   -8.340; 1527.902
901.799;  297.989;  -13.910; 1456.441
902.359;  291.652;  -13.460; 1357.140
902.919;  284.772;  -11.490; 1331.118
903.479;  273.342;  -12.110; 1317.257
904.038;  253.615;  -11.720; 1262.595
904.598;  239.376;  -13.610; 1152.034
905.158;  235.844;  -11.040; 1240.893
905.717;  229.269;  -10.900; 1233.691
906.277;  220.283;  -15.080; 1217.330
906.836;  209.952;  -13.380; 1222.408
907.396;  201.652;  -10.780; 1193.047
907.955;  194.183;   -8.500; 1182.526
908.515;  188.912;  -12.760; 1099.364
909.074;  183.400;  -11.900; 1092.863
909.633;  177.503;   -8.950; 1069.121
910.192;  173.562;   -8.770; 1196.460
910.752;  168.411;  -12.390; 1029.960
911.311;  164.439;  -13.680; 1009.780
911.870;  161.771;  -12.370;  971.460
912.429;  161.786;  -10.900; 1094.080
912.988;  161.536;  -11.690; 1081.060
913.547;  157.592;  -13.240;  940.380
914.106;  153.017;  -11.990;  999.420
914.665;  149.312;   -9.990;  984.020
915.224;  149.142;  -12.880; 1035.760
915.782;  148.700;  -12.350;  922.560
916.341;  147.882;   -9.110; 1049.840
916.900;  144.163;   -9.270;  925.260
917.458;  141.941;  -13.240;  884.220
918.017;  141.521;  -13.550;  942.600
918.576;  141.510;  -12.320;  904.440
919.134;  139.663;  -11.490;  837.980
919.693;  138.462;  -13.670;  893.060
920.251;  136.667;  -15.470;  876.500
920.809;  135.487;  -11.290;  839.580
921.368;  135.789;  -10.210;  885.360
921.926;  135.099;  -12.140;  842.940
922.484;  132.895;  -13.080;  903.360
923.042;  132.107;  -11.720;  880.340
923.601;  135.694;   -7.480;  998.680
924.159;  133.890;  -11.570;  935.560
924.717;  130.982;  -13.840;  841.080
925.275;  129.914;  -10.640;  903.240
925.833;  129.770;  -11.540;  779.320
926.391;  130.250;  -12.960;  938.380
926.949;  129.013;  -14.130;  857.680
927.506;  129.187;  -11.750;  903.500
928.064;  129.174;  -10.250;  877.580
928.622;  128.535;  -13.030;  880.100
929.180;  128.326;  -13.400;  814.180
929.737;  129.048;  -10.700;  808.540
930.295;  132.482;  -10.070;  928.480
930.853;  134.730;  -11.960;  849.100
931.410;  134.651;  -13.120;  821.120
931.968;  134.100;  -10.770;  940.660
932.525;  133.782;  -10.680;  909.380
933.082;  133.659;  -13.130;  811.440
933.640;  135.494;  -13.210;  925.900
934.197;  133.951;  -11.060;  886.360
934.754;  135.215;   -9.580;  897.780
935.312;  137.325;  -14.000;  863.340
935.869;  142.314;  -10.710; 1012.980
936.426;  141.284;   -9.860;  872.800
936.983;  142.602;   -9.710;  889.020
937.540;  143.233;  -13.990;  838.280
938.097;  142.309;  -14.040;  940.120
938.654;  142.603;  -10.310;  898.860
939.211;  143.806;  -10.560;  952.480
939.768;  148.058;  -13.900;  915.420
940.324;  151.535;  -14.760;  904.200
940.881;  153.099;  -10.370;  878.500
941.438;  154.168;   -8.260; 1021.200
941.995;  149.541;  -12.540;  992.560
942.551;  146.784;  -14.670;  875.620
943.108;  146.097;  -10.450;  937.920
943.664;  149.166;  -10.750;  869.340
944.221;  152.313;  -11.550; 1088.140
944.777;  149.703;  -14.770;  869.680
945.334;  149.589;  -12.820;  884.840
945.890;  151.617;  -10.130;  946.480
946.446;  151.778;  -13.470;  947.020
947.003;  153.505;  -12.120;  964.940
947.559;  156.896;   -9.980; 1063.040
948.115;  155.566;   -9.080; 1026.540
948.671;  154.562;  -10.830;  967.300
949.227;  151.388;  -12.440;  859.560
949.783;  149.086;  -12.910;  858.900
950.339;  150.548;  -10.270;  991.000
950.895;  150.928;  -13.630; 1023.840
951.451;  149.876;  -15.100;  925.280
952.007;  149.342;  -11.330;  998.540
952.563;  148.299;  -10.580;  937.780
953.118;  148.114;  -13.440;  904.940
953.674;  147.347;  -12.710;  935.780
954.230;  146.225;  -10.350;  949.640
954.785;  143.984;   -9.190;  936.640
955.341;  143.184;  -11.200;  998.160
955.897;  141.568;  -16.560;  834.660
956.452;  142.672;  -12.570;  953.840
957.008;  142.023;   -7.970; 1083.640
957.563;  139.558;  -11.940; 1009.540
958.118;  134.467;  -13.450;  877.700
958.674;  135.300;  -12.030;  946.780
959.229;  136.913;   -9.410; 1013.980
959.784;  135.062;  -12.000;  832.400
960.339;  133.673;  -14.780; 1001.280
960.894;  130.330;   -9.860;  963.760
961.449;  126.713;   -9.970;  859.960
962.004;  126.217;  -10.900; 1212.840
962.559;  121.911;  -13.150;  860.140
963.114;  119.069;  -13.740;  742.480
963.669;  118.271;   -9.820;  915.500
964.224;  117.271;  -13.890;  874.340
964.779;  115.902;  -12.600;  828.420
965.334;  116.257;  -10.950; 1017.860
965.888;  115.926;  -11.170;  875.360
966.443;  118.835;  -12.540;  972.380
966.998;  118.587;  -15.780;  819.460
967.552;  117.942;   -9.760;  908.380
968.107;  113.714;   -9.060;  868.300
968.661;  115.057;  -11.950;  922.440
969.216;  115.664;  -12.800;  856.280
969.770;  115.111;  -11.210;  917.200
970.324;  114.766;  -11.610;  923.140
970.879;  111.488;  -11.370;  947.180
971.433;  108.256;  -12.540;  952.720
971.987;  103.330;  -11.320;  895.340
972.541;  100.774;  -10.720;  917.100
973.095;  100.020;   -9.680; 1009.460
973.649;   98.784;  -11.440;  809.480
974.203;   97.747;  -11.210;  829.040
974.757;   97.718;  -10.240;  855.220
975.311;   98.087;  -13.720;  872.600
975.865;   97.447;  -13.770;  881.820
976.419;   96.069;  -11.690;  857.400
976.973;   95.072;   -9.510;  849.620
977.526;   97.013;  -12.620;  949.920
978.080;   95.742;  -12.010;  796.780
978.634;   97.188;  -10.170;  921.320
979.187;   95.137;   -9.020;  905.400
979.741;   93.081;   -9.820; 1018.380
980.294;   88.464;  -14.870;  789.160
980.848;   86.349;  -12.380;  717.220
981.401;   88.585;  -10.350;  816.540
981.955;   90.854;  -13.720;  844.300
982.508;   89.606;  -11.490;  746.340
983.061;   88.723;  -10.000;  915.260
983.615;   86.060;  -11.480;  798.800
984.168;   83.003;  -13.220;  770.080
984.721;   82.883;  -13.960;  880.760
985.274;   82.045;  -10.870;  867.500
985.827;   80.063;   -9.790;  834.220
986.380;   78.964;  -13.120;  721.340
986.933;   76.831;  -12.450;  864.800
987.486;   75.710;  -10.210;  861.920
988.039;   74.997;   -8.430;  863.100
988.591;   73.270;  -10.520;  893.260
989.144;   71.264;  -14.860;  737.260
989.697;   69.605;  -13.080;  758.740
990.250;   70.412;  -10.150;  858.100
990.802;   69.213;  -13.430;  755.860
991.355;   70.989;  -12.750;  974.880
991.907;   68.509;  -12.040;  864.320
992.460;   66.029;  -11.330;  753.760
993.012;   64.925;  -13.610;  749.540
993.565;   64.277;  -13.460;  711.360
994.117;   65.599;   -9.360;  950.780
994.669;   62.248;  -11.300;  701.320
995.221;   61.105;  -13.540;  791.920
995.774;   58.437;  -13.430;  787.580
996.326;   57.640;  -12.520;  740.220
996.878;   57.563;  -10.950;  838.420
997.430;   54.922;  -14.300;  699.860
997.982;   54.491;  -13.760;  750.140
998.534;   54.046;  -11.530;  739.060
999.086;   52.043;  -10.310;  738.220
999.638;   51.562;  -12.530;  661.380
1000.190;   50.350;  -11.840;  699.320
1000.741;   50.592;  -10.260;  742.700
1001.293;   49.993;   -8.860;  686.020
1001.845;   48.483;  -13.700;  676.640
1002.396;   48.627;  -12.100;  743.400
1002.948;   48.650;  -12.760;  737.400
1003.500;   47.095;  -10.380;  723.780
1004.051;   47.169;  -11.900;  907.580
1004.603;   45.841;  -12.250;  791.820
1005.154;   42.571;  -13.210;  608.980
1005.705;   41.296;  -10.950;  723.960
1006.257;   40.653;  -13.880;  707.220
1006.808;   40.116;  -12.840;  685.460
1007.359;   39.941;  -10.570;  763.240
1007.910;   38.635;   -9.620;  646.640
1008.461;   39.289;  -13.630;  732.940
1009.013;   37.641;  -17.200;  588.340
1009.564;   39.088;  -10.200;  793.520
1010.115;   36.924;  -12.570;  597.040
1010.665;   36.494;  -15.150;  602.160
1011.216;   36.200;  -14.480;  667.920
1011.767;   35.524;  -11.340;  697.920
1012.318;   36.289;   -9.780;  736.980
1012.869;   34.764;  -12.380;  679.000
1013.419;   34.554;  -15.560;  603.120
1013.970;   34.602;  -11.010;  666.640
1014.521;   33.488;  -11.610;  620.620
1015.071;   34.798;  -13.450;  670.380
1015.622;   33.487;  -13.870;  635.460
1016.172;   33.621;  -11.610;  596.820
1016.723;   33.198;  -12.120;  614.380
1017.273;   32.055;  -13.620;  604.160
1017.823;   33.034;  -14.140;  650.340
1018.374;   32.481;  -12.800;  611.760
1018.924;   31.754;  -12.340;  716.880
1019.474;   32.388;  -11.410;  718.880
1020.024;   30.777;  -14.770;  657.580
1020.574;   31.896;   -9.780;  726.160
1021.124;   31.873;   -8.560;  673.580
1021.674;   30.294;  -15.190;  559.120
1022.224;   32.158;  -13.530;  708.940
1022.774;   31.320;  -13.280;  668.820
1023.324;   31.263;  -10.690;  753.520
1023.874;   32.421;  -10.240;  875.760
1024.423;   30.206;  -12.540;  613.700
1024.973;   29.653;  -10.010;  610.760
1025.523;   28.337;  -10.550;  620.960
1026.072;   28.630;  -13.560;  606.420
1026.622;   28.053;  -15.120;  675.740
1027.172;   29.071;  -11.260;  715.660
1027.721;   28.694;  -11.410;  601.220
1028.270;   29.408;  -13.530;  663.400
1028.820;   29.079;  -13.680;  638.080
1029.369;   28.415;  -13.520;  612.700
1029.918;   28.190;  -10.980;  649.840
1030.468;   27.794;  -13.530;  564.780
1031.017;   28.410;  -13.170;  634.800
1031.566;   26.553;  -12.200;  608.900
1032.115;   27.679;   -9.960;  694.500
1032.664;   26.249;  -13.210;  596.480
1033.213;   27.640;  -12.500;  735.420
1033.762;   26.002;  -11.910;  635.620
1034.311;   26.015;   -9.640;  677.220
1034.860;   27.084;  -13.310;  691.000
1035.408;   26.692;  -11.830;  722.720
1035.957;   27.234;  -12.000;  719.540
1036.506;   23.923;  -11.690;  530.800
1037.055;   27.041;  -10.990;  844.320
1037.603;   25.435;  -15.120;  664.000
1038.152;   23.435;  -12.450;  534.760
1038.700;   24.321;  -10.560;  585.740
1039.249;   24.329;  -11.080;  681.220
1039.797;   25.303;  -12.540;  633.360
1040.345;   24.794;  -11.920;  705.420
1040.894;   24.473;  -11.410;  625.300
1041.442;   23.568;  -14.320;  632.200
1041.990;   23.467;  -16.240;  559.160
1042.538;   22.526;  -11.680;  536.180
1043.087;   22.868;  -10.760;  570.860
1043.635;   24.064;  -11.850;  670.500
1044.183;   23.420;  -15.480;  586.400
1044.731;   22.258;  -11.770;  576.000
1045.279;   22.290;  -13.090;  674.920
1045.827;   24.318;  -12.440;  892.400
1046.374;   22.121;  -13.840;  515.420
1046.922;   21.065;  -13.220;  590.580
1047.470;   22.847;  -10.230;  691.300
1048.018;   22.826;  -14.590;  647.960
1048.565;   23.518;  -12.050;  708.600
1049.113;   21.008;  -11.650;  557.000
1049.660;   21.216;  -10.510;  629.660
1050.208;   21.317;  -13.310;  675.640
1050.755;   21.339;  -15.900;  606.580
1051.303;   21.427;  -11.430;  686.820
1051.850;   20.685;   -8.480;  635.120
1052.397;   19.362;  -15.010;  473.960
1052.945;   20.025;  -13.960;  617.760
1053.492;   21.502;  -13.150;  741.840
1054.039;   20.708;   -9.630;  720.180
1054.586;   20.052;  -13.680;  557.240
1055.133;   20.987;  -14.570;  693.140
1055.680;   20.670;  -13.820;  646.620
1056.227;   19.041;  -11.730;  542.780
1056.774;   20.861;  -12.480;  794.980
1057.321;   18.655;  -13.930;  523.260
1057.868;   19.249;  -11.690;  651.320
1058.415;   19.070;   -9.520;  651.980
1058.961;   19.728;  -13.160;  678.940
1059.508;   19.578;  -12.920;  643.820
1060.055;   19.150;  -11.920;  581.780
1060.601;   19.374;  -11.500;  624.300
1061.148;   18.540;  -14.330;  616.820
1061.694;   18.575;  -16.870;  592.580
1062.241;   18.902;  -10.330;  596.320
1062.787;   18.026;  -10.620;  663.140
1063.334;   20.248;  -10.110;  808.560
1063.880;   18.335;  -13.400;  668.360
1064.426;   17.976;  -10.680;  706.820
1064.972;   16.835;   -9.920;  601.340
1065.518;   16.550;  -10.980;  566.640
1066.065;   18.413;  -14.890;  624.460
1066.611;   16.478;  -12.870;  598.800
1067.157;   17.310;  -12.950;  641.860
1067.703;   17.657;  -13.540;  668.480
1068.249;   17.350;  -13.540;  605.220
1068.794;   16.633;  -12.600;  626.880
1069.340;   15.978;  -10.620;  578.960
1069.886;   17.201;  -12.830;  590.700
1070.432;   15.698;  -14.870;  541.720
1070.977;   15.632;  -11.980;  601.080
1071.523;   15.864;   -8.200;  573.060
1072.068;   16.197;  -12.330;  582.000
1072.614;   15.363;  -16.370;  527.760
1073.160;   16.223;  -11.100;  687.040
1073.705;   14.382;  -10.480;  572.520
1074.250;   15.133;  -14.520;  559.900
1074.796;   16.535;  -11.460;  655.160
1075.341;   15.756;  -11.950;  664.100
1075.886;   15.524;  -11.460;  594.240
1076.431;   15.577;  -13.770;  649.880
1076.976;   15.042;  -12.680;  639.220
1077.521;   14.316;  -13.170;  583.080
1078.067;   13.996;  -10.860;  579.400
1078.612;   14.950;  -13.920;  661.620
1079.156;   14.897;  -13.880;  601.540
1079.701;   14.837;  -13.120;  693.260
1080.246;   15.107;   -9.940;  696.300
1080.791;   14.750;  -14.740;  625.020
1081.336;   14.896;  -13.750;  659.320
1081.880;   14.382;  -13.400;  649.680
1082.425;   12.812;  -12.220;  573.480
1082.970;   14.901;  -11.610;  717.040
1083.514;   13.436;  -13.580;  597.000
1084.059;   12.726;  -12.810;  586.720
1084.603;   12.792;  -12.320;  565.840
1085.147;   13.114;  -13.190;  645.220
1085.692;   14.052;  -12.480;  716.800
1086.236;   12.339;  -13.020;  503.140
1086.780;   13.957;   -9.190;  751.440
1087.325;   13.175;  -12.480;  654.620
1087.869;   12.738;  -12.450;  610.700
1088.413;   13.279;  -12.240;  705.040
1088.957;   10.481;   -9.020;  543.400
1089.501;   14.171;  -10.320;  766.640
1090.045;   12.902;  -12.720;  726.480
1090.589;    9.985;  -13.690;  569.920
1091.133;   11.434;  -10.020;  673.340
1091.676;   12.056;  -12.330;  591.940
1092.220;   11.754;  -14.970;  600.920
1092.764;   12.500;  -12.430;  706.960
1093.307;   12.404;   -9.800;  673.780
1093.851;    9.954;  -14.970;  556.540
1094.395;   11.779;  -15.310;  683.140
1094.938;   10.746;  -10.370;  632.520
1095.482;   10.885;  -11.050;  559.800
1096.025;   11.553;  -11.840;  710.880
1096.568;   11.800;  -12.840;  779.280
1097.112;    8.797;  -14.700;  508.180
1097.655;   10.959;   -8.720;  603.000
1098.198;    9.712;  -13.610;  600.180
1098.741;    9.922;  -13.350;  612.860
1099.285;   10.590;  -11.230;  657.300
1099.828;    8.436;  -11.840;  439.400
1100.371;   10.051;  -10.840;  608.160
1100.914;    9.945;  -14.190;  682.660
1101.457;   10.502;  -11.240;  679.900
1101.999;    8.744;  -11.270;  584.680
1102.542;    9.921;  -11.480;  641.440
1103.085;    9.898;  -11.750;  658.500
1103.628;    9.819;  -11.400;  762.060
1104.170;    8.356;  -10.490;  588.280
1104.713;    8.857;  -10.600;  646.700
1105.256;    9.063;  -14.360;  557.440
1105.798;    8.061;  -13.210;  499.980
1106.341;   10.520;  -10.270;  728.900
1106.883;    7.953;  -12.200;  521.340
1107.425;    9.428;  -13.110;  668.180
1107.968;    8.081;  -12.840;  612.380
1108.510;    8.815;   -6.480;  684.960
1109.052;    6.959;  -13.940;  612.620
1109.594;    8.093;  -13.690;  554.440
1110.136;    8.439;  -11.880;  643.220
1110.679;    7.452;   -9.500;  633.080
1111.221;    8.036;  -14.160;  604.460
1111.763;    7.839;  -13.980;  559.220
1112.304;    6.992;  -13.880;  547.140
1112.846;    7.758;  -12.210;  666.240
1113.388;   10.257;  -11.390;  942.180
1113.930;    7.618;  -14.540;  694.200
1114.472;    6.321;  -12.640;  606.540
1115.013;    6.073;  -11.620;  551.280
1115.555;    6.164;  -13.640;  587.100
1116.097;    5.788;  -15.380;  579.480
1116.638;    6.396;  -12.640;  684.600
1117.180;    7.053;   -9.850;  667.740
1117.721;    6.924;  -13.690;  568.580
1118.262;    7.112;  -12.680;  677.960
1118.804;    7.281;  -12.530;  637.340
1119.345;    5.650;  -11.690;  578.400
1119.886;    6.682;  -13.380;  704.040
1120.427;    6.311;  -14.070;  589.020
1120.969;    5.262;  -13.500;  597.920
1121.510;    5.219;  -11.480;  563.060
1122.051;    6.233;  -12.830;  723.580
1122.592;    5.270;  -14.290;  655.420
1123.133;    4.212;  -12.400;  547.940
1123.673;    6.595;  -10.130;  706.480
1124.214;    5.355;  -12.930;  612.460
1124.755;    6.435;  -14.380;  639.460
1125.296;    5.213;  -14.000;  627.320
1125.836;    6.167;  -10.070;  691.500
1126.377;    5.090;  -12.640;  599.660
1126.918;    5.851;  -12.960;  614.980
1127.458;    4.451;  -13.350;  622.220
1127.999;    5.300;  -10.750;  656.980
1128.539;    5.526;  -12.350;  694.240
1129.079;    5.510;  -14.860;  632.720
1129.620;    3.891;  -13.840;  558.100
1130.160;    3.813;  -12.330;  539.480
1130.700;    5.327;  -14.530;  640.840
1131.240;    4.913;  -12.530;  643.700
1131.781;    3.865;  -14.450;  619.680
1132.321;    4.165;   -9.790;  599.120
1132.861;    3.249;  -14.860;  564.200
1133.401;    2.760;  -14.290;  593.940
1133.941;    3.593;  -11.750;  626.280
1134.481;    3.331;   -9.920;  597.580
1135.020;    4.150;  -12.290;  609.160
1135.560;    4.001;  -11.650;  674.940
1136.100;    3.092;  -16.270;  501.160
1136.640;    2.876;  -10.890;  510.480
1137.179;    2.811;  -14.180;  537.960
1137.719;    3.323;  -16.250;  605.400
1138.258;    2.962;  -14.230;  587.360
1138.798;    3.673;   -9.090;  663.780
1139.337;    1.957;  -15.130;  482.840
1139.877;    3.237;  -13.680;  642.360
1140.416;    4.378;  -11.320;  878.060
1140.955;    1.648;  -10.860;  535.380
1141.494;    3.004;  -12.920;  669.280
1142.034;    2.346;  -13.930;  583.520
1142.573;    3.052;  -11.440;  646.280
1143.112;    2.169;  -12.000;  553.480
1143.651;    2.481;  -13.670;  536.480
1144.190;    3.159;  -12.730;  691.640
1144.729;    2.209;  -14.560;  607.420
1145.267;    1.756;  -11.830;  584.900
1145.806;    2.873;  -12.230;  637.040
1146.345;    1.561;  -14.130;  635.020
1146.884;    1.489;  -11.590;  622.500
1147.422;    1.893;  -12.550;  533.060
1147.961;    2.764;  -11.180;  708.460
1148.500;    2.419;  -11.510;  669.720
1149.038;    2.481;  -11.640;  632.500
1149.577;    1.264;  -10.130;  698.640
1150.115;    0.473;  -13.970;  452.280
1150.653;    2.427;  -14.520;  607.340
1151.192;    1.561;  -12.810;  552.920
1151.730;    0.870;   -9.100;  652.560
1152.268;    0.534;  -12.220;  589.520
1152.806;    0.982;  -14.140;  571.180
1153.344;   -0.132;  -12.350;  577.640
1153.882;    0.947;   -8.980;  600.060
1154.421;   -0.001;  -15.190;  470.620
1154.958;    0.408;  -15.210;  595.240
1155.496;    1.470;  -12.850;  645.280
1156.034;    0.592;   -9.940;  721.880
1156.572;    1.987;  -13.570;  667.060
1157.110;   -0.622;  -14.590;  473.940
1157.647;    1.099;  -13.030;  676.960
1158.185;   -0.899;  -12.140;  564.320
1158.723;   -0.598;  -14.390;  509.200
1159.260;    0.289;  -14.090;  701.700
1159.798;    1.088;  -11.920;  658.160
1160.335;    0.161;  -11.110;  631.820

