
Integration time [ms]:   3.882
Averaging Nr. [scans]: 1000
Smoothing Nr. [pixels]: 0
Data measured with spectrometer [name]: 7414430SP
Wave   ;Sample   ;Dark     ;Reference
[nm]   ;[counts] ;[counts] ;[counts] 

288.544;  142.370;    7.153;  793.890
289.143;  146.050;    8.402;  681.602
289.742;  145.567;    7.062;  828.814
290.341;  132.219;    0.191;  789.841
290.940;  122.722;    0.321;  730.702
291.538;  123.799;    3.811;  881.108
292.137;  121.516;   -3.438;  792.581
292.736;  126.307;   -2.809;  975.101
293.335;  122.885;   -5.239;  735.086
293.934;  124.082;   -4.939;  781.677
294.532;  123.900;   -2.199; 1031.958
295.131;  109.599;   -6.831;  834.394
295.730;  109.400;   -6.620;  809.588
296.328;  107.378;   -6.471;  783.442
296.927;  106.572;   -6.571;  779.652
297.525;  107.745;   -7.391;  781.236
298.124;   99.609;   -9.402;  654.009
298.722;  104.124;   -5.781;  761.933
299.321;  101.353;   -6.351;  708.597
299.919;   99.505;   -8.661;  751.918
300.518;   95.071;  -11.922;  689.338
301.116;   96.558;   -6.941;  691.381
301.715;   97.700;   -5.471;  730.222
302.313;   96.524;   -8.361;  704.943
302.911;   92.714;   -9.082;  733.830
303.509;   97.022;   -4.571;  925.627
304.108;   95.022;   -7.111;  760.383
304.706;   94.459;   -7.681;  801.664
305.304;   89.575;   -9.162;  796.707
305.902;   94.238;   -6.761;  784.484
306.500;   89.188;   -6.921;  728.200
307.098;   87.672;   -6.491;  746.560
307.696;   86.311;   -6.941;  780.432
308.294;   86.981;   -6.301;  731.359
308.892;   88.935;   -4.771;  759.769
309.490;   85.177;   -5.141;  712.161
310.088;   83.868;   -2.912;  788.444
310.686;   87.536;   -0.421;  821.749
311.284;   83.058;   -3.461;  766.040
311.882;   80.745;   -6.282;  731.225
312.480;   78.735;   -3.632;  697.167
313.078;   81.305;   -2.112;  808.331
313.675;   79.662;   -1.931;  691.600
314.273;   75.764;   -1.442;  797.837
314.871;   75.141;   -3.002;  589.829
315.468;   73.036;   -2.252;  652.090
316.066;   75.812;   -1.091;  694.427
316.664;   68.960;   -4.512;  656.351
317.261;   73.300;   -0.062;  910.128
317.859;   69.232;   -0.952;  768.735
318.456;   69.907;    0.719;  830.096
319.054;   65.973;   -4.002;  787.828
319.651;   64.805;   -4.972;  759.928
320.249;   64.117;   -1.162;  810.188
320.846;   61.634;   -2.651;  714.286
321.443;   59.537;   -3.832;  832.135
322.041;   56.061;   -4.312;  812.315
322.638;   55.003;   -3.872;  701.456
323.235;   56.012;   -4.361;  665.683
323.833;   53.661;   -4.821;  740.354
324.430;   49.674;   -6.971;  615.900
325.027;   50.597;   -4.361;  876.855
325.624;   49.902;   -5.581;  644.532
326.221;   46.995;   -6.601;  689.717
326.818;   47.254;   -7.301;  818.332
327.415;   50.371;   -6.180;  748.828
328.012;   48.722;   -5.920;  690.585
328.609;   46.681;   -8.390;  731.389
329.206;   45.740;   -6.121;  778.621
329.803;   45.103;   -5.241;  737.841
330.400;   46.564;   -7.420;  704.260
330.997;   47.892;   -5.931;  817.147
331.594;   46.038;   -5.641;  788.185
332.191;   51.560;   -6.451;  728.722
332.787;   54.790;   -4.651;  844.463
333.384;   52.709;   -5.472;  763.093
333.981;   49.941;   -6.303;  815.687
334.578;   52.753;   -5.892;  708.378
335.174;   54.726;   -4.102;  731.469
335.771;   53.888;   -8.053;  836.456
336.367;   51.910;   -7.363;  710.631
336.964;   55.230;   -6.243;  793.266
337.561;   54.529;   -5.653;  731.112
338.157;   49.673;   -7.074;  911.916
338.754;   47.418;   -5.474;  796.589
339.350;   46.472;   -5.624;  722.493
339.946;   47.963;   -5.054;  773.135
340.543;   40.754;   -6.695;  846.136
341.139;   35.302;   -6.215;  720.836
341.735;   34.085;   -5.746;  772.593
342.332;   32.202;   -7.335;  691.472
342.928;   32.193;   -4.835;  795.394
343.524;   27.589;   -4.586;  761.684
344.120;   24.621;   -3.946;  738.562
344.716;   26.723;   -4.835;  723.717
345.313;   25.038;   -5.325;  795.342
345.909;   20.233;   -6.535;  627.336
346.505;   22.067;   -4.725;  740.247
347.101;   21.812;   -4.164;  827.864
347.697;   22.229;   -5.274;  785.398
348.293;   17.217;   -7.145;  627.244
348.889;   18.499;   -4.364;  745.914
349.485;   17.451;   -6.404;  688.205
350.081;   18.191;   -7.534;  772.592
350.676;   13.734;   -6.995;  691.606
351.272;   17.958;   -3.544;  809.530
351.868;   17.491;   -5.324;  780.497
352.464;   15.443;   -7.204;  723.932
353.059;   11.468;   -6.894;  646.017
353.655;   15.101;   -3.754;  777.063
354.251;   16.492;   -6.143;  759.845
354.846;   10.583;   -9.464;  740.646
355.442;    8.758;   -7.555;  753.071
356.038;   10.516;   -5.474;  751.708
356.633;    9.373;   -5.914;  728.594
357.229;    8.086;   -8.944;  724.757
357.824;    6.787;   -6.794;  703.600
358.420;    6.225;   -5.754;  679.726
359.015;    6.554;   -5.664;  695.357
359.610;    7.355;   -8.004;  763.920
360.206;    1.815;   -8.815;  603.240
360.801;    4.923;   -8.834;  646.503
361.396;    6.978;   -6.274;  725.975
361.992;    2.565;   -8.574;  668.220
362.587;   -0.459;   -9.265;  670.160
363.182;    1.868;   -5.484;  689.631
363.777;    2.201;   -5.164;  738.242
364.372;    1.885;   -6.954;  737.314
364.967;   -1.779;   -7.065;  680.744
365.563;    2.512;   -5.684;  815.567
366.158;   -0.339;   -6.484;  685.161
366.753;    0.370;   -8.004;  649.263
367.348;   -0.393;  -10.114;  746.056
367.942;   -0.894;   -7.764;  697.298
368.537;   -2.350;   -4.554;  754.245
369.132;   -1.967;   -7.664;  703.428
369.727;   -5.489;   -8.905;  638.079
370.322;   -4.539;   -4.945;  580.186
370.917;   -4.502;   -7.095;  710.646
371.511;   -1.449;   -6.574;  861.834
372.106;   -5.574;   -6.515;  776.964
372.701;   -8.464;   -8.225;  585.988
373.296;   -2.891;   -4.494;  863.135
373.890;   -7.681;   -7.965;  647.840
374.485;   -9.728;   -9.745;  691.199
375.079;   -5.058;   -5.554;  738.685
375.674;   -3.949;   -4.724;  812.970
376.268;   -8.620;   -8.365;  691.759
376.863;  -14.207;   -8.126;  580.327
377.457;   -7.909;   -6.045;  662.490
378.052;   -9.539;   -6.835;  764.884
378.646;  -10.491;   -9.375;  741.167
379.240;  -11.031;   -6.185;  721.176
379.835;   -9.629;   -6.135;  636.978
380.429;  -11.882;   -8.365;  562.557
381.023;  -11.947;   -7.935;  779.205
381.617;  -14.542;   -8.325;  680.106
382.212;   -9.912;   -7.405;  685.303
382.806;  -10.278;   -4.155;  760.690
383.400;  -14.589;   -8.945;  672.281
383.994;  -14.855;   -8.365;  664.870
384.588;  -10.912;   -7.824;  697.701
385.182;   -9.541;   -7.984;  726.624
385.776;  -11.456;  -10.404;  706.875
386.370;  -14.177;   -7.335;  681.968
386.964;  -13.644;   -7.485;  684.155
387.558;  -11.296;   -8.174;  598.360
388.152;  -15.500;  -10.415;  681.959
388.745;  -12.901;   -9.595;  814.707
389.339;  -11.203;   -6.454;  747.642
389.933;  -10.497;   -5.804;  695.370
390.527;  -11.732;   -6.854;  859.029
391.120;  -17.915;   -7.665;  595.318
391.714;  -14.797;   -7.245;  711.633
392.308;  -11.710;   -4.514;  780.253
392.901;  -15.860;   -7.935;  642.460
393.495;  -16.891;   -8.585;  595.414
394.089;  -15.298;   -5.245;  760.452
394.682;  -15.541;   -6.305;  697.188
395.275;  -16.137;   -9.335;  719.927
395.869;  -16.685;   -7.375;  667.314
396.462;  -15.741;   -7.055;  616.609
397.056;  -12.001;   -5.434;  776.621
397.649;  -17.123;   -9.525;  731.575
398.242;  -12.812;   -7.574;  712.645
398.836;  -12.878;   -5.134;  766.408
399.429;  -14.587;   -6.544;  631.041
400.022;  -18.024;   -9.215;  665.902
400.615;  -15.101;   -8.105;  805.609
401.208;  -13.220;   -7.614;  691.451
401.802;  -15.970;   -8.085;  699.329
402.395;  -16.492;   -9.575;  683.502
402.988;  -17.647;   -9.285;  696.627
403.581;  -14.688;   -7.514;  646.878
404.174;  -11.759;   -6.404;  686.568
404.767;  -15.547;   -8.775;  638.583
405.360;  -16.933;   -7.415;  621.445
405.953;  -11.511;   -5.624;  759.034
406.545;  -11.776;   -6.474;  725.342
407.138;  -16.934;   -8.445;  618.350
407.731;  -14.611;  -10.044;  613.303
408.324;  -10.440;   -8.484;  660.554
408.917;  -12.091;   -7.624;  681.864
409.509;  -13.434;   -8.304;  740.396
410.102;  -15.575;   -8.495;  643.948
410.695;   -9.144;   -7.824;  665.758
411.287;  -10.918;   -7.754;  599.821
411.880;  -11.892;   -9.294;  585.421
412.472;  -14.737;   -8.814;  613.092
413.065;  -11.400;   -6.674;  629.408
413.657;   -9.924;   -9.664;  576.678
414.250;   -9.813;  -10.264;  646.681
414.842;  -10.936;   -8.664;  676.353
415.434;   -8.279;   -8.584;  570.463
416.027;   -4.659;   -9.423;  652.196
416.619;   -6.871;  -10.764;  713.400
417.211;   -7.433;   -7.404;  599.352
417.804;   -3.934;   -7.383;  628.499
418.396;   -7.926;   -8.334;  607.643
418.988;   -5.505;   -9.633;  659.238
419.580;   -8.835;  -10.554;  568.276
420.172;   -7.360;   -8.683;  536.196
420.764;   -2.276;   -9.713;  672.482
421.356;   -4.665;  -11.303;  636.898
421.948;   -4.917;   -8.453;  677.661
422.540;    1.073;   -5.793;  680.027
423.132;   -0.751;   -7.162;  600.641
423.724;   -4.246;   -7.933;  561.267
424.316;   -1.545;   -9.083;  621.345
424.908;    2.028;   -8.392;  591.517
425.500;    2.947;   -8.062;  647.978
426.092;    2.939;   -9.692;  648.268
426.683;    2.071;   -8.223;  684.836
427.275;    4.599;   -8.602;  641.471
427.867;    6.448;   -8.382;  668.948
428.458;    6.933;  -10.472;  732.344
429.050;    5.309;   -9.112;  680.749
429.642;    8.119;   -7.752;  743.124
430.233;    7.646;   -8.832;  569.356
430.825;    8.944;   -8.292;  724.809
431.416;    6.761;   -7.522;  698.241
432.008;   10.349;   -9.262;  651.723
432.599;   11.279;   -6.441;  656.073
433.190;    7.668;   -9.222;  637.670
433.782;    7.326;  -11.832;  590.395
434.373;   15.755;   -7.121;  884.765
434.964;   13.843;   -9.141;  602.920
435.556;   11.022;   -9.332;  634.537
436.147;   13.656;   -8.892;  758.490
436.738;   13.832;   -8.151;  701.099
437.329;   19.221;   -8.281;  721.723
437.920;   12.728;   -9.062;  666.688
438.511;   11.619;  -11.182;  564.526
439.103;   18.448;   -7.461;  623.998
439.694;   21.250;   -8.541;  681.583
440.285;   21.168;   -7.351;  764.432
440.876;   19.658;   -8.201;  845.738
441.466;   18.456;  -10.381;  575.162
442.057;   24.212;   -7.620;  665.814
442.648;   22.040;   -8.461;  746.255
443.239;   20.787;   -8.991;  620.477
443.830;   25.665;   -7.910;  704.958
444.421;   27.927;   -7.340;  655.474
445.011;   24.232;   -8.981;  693.619
445.602;   24.471;   -9.341;  743.126
446.193;   25.315;  -11.390;  488.117
446.783;   30.606;  -11.240;  640.397
447.374;   24.857;   -8.471;  692.759
447.964;   26.310;   -8.471;  713.770
448.555;   34.466;   -6.590;  822.742
449.145;   30.520;   -8.200;  662.853
449.736;   32.091;  -11.040;  803.179
450.326;   31.581;   -9.640;  713.626
450.917;   36.631;   -9.480;  675.324
451.507;   36.058;   -8.020;  600.661
452.097;   36.532;  -10.210;  746.267
452.688;   37.245;   -7.810;  742.160
453.278;   37.715;   -9.360;  566.840
453.868;   42.669;   -8.669;  793.550
454.458;   39.608;  -10.950;  651.141
455.048;   40.068;  -10.200;  711.783
455.639;   42.090;   -9.369;  567.096
456.229;   45.130;   -7.739;  710.694
456.819;   46.765;   -8.939;  751.158
457.409;   47.879;   -7.169;  773.993
457.999;   50.650;   -7.779;  737.505
458.589;   49.522;   -7.039;  686.606
459.179;   49.609;   -9.019;  717.658
459.769;   47.206;   -8.909;  627.099
460.358;   52.922;   -8.659;  797.262
460.948;   52.562;   -8.209;  689.503
461.538;   53.651;   -9.879;  660.677
462.128;   52.628;   -9.379;  664.934
462.717;   58.863;   -9.158;  710.326
463.307;   61.367;   -8.638;  705.846
463.897;   57.225;   -8.869;  656.942
464.486;   57.348;   -7.409;  837.128
465.076;   60.892;   -9.618;  733.776
465.666;   64.880;   -7.578;  652.900
466.255;   62.396;   -9.369;  785.651
466.845;   61.251;  -10.049;  666.749
467.434;   64.946;   -8.168;  725.873
468.023;   65.469;   -9.188;  658.357
468.613;   62.877;   -9.849;  713.946
469.202;   67.294;  -12.958;  646.507
469.791;   72.072;   -9.488;  737.811
470.381;   73.723;   -6.468;  742.813
470.970;   72.990;  -10.248;  711.099
471.559;   72.664;  -11.428;  733.291
472.148;   76.606;   -9.738;  675.737
472.738;   78.334;   -7.877;  765.466
473.327;   77.794;  -11.868;  637.529
473.916;   76.620;   -8.578;  737.446
474.505;   82.297;  -11.137;  751.703
475.094;   85.104;   -9.407;  806.570
475.683;   84.444;   -9.977;  797.699
476.272;   85.437;  -10.807;  730.632
476.861;   88.268;  -11.017;  706.754
477.449;   94.500;  -10.316;  728.487
478.038;   88.709;  -10.187;  692.513
478.627;   89.791;  -12.458;  714.852
479.216;   96.936;  -10.127;  769.441
479.805;   99.534;   -6.256;  783.375
480.393;   99.517;   -8.737; 1008.945
480.982;   98.969;   -9.087;  874.501
481.571;  104.824;   -7.806;  858.333
482.159;  104.794;  -10.596;  705.386
482.748;  104.314;  -11.507;  821.385
483.336;  108.909;   -8.366;  858.209
483.925;  110.048;   -7.497;  774.373
484.513;  116.313;   -8.326;  758.962
485.102;  112.879;  -10.277;  810.965
485.690;  122.560;   -8.256; 1011.050
486.278;  125.121;   -7.146;  979.329
486.867;  124.255;   -7.986;  809.662
487.455;  126.577;   -9.926;  898.229
488.043;  128.640;  -10.026;  748.361
488.631;  137.852;   -7.226; 1005.079
489.220;  141.426;   -8.696;  908.626
489.808;  140.643;  -12.276;  741.415
490.396;  149.200;   -9.386;  914.645
490.984;  155.487;   -8.506;  830.161
491.572;  166.095;   -8.226;  940.315
492.160;  171.913;   -9.836;  919.081
492.748;  183.768;  -10.316;  884.341
493.336;  206.542;   -7.146; 1019.693
493.924;  232.715;   -7.965;  958.077
494.512;  263.801;  -10.316; 1066.638
495.100;  303.962;  -10.186; 1103.280
495.687;  369.734;   -7.805; 1206.373
496.275;  442.132;   -9.686; 1150.796
496.863;  537.657;  -11.566; 1281.171
497.451;  639.582;  -11.406; 1386.805
498.038;  758.395;   -8.235; 1556.729
498.626;  887.118;   -7.485; 1741.407
499.214; 1072.258;   -8.646; 2016.609
499.801; 1348.439;   -9.936; 2220.633
500.389; 1604.456;   -8.056; 2312.494
500.976; 1799.792;   -6.166; 2744.849
501.564; 2028.031;   -9.126; 3148.565
502.151; 2395.703;  -12.456; 3515.999
502.738; 2866.992;  -10.056; 3971.274
503.326; 3332.017;  -10.605; 4403.796
503.913; 3737.855;  -10.576; 5161.749
504.500; 4328.309;   -9.056; 5986.420
505.088; 4842.209;  -10.136; 6381.201
505.675; 5604.221;   -9.075; 6925.547
506.262; 6125.327;  -11.346; 7619.060
506.849; 7001.465;   -9.376; 8733.969
507.436; 7731.027;   -7.365; 9790.121
508.023; 7609.955;   -8.686; 9985.472
508.610; 7856.585;   -8.846;10434.618
509.197; 8804.262;   -9.077;11198.435
509.784;10392.801;  -10.246;12391.194
510.371;11579.849;   -9.825;13603.713
510.958;12714.953;  -10.896;14426.586
511.545;13389.121;   -9.006;15243.775
512.132;13044.337;   -8.765;15945.876
512.719;13782.367;   -8.286;16340.369
513.305;15728.524;   -9.256;18011.766
513.892;18035.975;  -11.106;19754.971
514.479;21437.557;   -8.576;20967.805
515.066;24248.402;   -9.046;22299.793
515.652;24655.729;  -10.676;22908.660
516.239;25175.645;  -10.166;23798.875
516.825;24771.934;  -11.266;25567.275
517.412;24287.357;   -7.446;28154.959
517.998;23769.754;  -10.916;28344.111
518.585;23011.617;   -9.166;27134.219
519.171;22024.518;  -10.135;27268.576
519.758;23113.873;   -8.806;28964.129
520.344;26175.820;   -6.716;30664.494
520.930;28516.820;  -10.166;32550.605
521.516;28950.428;   -9.615;35422.895
522.103;31550.740;   -8.656;38280.004
522.689;32391.518;   -9.646;37835.117
523.275;31577.877;  -10.786;37288.613
523.861;34207.438;   -9.266;37281.395
524.447;34960.469;   -8.285;37846.949
525.033;34258.750;   -9.426;38321.949
525.619;33787.227;   -9.836;38579.285
526.205;34837.363;   -8.136;40622.875
526.791;35148.574;   -9.986;42258.836
527.377;35560.180;   -8.236;42966.902
527.963;34702.223;  -12.117;42018.949
528.549;33254.348;   -8.376;42476.828
529.135;34415.367;   -8.696;41854.852
529.721;36963.500;   -9.686;41237.711
530.306;38216.000;   -8.616;41259.445
530.892;39088.820;   -9.396;41506.047
531.478;37921.746;   -9.926;43559.613
532.063;37776.813;  -10.236;47695.563
532.649;40583.184;   -8.257;50808.324
533.235;42273.152;  -11.476;51787.500
533.820;40988.305;   -8.156;52145.035
534.406;39548.586;  -12.257;51133.488
534.991;33974.285;   -8.686;49996.805
535.576;29852.613;   -9.426;48882.852
536.162;31021.943;   -8.436;46942.285
536.747;35182.434;  -10.957;45711.746
537.333;38053.680;  -13.147;48510.180
537.918;43144.785;   -9.027;50439.891
538.503;46134.215;   -8.256;50863.711
539.088;47549.625;  -10.576;50906.922
539.673;48507.395;  -10.907;52621.965
540.259;49469.098;   -9.126;52368.094
540.844;48193.004;   -9.026;50879.109
541.429;48213.926;   -9.597;52077.777
542.014;50572.227;  -11.447;52716.695
542.599;51889.496;   -9.236;52363.281
543.184;51390.430;  -12.267;53187.137
543.769;51836.609;  -10.367;54697.605
544.354;51345.695;  -10.887;53913.914
544.938;45327.227;  -11.687;49680.164
545.523;40759.207;   -8.286;47386.277
546.108;42107.137;   -9.317;49151.949
546.693;42497.035;  -10.187;51384.637
547.278;40277.676;   -9.926;51853.254
547.862;39580.891;   -9.196;51173.750
548.447;40029.945;   -9.657;51691.395
549.031;42317.820;   -9.127;52456.703
549.616;44173.590;  -10.836;52714.516
550.201;45122.773;   -8.507;52414.598
550.785;46821.910;  -10.537;52355.059
551.370;50259.832;  -11.727;54589.453
551.954;49660.965;   -9.457;58267.348
552.538;47745.242;   -8.147;59062.176
553.123;46450.664;   -9.397;58115.285
553.707;46808.582;   -9.558;56556.285
554.291;46234.270;   -9.417;56201.668
554.876;48847.086;   -7.627;55335.762
555.460;47644.313;  -10.457;54155.703
556.044;43459.465;  -10.078;53721.484
556.628;42834.297;   -9.407;53731.016
557.212;42477.105;   -7.957;54312.531
557.796;43370.824;  -11.327;53797.773
558.380;47582.227;  -10.868;56145.984
558.964;47040.301;   -9.637;57277.930
559.548;45165.613;   -8.807;56459.641
560.132;47053.289;  -10.187;54434.543
560.716;46359.352;   -9.868;54800.617
561.300;47899.008;  -10.217;57606.945
561.884;48443.566;   -4.947;58972.445
562.467;46349.793;   -9.588;57327.570
563.051;42365.426;  -11.138;54962.434
563.635;42480.352;   -9.358;52594.473
564.219;42476.246;   -9.797;50610.410
564.802;42377.484;   -9.918;49551.180
565.386;41600.723;  -10.838;48370.953
565.969;40535.633;   -8.037;48178.871
566.553;39035.406;   -5.667;49957.305
567.136;39773.684;   -8.258;50369.594
567.720;39646.367;  -11.278;49492.004
568.303;37292.344;   -9.028;50616.352
568.887;36242.965;   -7.508;50727.148
569.470;35615.492;  -11.068;51698.379
570.053;36957.559;  -10.028;52122.078
570.637;36946.297;  -11.077;52536.438
571.220;38475.898;   -8.747;51186.098
571.803;41155.238;   -8.868;51032.762
572.386;42564.371;  -10.608;49609.887
572.969;42306.910;  -10.548;48285.926
573.552;39717.953;   -7.898;47624.285
574.135;38974.781;   -9.918;45498.641
574.718;34590.520;  -10.328;41970.434
575.301;31712.898;   -9.548;41447.137
575.884;28835.275;   -8.768;40923.836
576.467;34064.766;   -9.858;45267.723
577.050;35231.313;  -11.018;48175.543
577.633;36938.797;  -10.048;47729.328
578.216;36687.363;  -10.268;47579.793
578.799;34509.223;  -11.808;47820.996
579.381;33740.992;   -7.338;48115.551
579.964;36028.469;   -9.728;47333.766
580.547;36490.813;   -8.928;46668.969
581.129;36262.445;   -9.149;44466.141
581.712;37302.223;  -11.359;44164.922
582.294;36653.215;  -10.738;46477.855
582.877;34844.668;   -8.788;48244.254
583.459;34614.691;   -9.859;47437.895
584.042;36599.797;   -9.649;46943.219
584.624;36453.086;  -10.529;46792.227
585.206;34415.930;  -10.298;46557.250
585.789;33034.277;  -11.029;45793.773
586.371;33301.367;   -9.359;43836.391
586.953;33196.719;   -8.799;42972.492
587.536;32577.637;   -8.928;42487.211
588.118;32363.588;   -9.180;42086.414
588.700;31360.086;  -10.519;43389.930
589.282;30388.844;   -8.098;43646.039
589.864;30356.385;   -8.139;43438.109
590.446;32547.332;  -10.509;43151.926
591.028;35263.172;  -11.119;42781.867
591.610;35990.395;  -10.019;42839.098
592.192;34674.762;   -8.838;42820.402
592.774;32411.336;  -11.549;40724.277
593.356;29696.844;  -11.609;39874.789
593.937;30065.936;  -10.019;39980.648
594.519;33461.473;   -7.839;42069.633
595.101;35583.305;  -10.779;42976.031
595.683;35991.762;  -10.049;44084.441
596.264;34931.043;   -9.969;43478.797
596.846;33408.453;   -9.699;43803.672
597.427;32537.078;  -10.970;42986.934
598.009;33050.957;  -13.090;42832.219
598.591;33257.863;   -9.509;42580.086
599.172;31913.174;   -9.019;43061.805
599.753;29998.939;  -13.310;41691.469
600.335;30154.615;  -11.010;40692.520
600.916;30415.906;  -10.309;39982.422
601.498;30495.057;   -8.209;40318.617
602.079;30619.902;  -11.440;40670.609
602.660;32128.521;   -8.690;41450.898
603.241;33498.063;  -12.759;41137.738
603.823;31675.787;  -10.409;38868.797
604.404;31895.404;  -11.790;38182.785
604.985;30811.578;  -10.280;38078.047
605.566;31824.482;   -8.059;38056.633
606.147;31603.551;   -8.960;37020.418
606.728;31351.371;  -10.710;37883.359
607.309;31089.740;  -12.760;38748.273
607.890;28883.279;   -9.959;38850.230
608.471;27533.055;   -9.780;37457.918
609.051;29255.098;   -8.940;36066.457
609.632;32375.221;  -12.070;35991.074
610.213;34200.891;   -9.610;37402.641
610.794;33642.504;   -8.750;38383.363
611.374;32244.264;  -11.100;40562.387
611.955;32857.668;  -12.200;38533.727
612.536;32869.113;  -10.410;36951.789
613.116;32595.049;  -10.010;37197.891
613.697;31637.197;  -10.480;38411.125
614.277;30371.541;  -12.751;38673.938
614.858;29956.484;  -11.600;37075.863
615.438;29597.125;   -8.190;35092.906
616.019;29014.855;   -8.941;33666.301
616.599;30165.443;  -13.540;34189.023
617.179;30226.221;  -10.890;36952.047
617.760;29803.602;   -7.610;39582.574
618.340;29336.490;  -14.441;38943.977
618.920;29802.607;   -9.180;37594.156
619.500;30800.455;  -11.881;37866.938
620.080;32997.875;   -9.870;37869.043
620.660;32288.186;  -13.211;36868.617
621.241;30551.381;  -11.921;36352.309
621.821;29366.072;  -10.271;35459.520
622.401;29304.811;   -8.200;35207.414
622.980;30446.754;  -11.141;35980.422
623.560;32217.299;  -14.321;37351.328
624.140;31909.203;   -9.360;34388.582
624.720;27786.754;   -7.481;32368.764
625.300;25123.254;  -12.730;32638.629
625.880;30003.414;  -11.441;34599.035
626.459;33114.629;  -10.971;36831.738
627.039;35170.867;   -9.011;38299.098
627.619;34917.199;   -8.521;38289.574
628.198;35805.777;   -9.861;37220.695
628.778;35451.891;   -8.841;37632.563
629.357;34375.258;   -9.891;38003.012
629.937;31478.398;  -11.871;38402.039
630.516;29731.256;  -10.641;37868.801
631.096;32607.191;  -11.391;35760.410
631.675;34516.918;   -6.622;35225.219
632.254;32677.928;  -13.002;35130.289
632.834;31424.420;  -11.622;35794.570
633.413;32671.406;   -8.321;35788.922
633.992;30882.443;   -7.732;34532.863
634.571;31051.258;  -10.992;33590.113
635.151;31998.145;  -10.422;34943.863
635.730;31349.436;  -11.511;35352.523
636.309;29539.459;   -7.901;35366.605
636.888;29220.328;  -11.452;36165.637
637.467;29651.824;  -10.672;37515.902
638.046;29595.777;   -9.301;39288.695
638.625;30590.027;  -11.452;38279.699
639.204;31667.092;  -12.262;37741.598
639.782;31651.957;  -11.892;38364.551
640.361;30603.660;  -11.411;36740.621
640.940;27714.537;  -11.501;34950.082
641.519;28727.285;  -10.921;34137.398
642.097;31840.750;  -10.101;35654.258
642.676;31205.658;  -10.821;35637.957
643.255;33524.102;   -8.631;36567.074
643.833;36178.238;  -11.411;37809.434
644.412;37860.047;  -12.021;37337.293
644.990;37574.129;  -12.271;37018.531
645.569;35859.816;   -9.741;36518.469
646.147;34325.406;   -9.051;36186.430
646.726;32992.211;  -13.861;36267.688
647.304;32691.965;   -9.461;36647.625
647.882;31786.635;  -13.171;39286.742
648.461;32074.369;  -11.911;39157.703
649.039;33067.527;   -9.541;35412.883
649.617;34461.488;   -8.901;34744.918
650.195;32100.771;   -8.591;35403.098
650.773;30406.205;  -13.031;35053.797
651.352;29381.254;  -12.211;33756.816
651.930;26438.092;  -11.361;31868.773
652.508;23254.107;   -8.601;33121.551
653.086;26747.336;   -9.991;33564.793
653.663;31614.125;  -11.931;34054.668
654.241;34088.004;  -10.821;35693.309
654.819;34558.398;   -9.341;36422.906
655.397;32093.523;  -10.851;38213.484
655.975;30413.771;  -11.461;39507.625
656.553;31012.990;   -8.841;39498.223
657.130;29982.174;  -10.371;40395.480
657.708;28653.096;  -11.071;39242.020
658.286;28001.268;  -11.141;38920.020
658.863;30005.598;  -10.861;40202.898
659.441;35444.293;  -11.181;39677.938
660.018;37355.410;  -10.851;40413.355
660.596;36614.227;  -12.571;39931.414
661.173;37140.824;  -12.141;39604.531
661.750;34813.078;  -11.571;39700.070
662.328;32093.127;  -10.780;39292.809
662.905;30302.869;  -10.750;38235.648
663.482;27443.512;  -11.320;36212.305
664.060;26465.238;  -10.160;35944.945
664.637;31457.703;  -13.120;35170.785
665.214;33278.531;  -11.500;34197.523
665.791;31029.645;  -12.430;34549.520
666.368;29059.453;   -9.840;35118.578
666.945;28350.779;  -11.290;36019.418
667.522;28761.498;  -13.540;36048.438
668.099;29781.414;  -10.250;36243.914
668.676;28842.604;  -11.270;35958.875
669.253;28127.951;   -8.210;37384.730
669.830;26955.785;   -9.710;36779.629
670.407;26799.875;   -9.700;35231.289
670.984;26786.492;   -9.190;35544.270
671.560;25235.756;   -9.560;35466.867
672.137;24901.783;  -11.820;34280.863
672.714;28077.678;  -12.460;34632.863
673.290;32093.717;  -10.940;35135.422
673.867;32348.498;  -10.510;36114.480
674.443;30685.271;  -12.110;36152.859
675.020;31250.783;  -11.760;35327.238
675.596;32041.646;   -9.380;35795.176
676.173;31508.846;  -11.120;35430.355
676.749;30860.594;  -13.390;33549.516
677.326;29783.158;  -12.600;32210.012
677.902;28890.678;  -10.830;32068.871
678.478;28393.670;  -12.400;32583.891
679.054;29218.135;   -8.610;32088.928
679.631;30104.010;  -11.640;30978.848
680.207;31320.578;   -8.140;33160.887
680.783;31693.078;  -12.300;35570.363
681.359;30436.709;  -10.910;36125.184
681.935;29440.545;  -11.040;35240.922
682.511;29286.395;  -11.130;34429.961
683.087;29195.219;  -11.080;34463.680
683.663;30958.789;  -10.530;34648.898
684.239;31168.467;  -12.120;34546.457
684.815;29871.674;   -8.870;35586.375
685.390;28454.273;   -8.940;35821.895
685.966;27634.084;  -12.109;35085.871
686.542;26863.557;  -13.539;34198.230
687.118;26599.713;  -10.379;32847.707
687.693;27178.965;  -10.189;32794.027
688.269;26321.951;  -12.939;33072.367
688.844;25459.373;   -8.679;33141.664
689.420;26812.697;  -10.919;33965.742
689.995;27406.734;   -7.489;34655.523
690.571;26278.311;  -12.199;33576.742
691.146;26498.436;   -8.979;32657.219
691.722;28845.568;   -9.119;32526.979
692.297;28853.836;  -10.519;33014.617
692.872;28343.861;  -10.629;34012.254
693.448;27895.611;  -12.119;34237.434
694.023;27143.277;   -8.219;34142.672
694.598;25431.416;  -13.209;34132.031
695.173;24381.135;  -11.879;34205.250
695.748;25190.563;  -12.039;32882.488
696.323;25942.393;  -11.779;32864.906
696.898;26501.258;  -10.219;33170.004
697.473;28069.346;  -13.639;32432.984
698.048;28933.195;  -11.239;31649.303
698.623;30951.105;  -10.859;30778.141
699.198;32020.680;  -13.379;31140.119
699.773;32612.396;  -13.409;31764.299
700.348;32510.008;  -12.329;31780.816
700.922;32615.281;   -8.749;32046.375
701.497;32715.367;  -12.449;32603.574
702.072;30924.871;   -8.879;34799.871
702.646;28868.570;  -10.719;35793.172
703.221;27929.088;   -8.469;35201.590
703.795;28528.260;  -11.389;34764.527
704.370;27404.400;  -12.499;34307.367
704.944;26387.324;  -11.449;33509.887
705.519;25934.117;  -10.659;31388.584
706.093;25396.193;  -12.909;31340.104
706.668;25986.734;  -13.509;32630.281
707.242;27445.316;  -10.049;32728.779
707.816;27328.451;  -10.629;32947.238
708.390;26173.625;  -11.829;33277.855
708.965;25196.518;  -11.159;33834.336
709.539;25624.318;  -11.069;33709.273
710.113;24885.227;  -10.908;33044.313
710.687;22791.006;   -9.488;31953.992
711.261;23550.018;  -13.068;30505.949
711.835;26264.877;  -12.748;30262.369
712.409;27680.559;  -10.678;31254.447
712.983;26393.170;  -11.658;32754.986
713.557;26085.336;  -13.718;34018.824
714.131;26653.492;  -13.388;34579.625
714.704;29149.740;   -9.818;33890.262
715.278;31459.959;  -11.818;33531.102
715.852;32211.822;  -11.328;33601.660
716.425;32476.486;   -9.118;33515.117
716.999;32184.285;  -10.188;33185.555
717.573;30948.404;   -9.808;33905.996
718.146;30779.891;  -11.478;35199.293
718.720;30069.238;  -10.998;35060.551
719.293;29499.213;   -9.508;34973.230
719.867;30338.131;  -12.138;36394.449
720.440;29887.156;  -11.288;36663.008
721.013;32399.541;  -11.428;35102.426
721.587;34050.797;  -11.698;33985.266
722.160;35240.410;  -11.608;33524.965
722.733;34569.438;  -11.428;32987.043
723.306;31230.264;  -12.518;33066.301
723.880;29885.352;   -7.408;33399.500
724.453;29623.709;  -11.048;33468.297
725.026;27952.330;  -11.678;33816.637
725.599;26981.992;  -10.978;32797.996
726.172;25236.811;   -8.838;33187.434
726.745;25177.434;  -11.438;35136.613
727.318;26885.779;   -9.828;35751.730
727.891;27603.023;  -10.868;35890.430
728.463;27296.621;  -11.348;34822.090
729.036;25840.084;  -11.608;32895.086
729.609;25159.895;  -14.738;31823.225
730.182;25541.020;   -8.448;31445.283
730.754;26419.926;  -11.228;32373.223
731.327;26892.383;  -12.018;33676.820
731.900;28643.313;  -13.748;33417.000
732.472;29432.359;  -10.928;31978.498
733.045;28627.385;   -9.478;30368.777
733.617;26903.930;  -12.967;30574.215
734.190;26172.762;  -11.707;31280.975
734.762;25515.916;  -11.067;31674.412
735.334;24726.158;  -10.587;31247.291
735.907;23872.707;  -11.947;29876.211
736.479;24354.801;  -11.667;29808.488
737.051;25987.480;  -10.187;30233.547
737.623;26889.053;   -6.887;31469.086
738.195;28702.490;  -12.117;31784.225
738.768;30380.537;  -14.077;32120.523
739.340;29058.955;  -12.207;32094.342
739.912;26500.537;   -8.977;31312.680
740.484;25858.766;  -11.017;31946.238
741.056;28370.184;  -13.517;32984.059
741.628;30717.324;  -11.507;33897.715
742.199;30754.402;   -7.597;33213.016
742.771;29771.129;  -12.227;31369.113
743.343;27831.938;  -12.427;31865.473
743.915;26095.266;   -9.827;32388.631
744.487;25402.396;  -10.007;31079.568
745.058;24636.467;  -11.887;30570.107
745.630;23940.746;  -10.787;29970.127
746.201;23512.422;  -10.887;29186.766
746.773;24809.111;   -9.707;28805.723
747.344;25797.293;  -11.137;29591.223
747.916;24893.516;  -11.887;31412.201
748.487;24133.943;   -9.707;32194.898
749.059;23252.107;  -10.027;32533.719
749.630;22536.791;  -11.787;32158.518
750.201;21652.914;  -12.767;30855.395
750.773;20564.359;  -11.497;28622.555
751.344;21936.512;   -9.937;28405.732
751.915;21857.453;  -11.567;28461.551
752.486;19969.801;  -13.267;27842.850
753.057;18646.125;  -10.627;27845.008
753.628;18453.010;  -11.657;27728.107
754.199;20868.916;  -12.097;27381.086
754.770;22103.021;  -11.447;25882.203
755.341;22226.742;  -11.997;25886.184
755.912;20323.559;  -10.207;26050.861
756.483;18369.465;  -10.937;26798.779
757.054;18803.750;  -11.527;27048.238
757.625;19277.377;  -12.886;26294.838
758.195;19262.256;  -11.226;26142.076
758.766;19640.072;  -12.366;26392.234
759.337;18611.426;  -11.946;26334.594
759.907;17956.855;  -13.856;27579.652
760.478;19125.299;   -9.606;28352.770
761.048;20584.234;  -11.606;27325.088
761.619;21373.891;  -11.036;26460.428
762.189;20230.025;  -12.206;26029.826
762.760;20061.172;   -9.666;26430.145
763.330;20893.313;   -9.796;26670.902
763.900;19880.908;  -10.896;26603.021
764.471;18862.479;  -11.726;25542.740
765.041;19632.492;   -9.656;24358.459
765.611;20201.418;  -11.276;23991.297
766.181;19753.922;  -12.116;24470.236
766.751;19504.154;  -12.376;24845.975
767.321;19687.209;  -11.626;24533.633
767.891;19197.533;  -10.426;24916.492
768.461;17309.619;  -13.456;24776.771
769.031;14956.253;  -11.616;24757.988
769.601;14391.887;  -11.356;24181.088
770.171;14855.861;  -11.586;23670.387
770.741;15800.698;  -12.696;22960.045
771.311;17250.227;  -10.226;22917.523
771.880;17699.885;  -11.146;23562.941
772.450;17930.400;  -11.716;24216.500
773.020;17425.328;  -13.226;24140.398
773.589;16432.453;  -12.586;24414.857
774.159;16035.541;  -10.246;23858.717
774.729;15535.261;  -11.586;22942.135
775.298;15308.470;  -15.926;22324.033
775.867;15457.098;  -10.426;21140.313
776.437;15062.273;  -11.416;20838.092
777.006;13270.482;  -12.766;20599.510
777.576;13412.433;  -13.666;20508.809
778.145;14457.855;  -10.066;20732.947
778.714;14286.306;  -10.276;21062.465
779.283;13828.492;  -12.086;20949.664
779.853;13943.498;  -14.016;20508.623
780.422;13995.831;  -12.376;20649.082
780.991;13500.354;   -9.246;21527.520
781.560;13124.095;   -9.775;22632.658
782.129;13124.329;  -12.495;23048.277
782.698;13229.521;  -11.775;23438.555
783.267;13469.914;  -10.065;23267.734
783.836;14221.249;  -12.455;22415.133
784.404;14475.928;  -13.385;20443.152
784.973;14464.112;  -11.045;19699.150
785.542;14055.150;   -9.505;19763.828
786.111;13183.482;   -9.385;20341.408
786.679;12876.512;  -13.475;20207.967
787.248;12755.709;  -11.245;19516.465
787.817;11537.774;  -12.485;18900.363
788.385;10368.439;  -11.165;17879.121
788.954;10904.505;  -11.755;17658.301
789.522;11725.808;   -9.625;17788.879
790.090;11910.401;   -9.665;18118.277
790.659;11251.460;   -9.295;18338.736
791.227;11478.815;  -12.175;18508.615
791.795;12368.444;  -12.145;17898.254
792.364;12355.993;  -11.575;17295.133
792.932;11548.460;  -11.085;16822.051
793.500;10896.230;  -11.345;17040.148
794.068;10736.279;  -12.565;17179.787
794.636;11653.582;  -12.105;16664.246
795.204;12542.291;  -11.995;16524.545
795.772;12326.045;  -12.615;17274.564
796.340;11843.768;  -12.425;17891.002
796.908;11377.632;  -11.455;17648.561
797.476;10396.146;  -12.165;17064.080
798.044; 9407.397;  -15.795;16672.777
798.612; 9127.597;  -10.985;17023.996
799.180; 9740.641;  -12.055;16561.615
799.747;10048.983;  -12.525;15962.773
800.315; 9117.357;  -14.765;15296.992
800.883; 7954.953;  -12.435;14801.771
801.450; 7862.554;  -11.295;14534.430
802.018; 8357.860;  -11.185;14173.248
802.585; 8569.419;  -11.625;14029.547
803.153; 7873.324;  -10.665;13836.846
803.720; 7466.661;  -10.275;13567.324
804.287; 7580.254;  -12.865;13360.622
804.855; 7813.434;  -12.324;13681.981
805.422; 7924.892;  -11.574;13536.560
805.989; 7618.830;  -11.004;13355.958
806.556; 7764.115;  -12.214;13747.896
807.124; 8023.713;  -13.304;13987.376
807.691; 7804.215;  -12.034;14038.674
808.258; 7556.929;  -11.014;14120.152
808.825; 7444.123;  -11.804;13860.111
809.392; 7247.533;  -11.544;13268.790
809.959; 7206.524;  -14.954;12680.389
810.526; 7547.634;  -10.214;12427.308
811.093; 7502.361;  -10.754;12030.105
811.659; 7098.684;  -12.194;11653.664
812.226; 6444.088;   -9.194;11637.183
812.793; 6341.231;   -9.644;11611.521
813.360; 7036.687;  -11.544;11885.181
813.926; 7974.753;  -12.814;12770.539
814.493; 7903.779;  -11.524;12677.638
815.060; 7593.492;  -12.254;11974.336
815.626; 7299.276;  -12.114;11594.715
816.193; 6926.017;  -11.994;11579.474
816.759; 6621.447;  -11.464;11666.972
817.325; 6318.996;  -10.444;11325.530
817.892; 6071.167;  -11.124;11105.369
818.458; 6145.594;  -11.864;10843.928
819.024; 6675.365;  -10.634;10714.406
819.591; 6801.696;  -10.554;10469.165
820.157; 6788.610;  -13.334;10235.523
820.723; 6780.587;  -13.044;10847.563
821.289; 6810.947;   -9.664;11040.980
821.855; 7073.884;  -10.994;10357.100
822.421; 7384.649;  -11.784; 9978.918
822.987; 7529.643;  -12.554; 9754.177
823.553; 7488.013;  -12.554;10065.755
824.119; 7046.869;   -8.544;10036.294
824.685; 6224.515;  -12.144;10029.192
825.251; 5872.335;  -12.754;10199.230
825.816; 5539.442;  -11.354; 9820.189
826.382; 5203.490;  -11.004; 9297.248
826.948; 5207.399;  -11.004; 9381.347
827.513; 5340.142;  -12.474; 9450.726
828.079; 5449.092;  -13.084; 9472.444
828.645; 5659.378;  -10.813; 9292.643
829.210; 5569.990;  -11.593; 9065.341
829.776; 5701.745;  -12.633; 9132.620
830.341; 5969.884;  -10.473; 9092.878
830.906; 5761.689;   -8.763; 9078.557
831.472; 5057.535;  -13.453; 8534.535
832.037; 4119.316;  -12.173; 8677.874
832.602; 3889.587;  -14.093; 8628.692
833.167; 4292.553;  -13.593; 8879.031
833.733; 4835.765;  -10.793; 9189.790
834.298; 5138.752;  -14.783; 9052.608
834.863; 4784.528;  -11.023; 8895.087
835.428; 4607.850;  -11.113; 8824.266
835.993; 5012.539;   -9.983; 8845.385
836.558; 5217.770;  -13.003; 8888.563
837.123; 5055.590;  -10.733; 8966.582
837.688; 4682.588;   -9.683; 8617.860
838.253; 4493.977;  -12.253; 8590.699
838.817; 4662.263;  -11.643; 8443.797
839.382; 4795.344;  -11.953; 8799.356
839.947; 4764.556;  -11.443; 8810.595
840.511; 4683.981;  -10.843; 8796.394
841.076; 4756.562;  -13.533; 8347.231
841.641; 4849.047;  -11.743; 8224.330
842.205; 4543.708;  -10.013; 8223.349
842.770; 4285.023;  -11.023; 8622.107
843.334; 4330.079;  -14.273; 8410.386
843.898; 4612.700;  -11.323; 8337.465
844.463; 5031.825;  -10.263; 8506.283
845.027; 5227.993;  -10.353; 8280.962
845.591; 5188.863;  -12.163; 8231.141
846.156; 5027.406;  -12.263; 7969.179
846.720; 5035.698;  -11.553; 7768.278
847.284; 4917.912;  -12.393; 7630.957
847.848; 4203.462;  -12.623; 7472.395
848.412; 3582.054;  -11.863; 7437.394
848.976; 3460.253;  -10.203; 7674.592
849.540; 3593.511;  -10.603; 7836.011
850.104; 3757.922;  -12.423; 7913.669
850.668; 3814.586;  -14.613; 7694.508
851.232; 3678.751;  -12.873; 7756.887
851.796; 3639.294;  -14.192; 7926.545
852.359; 3723.649;  -13.652; 7827.844
852.923; 3695.803;  -11.402; 7641.163
853.487; 3574.548;  -12.022; 7342.501
854.050; 3460.058;  -15.202; 7042.820
854.614; 3462.047;  -14.592; 7151.338
855.177; 3440.808;  -12.572; 7105.077
855.741; 3501.638;   -9.932; 6989.675
856.304; 3634.800;  -12.192; 6596.634
856.868; 3669.298;  -13.462; 6356.272
857.431; 3674.344;  -11.542; 6468.571
857.995; 3699.263;  -12.062; 6373.210
858.558; 3417.721;  -11.142; 6324.448
859.121; 3127.125;  -11.742; 6408.327
859.684; 2998.725;  -10.332; 6347.886
860.247; 3024.076;  -11.962; 6321.264
860.810; 3147.212;  -12.332; 6301.903
861.374; 3104.785;  -10.292; 6607.881
861.937; 2971.977;  -12.062; 6408.200
862.500; 3006.001;  -11.702; 6572.639
863.062; 3150.078;  -13.852; 6387.297
863.625; 3216.054;  -12.972; 6190.836
864.188; 3119.216;  -10.292; 5807.254
864.751; 3004.855;  -12.382; 5682.413
865.314; 2821.715;  -13.232; 5547.492
865.876; 2623.687;  -12.772; 5500.150
866.439; 2467.026;  -11.952; 5415.909
867.002; 2471.819;   -9.332; 5501.567
867.564; 2732.743;  -11.712; 5413.946
868.127; 2884.105;  -12.012; 5160.325
868.689; 2609.564;  -11.882; 5133.183
869.252; 2279.089;  -11.572; 5252.382
869.814; 2180.057;  -10.692; 5297.141
870.377; 2282.888;  -12.392; 5390.919
870.939; 2385.972;  -10.582; 5599.898
871.501; 2402.718;  -12.782; 5248.336
872.063; 2395.587;  -15.612; 4854.235
872.626; 2394.969;  -13.922; 4817.074
873.188; 2281.555;  -13.832; 4987.732
873.750; 2162.080;  -10.962; 4868.651
874.312; 2189.239;  -11.022; 4779.330
874.874; 2203.216;  -13.152; 4866.348
875.436; 2152.960;  -13.401; 4718.887
875.998; 2082.276;   -8.891; 4660.005
876.560; 2040.881;  -12.591; 4462.964
877.122; 2008.383;  -14.531; 4145.042
877.683; 1952.787;  -10.781; 4056.481
878.245; 1884.203;  -14.281; 3950.740
878.807; 1870.577;  -10.311; 4058.958
879.369; 1816.568;  -13.201; 3954.677
879.930; 1800.048;  -12.061; 3941.495
880.492; 1820.121;   -9.181; 4067.014
881.053; 1827.005;  -12.051; 3859.633
881.615; 1774.036;  -11.501; 3776.071
882.176; 1670.374;  -12.221; 3734.750
882.738; 1544.004;   -8.931; 3678.489
883.299; 1438.457;  -13.571; 3405.407
883.860; 1462.444;  -12.331; 3351.106
884.422; 1416.964;  -10.201; 3394.044
884.983; 1278.011;  -12.521; 3166.443
885.544; 1206.493;  -12.291; 3189.802
886.105; 1247.431;  -12.991; 3160.360
886.666; 1302.939;  -12.901; 3093.059
887.227; 1186.346;  -12.061; 2941.957
887.788;  913.373;  -11.641; 2974.836
888.349;  681.316;  -14.691; 2721.214
888.910;  570.736;   -9.681; 2696.493
889.471;  558.814;   -9.971; 2560.172
890.032;  580.254;  -13.151; 2558.190
890.593;  608.613;  -12.051; 2567.669
891.153;  627.111;  -12.841; 2460.307
891.714;  643.104;  -13.561; 2372.046
892.275;  648.856;  -12.401; 2309.505
892.835;  636.871;  -13.191; 2382.543
893.396;  616.592;  -12.551; 2295.502
893.956;  614.793;  -11.981; 2162.420
894.517;  623.669;  -12.221; 2125.439
895.077;  597.859;  -12.021; 2086.978
895.638;  543.613;  -10.891; 2126.316
896.198;  497.299;  -13.171; 1838.275
896.758;  463.135;  -11.891; 1892.813
897.319;  425.869;  -12.491; 1792.232
897.879;  406.797;  -12.401; 1762.751
898.439;  378.845;  -13.431; 1661.149
898.999;  362.024;  -11.340; 1781.468
899.559;  356.627;  -13.930; 1703.347
900.119;  343.468;  -13.730; 1537.525
900.679;  328.007;   -9.210; 1638.384
901.239;  314.860;  -10.860; 1527.902
901.799;  295.015;  -11.450; 1456.441
902.359;  276.216;  -13.800; 1357.140
902.919;  268.217;  -12.130; 1331.118
903.479;  265.649;  -12.650; 1317.257
904.038;  254.894;  -16.110; 1262.595
904.598;  238.505;  -13.690; 1152.034
905.158;  226.729;  -10.290; 1240.893
905.717;  219.079;  -10.670; 1233.691
906.277;  216.190;  -14.040; 1217.330
906.836;  214.724;  -13.510; 1222.408
907.396;  208.609;  -11.530; 1193.047
907.955;  197.958;  -13.190; 1182.526
908.515;  186.507;  -12.950; 1099.364
909.074;  179.353;  -12.390; 1092.863
909.633;  175.463;  -10.340; 1069.121
910.192;  173.631;  -11.170; 1196.460
910.752;  169.985;  -14.200; 1029.960
911.311;  166.270;  -13.810; 1009.780
911.870;  164.115;  -12.750;  971.460
912.429;  164.048;  -12.380; 1094.080
912.988;  161.262;  -11.930; 1081.060
913.547;  156.298;  -10.990;  940.380
914.106;  154.112;  -11.200;  999.420
914.665;  151.582;  -13.150;  984.020
915.224;  148.954;  -13.310; 1035.760
915.782;  146.929;  -13.340;  922.560
916.341;  147.469;  -10.710; 1049.840
916.900;  144.739;  -12.980;  925.260
917.458;  142.550;  -13.060;  884.220
918.017;  141.387;  -10.900;  942.600
918.576;  140.409;  -11.630;  904.440
919.134;  139.462;  -12.860;  837.980
919.693;  140.635;  -15.160;  893.060
920.251;  139.881;  -13.470;  876.500
920.809;  139.290;  -13.700;  839.580
921.368;  139.763;  -13.420;  885.360
921.926;  139.580;  -14.710;  842.940
922.484;  141.159;  -12.560;  903.360
923.042;  140.907;  -11.930;  880.340
923.601;  142.042;  -10.270;  998.680
924.159;  139.149;  -12.960;  935.560
924.717;  137.894;  -13.040;  841.080
925.275;  139.291;  -12.560;  903.240
925.833;  139.876;  -13.040;  779.320
926.391;  142.359;  -13.360;  938.380
926.949;  141.861;  -13.940;  857.680
927.506;  141.957;   -9.400;  903.500
928.064;  141.448;  -10.940;  877.580
928.622;  139.486;  -13.180;  880.100
929.180;  140.530;  -12.730;  814.180
929.737;  141.130;  -12.840;  808.540
930.295;  145.079;  -11.810;  928.480
930.853;  150.891;  -13.650;  849.100
931.410;  154.235;  -13.580;  821.120
931.968;  155.877;  -12.020;  940.660
932.525;  155.097;  -13.320;  909.380
933.082;  154.997;  -13.800;  811.440
933.640;  158.533;  -11.380;  925.900
934.197;  161.082;  -11.480;  886.360
934.754;  163.246;  -13.220;  897.780
935.312;  162.377;  -14.950;  863.340
935.869;  161.429;  -10.940; 1012.980
936.426;  156.721;  -12.100;  872.800
936.983;  155.386;  -12.930;  889.020
937.540;  155.962;  -14.250;  838.280
938.097;  161.288;  -12.600;  940.120
938.654;  166.454;  -11.260;  898.860
939.211;  169.991;  -13.020;  952.480
939.768;  172.316;  -15.760;  915.420
940.324;  178.018;  -13.920;  904.200
940.881;  175.480;  -11.620;  878.500
941.438;  171.006;   -9.870; 1021.200
941.995;  167.447;  -13.920;  992.560
942.551;  163.532;  -12.830;  875.620
943.108;  163.860;  -11.980;  937.920
943.664;  167.464;  -13.740;  869.340
944.221;  175.679;  -12.670; 1088.140
944.777;  174.947;  -13.250;  869.680
945.334;  170.995;  -13.000;  884.840
945.890;  169.571;  -13.020;  946.480
946.446;  168.682;  -13.880;  947.020
947.003;  170.836;  -12.660;  964.940
947.559;  171.843;   -8.730; 1063.040
948.115;  169.830;  -11.960; 1026.540
948.671;  165.294;  -12.360;  967.300
949.227;  162.676;  -12.700;  859.560
949.783;  159.850;  -13.450;  858.900
950.339;  159.190;  -10.620;  991.000
950.895;  154.473;  -14.770; 1023.840
951.451;  152.714;  -13.650;  925.280
952.007;  153.241;  -11.180;  998.540
952.563;  153.137;  -11.680;  937.780
953.118;  152.286;  -13.280;  904.940
953.674;  154.059;  -12.510;  935.780
954.230;  152.850;  -12.220;  949.640
954.785;  148.679;  -12.190;  936.640
955.341;  144.619;  -12.270;  998.160
955.897;  142.232;  -14.900;  834.660
956.452;  142.518;  -12.520;  953.840
957.008;  140.948;   -9.410; 1083.640
957.563;  138.562;  -11.280; 1009.540
958.118;  135.967;  -13.470;  877.700
958.674;  137.908;  -12.190;  946.780
959.229;  139.218;  -12.760; 1013.980
959.784;  143.793;  -15.710;  832.400
960.339;  148.941;  -12.540; 1001.280
960.894;  147.859;  -11.680;  963.760
961.449;  143.360;  -11.410;  859.960
962.004;  141.301;  -10.430; 1212.840
962.559;  135.193;  -14.040;  860.140
963.114;  130.812;  -14.270;  742.480
963.669;  131.679;  -11.320;  915.500
964.224;  131.050;  -14.620;  874.340
964.779;  129.535;  -14.150;  828.420
965.334;  129.633;  -10.850; 1017.860
965.888;  128.575;  -14.530;  875.360
966.443;  129.388;  -13.520;  972.380
966.998;  127.356;  -13.370;  819.460
967.552;  125.369;   -9.960;  908.380
968.107;  121.381;  -12.360;  868.300
968.661;  121.860;  -12.270;  922.440
969.216;  121.116;  -12.140;  856.280
969.770;  121.815;  -11.860;  917.200
970.324;  121.374;  -12.170;  923.140
970.879;  120.275;  -14.160;  947.180
971.433;  118.297;  -12.940;  952.720
971.987;  114.915;  -10.180;  895.340
972.541;  113.620;  -12.130;  917.100
973.095;  113.558;  -14.980; 1009.460
973.649;  112.530;  -14.480;  809.480
974.203;  114.975;  -13.530;  829.040
974.757;  116.395;  -12.060;  855.220
975.311;  113.383;  -13.240;  872.600
975.865;  110.383;  -12.550;  881.820
976.419;  109.438;  -13.180;  857.400
976.973;  108.600;  -14.100;  849.620
977.526;  107.941;  -13.330;  949.920
978.080;  103.802;  -15.390;  796.780
978.634;  104.218;  -11.670;  921.320
979.187;  101.668;  -10.640;  905.400
979.741;  101.019;  -13.330; 1018.380
980.294;   98.866;  -14.480;  789.160
980.848;   98.209;  -13.420;  717.220
981.401;   96.616;  -12.360;  816.540
981.955;   93.607;  -12.480;  844.300
982.508;   88.943;  -14.000;  746.340
983.061;   89.366;  -10.440;  915.260
983.615;   85.565;  -14.340;  798.800
984.168;   83.052;  -14.950;  770.080
984.721;   82.960;  -13.270;  880.760
985.274;   82.352;  -12.240;  867.500
985.827;   79.338;  -12.720;  834.220
986.380;   76.262;  -14.920;  721.340
986.933;   76.806;  -12.860;  864.800
987.486;   75.208;  -10.440;  861.920
988.039;   74.615;  -11.820;  863.100
988.591;   71.850;  -13.760;  893.260
989.144;   70.896;  -14.080;  737.260
989.697;   71.185;  -13.440;  758.740
990.250;   72.193;  -12.050;  858.100
990.802;   70.733;  -14.550;  755.860
991.355;   71.924;  -10.770;  974.880
991.907;   69.650;  -11.710;  864.320
992.460;   67.377;  -12.650;  753.760
993.012;   65.928;  -13.860;  749.540
993.565;   64.276;  -14.310;  711.360
994.117;   64.176;   -9.920;  950.780
994.669;   59.875;  -13.420;  701.320
995.221;   60.069;  -14.200;  791.920
995.774;   59.151;  -13.400;  787.580
996.326;   57.568;  -11.850;  740.220
996.878;   58.573;  -12.230;  838.420
997.430;   55.244;  -14.260;  699.860
997.982;   55.015;  -11.430;  750.140
998.534;   55.737;  -11.590;  739.060
999.086;   54.743;  -11.960;  738.220
999.638;   53.653;  -13.640;  661.380
1000.190;   52.456;  -13.660;  699.320
1000.741;   52.531;   -9.980;  742.700
1001.293;   50.743;  -11.860;  686.020
1001.845;   50.055;  -14.280;  676.640
1002.396;   51.714;  -12.270;  743.400
1002.948;   50.464;  -13.670;  737.400
1003.500;   49.658;  -12.010;  723.780
1004.051;   49.574;  -11.890;  907.580
1004.603;   48.497;  -11.220;  791.820
1005.154;   45.401;  -13.210;  608.980
1005.705;   44.483;  -11.850;  723.960
1006.257;   44.236;  -13.670;  707.220
1006.808;   42.950;  -12.060;  685.460
1007.359;   43.004;  -10.250;  763.240
1007.910;   41.330;  -13.440;  646.640
1008.461;   41.068;  -13.170;  732.940
1009.013;   39.075;  -14.590;  588.340
1009.564;   41.626;  -12.100;  793.520
1010.115;   38.824;  -14.000;  597.040
1010.665;   38.223;  -15.020;  602.160
1011.216;   39.138;  -12.560;  667.920
1011.767;   38.837;  -11.330;  697.920
1012.318;   39.240;  -11.450;  736.980
1012.869;   37.577;  -11.000;  679.000
1013.419;   37.019;  -11.760;  603.120
1013.970;   37.442;  -11.800;  666.640
1014.521;   36.942;  -14.750;  620.620
1015.071;   37.108;  -14.430;  670.380
1015.622;   36.086;  -14.170;  635.460
1016.172;   35.577;  -11.700;  596.820
1016.723;   34.806;  -13.230;  614.380
1017.273;   35.074;  -16.120;  604.160
1017.823;   35.414;  -13.360;  650.340
1018.374;   34.736;  -13.710;  611.760
1018.924;   35.086;  -11.050;  716.880
1019.474;   34.654;  -14.120;  718.880
1020.024;   33.799;  -12.990;  657.580
1020.574;   34.039;  -12.010;  726.160
1021.124;   34.418;  -12.080;  673.580
1021.674;   32.589;  -15.860;  559.120
1022.224;   34.313;  -11.710;  708.940
1022.774;   33.079;  -13.030;  668.820
1023.324;   33.737;  -11.000;  753.520
1023.874;   34.480;  -13.270;  875.760
1024.423;   33.100;  -14.570;  613.700
1024.973;   32.314;  -12.620;  610.760
1025.523;   31.527;  -12.630;  620.960
1026.072;   30.773;  -14.110;  606.420
1026.622;   30.740;  -15.390;  675.740
1027.172;   32.474;   -9.090;  715.660
1027.721;   30.171;  -12.250;  601.220
1028.270;   30.494;  -15.590;  663.400
1028.820;   30.783;  -13.840;  638.080
1029.369;   30.363;  -13.170;  612.700
1029.918;   30.850;  -14.080;  649.840
1030.468;   29.275;  -13.860;  564.780
1031.017;   29.921;  -12.970;  634.800
1031.566;   28.781;  -12.320;  608.900
1032.115;   30.036;  -13.140;  694.500
1032.664;   28.284;  -14.560;  596.480
1033.213;   30.165;  -11.620;  735.420
1033.762;   28.861;  -13.190;  635.620
1034.311;   28.171;  -13.460;  677.220
1034.860;   28.080;  -15.770;  691.000
1035.408;   28.765;  -13.100;  722.720
1035.957;   29.272;  -12.880;  719.540
1036.506;   26.680;  -13.640;  530.800
1037.055;   29.212;  -12.420;  844.320
1037.603;   27.408;  -13.740;  664.000
1038.152;   25.800;  -13.840;  534.760
1038.700;   26.993;  -10.770;  585.740
1039.249;   27.324;  -13.520;  681.220
1039.797;   26.561;  -13.060;  633.360
1040.345;   26.423;  -11.760;  705.420
1040.894;   26.118;  -10.790;  625.300
1041.442;   25.957;  -15.420;  632.200
1041.990;   24.453;  -14.550;  559.160
1042.538;   24.385;  -15.620;  536.180
1043.087;   25.213;  -14.940;  570.860
1043.635;   26.270;  -12.100;  670.500
1044.183;   24.470;  -13.200;  586.400
1044.731;   25.296;  -11.630;  576.000
1045.279;   24.413;  -14.200;  674.920
1045.827;   26.498;  -12.510;  892.400
1046.374;   23.602;  -14.960;  515.420
1046.922;   23.348;  -11.850;  590.580
1047.470;   24.941;  -13.770;  691.300
1048.018;   24.024;  -15.380;  647.960
1048.565;   25.181;  -14.010;  708.600
1049.113;   23.550;  -14.620;  557.000
1049.660;   23.377;  -14.940;  629.660
1050.208;   23.765;  -14.540;  675.640
1050.755;   22.874;  -13.710;  606.580
1051.303;   23.725;  -11.880;  686.820
1051.850;   23.022;  -12.160;  635.120
1052.397;   21.013;  -15.110;  473.960
1052.945;   21.375;  -14.770;  617.760
1053.492;   23.337;  -12.320;  741.840
1054.039;   23.725;  -13.290;  720.180
1054.586;   21.186;  -15.210;  557.240
1055.133;   22.535;  -12.920;  693.140
1055.680;   22.408;  -12.610;  646.620
1056.227;   21.156;  -12.620;  542.780
1056.774;   22.782;  -13.010;  794.980
1057.321;   20.580;  -16.180;  523.260
1057.868;   21.493;  -11.230;  651.320
1058.415;   21.161;  -10.890;  651.980
1058.961;   20.898;  -12.530;  678.940
1059.508;   21.068;  -14.120;  643.820
1060.055;   20.309;  -13.340;  581.780
1060.601;   20.850;  -12.920;  624.300
1061.148;   19.458;  -14.430;  616.820
1061.694;   20.020;  -14.140;  592.580
1062.241;   20.027;  -12.550;  596.320
1062.787;   20.739;  -13.370;  663.140
1063.334;   22.085;  -12.260;  808.560
1063.880;   20.234;  -10.800;  668.360
1064.426;   20.692;   -9.920;  706.820
1064.972;   18.783;  -12.970;  601.340
1065.518;   18.494;  -14.440;  566.640
1066.065;   18.959;  -12.680;  624.460
1066.611;   18.556;  -13.520;  598.800
1067.157;   19.057;  -11.100;  641.860
1067.703;   18.414;  -14.100;  668.480
1068.249;   18.515;  -13.750;  605.220
1068.794;   18.572;  -11.070;  626.880
1069.340;   17.729;  -13.210;  578.960
1069.886;   18.222;  -14.850;  590.700
1070.432;   17.540;  -14.580;  541.720
1070.977;   17.297;  -12.930;  601.080
1071.523;   17.336;  -11.970;  573.060
1072.068;   16.771;  -13.730;  582.000
1072.614;   17.321;  -14.550;  527.760
1073.160;   17.931;  -13.690;  687.040
1073.705;   16.344;  -14.780;  572.520
1074.250;   15.998;  -15.430;  559.900
1074.796;   17.180;  -11.620;  655.160
1075.341;   18.026;  -11.580;  664.100
1075.886;   16.686;  -13.190;  594.240
1076.431;   16.506;  -13.630;  649.880
1076.976;   16.369;  -11.670;  639.220
1077.521;   16.319;  -11.600;  583.080
1078.067;   15.440;  -13.920;  579.400
1078.612;   15.946;  -12.910;  661.620
1079.156;   15.982;  -15.340;  601.540
1079.701;   16.334;  -12.560;  693.260
1080.246;   16.304;  -12.490;  696.300
1080.791;   15.116;  -14.550;  625.020
1081.336;   15.552;  -15.210;  659.320
1081.880;   15.598;  -11.280;  649.680
1082.425;   14.385;  -12.830;  573.480
1082.970;   16.175;  -11.680;  717.040
1083.514;   15.387;  -15.500;  597.000
1084.059;   13.386;  -11.770;  586.720
1084.603;   13.807;  -13.480;  565.840
1085.147;   13.890;  -13.940;  645.220
1085.692;   15.280;  -13.170;  716.800
1086.236;   13.198;  -15.740;  503.140
1086.780;   15.352;  -10.750;  751.440
1087.325;   14.565;  -14.900;  654.620
1087.869;   14.147;  -15.160;  610.700
1088.413;   15.085;  -11.030;  705.040
1088.957;   12.780;  -15.210;  543.400
1089.501;   14.668;  -12.310;  766.640
1090.045;   14.819;  -12.790;  726.480
1090.589;   12.082;  -14.040;  569.920
1091.133;   13.490;  -12.800;  673.340
1091.676;   12.759;  -13.600;  591.940
1092.220;   12.597;  -12.960;  600.920
1092.764;   14.047;  -10.830;  706.960
1093.307;   12.729;  -12.390;  673.780
1093.851;   11.769;  -15.850;  556.540
1094.395;   12.894;  -12.980;  683.140
1094.938;   12.232;  -13.670;  632.520
1095.482;   11.936;  -12.740;  559.800
1096.025;   13.052;  -13.340;  710.880
1096.568;   13.489;  -10.500;  779.280
1097.112;   10.348;  -13.500;  508.180
1097.655;   11.903;  -13.060;  603.000
1098.198;   10.750;  -13.240;  600.180
1098.741;   10.659;  -15.490;  612.860
1099.285;   11.882;  -13.410;  657.300
1099.828;    9.596;  -15.640;  439.400
1100.371;   10.686;  -13.980;  608.160
1100.914;   11.314;  -13.990;  682.660
1101.457;   11.742;  -15.030;  679.900
1101.999;    9.539;  -12.480;  584.680
1102.542;   11.055;  -12.410;  641.440
1103.085;   10.419;  -14.730;  658.500
1103.628;   11.335;  -12.190;  762.060
1104.170;    9.386;  -12.360;  588.280
1104.713;   11.072;  -13.350;  646.700
1105.256;    9.993;  -14.930;  557.440
1105.798;    8.289;  -15.150;  499.980
1106.341;   11.274;  -13.230;  728.900
1106.883;    9.212;  -14.680;  521.340
1107.425;    9.730;  -14.810;  668.180
1107.968;    9.537;  -12.940;  612.380
1108.510;   10.662;  -10.550;  684.960
1109.052;    8.363;  -15.640;  612.620
1109.594;    8.856;  -14.440;  554.440
1110.136;   10.062;  -11.380;  643.220
1110.679;    8.690;  -13.090;  633.080
1111.221;    8.182;  -14.230;  604.460
1111.763;    7.919;  -14.260;  559.220
1112.304;    8.498;  -14.510;  547.140
1112.846;    9.181;  -14.700;  666.240
1113.388;   11.715;  -12.270;  942.180
1113.930;    8.378;  -13.340;  694.200
1114.472;    8.108;  -12.560;  606.540
1115.013;    6.418;  -14.280;  551.280
1115.555;    7.301;  -14.010;  587.100
1116.097;    6.554;  -14.730;  579.480
1116.638;    8.440;  -12.160;  684.600
1117.180;    8.441;  -14.320;  667.740
1117.721;    7.214;  -15.730;  568.580
1118.262;    7.725;  -13.480;  677.960
1118.804;    7.440;  -11.530;  637.340
1119.345;    6.574;  -13.540;  578.400
1119.886;    8.116;  -14.470;  704.040
1120.427;    6.367;  -13.030;  589.020
1120.969;    6.818;  -13.150;  597.920
1121.510;    6.300;  -13.940;  563.060
1122.051;    7.507;  -12.310;  723.580
1122.592;    6.276;  -13.870;  655.420
1123.133;    5.219;  -12.890;  547.940
1123.673;    7.428;  -13.300;  706.480
1124.214;    6.279;  -14.000;  612.460
1124.755;    6.338;  -13.210;  639.460
1125.296;    7.443;  -13.450;  627.320
1125.836;    6.621;  -12.610;  691.500
1126.377;    4.930;  -15.840;  599.660
1126.918;    6.746;  -11.830;  614.980
1127.458;    5.738;  -11.830;  622.220
1127.999;    6.101;  -11.490;  656.980
1128.539;    5.975;  -12.900;  694.240
1129.079;    5.347;  -14.910;  632.720
1129.620;    5.291;  -12.920;  558.100
1130.160;    4.086;  -14.640;  539.480
1130.700;    4.896;  -13.270;  640.840
1131.240;    5.587;  -14.110;  643.700
1131.781;    4.386;  -13.130;  619.680
1132.321;    4.696;  -15.220;  599.120
1132.861;    3.185;  -15.670;  564.200
1133.401;    4.647;  -13.970;  593.940
1133.941;    5.059;  -13.740;  626.280
1134.481;    4.013;  -13.200;  597.580
1135.020;    3.360;  -14.830;  609.160
1135.560;    5.014;  -14.590;  674.940
1136.100;    3.406;  -13.730;  501.160
1136.640;    2.790;  -15.240;  510.480
1137.179;    2.890;  -14.710;  537.960
1137.719;    4.063;  -14.090;  605.400
1138.258;    4.253;  -12.470;  587.360
1138.798;    4.556;  -12.580;  663.780
1139.337;    2.616;  -16.480;  482.840
1139.877;    3.846;  -13.970;  642.360
1140.416;    6.950;   -9.870;  878.060
1140.955;    2.818;  -14.860;  535.380
1141.494;    3.773;  -14.530;  669.280
1142.034;    2.750;  -13.940;  583.520
1142.573;    3.734;  -11.160;  646.280
1143.112;    2.201;  -15.050;  553.480
1143.651;    2.773;  -15.390;  536.480
1144.190;    4.341;  -12.990;  691.640
1144.729;    2.751;  -12.220;  607.420
1145.267;    3.354;  -14.020;  584.900
1145.806;    3.862;  -12.740;  637.040
1146.345;    2.771;  -14.810;  635.020
1146.884;    2.372;  -12.920;  622.500
1147.422;    1.870;  -13.930;  533.060
1147.961;    3.560;  -11.830;  708.460
1148.500;    3.523;  -12.710;  669.720
1149.038;    2.859;  -14.420;  632.500
1149.577;    3.068;  -13.920;  698.640
1150.115;    0.080;  -17.050;  452.280
1150.653;    2.375;  -14.890;  607.340
1151.192;    2.006;  -15.270;  552.920
1151.730;    1.964;  -13.160;  652.560
1152.268;    1.593;  -15.430;  589.520
1152.806;    1.645;  -15.880;  571.180
1153.344;    1.188;  -13.240;  577.640
1153.882;    2.111;  -13.010;  600.060
1154.421;    0.127;  -16.180;  470.620
1154.958;    1.017;  -13.880;  595.240
1155.496;    2.494;  -13.590;  645.280
1156.034;    1.620;  -11.910;  721.880
1156.572;    2.369;  -12.010;  667.060
1157.110;   -0.018;  -16.250;  473.940
1157.647;    2.132;  -15.230;  676.960
1158.185;    0.783;  -13.770;  564.320
1158.723;   -0.229;  -15.300;  509.200
1159.260;    2.003;  -13.130;  701.700
1159.798;    2.292;  -11.300;  658.160
1160.335;    0.744;  -13.210;  631.820

