
Integration time [ms]:   3.276
Averaging Nr. [scans]: 1000
Smoothing Nr. [pixels]: 0
Data measured with spectrometer [name]: 7414430SP
Wave   ;Sample   ;Dark     ;Reference
[nm]   ;[counts] ;[counts] ;[counts] 

288.544;  150.268;    7.793;  793.890
289.143;  153.275;    7.462;  681.602
289.742;  154.889;    8.602;  828.814
290.341;  138.466;    1.321;  789.841
290.940;  127.591;   -0.709;  730.702
291.538;  128.667;    0.881;  881.108
292.137;  129.707;    0.122;  792.581
292.736;  133.608;   -1.929;  975.101
293.335;  129.654;   -8.229;  735.086
293.934;  130.624;   -5.279;  781.677
294.532;  128.613;   -1.369; 1031.958
295.131;  115.061;   -7.641;  834.394
295.730;  115.024;   -8.420;  809.588
296.328;  113.905;   -5.611;  783.442
296.927;  114.647;   -5.781;  779.652
297.525;  115.780;   -6.361;  781.236
298.124;  105.849;  -11.382;  654.009
298.722;  110.047;   -7.641;  761.933
299.321;  108.415;   -6.811;  708.597
299.919;  105.953;   -6.991;  751.918
300.518;  102.669;  -10.362;  689.338
301.116;  104.613;   -9.581;  691.381
301.715;  104.850;   -4.891;  730.222
302.313;  103.156;   -8.801;  704.943
302.911;   98.937;   -8.522;  733.830
303.509;  103.858;   -6.171;  925.627
304.108;  102.881;   -7.311;  760.383
304.706;  100.557;   -8.321;  801.664
305.304;   95.004;  -10.222;  796.707
305.902;  101.036;   -6.021;  784.484
306.500;   96.501;   -4.971;  728.200
307.098;   94.987;   -7.061;  746.560
307.696;   92.417;   -8.801;  780.432
308.294;   93.919;   -6.411;  731.359
308.892;   96.041;   -2.901;  759.769
309.490;   93.069;   -5.041;  712.161
310.088;   90.580;   -5.002;  788.444
310.686;   94.439;   -2.041;  821.749
311.284;   89.825;   -2.351;  766.040
311.882;   87.322;   -4.422;  731.225
312.480;   84.652;   -4.192;  697.167
313.078;   85.919;   -1.172;  808.331
313.675;   86.755;   -2.601;  691.600
314.273;   82.299;   -1.312;  797.837
314.871;   81.987;   -3.942;  589.829
315.468;   79.829;   -2.802;  652.090
316.066;   83.033;   -0.701;  694.427
316.664;   75.078;   -4.362;  656.351
317.261;   79.151;   -2.872;  910.128
317.859;   74.900;   -2.022;  768.735
318.456;   75.385;   -0.531;  830.096
319.054;   71.323;   -3.912;  787.828
319.651;   69.922;   -4.752;  759.928
320.249;   69.424;   -2.602;  810.188
320.846;   66.825;   -0.821;  714.286
321.443;   64.068;   -4.642;  832.135
322.041;   60.774;   -5.002;  812.315
322.638;   58.792;   -3.982;  701.456
323.235;   61.123;   -3.411;  665.683
323.833;   57.609;   -7.361;  740.354
324.430;   51.923;   -8.611;  615.900
325.027;   52.890;   -4.061;  876.855
325.624;   53.242;   -4.031;  644.532
326.221;   50.413;   -7.481;  689.717
326.818;   50.030;   -5.281;  818.332
327.415;   52.828;   -7.460;  748.828
328.012;   53.143;   -5.510;  690.585
328.609;   51.107;   -7.880;  731.389
329.206;   48.801;   -8.331;  778.621
329.803;   48.943;   -5.121;  737.841
330.400;   52.523;   -4.510;  704.260
330.997;   53.742;   -6.441;  817.147
331.594;   51.982;   -8.831;  788.185
332.191;   57.604;   -7.621;  728.722
332.787;   60.045;   -4.591;  844.463
333.384;   59.453;   -7.412;  763.093
333.981;   57.503;   -8.293;  815.687
334.578;   60.057;   -7.052;  708.378
335.174;   64.072;   -3.102;  731.469
335.771;   63.195;   -5.943;  836.456
336.367;   60.166;   -7.393;  710.631
336.964;   63.201;   -4.063;  793.266
337.561;   61.115;   -3.813;  731.112
338.157;   56.492;   -4.654;  911.916
338.754;   54.324;   -7.934;  796.589
339.350;   52.528;   -4.414;  722.493
339.946;   55.346;   -4.664;  773.135
340.543;   46.468;   -6.375;  846.136
341.139;   41.266;   -9.815;  720.836
341.735;   40.099;   -4.526;  772.593
342.332;   38.463;   -4.895;  691.472
342.928;   38.023;   -4.295;  795.394
343.524;   31.927;   -5.476;  761.684
344.120;   28.540;   -5.856;  738.562
344.716;   32.155;   -2.155;  723.717
345.313;   29.389;   -6.275;  795.342
345.909;   24.344;   -8.815;  627.336
346.505;   26.094;   -5.305;  740.247
347.101;   26.904;   -2.674;  827.864
347.697;   26.940;   -4.344;  785.398
348.293;   21.486;   -9.975;  627.244
348.889;   22.791;   -5.774;  745.914
349.485;   22.064;   -5.004;  688.205
350.081;   21.991;   -4.704;  772.592
350.676;   17.366;   -6.635;  691.606
351.272;   22.172;   -4.504;  809.530
351.868;   22.056;   -3.914;  780.497
352.464;   19.120;   -9.044;  723.932
353.059;   15.406;   -8.314;  646.017
353.655;   18.887;   -7.024;  777.063
354.251;   19.895;   -5.343;  759.845
354.846;   13.816;   -8.604;  740.646
355.442;   11.585;   -6.945;  753.071
356.038;   13.985;   -7.564;  751.708
356.633;   14.186;   -5.814;  728.594
357.229;   11.896;   -7.364;  724.757
357.824;    9.808;   -8.024;  703.600
358.420;    9.711;   -9.384;  679.726
359.015;    9.989;   -5.104;  695.357
359.610;   10.732;   -6.854;  763.920
360.206;    4.840;  -10.185;  603.240
360.801;    7.316;   -7.054;  646.503
361.396;    9.484;   -5.034;  725.975
361.992;    5.019;   -8.284;  668.220
362.587;    2.920;   -8.625;  670.160
363.182;    4.545;   -7.674;  689.631
363.777;    5.759;   -5.164;  738.242
364.372;    4.668;   -8.604;  737.314
364.967;    0.921;   -9.055;  680.744
365.563;    6.110;   -6.114;  815.567
366.158;    3.233;   -5.814;  685.161
366.753;    2.958;   -7.854;  649.263
367.348;    1.548;   -7.804;  746.056
367.942;    0.764;   -7.954;  697.298
368.537;    0.689;   -4.984;  754.245
369.132;    0.348;   -8.564;  703.428
369.727;   -3.337;   -8.855;  638.079
370.322;   -2.302;   -6.245;  580.186
370.917;   -2.150;   -6.425;  710.646
371.511;    0.097;   -6.294;  861.834
372.106;   -3.254;   -7.685;  776.964
372.701;   -6.801;   -7.335;  585.988
373.296;   -0.825;   -4.564;  863.135
373.890;   -5.583;  -10.235;  647.840
374.485;   -7.822;   -7.885;  691.199
375.079;   -4.029;   -7.324;  738.685
375.674;   -2.407;   -3.494;  812.970
376.268;   -7.424;   -8.525;  691.759
376.863;  -12.787;  -10.086;  580.327
377.457;   -7.084;   -7.025;  662.490
378.052;   -7.751;   -3.585;  764.884
378.646;   -9.094;   -7.595;  741.167
379.240;   -9.765;   -8.335;  721.176
379.835;   -8.553;   -5.785;  636.978
380.429;  -10.057;   -4.335;  562.557
381.023;  -10.611;   -6.805;  779.205
381.617;  -13.051;   -9.195;  680.106
382.212;   -9.309;   -6.905;  685.303
382.806;   -8.811;   -3.745;  760.690
383.400;  -13.107;   -7.745;  672.281
383.994;  -14.090;   -9.765;  664.870
384.588;  -10.201;   -6.564;  697.701
385.182;   -7.831;   -5.344;  726.624
385.776;   -9.943;   -8.514;  706.875
386.370;  -12.741;   -9.555;  681.968
386.964;  -12.023;   -8.715;  684.155
387.558;  -10.701;   -6.174;  598.360
388.152;  -14.638;   -8.725;  681.959
388.745;  -12.428;   -7.965;  814.707
389.339;  -10.539;   -5.924;  747.642
389.933;   -9.185;   -5.524;  695.370
390.527;  -10.257;   -7.114;  859.029
391.120;  -17.070;  -10.725;  595.318
391.714;  -13.658;   -8.035;  711.633
392.308;  -10.816;   -3.574;  780.253
392.901;  -14.890;   -7.245;  642.460
393.495;  -16.675;   -9.285;  595.414
394.089;  -13.603;   -5.895;  760.452
394.682;  -14.802;   -4.295;  697.188
395.275;  -15.132;   -9.875;  719.927
395.869;  -17.060;   -8.485;  667.314
396.462;  -15.819;   -7.455;  616.609
397.056;  -10.935;   -5.424;  776.621
397.649;  -15.801;   -6.605;  731.575
398.242;  -13.222;   -8.224;  712.645
398.836;  -12.633;   -7.474;  766.408
399.429;  -13.691;   -7.094;  631.041
400.022;  -17.272;   -9.475;  665.902
400.615;  -14.949;   -7.145;  805.609
401.208;  -13.050;   -7.174;  691.451
401.802;  -14.544;   -5.515;  699.329
402.395;  -16.112;   -9.875;  683.502
402.988;  -17.681;   -8.845;  696.627
403.581;  -14.032;   -8.874;  646.878
404.174;  -11.435;   -5.324;  686.568
404.767;  -15.355;   -9.575;  638.583
405.360;  -17.507;  -10.965;  621.445
405.953;  -11.839;   -8.764;  759.034
406.545;  -10.940;   -7.514;  725.342
407.138;  -15.160;  -10.025;  618.350
407.731;  -14.698;  -10.034;  613.303
408.324;   -9.744;   -9.374;  660.554
408.917;  -11.288;   -6.534;  681.864
409.509;  -12.424;   -8.004;  740.396
410.102;  -14.670;   -9.875;  643.948
410.695;   -9.508;   -8.604;  665.758
411.287;   -9.894;   -6.794;  599.821
411.880;  -11.857;   -9.334;  585.421
412.472;  -13.792;  -10.254;  613.092
413.065;  -11.231;   -6.714;  629.408
413.657;   -9.036;   -7.234;  576.678
414.250;   -9.104;  -10.544;  646.681
414.842;  -11.284;   -9.744;  676.353
415.434;   -7.531;   -6.994;  570.463
416.027;   -4.679;   -5.893;  652.196
416.619;   -6.752;   -7.264;  713.400
417.211;   -8.083;  -10.374;  599.352
417.804;   -3.667;   -7.993;  628.499
418.396;   -6.591;   -7.234;  607.643
418.988;   -6.405;   -9.443;  659.238
419.580;   -9.247;  -10.724;  568.276
420.172;   -6.743;  -10.323;  536.196
420.764;   -2.398;   -8.793;  672.482
421.356;   -4.097;  -11.143;  636.898
421.948;   -4.997;   -8.293;  677.661
422.540;    1.012;   -7.893;  680.027
423.132;   -0.186;   -7.082;  600.641
423.724;   -3.673;   -8.653;  561.267
424.316;   -1.946;  -10.213;  621.345
424.908;    1.771;   -9.762;  591.517
425.500;    3.217;   -5.572;  647.978
426.092;    2.826;   -8.422;  648.268
426.683;    1.729;   -9.283;  684.836
427.275;    4.675;   -7.852;  641.471
427.867;    6.453;   -5.272;  668.948
428.458;    7.450;   -7.682;  732.344
429.050;    5.537;  -10.612;  680.749
429.642;    7.147;   -9.882;  743.124
430.233;    8.737;   -6.962;  569.356
430.825;    9.494;   -6.842;  724.809
431.416;    6.600;   -9.672;  698.241
432.008;   10.376;   -6.552;  651.723
432.599;   10.186;   -6.891;  656.073
433.190;    7.253;  -10.912;  637.670
433.782;    6.198;  -11.172;  590.395
434.373;   14.107;   -6.061;  884.765
434.964;   13.100;   -8.251;  602.920
435.556;   10.478;   -9.722;  634.537
436.147;   13.637;   -9.082;  758.490
436.738;   13.446;   -8.041;  701.099
437.329;   19.047;   -7.341;  721.723
437.920;   11.252;   -8.162;  666.688
438.511;   11.759;  -11.802;  564.526
439.103;   18.159;  -10.191;  623.998
439.694;   20.285;   -7.601;  681.583
440.285;   20.785;   -8.541;  764.432
440.876;   18.743;   -9.751;  845.738
441.466;   18.735;   -9.401;  575.162
442.057;   24.252;   -7.760;  665.814
442.648;   22.197;   -9.971;  746.255
443.239;   20.681;  -11.001;  620.477
443.830;   25.472;   -7.990;  704.958
444.421;   28.011;   -7.910;  655.474
445.011;   23.867;   -8.131;  693.619
445.602;   23.483;   -7.111;  743.126
446.193;   25.765;  -10.920;  488.117
446.783;   29.507;   -6.500;  640.397
447.374;   25.252;   -8.671;  692.759
447.964;   26.176;  -10.781;  713.770
448.555;   34.454;   -9.650;  822.742
449.145;   31.246;   -8.660;  662.853
449.736;   31.153;   -8.990;  803.179
450.326;   31.671;   -9.500;  713.626
450.917;   36.188;   -8.680;  675.324
451.507;   36.166;   -7.520;  600.661
452.097;   36.491;   -8.590;  746.267
452.688;   36.823;  -11.340;  742.160
453.278;   37.373;  -10.100;  566.840
453.868;   41.337;   -6.019;  793.550
454.458;   38.856;   -9.440;  651.141
455.048;   39.081;  -10.560;  711.783
455.639;   40.799;  -11.799;  567.096
456.229;   45.687;   -6.899;  710.694
456.819;   46.230;   -7.389;  751.158
457.409;   46.752;  -11.119;  773.993
457.999;   49.079;   -9.289;  737.505
458.589;   49.470;   -6.139;  686.606
459.179;   49.469;   -8.729;  717.658
459.769;   47.469;   -9.789;  627.099
460.358;   52.386;  -10.259;  797.262
460.948;   52.394;   -7.299;  689.503
461.538;   53.942;  -10.289;  660.677
462.128;   52.059;  -11.269;  664.934
462.717;   57.570;   -9.368;  710.326
463.307;   61.612;   -7.908;  705.846
463.897;   57.766;   -9.599;  656.942
464.486;   56.207;   -9.769;  837.128
465.076;   61.179;   -8.048;  733.776
465.666;   64.790;   -9.358;  652.900
466.255;   62.381;   -7.919;  785.651
466.845;   60.849;  -11.689;  666.749
467.434;   64.104;   -7.818;  725.873
468.023;   65.562;   -7.678;  658.357
468.613;   62.630;  -10.939;  713.946
469.202;   66.753;  -10.118;  646.507
469.791;   70.683;   -9.108;  737.811
470.381;   74.013;   -6.058;  742.813
470.970;   72.173;  -10.428;  711.099
471.559;   72.410;  -10.268;  733.291
472.148;   75.278;   -8.448;  675.737
472.738;   78.750;   -6.917;  765.466
473.327;   78.031;  -11.978;  637.529
473.916;   76.799;  -11.888;  737.446
474.505;   81.451;   -9.437;  751.703
475.094;   84.249;   -6.747;  806.570
475.683;   83.234;   -9.367;  797.699
476.272;   85.055;  -12.637;  730.632
476.861;   86.945;  -10.027;  706.754
477.449;   94.543;   -8.716;  728.487
478.038;   88.149;   -9.577;  692.513
478.627;   90.114;   -9.718;  714.852
479.216;   95.883;   -8.947;  769.441
479.805;   99.198;   -6.256;  783.375
480.393;   98.421;   -7.937; 1008.945
480.982;   97.779;   -7.717;  874.501
481.571;  104.489;   -9.266;  858.333
482.159;  104.746;   -7.636;  705.386
482.748;  104.831;   -9.667;  821.385
483.336;  108.318;  -10.376;  858.209
483.925;  109.531;   -7.147;  774.373
484.513;  116.271;   -7.996;  758.962
485.102;  112.225;  -10.027;  810.965
485.690;  121.131;  -10.446; 1011.050
486.278;  122.940;   -8.446;  979.329
486.867;  123.776;   -6.356;  809.662
487.455;  125.723;   -9.136;  898.229
488.043;  127.197;  -10.646;  748.361
488.631;  135.288;   -7.456; 1005.079
489.220;  139.768;   -6.636;  908.626
489.808;  139.535;  -11.036;  741.415
490.396;  146.079;  -10.246;  914.645
490.984;  152.984;   -8.556;  830.161
491.572;  161.820;   -5.886;  940.315
492.160;  167.087;   -9.486;  919.081
492.748;  178.202;  -10.976;  884.341
493.336;  200.374;   -8.776; 1019.693
493.924;  225.479;   -5.465;  958.077
494.512;  251.078;   -9.986; 1066.638
495.100;  285.316;  -10.636; 1103.280
495.687;  338.313;  -10.885; 1206.373
496.275;  399.185;   -8.126; 1150.796
496.863;  466.430;  -10.586; 1281.171
497.451;  565.735;  -11.926; 1386.805
498.038;  689.336;  -10.885; 1556.729
498.626;  794.747;   -6.315; 1741.407
499.214;  944.647;   -7.326; 2016.609
499.801; 1126.819;  -11.906; 2220.633
500.389; 1373.656;  -10.466; 2312.494
500.976; 1665.859;   -5.236; 2744.849
501.564; 2084.876;   -8.936; 3148.565
502.151; 2431.399;  -13.176; 3515.999
502.738; 2860.873;  -10.646; 3971.274
503.326; 3255.909;   -9.525; 4403.796
503.913; 3645.123;  -10.856; 5161.749
504.500; 4008.376;  -11.586; 5986.420
505.088; 4433.561;  -10.336; 6381.201
505.675; 4931.588;   -6.355; 6925.547
506.262; 5624.125;   -9.046; 7619.060
506.849; 6324.867;  -10.416; 8733.969
507.436; 6791.364;  -10.305; 9790.121
508.023; 7363.788;   -5.496; 9985.472
508.610; 7644.979;   -7.856;10434.618
509.197; 8267.443;  -10.097;11198.435
509.784; 9571.484;  -10.886;12391.194
510.371;10628.200;   -9.315;13603.713
510.958;11430.784;   -9.936;14426.586
511.545;12225.646;   -9.326;15243.775
512.132;12971.928;  -10.075;15945.876
512.719;13432.825;   -7.796;16340.369
513.305;14315.835;  -10.606;18011.766
513.892;15020.817;  -11.486;19754.971
514.479;16392.217;   -9.126;20967.805
515.066;18021.236;   -6.026;22299.793
515.652;19431.416;   -8.466;22908.660
516.239;20568.400;  -10.886;23798.875
516.825;21338.891;  -11.496;25567.275
517.412;22193.164;   -5.796;28154.959
517.998;22827.510;  -10.506;28344.111
518.585;23090.037;  -10.076;27134.219
519.171;23651.648;   -8.315;27268.576
519.758;24983.293;   -8.596;28964.129
520.344;26883.797;   -8.466;30664.494
520.930;26889.023;  -11.006;32550.605
521.516;27882.555;  -10.495;35422.895
522.103;29980.844;   -5.526;38280.004
522.689;30355.473;   -8.746;37835.117
523.275;30143.711;  -11.376;37288.613
523.861;31863.010;  -11.156;37281.395
524.447;33406.344;   -8.135;37846.949
525.033;33294.813;   -7.896;38321.949
525.619;33434.723;  -12.476;38579.285
526.205;34847.711;   -9.516;40622.875
526.791;37043.633;   -6.926;42258.836
527.377;37374.125;   -8.346;42966.902
527.963;38703.398;   -8.717;42018.949
528.549;37395.453;  -11.016;42476.828
529.135;36058.840;   -8.536;41854.852
529.721;35189.605;   -9.666;41237.711
530.306;34359.395;  -10.066;41259.445
530.892;34186.148;  -11.356;41506.047
531.478;35611.125;   -6.596;43559.613
532.063;38605.527;   -8.836;47695.563
532.649;39498.523;  -10.047;50808.324
533.235;40066.281;   -9.746;51787.500
533.820;40194.930;   -6.566;52145.035
534.406;41716.086;  -10.817;51133.488
534.991;41509.590;   -9.416;49996.805
535.576;40126.238;   -9.036;48882.852
536.162;40794.035;   -6.156;46942.285
536.747;41577.762;  -11.607;45711.746
537.333;44720.961;  -11.787;48510.180
537.918;47941.934;  -12.437;50439.891
538.503;47029.293;   -7.196;50863.711
539.088;43478.555;  -10.556;50906.922
539.673;43093.934;   -8.767;52621.965
540.259;43453.777;  -10.026;52368.094
540.844;41207.906;   -7.416;50879.109
541.429;42564.320;   -9.467;52077.777
542.014;45054.324;   -9.527;52716.695
542.599;44280.090;   -9.946;52363.281
543.184;41983.570;   -7.927;53187.137
543.769;43230.309;   -9.297;54697.605
544.354;42978.117;  -10.127;53913.914
544.938;41866.582;   -9.267;49680.164
545.523;43806.789;   -6.506;47386.277
546.108;46807.129;   -9.787;49151.949
546.693;48470.227;  -11.587;51384.637
547.278;48137.066;  -10.986;51853.254
547.862;45473.328;   -8.206;51173.750
548.447;41234.297;  -10.067;51691.395
549.031;40826.246;   -9.637;52456.703
549.616;45552.660;   -9.926;52714.516
550.201;45079.773;   -6.347;52414.598
550.785;46128.277;   -7.917;52355.059
551.370;45138.281;  -10.867;54589.453
551.954;44486.539;   -9.047;58267.348
552.538;45373.668;   -7.827;59062.176
553.123;43838.879;  -10.287;58115.285
553.707;41438.527;  -12.178;56556.285
554.291;43040.625;   -8.717;56201.668
554.876;45672.695;   -7.457;55335.762
555.460;45620.582;  -10.387;54155.703
556.044;46283.477;   -9.618;53721.484
556.628;45301.918;  -11.567;53731.016
557.212;44421.367;   -8.097;54312.531
557.796;42813.355;  -11.077;53797.773
558.380;42917.672;  -11.108;56145.984
558.964;43384.828;   -9.057;57277.930
559.548;44837.691;   -6.977;56459.641
560.132;43234.980;  -11.457;54434.543
560.716;41463.395;  -11.378;54800.617
561.300;42262.383;   -9.577;57606.945
561.884;43506.133;   -7.127;58972.445
562.467;41788.719;   -7.118;57327.570
563.051;41161.816;  -13.358;54962.434
563.635;42368.266;  -10.178;52594.473
564.219;42579.328;   -7.837;50610.410
564.802;43427.254;  -11.398;49551.180
565.386;43214.145;  -12.788;48370.953
565.969;42410.242;   -9.077;48178.871
566.553;41402.879;   -6.207;49957.305
567.136;42286.844;   -8.568;50369.594
567.720;39108.277;  -11.868;49492.004
568.303;37072.414;   -8.268;50616.352
568.887;37067.504;   -8.698;50727.148
569.470;37413.797;   -6.808;51698.379
570.053;36071.457;  -13.188;52122.078
570.637;34496.207;  -12.037;52536.438
571.220;34598.234;   -8.577;51186.098
571.803;35414.992;   -8.498;51032.762
572.386;37051.406;  -10.498;49609.887
572.969;39255.914;   -9.388;48285.926
573.552;37811.195;   -8.338;47624.285
574.135;36569.906;   -8.518;45498.641
574.718;34338.840;  -13.628;41970.434
575.301;33344.336;  -10.893;41447.137
575.884;32349.828;   -8.158;40923.836
576.467;33226.574;  -10.328;45267.723
577.050;34314.969;  -13.058;48175.543
577.633;34971.570;   -9.458;47729.328
578.216;33886.855;   -8.928;47579.793
578.799;33349.176;   -9.358;47820.996
579.381;33012.965;  -11.388;48115.551
579.964;31684.506;  -11.718;47333.766
580.547;33712.734;   -8.588;46668.969
581.129;35023.508;   -8.859;44466.141
581.712;36064.352;  -10.729;44164.922
582.294;36643.273;  -11.118;46477.855
582.877;36245.523;   -5.218;48244.254
583.459;34021.703;   -8.679;47437.895
584.042;32059.938;  -10.709;46943.219
584.624;32305.703;  -11.669;46792.227
585.206;31886.867;   -8.218;46557.250
585.789;31608.293;  -10.569;45793.773
586.371;34074.754;  -11.859;43836.391
586.953;34461.781;  -10.719;42972.492
587.536;35331.301;   -7.198;42487.211
588.118;35056.457;   -8.720;42086.414
588.700;30022.697;  -10.439;43389.930
589.282;27328.795;   -9.198;43646.039
589.864;27313.346;   -9.199;43438.109
590.446;29923.123;  -11.319;43151.926
591.028;32700.402;  -11.159;42781.867
591.610;33246.785;  -11.779;42839.098
592.192;31074.865;   -7.668;42820.402
592.774;29617.910;  -11.949;40724.277
593.356;28405.217;  -12.129;39874.789
593.937;27250.801;  -10.669;39980.648
594.519;29270.369;   -6.509;42069.633
595.101;31368.748;  -10.849;42976.031
595.683;31555.393;  -11.679;44084.441
596.264;32521.584;   -9.049;43478.797
596.846;32103.531;   -8.849;43803.672
597.427;32212.449;   -9.570;42986.934
598.009;33857.320;  -12.620;42832.219
598.591;34357.090;  -10.039;42580.086
599.172;33798.141;  -10.369;43061.805
599.753;34030.711;   -9.140;41691.469
600.335;35552.184;  -11.430;40692.520
600.916;33594.699;   -9.939;39982.422
601.498;30848.451;   -8.479;40318.617
602.079;29317.139;  -10.920;40670.609
602.660;29048.496;  -11.480;41450.898
603.241;30662.564;  -11.699;41137.738
603.823;29439.496;   -9.579;38868.797
604.404;28511.924;  -10.620;38182.785
604.985;30293.563;  -10.450;38078.047
605.566;30488.705;   -9.129;38056.633
606.147;30685.426;   -7.510;37020.418
606.728;32040.527;  -10.660;37883.359
607.309;30554.270;  -11.740;38748.273
607.890;30108.496;   -9.759;38850.230
608.471;29603.803;   -8.250;37457.918
609.051;28777.355;   -9.240;36066.457
609.632;27746.895;  -12.120;35991.074
610.213;28438.584;   -9.110;37402.641
610.794;29252.943;   -8.030;38383.363
611.374;28899.199;   -8.110;40562.387
611.955;29554.422;  -13.560;38533.727
612.536;30870.242;  -11.400;36951.789
613.116;30555.740;   -8.070;37197.891
613.697;30960.463;  -10.830;38411.125
614.277;29236.547;  -11.641;38673.938
614.858;29937.836;  -13.310;37075.863
615.438;29205.699;   -7.460;35092.906
616.019;26835.639;   -7.601;33666.301
616.599;27440.113;  -12.020;34189.023
617.179;29343.578;  -11.780;36952.047
617.760;30466.260;   -8.570;39582.574
618.340;31394.988;  -11.471;38943.977
618.920;32503.221;  -11.170;37594.156
619.500;32263.824;  -11.071;37866.938
620.080;31119.070;   -7.750;37869.043
620.660;32226.885;  -12.711;36868.617
621.241;33584.289;  -10.211;36352.309
621.821;33965.559;  -10.961;35459.520
622.401;33029.492;   -7.720;35207.414
622.980;32334.887;   -8.981;35980.422
623.560;30925.139;   -9.331;37351.328
624.140;29620.102;   -9.850;34388.582
624.720;24718.861;   -7.451;32368.764
625.300;21359.012;   -9.070;32638.629
625.880;24677.807;  -12.601;34599.035
626.459;28407.045;  -11.751;36831.738
627.039;31285.988;   -9.281;38299.098
627.619;31191.883;   -8.801;38289.574
628.198;29866.035;  -12.071;37220.695
628.778;29155.535;   -9.461;37632.563
629.357;29757.033;   -8.491;38003.012
629.937;29645.191;   -9.721;38402.039
630.516;29324.262;   -9.951;37868.801
631.096;29288.344;  -11.731;35760.410
631.675;31255.645;   -8.572;35225.219
632.254;36077.840;  -11.282;35130.289
632.834;35585.301;  -13.322;35794.570
633.413;33974.965;  -10.301;35788.922
633.992;31625.607;   -8.582;34532.863
634.571;32424.336;   -8.352;33590.113
635.151;35545.414;  -11.912;34943.863
635.730;33880.348;  -10.511;35352.523
636.309;30089.033;   -7.731;35366.605
636.888;27424.689;   -9.952;36165.637
637.467;27962.697;  -11.672;37515.902
638.046;29628.510;   -8.901;39288.695
638.625;32812.863;   -7.912;38279.699
639.204;32679.490;  -10.022;37741.598
639.782;31214.217;  -12.252;38364.551
640.361;27802.441;  -10.041;36740.621
640.940;25068.707;  -11.161;34950.082
641.519;25860.348;   -9.701;34137.398
642.097;28535.322;  -11.271;35654.258
642.676;31139.230;   -8.651;35637.957
643.255;32022.188;   -8.711;36567.074
643.833;31340.254;   -9.581;37809.434
644.412;31226.381;  -13.711;37337.293
644.990;30058.305;  -11.811;37018.531
645.569;29774.441;   -9.411;36518.469
646.147;28983.277;  -10.291;36186.430
646.726;29217.070;  -12.401;36267.688
647.304;30746.000;  -10.411;36647.625
647.882;32268.727;   -9.651;39286.742
648.461;33623.871;   -9.631;39157.703
649.039;32048.795;  -11.881;35412.883
649.617;31409.602;   -9.661;34744.918
650.195;31059.777;   -9.301;35403.098
650.773;29727.645;  -10.511;35053.797
651.352;27034.182;  -11.521;33756.816
651.930;24663.525;  -12.211;31868.773
652.508;23384.635;   -9.171;33121.551
653.086;27390.969;   -9.371;33564.793
653.663;30387.928;  -13.161;34054.668
654.241;28994.627;  -13.031;35693.309
654.819;30471.703;   -9.371;36422.906
655.397;30596.305;  -10.511;38213.484
655.975;30103.148;  -10.371;39507.625
656.553;30107.273;  -10.051;39498.223
657.130;28546.318;  -10.061;40395.480
657.708;27552.545;   -9.561;39242.020
658.286;27588.191;  -11.511;38920.020
658.863;29187.811;  -10.261;40202.898
659.441;32325.037;   -7.531;39677.938
660.018;31931.104;   -9.501;40413.355
660.596;30699.621;  -13.301;39931.414
661.173;32416.529;  -11.211;39604.531
661.750;32323.867;   -9.951;39700.070
662.328;30859.568;   -9.390;39292.809
662.905;30135.170;  -11.330;38235.648
663.482;26333.338;   -9.050;36212.305
664.060;24471.967;   -8.240;35944.945
664.637;27133.932;  -10.050;35170.785
665.214;28996.316;  -11.760;34197.523
665.791;30855.998;  -10.530;34549.520
666.368;29790.404;   -9.690;35118.578
666.945;30037.330;   -9.320;36019.418
667.522;31666.201;  -11.860;36048.438
668.099;31340.752;  -10.770;36243.914
668.676;30016.865;   -6.260;35958.875
669.253;28785.830;   -7.000;37384.730
669.830;29469.385;  -10.190;36779.629
670.407;29224.299;   -9.550;35231.289
670.984;28776.818;   -9.260;35544.270
671.560;29375.730;   -9.280;35466.867
672.137;28927.438;  -11.810;34280.863
672.714;29851.088;  -11.490;34632.863
673.290;30432.842;   -7.740;35135.422
673.867;30555.729;  -10.660;36114.480
674.443;30682.348;  -12.230;36152.859
675.020;28856.533;  -10.450;35327.238
675.596;29761.172;   -9.260;35795.176
676.173;30228.379;  -10.780;35430.355
676.749;29956.850;  -13.690;33549.516
677.326;29935.025;  -11.980;32210.012
677.902;29847.240;   -8.630;32068.871
678.478;29215.578;  -10.730;32583.891
679.054;28462.064;  -10.520;32088.928
679.631;28765.314;  -11.920;30978.848
680.207;30446.666;   -7.490;33160.887
680.783;32095.795;   -9.860;35570.363
681.359;31172.705;  -13.380;36125.184
681.935;30649.488;  -12.480;35240.922
682.511;30018.229;   -7.900;34429.961
683.087;30131.037;   -7.710;34463.680
683.663;29566.031;  -11.480;34648.898
684.239;28398.813;  -14.090;34546.457
684.815;27996.480;   -7.560;35586.375
685.390;28254.246;   -9.910;35821.895
685.966;28784.941;  -11.159;35085.871
686.542;31029.219;  -11.169;34198.230
687.118;33417.434;   -5.959;32847.707
687.693;33917.008;  -10.329;32794.027
688.269;33530.328;  -12.059;33072.367
688.844;31653.242;  -10.909;33141.664
689.420;29437.891;   -8.019;33965.742
689.995;27298.463;   -8.399;34655.523
690.571;25980.646;  -10.949;33576.742
691.146;26353.225;   -9.619;32657.219
691.722;25985.768;   -8.999;32526.979
692.297;25478.309;  -11.589;33014.617
692.872;27092.809;  -11.739;34012.254
693.448;26882.186;  -11.059;34237.434
694.023;26102.650;  -10.139;34142.672
694.598;27912.219;   -9.029;34132.031
695.173;28308.148;  -13.319;34205.250
695.748;27479.479;  -10.169;32882.488
696.323;27787.059;   -8.339;32864.906
696.898;28084.506;   -8.169;33170.004
697.473;28049.855;  -12.309;32432.984
698.048;27606.229;  -10.989;31649.303
698.623;27364.879;   -9.329;30778.141
699.198;29176.664;   -9.849;31140.119
699.773;30251.588;  -12.329;31764.299
700.348;28528.357;  -10.389;31780.816
700.922;28537.467;   -9.269;32046.375
701.497;29636.213;   -9.329;32603.574
702.072;30010.895;  -10.789;34799.871
702.646;28506.232;  -10.839;35793.172
703.221;26132.471;   -9.099;35201.590
703.795;28282.914;  -10.939;34764.527
704.370;28854.859;  -12.859;34307.367
704.944;29294.586;  -11.559;33509.887
705.519;30051.260;   -7.939;31388.584
706.093;31316.254;  -10.499;31340.104
706.668;31812.711;  -11.289;32630.281
707.242;30709.379;  -11.509;32728.779
707.816;29086.162;   -9.639;32947.238
708.390;27618.018;  -11.429;33277.855
708.965;27919.734;  -11.869;33834.336
709.539;27595.711;  -11.689;33709.273
710.113;28093.529;  -10.478;33044.313
710.687;27908.904;  -10.228;31953.992
711.261;26432.420;  -13.698;30505.949
711.835;26117.527;  -13.378;30262.369
712.409;26680.381;   -9.698;31254.447
712.983;28731.385;  -11.898;32754.986
713.557;29834.740;  -15.138;34018.824
714.131;29496.246;  -14.098;34579.625
714.704;28554.432;   -9.958;33890.262
715.278;26249.977;  -10.028;33531.102
715.852;25030.838;  -11.148;33601.660
716.425;25701.514;   -9.068;33515.117
716.999;26471.984;  -10.038;33185.555
717.573;27466.529;   -9.798;33905.996
718.146;28587.178;  -12.378;35199.293
718.720;28857.072;  -11.918;35060.551
719.293;28402.152;   -8.088;34973.230
719.867;31245.273;  -10.888;36394.449
720.440;31093.068;  -11.938;36663.008
721.013;29566.234;  -12.818;35102.426
721.587;28077.438;  -10.298;33985.266
722.160;26945.258;  -10.048;33524.965
722.733;25837.779;  -12.108;32987.043
723.306;25940.986;  -10.818;33066.301
723.880;28467.928;   -8.908;33399.500
724.453;30967.758;   -9.878;33468.297
725.026;30257.221;  -11.188;33816.637
725.599;27223.631;  -11.678;32797.996
726.172;26976.668;   -9.618;33187.434
726.745;27798.291;   -8.258;35136.613
727.318;29071.512;  -12.978;35751.730
727.891;29880.652;  -12.148;35890.430
728.463;29713.834;   -8.968;34822.090
729.036;28650.711;  -10.188;32895.086
729.609;29146.094;  -11.788;31823.225
730.182;26170.723;  -11.788;31445.283
730.754;23778.332;  -10.268;32373.223
731.327;23835.102;   -9.998;33676.820
731.900;23943.264;  -12.228;33417.000
732.472;25047.740;  -13.848;31978.498
733.045;27084.797;   -8.698;30368.777
733.617;27193.463;  -10.607;30574.215
734.190;26970.893;  -11.507;31280.975
734.762;24341.619;  -13.647;31674.412
735.334;22436.264;   -9.767;31247.291
735.907;23044.434;   -9.897;29876.211
736.479;23338.039;  -11.637;29808.488
737.051;23099.563;   -9.567;30233.547
737.623;24009.650;   -8.187;31469.086
738.195;24469.492;  -11.187;31784.225
738.768;26028.857;  -12.337;32120.523
739.340;26629.012;  -12.227;32094.342
739.912;25766.592;  -11.057;31312.680
740.484;24256.523;  -10.207;31946.238
741.056;22932.633;  -10.047;32984.059
741.628;24686.877;  -13.627;33897.715
742.199;26866.859;   -7.177;33213.016
742.771;25122.857;  -10.797;31369.113
743.343;22791.176;  -11.997;31865.473
743.915;21791.607;  -12.867;32388.631
744.487;21879.695;   -7.617;31079.568
745.058;22157.133;   -9.557;30570.107
745.630;22559.730;   -9.877;29970.127
746.201;23536.441;  -14.177;29186.766
746.773;24334.766;   -9.237;28805.723
747.344;24219.965;   -9.847;29591.223
747.916;22686.574;  -11.657;31412.201
748.487;22681.090;  -10.587;32194.898
749.059;23714.154;   -8.707;32533.719
749.630;24236.350;  -10.537;32158.518
750.201;23133.275;  -11.687;30855.395
750.773;21395.871;  -11.647;28622.555
751.344;21310.779;   -7.147;28405.732
751.915;22671.443;   -9.757;28461.551
752.486;22991.146;  -12.427;27842.850
753.057;20733.195;  -12.227;27845.008
753.628;19353.172;  -10.417;27728.107
754.199;20348.088;  -11.767;27381.086
754.770;21350.801;  -11.187;25882.203
755.341;21334.613;  -10.507;25886.184
755.912;21569.549;   -9.387;26050.861
756.483;21252.725;  -10.647;26798.779
757.054;19577.746;  -11.837;27048.238
757.625;18283.584;  -12.716;26294.838
758.195;17810.146;   -9.666;26142.076
758.766;17421.025;   -8.656;26392.234
759.337;18147.746;  -12.856;26334.594
759.907;19683.332;  -13.366;27579.652
760.478;20662.227;   -8.576;28352.770
761.048;20262.941;  -10.526;27325.088
761.619;19487.826;  -11.116;26460.428
762.189;19414.787;  -12.136;26029.826
762.760;20260.693;   -9.456;26430.145
763.330;21482.029;   -7.136;26670.902
763.900;21117.951;  -11.786;26603.021
764.471;18637.264;  -11.546;25542.740
765.041;17370.365;   -8.096;24358.459
765.611;17384.490;   -8.876;23991.297
766.181;17741.523;  -12.196;24470.236
766.751;18693.670;  -11.636;24845.975
767.321;18514.844;  -10.156;24533.633
767.891;16702.039;  -11.766;24916.492
768.461;16128.835;  -14.936;24776.771
769.031;16555.307;  -12.356;24757.988
769.601;18185.602;   -7.526;24181.088
770.171;18155.742;  -10.766;23670.387
770.741;17290.729;  -13.176;22960.045
771.311;17312.922;  -10.616;22917.523
771.880;17760.494;   -9.576;23562.941
772.450;17472.375;  -10.336;24216.500
773.020;17304.402;  -13.516;24140.398
773.589;16496.250;  -13.466;24414.857
774.159;15791.293;   -8.686;23858.717
774.729;15508.170;   -9.476;22942.135
775.298;15194.323;  -13.666;22324.033
775.867;14847.380;  -11.716;21140.313
776.437;14931.255;   -9.906;20838.092
777.006;14767.441;  -12.166;20599.510
777.576;14606.542;  -12.356;20508.809
778.145;14603.254;  -11.646;20732.947
778.714;14494.855;   -8.226;21062.465
779.283;13812.021;   -9.556;20949.664
779.853;13308.858;  -14.116;20508.623
780.422;13818.448;  -11.506;20649.082
780.991;13348.187;   -9.556;21527.520
781.560;12118.170;   -9.095;22632.658
782.129;11990.332;  -12.135;23048.277
782.698;12062.778;  -10.865;23438.555
783.267;11666.715;   -9.335;23267.734
783.836;11567.089;  -11.045;22415.133
784.404;12582.428;  -13.865;20443.152
784.973;13234.300;  -13.095;19699.150
785.542;13116.840;  -11.575;19763.828
786.111;12883.028;   -9.705;20341.408
786.679;12428.246;  -12.105;20207.967
787.248;12164.232;  -12.455;19516.465
787.817;11987.977;  -11.535;18900.363
788.385;11641.290;   -9.765;17879.121
788.954;11099.628;  -14.005;17658.301
789.522;10567.214;  -11.955;17788.879
790.090;11125.951;  -10.135;18118.277
790.659;11556.191;  -10.975;18338.736
791.227;11046.534;  -13.375;18508.615
791.795;11470.641;  -12.375;17898.254
792.364;11899.067;  -10.725;17295.133
792.932;12294.721;   -9.715;16822.051
793.500;12414.951;  -12.675;17040.148
794.068;12552.216;  -13.495;17179.787
794.636;12707.352;  -10.885;16664.246
795.204;12037.349;  -11.045;16524.545
795.772;12077.315;  -13.175;17274.564
796.340;11633.963;  -12.445;17891.002
796.908;11427.408;   -9.735;17648.561
797.476;11339.438;   -9.815;17064.080
798.044;10915.345;  -13.985;16672.777
798.612;10082.302;  -13.115;17023.996
799.180; 9699.171;  -10.185;16561.615
799.747; 9648.979;   -9.055;15962.773
800.315; 9359.547;  -12.385;15296.992
800.883; 9047.180;  -15.035;14801.771
801.450; 9122.950;  -10.365;14534.430
802.018; 9218.480;   -9.855;14173.248
802.585; 9332.075;  -11.905;14029.547
803.153; 9319.521;  -11.585;13836.846
803.720; 9104.047;   -9.095;13567.324
804.287; 8680.259;   -9.135;13360.622
804.855; 8247.098;  -11.604;13681.981
805.422; 8123.653;  -11.794;13536.560
805.989; 8174.091;  -10.734;13355.958
806.556; 8311.936;  -10.444;13747.896
807.124; 8510.113;  -12.764;13987.376
807.691; 8458.244;  -12.964;14038.674
808.258; 8301.483;  -11.134;14120.152
808.825; 8067.416;   -9.854;13860.111
809.392; 8154.024;  -10.504;13268.790
809.959; 7626.597;  -13.054;12680.389
810.526; 7134.340;   -8.294;12427.308
811.093; 7168.494;   -8.394;12030.105
811.659; 7841.091;  -12.304;11653.664
812.226; 8410.267;  -13.944;11637.183
812.793; 8146.606;  -10.484;11611.521
813.360; 7545.372;  -10.144;11885.181
813.926; 7228.894;  -11.684;12770.539
814.493; 6997.905;  -13.644;12677.638
815.060; 6555.518;   -9.724;11974.336
815.626; 6492.051;   -9.854;11594.715
816.193; 6862.459;  -13.254;11579.474
816.759; 6851.769;  -13.204;11666.972
817.325; 6877.876;   -9.434;11325.530
817.892; 7274.968;  -10.134;11105.369
818.458; 7765.893;  -13.474;10843.928
819.024; 7458.974;  -11.854;10714.406
819.591; 7186.021;  -10.244;10469.165
820.157; 6949.642;  -10.704;10235.523
820.723; 6372.751;  -12.324;10847.563
821.289; 6033.741;   -9.444;11040.980
821.855; 5988.099;   -8.374;10357.100
822.421; 6049.682;  -10.234; 9978.918
822.987; 6099.056;  -13.294; 9754.177
823.553; 5748.311;  -10.884;10065.755
824.119; 5518.932;   -8.884;10036.294
824.685; 5621.023;   -6.784;10029.192
825.251; 5728.135;  -12.004;10199.230
825.816; 5695.548;  -11.474; 9820.189
826.382; 5440.853;   -9.174; 9297.248
826.948; 5604.155;   -9.214; 9381.347
827.513; 6021.111;  -10.774; 9450.726
828.079; 5860.149;  -11.924; 9472.444
828.645; 5236.270;  -10.543; 9292.643
829.210; 5091.022;  -10.533; 9065.341
829.776; 5074.094;  -10.753; 9132.620
830.341; 4968.309;  -10.173; 9092.878
830.906; 5167.971;  -10.743; 9078.557
831.472; 5543.250;  -11.113; 8534.535
832.037; 5322.191;  -10.603; 8677.874
832.602; 4779.634;  -13.323; 8628.692
833.167; 4502.460;  -10.823; 8879.031
833.733; 4438.459;  -10.113; 9189.790
834.298; 4594.935;  -13.583; 9052.608
834.863; 4688.568;  -12.703; 8895.087
835.428; 4662.524;  -10.523; 8824.266
835.993; 4483.875;   -6.963; 8845.385
836.558; 4276.412;  -10.763; 8888.563
837.123; 4377.269;   -9.903; 8966.582
837.688; 4623.667;   -9.913; 8617.860
838.253; 4915.547;  -10.283; 8590.699
838.817; 5155.521;  -12.963; 8443.797
839.382; 5072.481;  -14.243; 8799.356
839.947; 4743.125;  -10.733; 8810.595
840.511; 4433.541;   -9.383; 8796.394
841.076; 4021.828;  -12.563; 8347.231
841.641; 4028.211;  -12.953; 8224.330
842.205; 4106.129;   -7.043; 8223.349
842.770; 4187.631;   -8.163; 8622.107
843.334; 4334.169;  -12.503; 8410.386
843.898; 4255.364;  -11.693; 8337.465
844.463; 4271.610;  -10.203; 8506.283
845.027; 4058.931;   -9.533; 8280.962
845.591; 3872.989;  -13.443; 8231.141
846.156; 3880.551;  -13.143; 7969.179
846.720; 3782.919;   -9.433; 7768.278
847.284; 3666.705;  -11.033; 7630.957
847.848; 3545.441;  -10.403; 7472.395
848.412; 3470.232;  -11.553; 7437.394
848.976; 3528.959;   -8.393; 7674.592
849.540; 3442.600;   -8.713; 7836.011
850.104; 3533.421;  -12.463; 7913.669
850.668; 3895.314;  -12.973; 7694.508
851.232; 4011.653;  -10.793; 7756.887
851.796; 3851.309;  -10.662; 7926.545
852.359; 3554.563;  -13.082; 7827.844
852.923; 3376.103;  -12.192; 7641.163
853.487; 3189.358;  -11.912; 7342.501
854.050; 3166.313;  -10.892; 7042.820
854.614; 3328.939;  -13.992; 7151.338
855.177; 3464.053;  -11.732; 7105.077
855.741; 3485.302;   -8.962; 6989.675
856.304; 3345.099;   -9.442; 6596.634
856.868; 3290.026;  -14.192; 6356.272
857.431; 3370.680;  -12.702; 6468.571
857.995; 3463.195;   -9.942; 6373.210
858.558; 3466.120;   -9.112; 6324.448
859.121; 3189.636;  -12.932; 6408.327
859.684; 3065.862;  -13.442; 6347.886
860.247; 3198.937;  -10.632; 6321.264
860.810; 3224.237;  -11.272; 6301.903
861.374; 2967.818;   -9.832; 6607.881
861.937; 2701.940;  -11.762; 6408.200
862.500; 2690.810;   -9.722; 6572.639
863.062; 2865.856;  -10.512; 6387.297
863.625; 3053.218;  -11.232; 6190.836
864.188; 3217.632;  -14.112; 5807.254
864.751; 3272.294;  -11.302; 5682.413
865.314; 3156.235;  -10.112; 5547.492
865.876; 2925.185;  -12.182; 5500.150
866.439; 2889.015;  -10.722; 5415.909
867.002; 2842.307;   -9.252; 5501.567
867.564; 2649.383;   -9.572; 5413.946
868.127; 2442.385;  -13.142; 5160.325
868.689; 2347.997;  -12.902; 5133.183
869.252; 2257.523;   -9.732; 5252.382
869.814; 2163.011;   -9.432; 5297.141
870.377; 2156.412;  -11.552; 5390.919
870.939; 2211.264;   -9.052; 5599.898
871.501; 2276.449;  -10.982; 5248.336
872.063; 2285.775;  -12.292; 4854.235
872.626; 2244.061;  -14.912; 4817.074
873.188; 2264.174;  -13.112; 4987.732
873.750; 2227.084;  -13.442; 4868.651
874.312; 2118.970;   -9.402; 4779.330
874.874; 2028.536;  -11.062; 4866.348
875.436; 1944.269;  -13.931; 4718.887
875.998; 1937.942;   -9.561; 4660.005
876.560; 1969.385;  -11.321; 4462.964
877.122; 1910.868;  -12.221; 4145.042
877.683; 1811.398;  -12.191; 4056.481
878.245; 1740.328;  -12.101; 3950.740
878.807; 1781.867;   -8.971; 4058.958
879.369; 1803.755;  -12.071; 3954.677
879.930; 1705.181;  -14.621; 3941.495
880.492; 1637.364;  -10.311; 4067.014
881.053; 1608.541;  -10.901; 3859.633
881.615; 1511.141;  -14.411; 3776.071
882.176; 1410.006;  -13.761; 3734.750
882.738; 1351.253;   -9.181; 3678.489
883.299; 1321.643;  -11.791; 3405.407
883.860; 1321.510;  -13.121; 3351.106
884.422; 1323.250;  -11.211; 3394.044
884.983; 1282.885;  -10.091; 3166.443
885.544; 1210.143;   -8.461; 3189.802
886.105; 1129.578;  -12.361; 3160.360
886.666; 1055.680;  -14.141; 3093.059
887.227;  994.696;  -11.361; 2941.957
887.788;  929.154;  -11.401; 2974.836
888.349;  868.735;  -13.791; 2721.214
888.910;  863.550;  -13.191; 2696.493
889.471;  867.470;   -9.881; 2560.172
890.032;  853.429;   -9.881; 2558.190
890.593;  830.218;  -10.371; 2567.669
891.153;  802.196;  -13.301; 2460.307
891.714;  753.729;  -11.431; 2372.046
892.275;  717.756;  -11.291; 2309.505
892.835;  683.122;  -11.471; 2382.543
893.396;  632.156;  -11.541; 2295.502
893.956;  575.351;  -11.181; 2162.420
894.517;  536.836;  -11.741; 2125.439
895.077;  526.586;  -11.671; 2086.978
895.638;  525.836;  -11.311; 2126.316
896.198;  496.428;   -9.831; 1838.275
896.758;  452.031;   -8.421; 1892.813
897.319;  421.953;  -12.351; 1792.232
897.879;  405.227;  -13.511; 1762.751
898.439;  380.188;  -12.001; 1661.149
898.999;  356.632;  -10.180; 1781.468
899.559;  348.253;  -12.030; 1703.347
900.119;  344.300;  -15.710; 1537.525
900.679;  339.784;   -8.900; 1638.384
901.239;  323.801;   -8.340; 1527.902
901.799;  312.949;  -13.910; 1456.441
902.359;  306.363;  -13.460; 1357.140
902.919;  300.482;  -11.490; 1331.118
903.479;  287.345;  -12.110; 1317.257
904.038;  265.875;  -11.720; 1262.595
904.598;  249.990;  -13.610; 1152.034
905.158;  246.123;  -11.040; 1240.893
905.717;  239.340;  -10.900; 1233.691
906.277;  227.551;  -15.080; 1217.330
906.836;  217.974;  -13.380; 1222.408
907.396;  209.590;  -10.780; 1193.047
907.955;  202.339;   -8.500; 1182.526
908.515;  195.923;  -12.760; 1099.364
909.074;  189.305;  -11.900; 1092.863
909.633;  184.553;   -8.950; 1069.121
910.192;  179.832;   -8.770; 1196.460
910.752;  174.110;  -12.390; 1029.960
911.311;  170.158;  -13.680; 1009.780
911.870;  166.651;  -12.370;  971.460
912.429;  168.465;  -10.900; 1094.080
912.988;  167.069;  -11.690; 1081.060
913.547;  162.197;  -13.240;  940.380
914.106;  157.295;  -11.990;  999.420
914.665;  153.258;   -9.990;  984.020
915.224;  153.256;  -12.880; 1035.760
915.782;  153.483;  -12.350;  922.560
916.341;  153.419;   -9.110; 1049.840
916.900;  148.757;   -9.270;  925.260
917.458;  147.203;  -13.240;  884.220
918.017;  145.868;  -13.550;  942.600
918.576;  145.924;  -12.320;  904.440
919.134;  144.340;  -11.490;  837.980
919.693;  141.578;  -13.670;  893.060
920.251;  140.415;  -15.470;  876.500
920.809;  139.468;  -11.290;  839.580
921.368;  139.330;  -10.210;  885.360
921.926;  138.019;  -12.140;  842.940
922.484;  136.676;  -13.080;  903.360
923.042;  136.955;  -11.720;  880.340
923.601;  139.745;   -7.480;  998.680
924.159;  137.328;  -11.570;  935.560
924.717;  134.250;  -13.840;  841.080
925.275;  134.260;  -10.640;  903.240
925.833;  133.825;  -11.540;  779.320
926.391;  135.093;  -12.960;  938.380
926.949;  133.210;  -14.130;  857.680
927.506;  133.950;  -11.750;  903.500
928.064;  134.927;  -10.250;  877.580
928.622;  133.162;  -13.030;  880.100
929.180;  132.822;  -13.400;  814.180
929.737;  133.975;  -10.700;  808.540
930.295;  137.626;  -10.070;  928.480
930.853;  139.430;  -11.960;  849.100
931.410;  139.414;  -13.120;  821.120
931.968;  139.257;  -10.770;  940.660
932.525;  139.398;  -10.680;  909.380
933.082;  139.599;  -13.130;  811.440
933.640;  140.831;  -13.210;  925.900
934.197;  139.013;  -11.060;  886.360
934.754;  139.915;   -9.580;  897.780
935.312;  142.632;  -14.000;  863.340
935.869;  146.429;  -10.710; 1012.980
936.426;  147.641;   -9.860;  872.800
936.983;  148.356;   -9.710;  889.020
937.540;  147.450;  -13.990;  838.280
938.097;  146.710;  -14.040;  940.120
938.654;  147.700;  -10.310;  898.860
939.211;  149.661;  -10.560;  952.480
939.768;  153.680;  -13.900;  915.420
940.324;  157.123;  -14.760;  904.200
940.881;  158.159;  -10.370;  878.500
941.438;  160.259;   -8.260; 1021.200
941.995;  155.795;  -12.540;  992.560
942.551;  153.125;  -14.670;  875.620
943.108;  154.041;  -10.450;  937.920
943.664;  156.146;  -10.750;  869.340
944.221;  159.040;  -11.550; 1088.140
944.777;  157.075;  -14.770;  869.680
945.334;  157.096;  -12.820;  884.840
945.890;  159.599;  -10.130;  946.480
946.446;  159.688;  -13.470;  947.020
947.003;  161.181;  -12.120;  964.940
947.559;  164.524;   -9.980; 1063.040
948.115;  163.873;   -9.080; 1026.540
948.671;  160.511;  -10.830;  967.300
949.227;  158.135;  -12.440;  859.560
949.783;  155.786;  -12.910;  858.900
950.339;  157.190;  -10.270;  991.000
950.895;  157.219;  -13.630; 1023.840
951.451;  156.810;  -15.100;  925.280
952.007;  157.375;  -11.330;  998.540
952.563;  158.772;  -10.580;  937.780
953.118;  157.207;  -13.440;  904.940
953.674;  157.086;  -12.710;  935.780
954.230;  157.073;  -10.350;  949.640
954.785;  155.091;   -9.190;  936.640
955.341;  151.965;  -11.200;  998.160
955.897;  150.110;  -16.560;  834.660
956.452;  151.714;  -12.570;  953.840
957.008;  150.939;   -7.970; 1083.640
957.563;  147.745;  -11.940; 1009.540
958.118;  142.494;  -13.450;  877.700
958.674;  142.296;  -12.030;  946.780
959.229;  144.470;   -9.410; 1013.980
959.784;  142.194;  -12.000;  832.400
960.339;  141.912;  -14.780; 1001.280
960.894;  138.529;   -9.860;  963.760
961.449;  134.926;   -9.970;  859.960
962.004;  134.922;  -10.900; 1212.840
962.559;  128.720;  -13.150;  860.140
963.114;  126.853;  -13.740;  742.480
963.669;  126.545;   -9.820;  915.500
964.224;  125.784;  -13.890;  874.340
964.779;  125.188;  -12.600;  828.420
965.334;  126.094;  -10.950; 1017.860
965.888;  125.804;  -11.170;  875.360
966.443;  128.646;  -12.540;  972.380
966.998;  129.037;  -15.780;  819.460
967.552;  127.336;   -9.760;  908.380
968.107;  123.818;   -9.060;  868.300
968.661;  123.916;  -11.950;  922.440
969.216;  124.935;  -12.800;  856.280
969.770;  125.484;  -11.210;  917.200
970.324;  124.721;  -11.610;  923.140
970.879;  124.026;  -11.370;  947.180
971.433;  120.932;  -12.540;  952.720
971.987;  114.789;  -11.320;  895.340
972.541;  107.773;  -10.720;  917.100
973.095;  101.082;   -9.680; 1009.460
973.649;   91.331;  -11.440;  809.480
974.203;   84.339;  -11.210;  829.040
974.757;   82.042;  -10.240;  855.220
975.311;   81.162;  -13.720;  872.600
975.865;   82.764;  -13.770;  881.820
976.419;   84.621;  -11.690;  857.400
976.973;   86.920;   -9.510;  849.620
977.526;   89.778;  -12.620;  949.920
978.080;   89.911;  -12.010;  796.780
978.634;   91.737;  -10.170;  921.320
979.187;   91.646;   -9.020;  905.400
979.741;   89.285;   -9.820; 1018.380
980.294;   85.299;  -14.870;  789.160
980.848;   84.204;  -12.380;  717.220
981.401;   86.058;  -10.350;  816.540
981.955;   88.385;  -13.720;  844.300
982.508;   87.758;  -11.490;  746.340
983.061;   88.664;  -10.000;  915.260
983.615;   85.131;  -11.480;  798.800
984.168;   81.599;  -13.220;  770.080
984.721;   81.644;  -13.960;  880.760
985.274;   81.617;  -10.870;  867.500
985.827;   80.673;   -9.790;  834.220
986.380;   79.081;  -13.120;  721.340
986.933;   77.673;  -12.450;  864.800
987.486;   76.228;  -10.210;  861.920
988.039;   76.178;   -8.430;  863.100
988.591;   73.444;  -10.520;  893.260
989.144;   72.175;  -14.860;  737.260
989.697;   71.689;  -13.080;  758.740
990.250;   71.595;  -10.150;  858.100
990.802;   70.852;  -13.430;  755.860
991.355;   71.521;  -12.750;  974.880
991.907;   69.080;  -12.040;  864.320
992.460;   66.639;  -11.330;  753.760
993.012;   66.547;  -13.610;  749.540
993.565;   64.608;  -13.460;  711.360
994.117;   67.203;   -9.360;  950.780
994.669;   63.759;  -11.300;  701.320
995.221;   61.895;  -13.540;  791.920
995.774;   59.889;  -13.430;  787.580
996.326;   59.436;  -12.520;  740.220
996.878;   59.121;  -10.950;  838.420
997.430;   56.599;  -14.300;  699.860
997.982;   54.613;  -13.760;  750.140
998.534;   53.526;  -11.530;  739.060
999.086;   51.167;  -10.310;  738.220
999.638;   49.044;  -12.530;  661.380
1000.190;   48.296;  -11.840;  699.320
1000.741;   49.446;  -10.260;  742.700
1001.293;   49.616;   -8.860;  686.020
1001.845;   47.984;  -13.700;  676.640
1002.396;   48.454;  -12.100;  743.400
1002.948;   48.198;  -12.760;  737.400
1003.500;   46.787;  -10.380;  723.780
1004.051;   47.713;  -11.900;  907.580
1004.603;   45.502;  -12.250;  791.820
1005.154;   42.889;  -13.210;  608.980
1005.705;   42.344;  -10.950;  723.960
1006.257;   40.775;  -13.880;  707.220
1006.808;   40.053;  -12.840;  685.460
1007.359;   39.994;  -10.570;  763.240
1007.910;   39.331;   -9.620;  646.640
1008.461;   38.882;  -13.630;  732.940
1009.013;   38.031;  -17.200;  588.340
1009.564;   39.121;  -10.200;  793.520
1010.115;   37.260;  -12.570;  597.040
1010.665;   36.692;  -15.150;  602.160
1011.216;   37.141;  -14.480;  667.920
1011.767;   35.606;  -11.340;  697.920
1012.318;   36.089;   -9.780;  736.980
1012.869;   34.916;  -12.380;  679.000
1013.419;   34.521;  -15.560;  603.120
1013.970;   35.339;  -11.010;  666.640
1014.521;   34.665;  -11.610;  620.620
1015.071;   34.475;  -13.450;  670.380
1015.622;   33.974;  -13.870;  635.460
1016.172;   33.158;  -11.610;  596.820
1016.723;   33.311;  -12.120;  614.380
1017.273;   33.403;  -13.620;  604.160
1017.823;   33.754;  -14.140;  650.340
1018.374;   32.534;  -12.800;  611.760
1018.924;   32.947;  -12.340;  716.880
1019.474;   32.749;  -11.410;  718.880
1020.024;   31.723;  -14.770;  657.580
1020.574;   33.068;   -9.780;  726.160
1021.124;   32.598;   -8.560;  673.580
1021.674;   31.827;  -15.190;  559.120
1022.224;   32.055;  -13.530;  708.940
1022.774;   32.030;  -13.280;  668.820
1023.324;   32.469;  -10.690;  753.520
1023.874;   32.885;  -10.240;  875.760
1024.423;   30.460;  -12.540;  613.700
1024.973;   29.996;  -10.010;  610.760
1025.523;   29.848;  -10.550;  620.960
1026.072;   29.611;  -13.560;  606.420
1026.622;   29.110;  -15.120;  675.740
1027.172;   30.285;  -11.260;  715.660
1027.721;   29.232;  -11.410;  601.220
1028.270;   28.722;  -13.530;  663.400
1028.820;   29.133;  -13.680;  638.080
1029.369;   29.090;  -13.520;  612.700
1029.918;   29.425;  -10.980;  649.840
1030.468;   27.630;  -13.530;  564.780
1031.017;   28.705;  -13.170;  634.800
1031.566;   27.852;  -12.200;  608.900
1032.115;   28.158;   -9.960;  694.500
1032.664;   27.036;  -13.210;  596.480
1033.213;   27.766;  -12.500;  735.420
1033.762;   27.629;  -11.910;  635.620
1034.311;   27.314;   -9.640;  677.220
1034.860;   27.549;  -13.310;  691.000
1035.408;   26.883;  -11.830;  722.720
1035.957;   27.013;  -12.000;  719.540
1036.506;   25.551;  -11.690;  530.800
1037.055;   26.912;  -10.990;  844.320
1037.603;   26.116;  -15.120;  664.000
1038.152;   24.916;  -12.450;  534.760
1038.700;   24.995;  -10.560;  585.740
1039.249;   24.974;  -11.080;  681.220
1039.797;   25.240;  -12.540;  633.360
1040.345;   25.233;  -11.920;  705.420
1040.894;   25.069;  -11.410;  625.300
1041.442;   24.785;  -14.320;  632.200
1041.990;   23.800;  -16.240;  559.160
1042.538;   22.962;  -11.680;  536.180
1043.087;   23.904;  -10.760;  570.860
1043.635;   24.054;  -11.850;  670.500
1044.183;   23.161;  -15.480;  586.400
1044.731;   22.854;  -11.770;  576.000
1045.279;   23.365;  -13.090;  674.920
1045.827;   24.858;  -12.440;  892.400
1046.374;   22.429;  -13.840;  515.420
1046.922;   21.244;  -13.220;  590.580
1047.470;   23.911;  -10.230;  691.300
1048.018;   23.528;  -14.590;  647.960
1048.565;   23.229;  -12.050;  708.600
1049.113;   21.704;  -11.650;  557.000
1049.660;   21.720;  -10.510;  629.660
1050.208;   22.308;  -13.310;  675.640
1050.755;   21.452;  -15.900;  606.580
1051.303;   21.799;  -11.430;  686.820
1051.850;   21.255;   -8.480;  635.120
1052.397;   19.271;  -15.010;  473.960
1052.945;   19.808;  -13.960;  617.760
1053.492;   21.858;  -13.150;  741.840
1054.039;   22.112;   -9.630;  720.180
1054.586;   20.298;  -13.680;  557.240
1055.133;   20.432;  -14.570;  693.140
1055.680;   20.703;  -13.820;  646.620
1056.227;   20.264;  -11.730;  542.780
1056.774;   21.767;  -12.480;  794.980
1057.321;   18.440;  -13.930;  523.260
1057.868;   19.502;  -11.690;  651.320
1058.415;   19.952;   -9.520;  651.980
1058.961;   19.726;  -13.160;  678.940
1059.508;   19.378;  -12.920;  643.820
1060.055;   18.822;  -11.920;  581.780
1060.601;   19.864;  -11.500;  624.300
1061.148;   19.632;  -14.330;  616.820
1061.694;   17.829;  -16.870;  592.580
1062.241;   18.176;  -10.330;  596.320
1062.787;   18.779;  -10.620;  663.140
1063.334;   19.540;  -10.110;  808.560
1063.880;   18.088;  -13.400;  668.360
1064.426;   18.408;  -10.680;  706.820
1064.972;   17.700;   -9.920;  601.340
1065.518;   16.976;  -10.980;  566.640
1066.065;   17.732;  -14.890;  624.460
1066.611;   17.285;  -12.870;  598.800
1067.157;   18.519;  -12.950;  641.860
1067.703;   17.452;  -13.540;  668.480
1068.249;   16.571;  -13.540;  605.220
1068.794;   17.226;  -12.600;  626.880
1069.340;   16.232;  -10.620;  578.960
1069.886;   17.203;  -12.830;  590.700
1070.432;   15.712;  -14.870;  541.720
1070.977;   16.363;  -11.980;  601.080
1071.523;   16.761;   -8.200;  573.060
1072.068;   16.003;  -12.330;  582.000
1072.614;   15.651;  -16.370;  527.760
1073.160;   16.765;  -11.100;  687.040
1073.705;   15.896;  -10.480;  572.520
1074.250;   15.319;  -14.520;  559.900
1074.796;   16.346;  -11.460;  655.160
1075.341;   15.590;  -11.950;  664.100
1075.886;   15.723;  -11.460;  594.240
1076.431;   15.026;  -13.770;  649.880
1076.976;   14.449;  -12.680;  639.220
1077.521;   14.451;  -13.170;  583.080
1078.067;   14.379;  -10.860;  579.400
1078.612;   14.402;  -13.920;  661.620
1079.156;   14.272;  -13.880;  601.540
1079.701;   15.037;  -13.120;  693.260
1080.246;   15.703;   -9.940;  696.300
1080.791;   14.788;  -14.740;  625.020
1081.336;   14.779;  -13.750;  659.320
1081.880;   14.141;  -13.400;  649.680
1082.425;   13.645;  -12.220;  573.480
1082.970;   14.388;  -11.610;  717.040
1083.514;   13.511;  -13.580;  597.000
1084.059;   12.794;  -12.810;  586.720
1084.603;   13.165;  -12.320;  565.840
1085.147;   13.167;  -13.190;  645.220
1085.692;   13.794;  -12.480;  716.800
1086.236;   12.725;  -13.020;  503.140
1086.780;   14.320;   -9.190;  751.440
1087.325;   13.455;  -12.480;  654.620
1087.869;   13.113;  -12.450;  610.700
1088.413;   13.399;  -12.240;  705.040
1088.957;   11.882;   -9.020;  543.400
1089.501;   13.309;  -10.320;  766.640
1090.045;   12.890;  -12.720;  726.480
1090.589;   11.414;  -13.690;  569.920
1091.133;   12.666;  -10.020;  673.340
1091.676;   12.575;  -12.330;  591.940
1092.220;   11.470;  -14.970;  600.920
1092.764;   12.497;  -12.430;  706.960
1093.307;   12.231;   -9.800;  673.780
1093.851;   10.967;  -14.970;  556.540
1094.395;   11.630;  -15.310;  683.140
1094.938;   11.528;  -10.370;  632.520
1095.482;   11.525;  -11.050;  559.800
1096.025;   12.082;  -11.840;  710.880
1096.568;   12.292;  -12.840;  779.280
1097.112;    9.255;  -14.700;  508.180
1097.655;   11.161;   -8.720;  603.000
1098.198;    9.559;  -13.610;  600.180
1098.741;    9.962;  -13.350;  612.860
1099.285;   10.820;  -11.230;  657.300
1099.828;    9.449;  -11.840;  439.400
1100.371;   10.172;  -10.840;  608.160
1100.914;    9.564;  -14.190;  682.660
1101.457;   10.405;  -11.240;  679.900
1101.999;    9.426;  -11.270;  584.680
1102.542;    9.753;  -11.480;  641.440
1103.085;    9.284;  -11.750;  658.500
1103.628;    9.214;  -11.400;  762.060
1104.170;    9.739;  -10.490;  588.280
1104.713;    9.064;  -10.600;  646.700
1105.256;    8.107;  -14.360;  557.440
1105.798;    8.268;  -13.210;  499.980
1106.341;   10.676;  -10.270;  728.900
1106.883;    8.720;  -12.200;  521.340
1107.425;    8.743;  -13.110;  668.180
1107.968;    8.535;  -12.840;  612.380
1108.510;    9.027;   -6.480;  684.960
1109.052;    7.575;  -13.940;  612.620
1109.594;    7.274;  -13.690;  554.440
1110.136;    8.456;  -11.880;  643.220
1110.679;    8.226;   -9.500;  633.080
1111.221;    8.362;  -14.160;  604.460
1111.763;    6.999;  -13.980;  559.220
1112.304;    7.457;  -13.880;  547.140
1112.846;    8.349;  -12.210;  666.240
1113.388;   10.535;  -11.390;  942.180
1113.930;    7.591;  -14.540;  694.200
1114.472;    6.490;  -12.640;  606.540
1115.013;    6.456;  -11.620;  551.280
1115.555;    6.795;  -13.640;  587.100
1116.097;    5.367;  -15.380;  579.480
1116.638;    6.715;  -12.640;  684.600
1117.180;    8.020;   -9.850;  667.740
1117.721;    7.086;  -13.690;  568.580
1118.262;    6.551;  -12.680;  677.960
1118.804;    7.002;  -12.530;  637.340
1119.345;    6.236;  -11.690;  578.400
1119.886;    7.050;  -13.380;  704.040
1120.427;    5.662;  -14.070;  589.020
1120.969;    5.531;  -13.500;  597.920
1121.510;    4.974;  -11.480;  563.060
1122.051;    5.496;  -12.830;  723.580
1122.592;    5.290;  -14.290;  655.420
1123.133;    4.289;  -12.400;  547.940
1123.673;    6.382;  -10.130;  706.480
1124.214;    5.036;  -12.930;  612.460
1124.755;    5.892;  -14.380;  639.460
1125.296;    5.645;  -14.000;  627.320
1125.836;    6.893;  -10.070;  691.500
1126.377;    4.880;  -12.640;  599.660
1126.918;    5.240;  -12.960;  614.980
1127.458;    4.675;  -13.350;  622.220
1127.999;    5.982;  -10.750;  656.980
1128.539;    5.632;  -12.350;  694.240
1129.079;    4.638;  -14.860;  632.720
1129.620;    4.016;  -13.840;  558.100
1130.160;    4.141;  -12.330;  539.480
1130.700;    4.599;  -14.530;  640.840
1131.240;    4.593;  -12.530;  643.700
1131.781;    4.298;  -14.450;  619.680
1132.321;    4.703;   -9.790;  599.120
1132.861;    2.534;  -14.860;  564.200
1133.401;    4.063;  -14.290;  593.940
1133.941;    3.989;  -11.750;  626.280
1134.481;    3.340;   -9.920;  597.580
1135.020;    3.392;  -12.290;  609.160
1135.560;    3.033;  -11.650;  674.940
1136.100;    3.083;  -16.270;  501.160
1136.640;    2.684;  -10.890;  510.480
1137.179;    2.992;  -14.180;  537.960
1137.719;    2.926;  -16.250;  605.400
1138.258;    3.345;  -14.230;  587.360
1138.798;    3.708;   -9.090;  663.780
1139.337;    1.961;  -15.130;  482.840
1139.877;    2.759;  -13.680;  642.360
1140.416;    4.911;  -11.320;  878.060
1140.955;    2.578;  -10.860;  535.380
1141.494;    2.815;  -12.920;  669.280
1142.034;    1.764;  -13.930;  583.520
1142.573;    3.088;  -11.440;  646.280
1143.112;    2.378;  -12.000;  553.480
1143.651;    2.452;  -13.670;  536.480
1144.190;    3.197;  -12.730;  691.640
1144.729;    1.848;  -14.560;  607.420
1145.267;    3.160;  -11.830;  584.900
1145.806;    3.583;  -12.230;  637.040
1146.345;    1.187;  -14.130;  635.020
1146.884;    1.794;  -11.590;  622.500
1147.422;    0.731;  -12.550;  533.060
1147.961;    3.374;  -11.180;  708.460
1148.500;    2.373;  -11.510;  669.720
1149.038;    2.476;  -11.640;  632.500
1149.577;    2.560;  -10.130;  698.640
1150.115;    0.622;  -13.970;  452.280
1150.653;    1.133;  -14.520;  607.340
1151.192;    0.920;  -12.810;  552.920
1151.730;    1.737;   -9.100;  652.560
1152.268;   -0.212;  -12.220;  589.520
1152.806;    0.748;  -14.140;  571.180
1153.344;   -0.377;  -12.350;  577.640
1153.882;    1.158;   -8.980;  600.060
1154.421;   -0.087;  -15.190;  470.620
1154.958;   -0.062;  -15.210;  595.240
1155.496;    2.187;  -12.850;  645.280
1156.034;    1.262;   -9.940;  721.880
1156.572;    2.183;  -13.570;  667.060
1157.110;   -1.089;  -14.590;  473.940
1157.647;    1.283;  -13.030;  676.960
1158.185;    0.200;  -12.140;  564.320
1158.723;   -0.431;  -14.390;  509.200
1159.260;    0.331;  -14.090;  701.700
1159.798;    0.834;  -11.920;  658.160
1160.335;    0.122;  -11.110;  631.820

