
Integration time [ms]:   3.276
Averaging Nr. [scans]: 1000
Smoothing Nr. [pixels]: 0
Data measured with spectrometer [name]: 7414430SP
Wave   ;Sample   ;Dark     ;Reference
[nm]   ;[counts] ;[counts] ;[counts] 

288.544;  157.155;    7.793;  793.890
289.143;  159.817;    7.462;  681.602
289.742;  160.527;    8.602;  828.814
290.341;  147.351;    1.321;  789.841
290.940;  138.379;   -0.709;  730.702
291.538;  138.155;    0.881;  881.108
292.137;  137.386;    0.122;  792.581
292.736;  140.894;   -1.929;  975.101
293.335;  137.424;   -8.229;  735.086
293.934;  137.018;   -5.279;  781.677
294.532;  136.969;   -1.369; 1031.958
295.131;  123.893;   -7.641;  834.394
295.730;  124.318;   -8.420;  809.588
296.328;  122.470;   -5.611;  783.442
296.927;  121.095;   -5.781;  779.652
297.525;  122.220;   -6.361;  781.236
298.124;  112.603;  -11.382;  654.009
298.722;  116.236;   -7.641;  761.933
299.321;  115.336;   -6.811;  708.597
299.919;  112.866;   -6.991;  751.918
300.518;  108.470;  -10.362;  689.338
301.116;  110.071;   -9.581;  691.381
301.715;  110.130;   -4.891;  730.222
302.313;  110.503;   -8.801;  704.943
302.911;  105.430;   -8.522;  733.830
303.509;  108.696;   -6.171;  925.627
304.108;  107.517;   -7.311;  760.383
304.706;  107.028;   -8.321;  801.664
305.304;  100.672;  -10.222;  796.707
305.902;  106.754;   -6.021;  784.484
306.500;  102.299;   -4.971;  728.200
307.098;  100.202;   -7.061;  746.560
307.696;   98.518;   -8.801;  780.432
308.294;   98.675;   -6.411;  731.359
308.892;  101.423;   -2.901;  759.769
309.490;   96.646;   -5.041;  712.161
310.088;   94.003;   -5.002;  788.444
310.686;   99.305;   -2.041;  821.749
311.284;   94.878;   -2.351;  766.040
311.882;   91.975;   -4.422;  731.225
312.480;   88.708;   -4.192;  697.167
313.078;   90.974;   -1.172;  808.331
313.675;   91.533;   -2.601;  691.600
314.273;   86.509;   -1.312;  797.837
314.871;   85.345;   -3.942;  589.829
315.468;   83.794;   -2.802;  652.090
316.066;   87.302;   -0.701;  694.427
316.664;   79.002;   -4.362;  656.351
317.261;   82.268;   -2.872;  910.128
317.859;   78.846;   -2.022;  768.735
318.456;   79.090;   -0.531;  830.096
319.054;   74.606;   -3.912;  787.828
319.651;   73.296;   -4.752;  759.928
320.249;   72.339;   -2.602;  810.188
320.846;   70.680;   -0.821;  714.286
321.443;   67.598;   -4.642;  832.135
322.041;   64.943;   -5.002;  812.315
322.638;   62.139;   -3.982;  701.456
323.235;   64.067;   -3.411;  665.683
323.833;   60.558;   -7.361;  740.354
324.430;   55.375;   -8.611;  615.900
325.027;   57.162;   -4.061;  876.855
325.624;   56.957;   -4.031;  644.532
326.221;   54.292;   -7.481;  689.717
326.818;   52.726;   -5.281;  818.332
327.415;   55.831;   -7.460;  748.828
328.012;   55.387;   -5.510;  690.585
328.609;   53.780;   -7.880;  731.389
329.206;   51.435;   -8.331;  778.621
329.803;   50.982;   -5.121;  737.841
330.400;   54.759;   -4.510;  704.260
330.997;   57.062;   -6.441;  817.147
331.594;   55.042;   -8.831;  788.185
332.191;   59.695;   -7.621;  728.722
332.787;   63.093;   -4.591;  844.463
333.384;   62.999;   -7.412;  763.093
333.981;   60.695;   -8.293;  815.687
334.578;   63.307;   -7.052;  708.378
335.174;   65.690;   -3.102;  731.469
335.771;   66.508;   -5.943;  836.456
336.367;   63.254;   -7.393;  710.631
336.964;   66.267;   -4.063;  793.266
337.561;   64.700;   -3.813;  731.112
338.157;   60.633;   -4.654;  911.916
338.754;   58.914;   -7.934;  796.589
339.350;   56.870;   -4.414;  722.493
339.946;   58.402;   -4.664;  773.135
340.543;   49.990;   -6.375;  846.136
341.139;   44.944;   -9.815;  720.836
341.735;   42.028;   -4.526;  772.593
342.332;   41.400;   -4.895;  691.472
342.928;   41.507;   -4.295;  795.394
343.524;   34.726;   -5.476;  761.684
344.120;   30.179;   -5.856;  738.562
344.716;   34.948;   -2.155;  723.717
345.313;   32.661;   -6.275;  795.342
345.909;   26.378;   -8.815;  627.336
346.505;   29.045;   -5.305;  740.247
347.101;   28.942;   -2.674;  827.864
347.697;   29.098;   -4.344;  785.398
348.293;   23.297;   -9.975;  627.244
348.889;   24.473;   -5.774;  745.914
349.485;   23.732;   -5.004;  688.205
350.081;   24.074;   -4.704;  772.592
350.676;   18.972;   -6.635;  691.606
351.272;   23.401;   -4.504;  809.530
351.868;   23.580;   -3.914;  780.497
352.464;   20.678;   -9.044;  723.932
353.059;   17.285;   -8.314;  646.017
353.655;   21.157;   -7.024;  777.063
354.251;   21.674;   -5.343;  759.845
354.846;   16.738;   -8.604;  740.646
355.442;   13.972;   -6.945;  753.071
356.038;   15.452;   -7.564;  751.708
356.633;   15.842;   -5.814;  728.594
357.229;   13.508;   -7.364;  724.757
357.824;   11.912;   -8.024;  703.600
358.420;   11.528;   -9.384;  679.726
359.015;   11.838;   -5.104;  695.357
359.610;   13.034;   -6.854;  763.920
360.206;    6.479;  -10.185;  603.240
360.801;    9.257;   -7.054;  646.503
361.396;   11.242;   -5.034;  725.975
361.992;    7.156;   -8.284;  668.220
362.587;    4.080;   -8.625;  670.160
363.182;    5.258;   -7.674;  689.631
363.777;    7.519;   -5.164;  738.242
364.372;    6.591;   -8.604;  737.314
364.967;    3.109;   -9.055;  680.744
365.563;    6.972;   -6.114;  815.567
366.158;    3.960;   -5.814;  685.161
366.753;    5.170;   -7.854;  649.263
367.348;    2.856;   -7.804;  746.056
367.942;    2.539;   -7.954;  697.298
368.537;    2.377;   -4.984;  754.245
369.132;    2.063;   -8.564;  703.428
369.727;   -1.457;   -8.855;  638.079
370.322;   -0.131;   -6.245;  580.186
370.917;   -1.331;   -6.425;  710.646
371.511;    2.207;   -6.294;  861.834
372.106;   -2.078;   -7.685;  776.964
372.701;   -5.128;   -7.335;  585.988
373.296;    0.355;   -4.564;  863.135
373.890;   -4.190;  -10.235;  647.840
374.485;   -6.209;   -7.885;  691.199
375.079;   -2.256;   -7.324;  738.685
375.674;   -1.444;   -3.494;  812.970
376.268;   -5.649;   -8.525;  691.759
376.863;  -11.657;  -10.086;  580.327
377.457;   -5.211;   -7.025;  662.490
378.052;   -6.941;   -3.585;  764.884
378.646;   -8.087;   -7.595;  741.167
379.240;   -8.621;   -8.335;  721.176
379.835;   -7.625;   -5.785;  636.978
380.429;   -8.937;   -4.335;  562.557
381.023;   -9.169;   -6.805;  779.205
381.617;  -11.007;   -9.195;  680.106
382.212;   -8.385;   -6.905;  685.303
382.806;   -7.660;   -3.745;  760.690
383.400;  -11.735;   -7.745;  672.281
383.994;  -12.549;   -9.765;  664.870
384.588;   -8.628;   -6.564;  697.701
385.182;   -7.335;   -5.344;  726.624
385.776;   -8.800;   -8.514;  706.875
386.370;  -11.803;   -9.555;  681.968
386.964;  -11.425;   -8.715;  684.155
387.558;   -9.042;   -6.174;  598.360
388.152;  -12.865;   -8.725;  681.959
388.745;  -10.807;   -7.965;  814.707
389.339;   -9.108;   -5.924;  747.642
389.933;   -8.913;   -5.524;  695.370
390.527;   -9.718;   -7.114;  859.029
391.120;  -15.699;  -10.725;  595.318
391.714;  -13.094;   -8.035;  711.633
392.308;  -10.305;   -3.574;  780.253
392.901;  -12.614;   -7.245;  642.460
393.495;  -15.009;   -9.285;  595.414
394.089;  -13.036;   -5.895;  760.452
394.682;  -14.179;   -4.295;  697.188
395.275;  -14.293;   -9.875;  719.927
395.869;  -15.659;   -8.485;  667.314
396.462;  -14.967;   -7.455;  616.609
397.056;   -9.859;   -5.424;  776.621
397.649;  -14.835;   -6.605;  731.575
398.242;  -12.608;   -8.224;  712.645
398.836;  -11.781;   -7.474;  766.408
399.429;  -12.413;   -7.094;  631.041
400.022;  -16.244;   -9.475;  665.902
400.615;  -13.400;   -7.145;  805.609
401.208;  -12.009;   -7.174;  691.451
401.802;  -14.375;   -5.515;  699.329
402.395;  -15.081;   -9.875;  683.502
402.988;  -15.960;   -8.845;  696.627
403.581;  -12.864;   -8.874;  646.878
404.174;  -10.877;   -5.324;  686.568
404.767;  -13.459;   -9.575;  638.583
405.360;  -16.286;  -10.965;  621.445
405.953;  -10.367;   -8.764;  759.034
406.545;  -10.082;   -7.514;  725.342
407.138;  -14.156;  -10.025;  618.350
407.731;  -13.660;  -10.034;  613.303
408.324;   -9.822;   -9.374;  660.554
408.917;   -9.862;   -6.534;  681.864
409.509;  -12.172;   -8.004;  740.396
410.102;  -14.143;   -9.875;  643.948
410.695;   -7.855;   -8.604;  665.758
411.287;   -9.563;   -6.794;  599.821
411.880;  -10.117;   -9.334;  585.421
412.472;  -13.752;  -10.254;  613.092
413.065;  -10.330;   -6.714;  629.408
413.657;   -8.164;   -7.234;  576.678
414.250;   -7.766;  -10.544;  646.681
414.842;   -9.702;   -9.744;  676.353
415.434;   -7.309;   -6.994;  570.463
416.027;   -4.130;   -5.893;  652.196
416.619;   -5.711;   -7.264;  713.400
417.211;   -7.204;  -10.374;  599.352
417.804;   -3.496;   -7.993;  628.499
418.396;   -6.502;   -7.234;  607.643
418.988;   -4.798;   -9.443;  659.238
419.580;   -8.538;  -10.724;  568.276
420.172;   -6.150;  -10.323;  536.196
420.764;   -1.434;   -8.793;  672.482
421.356;   -3.318;  -11.143;  636.898
421.948;   -4.025;   -8.293;  677.661
422.540;    1.228;   -7.893;  680.027
423.132;    0.799;   -7.082;  600.641
423.724;   -3.009;   -8.653;  561.267
424.316;   -0.852;  -10.213;  621.345
424.908;    2.191;   -9.762;  591.517
425.500;    3.839;   -5.572;  647.978
426.092;    3.697;   -8.422;  648.268
426.683;    2.702;   -9.283;  684.836
427.275;    5.484;   -7.852;  641.471
427.867;    6.915;   -5.272;  668.948
428.458;    6.311;   -7.682;  732.344
429.050;    6.484;  -10.612;  680.749
429.642;    8.394;   -9.882;  743.124
430.233;    9.156;   -6.962;  569.356
430.825;   10.480;   -6.842;  724.809
431.416;    6.933;   -9.672;  698.241
432.008;   11.248;   -6.552;  651.723
432.599;   11.384;   -6.891;  656.073
433.190;    8.520;  -10.912;  637.670
433.782;    7.648;  -11.172;  590.395
434.373;   14.776;   -6.061;  884.765
434.964;   13.760;   -8.251;  602.920
435.556;   12.125;   -9.722;  634.537
436.147;   14.207;   -9.082;  758.490
436.738;   14.367;   -8.041;  701.099
437.329;   20.059;   -7.341;  721.723
437.920;   12.373;   -8.162;  666.688
438.511;   11.896;  -11.802;  564.526
439.103;   19.383;  -10.191;  623.998
439.694;   21.757;   -7.601;  681.583
440.285;   21.788;   -8.541;  764.432
440.876;   19.837;   -9.751;  845.738
441.466;   19.325;   -9.401;  575.162
442.057;   24.804;   -7.760;  665.814
442.648;   23.947;   -9.971;  746.255
443.239;   21.480;  -11.001;  620.477
443.830;   26.482;   -7.990;  704.958
444.421;   28.703;   -7.910;  655.474
445.011;   24.469;   -8.131;  693.619
445.602;   24.776;   -7.111;  743.126
446.193;   26.881;  -10.920;  488.117
446.783;   31.041;   -6.500;  640.397
447.374;   26.519;   -8.671;  692.759
447.964;   26.998;  -10.781;  713.770
448.555;   35.965;   -9.650;  822.742
449.145;   32.340;   -8.660;  662.853
449.736;   33.312;   -8.990;  803.179
450.326;   32.566;   -9.500;  713.626
450.917;   37.326;   -8.680;  675.324
451.507;   35.992;   -7.520;  600.661
452.097;   37.188;   -8.590;  746.267
452.688;   37.929;  -11.340;  742.160
453.278;   38.257;  -10.100;  566.840
453.868;   42.359;   -6.019;  793.550
454.458;   40.761;   -9.440;  651.141
455.048;   40.213;  -10.560;  711.783
455.639;   42.621;  -11.799;  567.096
456.229;   46.364;   -6.899;  710.694
456.819;   47.002;   -7.389;  751.158
457.409;   47.462;  -11.119;  773.993
457.999;   50.458;   -9.289;  737.505
458.589;   50.186;   -6.139;  686.606
459.179;   50.240;   -8.729;  717.658
459.769;   48.621;   -9.789;  627.099
460.358;   53.284;  -10.259;  797.262
460.948;   53.092;   -7.299;  689.503
461.538;   54.749;  -10.289;  660.677
462.128;   52.698;  -11.269;  664.934
462.717;   59.616;   -9.368;  710.326
463.307;   62.708;   -7.908;  705.846
463.897;   58.602;   -9.599;  656.942
464.486;   56.890;   -9.769;  837.128
465.076;   61.560;   -8.048;  733.776
465.666;   65.144;   -9.358;  652.900
466.255;   62.996;   -7.919;  785.651
466.845;   62.013;  -11.689;  666.749
467.434;   65.183;   -7.818;  725.873
468.023;   66.065;   -7.678;  658.357
468.613;   64.180;  -10.939;  713.946
469.202;   68.901;  -10.118;  646.507
469.791;   72.992;   -9.108;  737.811
470.381;   74.324;   -6.058;  742.813
470.970;   74.641;  -10.428;  711.099
471.559;   73.787;  -10.268;  733.291
472.148;   76.731;   -8.448;  675.737
472.738;   78.973;   -6.917;  765.466
473.327;   79.965;  -11.978;  637.529
473.916;   78.428;  -11.888;  737.446
474.505;   82.737;   -9.437;  751.703
475.094;   86.347;   -6.747;  806.570
475.683;   85.562;   -9.367;  797.699
476.272;   86.669;  -12.637;  730.632
476.861;   88.978;  -10.027;  706.754
477.449;   96.154;   -8.716;  728.487
478.038;   90.477;   -9.577;  692.513
478.627;   90.818;   -9.718;  714.852
479.216;   98.262;   -8.947;  769.441
479.805;  101.017;   -6.256;  783.375
480.393;  100.781;   -7.937; 1008.945
480.982;   99.768;   -7.717;  874.501
481.571;  106.476;   -9.266;  858.333
482.159;  106.477;   -7.636;  705.386
482.748;  106.856;   -9.667;  821.385
483.336;  111.616;  -10.376;  858.209
483.925;  112.719;   -7.147;  774.373
484.513;  119.289;   -7.996;  758.962
485.102;  115.628;  -10.027;  810.965
485.690;  124.517;  -10.446; 1011.050
486.278;  125.762;   -8.446;  979.329
486.867;  127.160;   -6.356;  809.662
487.455;  129.806;   -9.136;  898.229
488.043;  131.359;  -10.646;  748.361
488.631;  139.502;   -7.456; 1005.079
489.220;  144.906;   -6.636;  908.626
489.808;  144.877;  -11.036;  741.415
490.396;  153.626;  -10.246;  914.645
490.984;  160.805;   -8.556;  830.161
491.572;  173.334;   -5.886;  940.315
492.160;  181.690;   -9.486;  919.081
492.748;  193.014;  -10.976;  884.341
493.336;  217.585;   -8.776; 1019.693
493.924;  251.775;   -5.465;  958.077
494.512;  292.110;   -9.986; 1066.638
495.100;  340.233;  -10.636; 1103.280
495.687;  411.568;  -10.885; 1206.373
496.275;  502.254;   -8.126; 1150.796
496.863;  595.909;  -10.586; 1281.171
497.451;  713.258;  -11.926; 1386.805
498.038;  829.124;  -10.885; 1556.729
498.626;  964.402;   -6.315; 1741.407
499.214; 1190.588;   -7.326; 2016.609
499.801; 1451.295;  -11.906; 2220.633
500.389; 1797.814;  -10.466; 2312.494
500.976; 2096.433;   -5.236; 2744.849
501.564; 2623.516;   -8.936; 3148.565
502.151; 3319.487;  -13.176; 3515.999
502.738; 3739.270;  -10.646; 3971.274
503.326; 4202.132;   -9.525; 4403.796
503.913; 4668.511;  -10.856; 5161.749
504.500; 5100.648;  -11.586; 5986.420
505.088; 5715.746;  -10.336; 6381.201
505.675; 6644.312;   -6.355; 6925.547
506.262; 7281.270;   -9.046; 7619.060
506.849; 7656.227;  -10.416; 8733.969
507.436; 8182.435;  -10.305; 9790.121
508.023; 8601.689;   -5.496; 9985.472
508.610; 8669.776;   -7.856;10434.618
509.197; 9719.199;  -10.097;11198.435
509.784;11141.406;  -10.886;12391.194
510.371;12759.948;   -9.315;13603.713
510.958;13948.826;   -9.936;14426.586
511.545;14465.323;   -9.326;15243.775
512.132;14673.662;  -10.075;15945.876
512.719;15209.406;   -7.796;16340.369
513.305;16338.694;  -10.606;18011.766
513.892;18045.941;  -11.486;19754.971
514.479;19413.035;   -9.126;20967.805
515.066;20799.709;   -6.026;22299.793
515.652;21015.770;   -8.466;22908.660
516.239;21570.174;  -10.886;23798.875
516.825;22819.566;  -11.496;25567.275
517.412;24209.748;   -5.796;28154.959
517.998;25480.508;  -10.506;28344.111
518.585;26385.531;  -10.076;27134.219
519.171;25714.080;   -8.315;27268.576
519.758;26434.277;   -8.596;28964.129
520.344;28867.906;   -8.466;30664.494
520.930;27568.020;  -11.006;32550.605
521.516;26046.299;  -10.495;35422.895
522.103;27636.258;   -5.526;38280.004
522.689;29529.258;   -8.746;37835.117
523.275;30493.939;  -11.376;37288.613
523.861;31992.850;  -11.156;37281.395
524.447;30512.707;   -8.135;37846.949
525.033;28452.896;   -7.896;38321.949
525.619;27155.799;  -12.476;38579.285
526.205;28582.762;   -9.516;40622.875
526.791;31927.537;   -6.926;42258.836
527.377;33822.914;   -8.346;42966.902
527.963;36226.504;   -8.717;42018.949
528.549;37704.063;  -11.016;42476.828
529.135;36315.852;   -8.536;41854.852
529.721;36292.586;   -9.666;41237.711
530.306;35415.641;  -10.066;41259.445
530.892;36369.246;  -11.356;41506.047
531.478;38655.090;   -6.596;43559.613
532.063;40676.844;   -8.836;47695.563
532.649;38421.609;  -10.047;50808.324
533.235;38308.305;   -9.746;51787.500
533.820;40679.730;   -6.566;52145.035
534.406;41980.234;  -10.817;51133.488
534.991;43540.367;   -9.416;49996.805
535.576;42079.629;   -9.036;48882.852
536.162;39418.629;   -6.156;46942.285
536.747;39783.238;  -11.607;45711.746
537.333;41915.145;  -11.787;48510.180
537.918;42331.930;  -12.437;50439.891
538.503;41432.496;   -7.196;50863.711
539.088;41715.340;  -10.556;50906.922
539.673;41265.094;   -8.767;52621.965
540.259;36757.238;  -10.026;52368.094
540.844;33378.438;   -7.416;50879.109
541.429;30532.447;   -9.467;52077.777
542.014;31473.744;   -9.527;52716.695
542.599;39173.262;   -9.946;52363.281
543.184;44967.590;   -7.927;53187.137
543.769;46406.734;   -9.297;54697.605
544.354;46334.016;  -10.127;53913.914
544.938;44078.617;   -9.267;49680.164
545.523;42233.203;   -6.506;47386.277
546.108;43835.492;   -9.787;49151.949
546.693;44374.906;  -11.587;51384.637
547.278;44853.082;  -10.986;51853.254
547.862;45248.004;   -8.206;51173.750
548.447;43107.852;  -10.067;51691.395
549.031;42842.957;   -9.637;52456.703
549.616;43222.402;   -9.926;52714.516
550.201;42501.961;   -6.347;52414.598
550.785;43758.715;   -7.917;52355.059
551.370;44850.363;  -10.867;54589.453
551.954;46967.242;   -9.047;58267.348
552.538;45970.063;   -7.827;59062.176
553.123;44145.176;  -10.287;58115.285
553.707;43414.816;  -12.178;56556.285
554.291;41013.500;   -8.717;56201.668
554.876;42288.438;   -7.457;55335.762
555.460;44203.758;  -10.387;54155.703
556.044;45467.320;   -9.618;53721.484
556.628;46195.324;  -11.567;53731.016
557.212;46875.551;   -8.097;54312.531
557.796;47958.641;  -11.077;53797.773
558.380;45990.648;  -11.108;56145.984
558.964;44644.387;   -9.057;57277.930
559.548;42224.250;   -6.977;56459.641
560.132;38894.371;  -11.457;54434.543
560.716;40177.414;  -11.378;54800.617
561.300;42207.293;   -9.577;57606.945
561.884;40727.867;   -7.127;58972.445
562.467;39360.777;   -7.118;57327.570
563.051;38055.180;  -13.358;54962.434
563.635;36257.402;  -10.178;52594.473
564.219;38465.523;   -7.837;50610.410
564.802;41984.582;  -11.398;49551.180
565.386;42078.859;  -12.788;48370.953
565.969;43078.898;   -9.077;48178.871
566.553;41856.027;   -6.207;49957.305
567.136;40201.918;   -8.568;50369.594
567.720;41571.551;  -11.868;49492.004
568.303;43018.719;   -8.268;50616.352
568.887;42317.770;   -8.698;50727.148
569.470;40178.820;   -6.808;51698.379
570.053;37940.988;  -13.188;52122.078
570.637;35869.758;  -12.037;52536.438
571.220;36161.340;   -8.577;51186.098
571.803;36343.441;   -8.498;51032.762
572.386;38165.059;  -10.498;49609.887
572.969;38950.555;   -9.388;48285.926
573.552;39182.832;   -8.338;47624.285
574.135;38370.305;   -8.518;45498.641
574.718;35563.988;  -13.628;41970.434
575.301;36211.504;  -10.893;41447.137
575.884;36859.020;   -8.158;40923.836
576.467;40467.094;  -10.328;45267.723
577.050;40155.770;  -13.058;48175.543
577.633;38895.652;   -9.458;47729.328
578.216;35637.445;   -8.928;47579.793
578.799;33470.203;   -9.358;47820.996
579.381;34866.445;  -11.388;48115.551
579.964;35189.922;  -11.718;47333.766
580.547;34006.953;   -8.588;46668.969
581.129;34424.277;   -8.859;44466.141
581.712;36091.461;  -10.729;44164.922
582.294;35942.375;  -11.118;46477.855
582.877;36857.938;   -5.218;48244.254
583.459;37256.316;   -8.679;47437.895
584.042;38633.621;  -10.709;46943.219
584.624;36316.719;  -11.669;46792.227
585.206;35339.598;   -8.218;46557.250
585.789;36651.668;  -10.569;45793.773
586.371;36754.664;  -11.859;43836.391
586.953;37126.520;  -10.719;42972.492
587.536;38466.641;   -7.198;42487.211
588.118;38295.645;   -8.720;42086.414
588.700;37515.434;  -10.439;43389.930
589.282;34620.496;   -9.198;43646.039
589.864;32605.660;   -9.199;43438.109
590.446;32545.602;  -11.319;43151.926
591.028;32170.082;  -11.159;42781.867
591.610;32610.227;  -11.779;42839.098
592.192;33769.137;   -7.668;42820.402
592.774;32938.563;  -11.949;40724.277
593.356;30901.033;  -12.129;39874.789
593.937;30779.549;  -10.669;39980.648
594.519;33479.270;   -6.509;42069.633
595.101;33461.484;  -10.849;42976.031
595.683;32081.580;  -11.679;44084.441
596.264;31320.246;   -9.049;43478.797
596.846;31052.570;   -8.849;43803.672
597.427;31389.641;   -9.570;42986.934
598.009;33038.988;  -12.620;42832.219
598.591;32999.543;  -10.039;42580.086
599.172;35300.383;  -10.369;43061.805
599.753;37419.605;   -9.140;41691.469
600.335;36887.746;  -11.430;40692.520
600.916;34048.219;   -9.939;39982.422
601.498;30926.115;   -8.479;40318.617
602.079;30575.129;  -10.920;40670.609
602.660;30305.184;  -11.480;41450.898
603.241;31153.684;  -11.699;41137.738
603.823;31282.730;   -9.579;38868.797
604.404;30952.830;  -10.620;38182.785
604.985;33919.195;  -10.450;38078.047
605.566;34951.578;   -9.129;38056.633
606.147;35882.582;   -7.510;37020.418
606.728;34580.063;  -10.660;37883.359
607.309;32752.010;  -11.740;38748.273
607.890;32513.650;   -9.759;38850.230
608.471;31147.045;   -8.250;37457.918
609.051;31127.494;   -9.240;36066.457
609.632;30955.492;  -12.120;35991.074
610.213;30677.072;   -9.110;37402.641
610.794;31595.732;   -8.030;38383.363
611.374;30440.793;   -8.110;40562.387
611.955;30295.717;  -13.560;38533.727
612.536;31127.383;  -11.400;36951.789
613.116;30586.250;   -8.070;37197.891
613.697;31435.174;  -10.830;38411.125
614.277;30961.908;  -11.641;38673.938
614.858;30397.594;  -13.310;37075.863
615.438;30413.320;   -7.460;35092.906
616.019;28260.541;   -7.601;33666.301
616.599;29021.143;  -12.020;34189.023
617.179;29032.844;  -11.780;36952.047
617.760;28257.109;   -8.570;39582.574
618.340;29216.611;  -11.471;38943.977
618.920;29832.680;  -11.170;37594.156
619.500;30594.420;  -11.071;37866.938
620.080;30929.197;   -7.750;37869.043
620.660;31101.037;  -12.711;36868.617
621.241;31901.338;  -10.211;36352.309
621.821;31570.627;  -10.961;35459.520
622.401;31625.648;   -7.720;35207.414
622.980;33613.070;   -8.981;35980.422
623.560;32175.896;   -9.331;37351.328
624.140;27919.031;   -9.850;34388.582
624.720;24268.842;   -7.451;32368.764
625.300;24097.531;   -9.070;32638.629
625.880;28109.137;  -12.601;34599.035
626.459;30661.762;  -11.751;36831.738
627.039;30287.982;   -9.281;38299.098
627.619;29720.920;   -8.801;38289.574
628.198;29892.465;  -12.071;37220.695
628.778;30713.736;   -9.461;37632.563
629.357;31733.639;   -8.491;38003.012
629.937;31627.785;   -9.721;38402.039
630.516;32274.098;   -9.951;37868.801
631.096;33272.699;  -11.731;35760.410
631.675;35406.340;   -8.572;35225.219
632.254;35031.273;  -11.282;35130.289
632.834;33868.152;  -13.322;35794.570
633.413;34709.441;  -10.301;35788.922
633.992;34919.746;   -8.582;34532.863
634.571;36022.930;   -8.352;33590.113
635.151;35114.156;  -11.912;34943.863
635.730;33135.492;  -10.511;35352.523
636.309;32880.715;   -7.731;35366.605
636.888;32105.896;   -9.952;36165.637
637.467;31424.365;  -11.672;37515.902
638.046;29927.529;   -8.901;39288.695
638.625;29356.545;   -7.912;38279.699
639.204;28837.303;  -10.022;37741.598
639.782;30300.809;  -12.252;38364.551
640.361;32587.824;  -10.041;36740.621
640.940;32497.250;  -11.161;34950.082
641.519;32079.014;   -9.701;34137.398
642.097;32759.107;  -11.271;35654.258
642.676;32530.887;   -8.651;35637.957
643.255;31639.107;   -8.711;36567.074
643.833;31302.850;   -9.581;37809.434
644.412;31958.795;  -13.711;37337.293
644.990;33219.352;  -11.811;37018.531
645.569;36117.070;   -9.411;36518.469
646.147;36593.027;  -10.291;36186.430
646.726;34905.578;  -12.401;36267.688
647.304;33326.895;  -10.411;36647.625
647.882;34005.059;   -9.651;39286.742
648.461;33606.176;   -9.631;39157.703
649.039;30969.900;  -11.881;35412.883
649.617;30884.244;   -9.661;34744.918
650.195;31332.689;   -9.301;35403.098
650.773;30603.670;  -10.511;35053.797
651.352;30473.193;  -11.521;33756.816
651.930;29275.430;  -12.211;31868.773
652.508;28472.953;   -9.171;33121.551
653.086;29786.908;   -9.371;33564.793
653.663;31847.873;  -13.161;34054.668
654.241;30652.744;  -13.031;35693.309
654.819;28895.627;   -9.371;36422.906
655.397;29477.982;  -10.511;38213.484
655.975;29599.117;  -10.371;39507.625
656.553;30741.984;  -10.051;39498.223
657.130;31667.805;  -10.061;40395.480
657.708;28637.596;   -9.561;39242.020
658.286;26218.395;  -11.511;38920.020
658.863;26300.656;  -10.261;40202.898
659.441;28866.707;   -7.531;39677.938
660.018;31762.527;   -9.501;40413.355
660.596;32335.807;  -13.301;39931.414
661.173;34906.453;  -11.211;39604.531
661.750;34017.148;   -9.951;39700.070
662.328;31498.588;   -9.390;39292.809
662.905;30186.158;  -11.330;38235.648
663.482;27569.066;   -9.050;36212.305
664.060;25293.266;   -8.240;35944.945
664.637;29260.357;  -10.050;35170.785
665.214;33599.762;  -11.760;34197.523
665.791;32284.736;  -10.530;34549.520
666.368;31964.621;   -9.690;35118.578
666.945;32237.752;   -9.320;36019.418
667.522;32994.313;  -11.860;36048.438
668.099;31898.422;  -10.770;36243.914
668.676;32296.111;   -6.260;35958.875
669.253;34336.023;   -7.000;37384.730
669.830;34232.805;  -10.190;36779.629
670.407;32924.930;   -9.550;35231.289
670.984;32284.559;   -9.260;35544.270
671.560;30969.160;   -9.280;35466.867
672.137;29691.670;  -11.810;34280.863
672.714;29842.584;  -11.490;34632.863
673.290;30480.859;   -7.740;35135.422
673.867;30597.021;  -10.660;36114.480
674.443;29712.285;  -12.230;36152.859
675.020;27975.943;  -10.450;35327.238
675.596;26807.938;   -9.260;35795.176
676.173;28046.852;  -10.780;35430.355
676.749;28847.602;  -13.690;33549.516
677.326;29616.510;  -11.980;32210.012
677.902;27636.115;   -8.630;32068.871
678.478;26232.301;  -10.730;32583.891
679.054;28247.441;  -10.520;32088.928
679.631;29667.945;  -11.920;30978.848
680.207;30774.678;   -7.490;33160.887
680.783;32028.170;   -9.860;35570.363
681.359;32447.021;  -13.380;36125.184
681.935;31194.332;  -12.480;35240.922
682.511;31669.162;   -7.900;34429.961
683.087;32370.299;   -7.710;34463.680
683.663;33001.723;  -11.480;34648.898
684.239;32770.750;  -14.090;34546.457
684.815;33850.352;   -7.560;35586.375
685.390;33805.250;   -9.910;35821.895
685.966;33334.086;  -11.159;35085.871
686.542;33846.969;  -11.169;34198.230
687.118;32324.084;   -5.959;32847.707
687.693;32562.986;  -10.329;32794.027
688.269;32185.412;  -12.059;33072.367
688.844;32869.070;  -10.909;33141.664
689.420;33529.148;   -8.019;33965.742
689.995;30004.555;   -8.399;34655.523
690.571;29209.344;  -10.949;33576.742
691.146;28303.709;   -9.619;32657.219
691.722;26383.971;   -8.999;32526.979
692.297;25794.359;  -11.589;33014.617
692.872;26655.201;  -11.739;34012.254
693.448;26718.225;  -11.059;34237.434
694.023;28424.633;  -10.139;34142.672
694.598;30528.988;   -9.029;34132.031
695.173;30319.100;  -13.319;34205.250
695.748;27985.512;  -10.169;32882.488
696.323;25675.752;   -8.339;32864.906
696.898;25380.826;   -8.169;33170.004
697.473;28363.004;  -12.309;32432.984
698.048;27921.355;  -10.989;31649.303
698.623;27003.291;   -9.329;30778.141
699.198;28508.418;   -9.849;31140.119
699.773;29761.238;  -12.329;31764.299
700.348;29789.822;  -10.389;31780.816
700.922;27834.877;   -9.269;32046.375
701.497;26068.076;   -9.329;32603.574
702.072;27625.037;  -10.789;34799.871
702.646;27506.174;  -10.839;35793.172
703.221;28424.426;   -9.099;35201.590
703.795;28907.508;  -10.939;34764.527
704.370;27684.754;  -12.859;34307.367
704.944;29072.877;  -11.559;33509.887
705.519;30017.209;   -7.939;31388.584
706.093;32063.229;  -10.499;31340.104
706.668;32974.078;  -11.289;32630.281
707.242;31934.303;  -11.509;32728.779
707.816;30498.500;   -9.639;32947.238
708.390;29969.268;  -11.429;33277.855
708.965;31132.625;  -11.869;33834.336
709.539;31251.102;  -11.689;33709.273
710.113;30808.781;  -10.478;33044.313
710.687;28166.430;  -10.228;31953.992
711.261;27525.203;  -13.698;30505.949
711.835;27228.402;  -13.378;30262.369
712.409;26852.777;   -9.698;31254.447
712.983;26159.418;  -11.898;32754.986
713.557;25030.814;  -15.138;34018.824
714.131;26234.297;  -14.098;34579.625
714.704;26252.727;   -9.958;33890.262
715.278;25619.141;  -10.028;33531.102
715.852;24870.338;  -11.148;33601.660
716.425;24643.250;   -9.068;33515.117
716.999;26462.602;  -10.038;33185.555
717.573;26991.719;   -9.798;33905.996
718.146;27834.986;  -12.378;35199.293
718.720;28138.982;  -11.918;35060.551
719.293;27278.068;   -8.088;34973.230
719.867;26343.207;  -10.888;36394.449
720.440;27283.230;  -11.938;36663.008
721.013;29490.832;  -12.818;35102.426
721.587;31128.189;  -10.298;33985.266
722.160;30785.996;  -10.048;33524.965
722.733;28760.240;  -12.108;32987.043
723.306;26846.752;  -10.818;33066.301
723.880;27306.268;   -8.908;33399.500
724.453;26213.943;   -9.878;33468.297
725.026;25863.307;  -11.188;33816.637
725.599;26133.965;  -11.678;32797.996
726.172;26013.230;   -9.618;33187.434
726.745;27224.049;   -8.258;35136.613
727.318;29832.518;  -12.978;35751.730
727.891;31704.662;  -12.148;35890.430
728.463;33219.344;   -8.968;34822.090
729.036;33523.898;  -10.188;32895.086
729.609;31294.143;  -11.788;31823.225
730.182;29218.084;  -11.788;31445.283
730.754;28310.068;  -10.268;32373.223
731.327;27991.713;   -9.998;33676.820
731.900;27107.492;  -12.228;33417.000
732.472;26096.000;  -13.848;31978.498
733.045;25957.566;   -8.698;30368.777
733.617;25132.313;  -10.607;30574.215
734.190;23708.045;  -11.507;31280.975
734.762;24271.699;  -13.647;31674.412
735.334;25721.412;   -9.767;31247.291
735.907;26115.848;   -9.897;29876.211
736.479;24032.201;  -11.637;29808.488
737.051;23316.650;   -9.567;30233.547
737.623;24072.818;   -8.187;31469.086
738.195;26067.297;  -11.187;31784.225
738.768;26594.779;  -12.337;32120.523
739.340;26045.143;  -12.227;32094.342
739.912;25738.188;  -11.057;31312.680
740.484;26549.688;  -10.207;31946.238
741.056;27402.207;  -10.047;32984.059
741.628;26822.223;  -13.627;33897.715
742.199;27376.236;   -7.177;33213.016
742.771;25614.813;  -10.797;31369.113
743.343;24286.086;  -11.997;31865.473
743.915;24519.844;  -12.867;32388.631
744.487;25225.340;   -7.617;31079.568
745.058;26358.932;   -9.557;30570.107
745.630;25926.338;   -9.877;29970.127
746.201;24893.371;  -14.177;29186.766
746.773;24663.443;   -9.237;28805.723
747.344;24843.678;   -9.847;29591.223
747.916;24944.596;  -11.657;31412.201
748.487;24574.002;  -10.587;32194.898
749.059;24364.482;   -8.707;32533.719
749.630;23510.346;  -10.537;32158.518
750.201;23750.252;  -11.687;30855.395
750.773;23901.002;  -11.647;28622.555
751.344;24937.668;   -7.147;28405.732
751.915;24630.379;   -9.757;28461.551
752.486;24018.180;  -12.427;27842.850
753.057;22530.572;  -12.227;27845.008
753.628;22425.895;  -10.417;27728.107
754.199;22615.400;  -11.767;27381.086
754.770;21742.584;  -11.187;25882.203
755.341;21012.930;  -10.507;25886.184
755.912;21134.227;   -9.387;26050.861
756.483;21595.340;  -10.647;26798.779
757.054;21227.111;  -11.837;27048.238
757.625;19541.465;  -12.716;26294.838
758.195;19042.889;   -9.666;26142.076
758.766;19945.709;   -8.656;26392.234
759.337;19766.119;  -12.856;26334.594
759.907;18955.861;  -13.366;27579.652
760.478;17979.801;   -8.576;28352.770
761.048;18734.895;  -10.526;27325.088
761.619;19437.980;  -11.116;26460.428
762.189;19107.588;  -12.136;26029.826
762.760;19191.318;   -9.456;26430.145
763.330;19470.188;   -7.136;26670.902
763.900;19288.020;  -11.786;26603.021
764.471;18456.266;  -11.546;25542.740
765.041;18141.145;   -8.096;24358.459
765.611;18189.973;   -8.876;23991.297
766.181;18110.395;  -12.196;24470.236
766.751;18610.643;  -11.636;24845.975
767.321;18444.314;  -10.156;24533.633
767.891;18169.244;  -11.766;24916.492
768.461;17883.322;  -14.936;24776.771
769.031;17241.234;  -12.356;24757.988
769.601;17065.762;   -7.526;24181.088
770.171;17436.297;  -10.766;23670.387
770.741;17920.078;  -13.176;22960.045
771.311;17417.936;  -10.616;22917.523
771.880;16119.196;   -9.576;23562.941
772.450;15682.242;  -10.336;24216.500
773.020;15813.288;  -13.516;24140.398
773.589;15571.883;  -13.466;24414.857
774.159;15018.093;   -8.686;23858.717
774.729;14483.351;   -9.476;22942.135
775.298;14459.441;  -13.666;22324.033
775.867;14373.281;  -11.716;21140.313
776.437;13784.491;   -9.906;20838.092
777.006;13678.279;  -12.166;20599.510
777.576;14776.946;  -12.356;20508.809
778.145;13962.046;  -11.646;20732.947
778.714;12753.915;   -8.226;21062.465
779.283;12359.587;   -9.556;20949.664
779.853;12232.914;  -14.116;20508.623
780.422;12350.938;  -11.506;20649.082
780.991;12760.677;   -9.556;21527.520
781.560;13307.278;   -9.095;22632.658
782.129;12220.886;  -12.135;23048.277
782.698;11107.262;  -10.865;23438.555
783.267;10610.840;   -9.335;23267.734
783.836;10949.342;  -11.045;22415.133
784.404;11560.654;  -13.865;20443.152
784.973;11752.398;  -13.095;19699.150
785.542;11653.466;  -11.575;19763.828
786.111;11410.933;   -9.705;20341.408
786.679;11218.729;  -12.105;20207.967
787.248;11041.162;  -12.455;19516.465
787.817;10940.464;  -11.535;18900.363
788.385;10747.440;   -9.765;17879.121
788.954;10634.999;  -14.005;17658.301
789.522;10583.972;  -11.955;17788.879
790.090; 9881.613;  -10.135;18118.277
790.659; 9106.632;  -10.975;18338.736
791.227; 9120.624;  -13.375;18508.615
791.795; 9406.940;  -12.375;17898.254
792.364; 9603.665;  -10.725;17295.133
792.932; 9914.481;   -9.715;16822.051
793.500; 9705.347;  -12.675;17040.148
794.068; 9930.739;  -13.495;17179.787
794.636; 9964.992;  -10.885;16664.246
795.204; 9725.136;  -11.045;16524.545
795.772; 9773.938;  -13.175;17274.564
796.340; 9579.314;  -12.445;17891.002
796.908; 9814.553;   -9.735;17648.561
797.476;10167.326;   -9.815;17064.080
798.044; 9894.621;  -13.985;16672.777
798.612; 9493.298;  -13.115;17023.996
799.180; 8807.874;  -10.185;16561.615
799.747; 8652.097;   -9.055;15962.773
800.315; 8892.645;  -12.385;15296.992
800.883; 8239.469;  -15.035;14801.771
801.450; 7560.347;  -10.365;14534.430
802.018; 7360.058;   -9.855;14173.248
802.585; 7349.300;  -11.905;14029.547
803.153; 7524.220;  -11.585;13836.846
803.720; 7329.622;   -9.095;13567.324
804.287; 7312.420;   -9.135;13360.622
804.855; 7537.594;  -11.604;13681.981
805.422; 7955.941;  -11.794;13536.560
805.989; 8202.761;  -10.734;13355.958
806.556; 8203.305;  -10.444;13747.896
807.124; 8643.633;  -12.764;13987.376
807.691; 9202.762;  -12.964;14038.674
808.258; 9276.989;  -11.134;14120.152
808.825; 9300.398;   -9.854;13860.111
809.392; 8951.979;  -10.504;13268.790
809.959; 8271.563;  -13.054;12680.389
810.526; 7568.723;   -8.294;12427.308
811.093; 6924.682;   -8.394;12030.105
811.659; 6739.699;  -12.304;11653.664
812.226; 6928.338;  -13.944;11637.183
812.793; 7370.621;  -10.484;11611.521
813.360; 7538.564;  -10.144;11885.181
813.926; 7575.066;  -11.684;12770.539
814.493; 7497.314;  -13.644;12677.638
815.060; 7391.470;   -9.724;11974.336
815.626; 7624.617;   -9.854;11594.715
816.193; 7677.635;  -13.254;11579.474
816.759; 7006.075;  -13.204;11666.972
817.325; 6594.466;   -9.434;11325.530
817.892; 6466.444;  -10.134;11105.369
818.458; 6636.854;  -13.474;10843.928
819.024; 7138.976;  -11.854;10714.406
819.591; 7247.223;  -10.244;10469.165
820.157; 7004.321;  -10.704;10235.523
820.723; 6940.525;  -12.324;10847.563
821.289; 6804.867;   -9.444;11040.980
821.855; 6926.041;   -8.374;10357.100
822.421; 7310.815;  -10.234; 9978.918
822.987; 7229.968;  -13.294; 9754.177
823.553; 6848.763;  -10.884;10065.755
824.119; 6571.562;   -8.884;10036.294
824.685; 6052.529;   -6.784;10029.192
825.251; 5952.941;  -12.004;10199.230
825.816; 5706.306;  -11.474; 9820.189
826.382; 5522.051;   -9.174; 9297.248
826.948; 5846.073;   -9.214; 9381.347
827.513; 6255.557;  -10.774; 9450.726
828.079; 6312.935;  -11.924; 9472.444
828.645; 6079.819;  -10.543; 9292.643
829.210; 5941.408;  -10.533; 9065.341
829.776; 5828.349;  -10.753; 9132.620
830.341; 5948.849;  -10.173; 9092.878
830.906; 5923.498;  -10.743; 9078.557
831.472; 5649.016;  -11.113; 8534.535
832.037; 5290.434;  -10.603; 8677.874
832.602; 5155.483;  -13.323; 8628.692
833.167; 4918.809;  -10.823; 8879.031
833.733; 4806.735;  -10.113; 9189.790
834.298; 4647.663;  -13.583; 9052.608
834.863; 4819.048;  -12.703; 8895.087
835.428; 5047.899;  -10.523; 8824.266
835.993; 4985.460;   -6.963; 8845.385
836.558; 4934.763;  -10.763; 8888.563
837.123; 5062.686;   -9.903; 8966.582
837.688; 5398.576;   -9.913; 8617.860
838.253; 5416.234;  -10.283; 8590.699
838.817; 5072.843;  -12.963; 8443.797
839.382; 4979.803;  -14.243; 8799.356
839.947; 5152.376;  -10.733; 8810.595
840.511; 5158.639;   -9.383; 8796.394
841.076; 4938.760;  -12.563; 8347.231
841.641; 4727.020;  -12.953; 8224.330
842.205; 4563.871;   -7.043; 8223.349
842.770; 4351.186;   -8.163; 8622.107
843.334; 4495.586;  -12.503; 8410.386
843.898; 4614.313;  -11.693; 8337.465
844.463; 4192.502;  -10.203; 8506.283
845.027; 3904.789;   -9.533; 8280.962
845.591; 3929.431;  -13.443; 8231.141
846.156; 4005.095;  -13.143; 7969.179
846.720; 3865.106;   -9.433; 7768.278
847.284; 3789.576;  -11.033; 7630.957
847.848; 3752.760;  -10.403; 7472.395
848.412; 3564.310;  -11.553; 7437.394
848.976; 3470.005;   -8.393; 7674.592
849.540; 3434.633;   -8.713; 7836.011
850.104; 3430.409;  -12.463; 7913.669
850.668; 3511.431;  -12.973; 7694.508
851.232; 3494.079;  -10.793; 7756.887
851.796; 3512.428;  -10.662; 7926.545
852.359; 3586.763;  -13.082; 7827.844
852.923; 3565.851;  -12.192; 7641.163
853.487; 3558.704;  -11.912; 7342.501
854.050; 3428.044;  -10.892; 7042.820
854.614; 3512.293;  -13.992; 7151.338
855.177; 3570.553;  -11.732; 7105.077
855.741; 3458.370;   -8.962; 6989.675
856.304; 3329.574;   -9.442; 6596.634
856.868; 3203.283;  -14.192; 6356.272
857.431; 3153.495;  -12.702; 6468.571
857.995; 3184.289;   -9.942; 6373.210
858.558; 3290.582;   -9.112; 6324.448
859.121; 3207.183;  -12.932; 6408.327
859.684; 3103.766;  -13.442; 6347.886
860.247; 3060.979;  -10.632; 6321.264
860.810; 3029.587;  -11.272; 6301.903
861.374; 2955.424;   -9.832; 6607.881
861.937; 2865.069;  -11.762; 6408.200
862.500; 2868.692;   -9.722; 6572.639
863.062; 2844.609;  -10.512; 6387.297
863.625; 2834.394;  -11.232; 6190.836
864.188; 2880.052;  -14.112; 5807.254
864.751; 2884.225;  -11.302; 5682.413
865.314; 2754.372;  -10.112; 5547.492
865.876; 2578.795;  -12.182; 5500.150
866.439; 2423.706;  -10.722; 5415.909
867.002; 2327.006;   -9.252; 5501.567
867.564; 2386.594;   -9.572; 5413.946
868.127; 2433.547;  -13.142; 5160.325
868.689; 2541.727;  -12.902; 5133.183
869.252; 2671.161;   -9.732; 5252.382
869.814; 2594.187;   -9.432; 5297.141
870.377; 2486.447;  -11.552; 5390.919
870.939; 2479.714;   -9.052; 5599.898
871.501; 2424.176;  -10.982; 5248.336
872.063; 2320.615;  -12.292; 4854.235
872.626; 2260.055;  -14.912; 4817.074
873.188; 2162.493;  -13.112; 4987.732
873.750; 2153.797;  -13.442; 4868.651
874.312; 2156.186;   -9.402; 4779.330
874.874; 2163.433;  -11.062; 4866.348
875.436; 2118.904;  -13.931; 4718.887
875.998; 2064.600;   -9.561; 4660.005
876.560; 2076.355;  -11.321; 4462.964
877.122; 2044.950;  -12.221; 4145.042
877.683; 1907.788;  -12.191; 4056.481
878.245; 1577.598;  -12.101; 3950.740
878.807; 1259.102;   -8.971; 4058.958
879.369; 1048.424;  -12.071; 3954.677
879.930; 1009.409;  -14.621; 3941.495
880.492; 1104.016;  -10.311; 4067.014
881.053; 1241.216;  -10.901; 3859.633
881.615; 1316.334;  -14.411; 3776.071
882.176; 1309.259;  -13.761; 3734.750
882.738; 1280.772;   -9.181; 3678.489
883.299; 1291.962;  -11.791; 3405.407
883.860; 1322.964;  -13.121; 3351.106
884.422; 1295.842;  -11.211; 3394.044
884.983; 1238.787;  -10.091; 3166.443
885.544; 1210.186;   -8.461; 3189.802
886.105; 1157.172;  -12.361; 3160.360
886.666; 1100.750;  -14.141; 3093.059
887.227; 1078.599;  -11.361; 2941.957
887.788; 1037.025;  -11.401; 2974.836
888.349;  952.211;  -13.791; 2721.214
888.910;  914.815;  -13.191; 2696.493
889.471;  885.614;   -9.881; 2560.172
890.032;  898.385;   -9.881; 2558.190
890.593;  886.965;  -10.371; 2567.669
891.153;  798.666;  -13.301; 2460.307
891.714;  694.563;  -11.431; 2372.046
892.275;  653.341;  -11.291; 2309.505
892.835;  666.470;  -11.471; 2382.543
893.396;  660.623;  -11.541; 2295.502
893.956;  632.725;  -11.181; 2162.420
894.517;  594.808;  -11.741; 2125.439
895.077;  542.563;  -11.671; 2086.978
895.638;  502.012;  -11.311; 2126.316
896.198;  492.304;   -9.831; 1838.275
896.758;  476.277;   -8.421; 1892.813
897.319;  454.115;  -12.351; 1792.232
897.879;  434.849;  -13.511; 1762.751
898.439;  403.728;  -12.001; 1661.149
898.999;  384.381;  -10.180; 1781.468
899.559;  380.318;  -12.030; 1703.347
900.119;  372.871;  -15.710; 1537.525
900.679;  356.749;   -8.900; 1638.384
901.239;  335.143;   -8.340; 1527.902
901.799;  307.650;  -13.910; 1456.441
902.359;  284.807;  -13.460; 1357.140
902.919;  277.179;  -11.490; 1331.118
903.479;  278.506;  -12.110; 1317.257
904.038;  272.523;  -11.720; 1262.595
904.598;  262.625;  -13.610; 1152.034
905.158;  251.246;  -11.040; 1240.893
905.717;  235.826;  -10.900; 1233.691
906.277;  227.336;  -15.080; 1217.330
906.836;  224.326;  -13.380; 1222.408
907.396;  221.411;  -10.780; 1193.047
907.955;  214.037;   -8.500; 1182.526
908.515;  209.320;  -12.760; 1099.364
909.074;  208.725;  -11.900; 1092.863
909.633;  207.996;   -8.950; 1069.121
910.192;  205.020;   -8.770; 1196.460
910.752;  194.432;  -12.390; 1029.960
911.311;  185.029;  -13.680; 1009.780
911.870;  175.141;  -12.370;  971.460
912.429;  169.246;  -10.900; 1094.080
912.988;  167.182;  -11.690; 1081.060
913.547;  164.702;  -13.240;  940.380
914.106;  162.835;  -11.990;  999.420
914.665;  159.043;   -9.990;  984.020
915.224;  154.513;  -12.880; 1035.760
915.782;  149.543;  -12.350;  922.560
916.341;  147.971;   -9.110; 1049.840
916.900;  146.698;   -9.270;  925.260
917.458;  145.321;  -13.240;  884.220
918.017;  146.099;  -13.550;  942.600
918.576;  145.046;  -12.320;  904.440
919.134;  143.895;  -11.490;  837.980
919.693;  142.766;  -13.670;  893.060
920.251;  141.328;  -15.470;  876.500
920.809;  141.738;  -11.290;  839.580
921.368;  141.807;  -10.210;  885.360
921.926;  138.695;  -12.140;  842.940
922.484;  136.567;  -13.080;  903.360
923.042;  135.822;  -11.720;  880.340
923.601;  135.977;   -7.480;  998.680
924.159;  134.639;  -11.570;  935.560
924.717;  131.720;  -13.840;  841.080
925.275;  132.545;  -10.640;  903.240
925.833;  131.421;  -11.540;  779.320
926.391;  132.553;  -12.960;  938.380
926.949;  133.157;  -14.130;  857.680
927.506;  131.633;  -11.750;  903.500
928.064;  131.760;  -10.250;  877.580
928.622;  132.414;  -13.030;  880.100
929.180;  134.691;  -13.400;  814.180
929.737;  136.118;  -10.700;  808.540
930.295;  139.896;  -10.070;  928.480
930.853;  139.368;  -11.960;  849.100
931.410;  139.990;  -13.120;  821.120
931.968;  141.843;  -10.770;  940.660
932.525;  142.658;  -10.680;  909.380
933.082;  141.627;  -13.130;  811.440
933.640;  142.103;  -13.210;  925.900
934.197;  141.139;  -11.060;  886.360
934.754;  141.003;   -9.580;  897.780
935.312;  142.923;  -14.000;  863.340
935.869;  144.098;  -10.710; 1012.980
936.426;  141.816;   -9.860;  872.800
936.983;  143.028;   -9.710;  889.020
937.540;  143.420;  -13.990;  838.280
938.097;  147.608;  -14.040;  940.120
938.654;  151.389;  -10.310;  898.860
939.211;  151.026;  -10.560;  952.480
939.768;  151.166;  -13.900;  915.420
940.324;  154.465;  -14.760;  904.200
940.881;  157.471;  -10.370;  878.500
941.438;  162.246;   -8.260; 1021.200
941.995;  160.644;  -12.540;  992.560
942.551;  159.858;  -14.670;  875.620
943.108;  162.121;  -10.450;  937.920
943.664;  162.458;  -10.750;  869.340
944.221;  165.889;  -11.550; 1088.140
944.777;  165.382;  -14.770;  869.680
945.334;  162.405;  -12.820;  884.840
945.890;  157.202;  -10.130;  946.480
946.446;  154.753;  -13.470;  947.020
947.003;  156.686;  -12.120;  964.940
947.559;  157.988;   -9.980; 1063.040
948.115;  154.015;   -9.080; 1026.540
948.671;  151.487;  -10.830;  967.300
949.227;  151.189;  -12.440;  859.560
949.783;  150.708;  -12.910;  858.900
950.339;  154.902;  -10.270;  991.000
950.895;  155.973;  -13.630; 1023.840
951.451;  154.868;  -15.100;  925.280
952.007;  153.308;  -11.330;  998.540
952.563;  149.262;  -10.580;  937.780
953.118;  146.883;  -13.440;  904.940
953.674;  145.922;  -12.710;  935.780
954.230;  147.953;  -10.350;  949.640
954.785;  151.693;   -9.190;  936.640
955.341;  154.257;  -11.200;  998.160
955.897;  148.862;  -16.560;  834.660
956.452;  146.805;  -12.570;  953.840
957.008;  145.017;   -7.970; 1083.640
957.563;  141.423;  -11.940; 1009.540
958.118;  135.977;  -13.450;  877.700
958.674;  135.409;  -12.030;  946.780
959.229;  136.239;   -9.410; 1013.980
959.784;  136.098;  -12.000;  832.400
960.339;  136.112;  -14.780; 1001.280
960.894;  134.089;   -9.860;  963.760
961.449;  130.953;   -9.970;  859.960
962.004;  131.073;  -10.900; 1212.840
962.559;  127.641;  -13.150;  860.140
963.114;  127.368;  -13.740;  742.480
963.669;  125.780;   -9.820;  915.500
964.224;  123.928;  -13.890;  874.340
964.779;  123.937;  -12.600;  828.420
965.334;  125.765;  -10.950; 1017.860
965.888;  125.178;  -11.170;  875.360
966.443;  124.569;  -12.540;  972.380
966.998;  122.120;  -15.780;  819.460
967.552;  120.399;   -9.760;  908.380
968.107;  118.071;   -9.060;  868.300
968.661;  117.650;  -11.950;  922.440
969.216;  115.544;  -12.800;  856.280
969.770;  112.989;  -11.210;  917.200
970.324;  113.446;  -11.610;  923.140
970.879;  114.214;  -11.370;  947.180
971.433;  116.376;  -12.540;  952.720
971.987;  115.725;  -11.320;  895.340
972.541;  112.475;  -10.720;  917.100
973.095;  112.044;   -9.680; 1009.460
973.649;  109.435;  -11.440;  809.480
974.203;  107.829;  -11.210;  829.040
974.757;  107.406;  -10.240;  855.220
975.311;  106.709;  -13.720;  872.600
975.865;  106.573;  -13.770;  881.820
976.419;  102.439;  -11.690;  857.400
976.973;  100.737;   -9.510;  849.620
977.526;   99.917;  -12.620;  949.920
978.080;   97.800;  -12.010;  796.780
978.634;   98.608;  -10.170;  921.320
979.187;   97.191;   -9.020;  905.400
979.741;   99.043;   -9.820; 1018.380
980.294;   97.062;  -14.870;  789.160
980.848;   95.792;  -12.380;  717.220
981.401;   96.117;  -10.350;  816.540
981.955;   94.608;  -13.720;  844.300
982.508;   89.908;  -11.490;  746.340
983.061;   90.196;  -10.000;  915.260
983.615;   87.415;  -11.480;  798.800
984.168;   86.159;  -13.220;  770.080
984.721;   85.677;  -13.960;  880.760
985.274;   82.814;  -10.870;  867.500
985.827;   80.886;   -9.790;  834.220
986.380;   78.908;  -13.120;  721.340
986.933;   78.924;  -12.450;  864.800
987.486;   78.548;  -10.210;  861.920
988.039;   78.574;   -8.430;  863.100
988.591;   77.439;  -10.520;  893.260
989.144;   75.482;  -14.860;  737.260
989.697;   74.296;  -13.080;  758.740
990.250;   73.959;  -10.150;  858.100
990.802;   71.773;  -13.430;  755.860
991.355;   71.134;  -12.750;  974.880
991.907;   69.281;  -12.040;  864.320
992.460;   67.428;  -11.330;  753.760
993.012;   66.041;  -13.610;  749.540
993.565;   63.496;  -13.460;  711.360
994.117;   64.834;   -9.360;  950.780
994.669;   61.410;  -11.300;  701.320
995.221;   61.749;  -13.540;  791.920
995.774;   60.613;  -13.430;  787.580
996.326;   58.453;  -12.520;  740.220
996.878;   57.761;  -10.950;  838.420
997.430;   55.943;  -14.300;  699.860
997.982;   54.807;  -13.760;  750.140
998.534;   54.299;  -11.530;  739.060
999.086;   53.892;  -10.310;  738.220
999.638;   52.666;  -12.530;  661.380
1000.190;   51.620;  -11.840;  699.320
1000.741;   51.131;  -10.260;  742.700
1001.293;   51.140;   -8.860;  686.020
1001.845;   49.332;  -13.700;  676.640
1002.396;   49.748;  -12.100;  743.400
1002.948;   48.473;  -12.760;  737.400
1003.500;   46.616;  -10.380;  723.780
1004.051;   47.232;  -11.900;  907.580
1004.603;   45.985;  -12.250;  791.820
1005.154;   42.735;  -13.210;  608.980
1005.705;   43.185;  -10.950;  723.960
1006.257;   41.770;  -13.880;  707.220
1006.808;   40.891;  -12.840;  685.460
1007.359;   41.117;  -10.570;  763.240
1007.910;   39.953;   -9.620;  646.640
1008.461;   40.847;  -13.630;  732.940
1009.013;   38.114;  -17.200;  588.340
1009.564;   39.628;  -10.200;  793.520
1010.115;   38.336;  -12.570;  597.040
1010.665;   37.580;  -15.150;  602.160
1011.216;   37.145;  -14.480;  667.920
1011.767;   37.105;  -11.340;  697.920
1012.318;   37.511;   -9.780;  736.980
1012.869;   36.779;  -12.380;  679.000
1013.419;   35.314;  -15.560;  603.120
1013.970;   36.406;  -11.010;  666.640
1014.521;   35.273;  -11.610;  620.620
1015.071;   35.237;  -13.450;  670.380
1015.622;   34.928;  -13.870;  635.460
1016.172;   34.410;  -11.610;  596.820
1016.723;   34.220;  -12.120;  614.380
1017.273;   33.133;  -13.620;  604.160
1017.823;   34.177;  -14.140;  650.340
1018.374;   33.171;  -12.800;  611.760
1018.924;   33.822;  -12.340;  716.880
1019.474;   33.694;  -11.410;  718.880
1020.024;   31.859;  -14.770;  657.580
1020.574;   32.868;   -9.780;  726.160
1021.124;   32.577;   -8.560;  673.580
1021.674;   32.087;  -15.190;  559.120
1022.224;   32.843;  -13.530;  708.940
1022.774;   32.010;  -13.280;  668.820
1023.324;   32.311;  -10.690;  753.520
1023.874;   32.605;  -10.240;  875.760
1024.423;   31.035;  -12.540;  613.700
1024.973;   30.910;  -10.010;  610.760
1025.523;   30.399;  -10.550;  620.960
1026.072;   30.095;  -13.560;  606.420
1026.622;   29.940;  -15.120;  675.740
1027.172;   30.873;  -11.260;  715.660
1027.721;   29.582;  -11.410;  601.220
1028.270;   30.293;  -13.530;  663.400
1028.820;   30.089;  -13.680;  638.080
1029.369;   28.835;  -13.520;  612.700
1029.918;   28.875;  -10.980;  649.840
1030.468;   28.669;  -13.530;  564.780
1031.017;   29.031;  -13.170;  634.800
1031.566;   28.267;  -12.200;  608.900
1032.115;   28.558;   -9.960;  694.500
1032.664;   27.750;  -13.210;  596.480
1033.213;   27.687;  -12.500;  735.420
1033.762;   27.926;  -11.910;  635.620
1034.311;   28.035;   -9.640;  677.220
1034.860;   27.053;  -13.310;  691.000
1035.408;   27.552;  -11.830;  722.720
1035.957;   27.926;  -12.000;  719.540
1036.506;   25.855;  -11.690;  530.800
1037.055;   28.351;  -10.990;  844.320
1037.603;   26.430;  -15.120;  664.000
1038.152;   24.566;  -12.450;  534.760
1038.700;   25.938;  -10.560;  585.740
1039.249;   25.444;  -11.080;  681.220
1039.797;   25.997;  -12.540;  633.360
1040.345;   25.715;  -11.920;  705.420
1040.894;   25.550;  -11.410;  625.300
1041.442;   24.931;  -14.320;  632.200
1041.990;   23.840;  -16.240;  559.160
1042.538;   23.530;  -11.680;  536.180
1043.087;   23.970;  -10.760;  570.860
1043.635;   25.084;  -11.850;  670.500
1044.183;   23.835;  -15.480;  586.400
1044.731;   23.719;  -11.770;  576.000
1045.279;   24.370;  -13.090;  674.920
1045.827;   26.034;  -12.440;  892.400
1046.374;   23.079;  -13.840;  515.420
1046.922;   22.744;  -13.220;  590.580
1047.470;   23.828;  -10.230;  691.300
1048.018;   23.135;  -14.590;  647.960
1048.565;   23.306;  -12.050;  708.600
1049.113;   22.221;  -11.650;  557.000
1049.660;   21.904;  -10.510;  629.660
1050.208;   22.541;  -13.310;  675.640
1050.755;   21.467;  -15.900;  606.580
1051.303;   22.620;  -11.430;  686.820
1051.850;   22.093;   -8.480;  635.120
1052.397;   20.129;  -15.010;  473.960
1052.945;   21.300;  -13.960;  617.760
1053.492;   22.390;  -13.150;  741.840
1054.039;   22.993;   -9.630;  720.180
1054.586;   20.506;  -13.680;  557.240
1055.133;   21.201;  -14.570;  693.140
1055.680;   21.172;  -13.820;  646.620
1056.227;   20.193;  -11.730;  542.780
1056.774;   22.111;  -12.480;  794.980
1057.321;   19.704;  -13.930;  523.260
1057.868;   19.735;  -11.690;  651.320
1058.415;   19.280;   -9.520;  651.980
1058.961;   20.554;  -13.160;  678.940
1059.508;   19.556;  -12.920;  643.820
1060.055;   20.186;  -11.920;  581.780
1060.601;   19.982;  -11.500;  624.300
1061.148;   19.813;  -14.330;  616.820
1061.694;   18.017;  -16.870;  592.580
1062.241;   18.601;  -10.330;  596.320
1062.787;   19.634;  -10.620;  663.140
1063.334;   20.188;  -10.110;  808.560
1063.880;   18.458;  -13.400;  668.360
1064.426;   18.860;  -10.680;  706.820
1064.972;   17.702;   -9.920;  601.340
1065.518;   16.887;  -10.980;  566.640
1066.065;   18.714;  -14.890;  624.460
1066.611;   17.140;  -12.870;  598.800
1067.157;   18.103;  -12.950;  641.860
1067.703;   17.713;  -13.540;  668.480
1068.249;   17.817;  -13.540;  605.220
1068.794;   17.950;  -12.600;  626.880
1069.340;   16.262;  -10.620;  578.960
1069.886;   17.474;  -12.830;  590.700
1070.432;   15.685;  -14.870;  541.720
1070.977;   16.074;  -11.980;  601.080
1071.523;   16.853;   -8.200;  573.060
1072.068;   16.392;  -12.330;  582.000
1072.614;   15.950;  -16.370;  527.760
1073.160;   16.445;  -11.100;  687.040
1073.705;   16.069;  -10.480;  572.520
1074.250;   15.473;  -14.520;  559.900
1074.796;   15.731;  -11.460;  655.160
1075.341;   16.551;  -11.950;  664.100
1075.886;   15.419;  -11.460;  594.240
1076.431;   15.408;  -13.770;  649.880
1076.976;   15.066;  -12.680;  639.220
1077.521;   14.393;  -13.170;  583.080
1078.067;   14.416;  -10.860;  579.400
1078.612;   15.436;  -13.920;  661.620
1079.156;   14.532;  -13.880;  601.540
1079.701;   15.081;  -13.120;  693.260
1080.246;   15.089;   -9.940;  696.300
1080.791;   15.311;  -14.740;  625.020
1081.336;   14.311;  -13.750;  659.320
1081.880;   14.243;  -13.400;  649.680
1082.425;   13.809;  -12.220;  573.480
1082.970;   14.680;  -11.610;  717.040
1083.514;   14.003;  -13.580;  597.000
1084.059;   12.571;  -12.810;  586.720
1084.603;   13.834;  -12.320;  565.840
1085.147;   13.414;  -13.190;  645.220
1085.692;   14.243;  -12.480;  716.800
1086.236;   12.183;  -13.020;  503.140
1086.780;   14.108;   -9.190;  751.440
1087.325;   13.656;  -12.480;  654.620
1087.869;   13.188;  -12.450;  610.700
1088.413;   12.967;  -12.240;  705.040
1088.957;   11.907;   -9.020;  543.400
1089.501;   13.096;  -10.320;  766.640
1090.045;   12.878;  -12.720;  726.480
1090.589;   11.296;  -13.690;  569.920
1091.133;   12.321;  -10.020;  673.340
1091.676;   12.143;  -12.330;  591.940
1092.220;   11.455;  -14.970;  600.920
1092.764;   13.023;  -12.430;  706.960
1093.307;   12.236;   -9.800;  673.780
1093.851;   10.428;  -14.970;  556.540
1094.395;   11.210;  -15.310;  683.140
1094.938;   10.629;  -10.370;  632.520
1095.482;   10.994;  -11.050;  559.800
1096.025;   12.262;  -11.840;  710.880
1096.568;   11.688;  -12.840;  779.280
1097.112;   10.201;  -14.700;  508.180
1097.655;   10.848;   -8.720;  603.000
1098.198;    9.947;  -13.610;  600.180
1098.741;    9.974;  -13.350;  612.860
1099.285;   11.677;  -11.230;  657.300
1099.828;    8.701;  -11.840;  439.400
1100.371;   10.269;  -10.840;  608.160
1100.914;    9.657;  -14.190;  682.660
1101.457;    9.802;  -11.240;  679.900
1101.999;    8.729;  -11.270;  584.680
1102.542;    9.995;  -11.480;  641.440
1103.085;    8.997;  -11.750;  658.500
1103.628;   10.253;  -11.400;  762.060
1104.170;    9.269;  -10.490;  588.280
1104.713;    9.670;  -10.600;  646.700
1105.256;    8.815;  -14.360;  557.440
1105.798;    7.463;  -13.210;  499.980
1106.341;    9.591;  -10.270;  728.900
1106.883;    8.083;  -12.200;  521.340
1107.425;    8.814;  -13.110;  668.180
1107.968;    8.022;  -12.840;  612.380
1108.510;    9.037;   -6.480;  684.960
1109.052;    7.777;  -13.940;  612.620
1109.594;    8.024;  -13.690;  554.440
1110.136;    8.621;  -11.880;  643.220
1110.679;    7.801;   -9.500;  633.080
1111.221;    8.169;  -14.160;  604.460
1111.763;    7.552;  -13.980;  559.220
1112.304;    7.099;  -13.880;  547.140
1112.846;    8.218;  -12.210;  666.240
1113.388;   10.763;  -11.390;  942.180
1113.930;    7.118;  -14.540;  694.200
1114.472;    7.380;  -12.640;  606.540
1115.013;    5.733;  -11.620;  551.280
1115.555;    6.234;  -13.640;  587.100
1116.097;    5.514;  -15.380;  579.480
1116.638;    7.255;  -12.640;  684.600
1117.180;    7.330;   -9.850;  667.740
1117.721;    6.724;  -13.690;  568.580
1118.262;    7.589;  -12.680;  677.960
1118.804;    6.816;  -12.530;  637.340
1119.345;    6.001;  -11.690;  578.400
1119.886;    6.551;  -13.380;  704.040
1120.427;    5.556;  -14.070;  589.020
1120.969;    4.949;  -13.500;  597.920
1121.510;    4.934;  -11.480;  563.060
1122.051;    6.296;  -12.830;  723.580
1122.592;    5.356;  -14.290;  655.420
1123.133;    4.749;  -12.400;  547.940
1123.673;    6.195;  -10.130;  706.480
1124.214;    4.828;  -12.930;  612.460
1124.755;    5.597;  -14.380;  639.460
1125.296;    5.051;  -14.000;  627.320
1125.836;    6.545;  -10.070;  691.500
1126.377;    4.540;  -12.640;  599.660
1126.918;    5.316;  -12.960;  614.980
1127.458;    4.034;  -13.350;  622.220
1127.999;    5.568;  -10.750;  656.980
1128.539;    5.328;  -12.350;  694.240
1129.079;    4.558;  -14.860;  632.720
1129.620;    4.178;  -13.840;  558.100
1130.160;    4.360;  -12.330;  539.480
1130.700;    4.560;  -14.530;  640.840
1131.240;    4.373;  -12.530;  643.700
1131.781;    4.076;  -14.450;  619.680
1132.321;    3.540;   -9.790;  599.120
1132.861;    3.116;  -14.860;  564.200
1133.401;    2.879;  -14.290;  593.940
1133.941;    4.042;  -11.750;  626.280
1134.481;    3.279;   -9.920;  597.580
1135.020;    3.383;  -12.290;  609.160
1135.560;    4.055;  -11.650;  674.940
1136.100;    2.474;  -16.270;  501.160
1136.640;    2.838;  -10.890;  510.480
1137.179;    2.952;  -14.180;  537.960
1137.719;    2.957;  -16.250;  605.400
1138.258;    3.279;  -14.230;  587.360
1138.798;    2.997;   -9.090;  663.780
1139.337;    2.167;  -15.130;  482.840
1139.877;    3.046;  -13.680;  642.360
1140.416;    4.700;  -11.320;  878.060
1140.955;    1.952;  -10.860;  535.380
1141.494;    2.506;  -12.920;  669.280
1142.034;    2.618;  -13.930;  583.520
1142.573;    3.790;  -11.440;  646.280
1143.112;    1.037;  -12.000;  553.480
1143.651;    1.920;  -13.670;  536.480
1144.190;    2.640;  -12.730;  691.640
1144.729;    1.801;  -14.560;  607.420
1145.267;    2.387;  -11.830;  584.900
1145.806;    2.592;  -12.230;  637.040
1146.345;    1.077;  -14.130;  635.020
1146.884;    1.916;  -11.590;  622.500
1147.422;    1.843;  -12.550;  533.060
1147.961;    3.265;  -11.180;  708.460
1148.500;    2.603;  -11.510;  669.720
1149.038;    2.033;  -11.640;  632.500
1149.577;    1.853;  -10.130;  698.640
1150.115;   -0.435;  -13.970;  452.280
1150.653;    0.803;  -14.520;  607.340
1151.192;    1.792;  -12.810;  552.920
1151.730;    0.941;   -9.100;  652.560
1152.268;    0.833;  -12.220;  589.520
1152.806;    0.479;  -14.140;  571.180
1153.344;   -0.328;  -12.350;  577.640
1153.882;    1.112;   -8.980;  600.060
1154.421;   -0.178;  -15.190;  470.620
1154.958;    0.247;  -15.210;  595.240
1155.496;    1.262;  -12.850;  645.280
1156.034;    1.060;   -9.940;  721.880
1156.572;    1.782;  -13.570;  667.060
1157.110;   -0.449;  -14.590;  473.940
1157.647;    0.626;  -13.030;  676.960
1158.185;   -0.558;  -12.140;  564.320
1158.723;   -1.539;  -14.390;  509.200
1159.260;   -0.005;  -14.090;  701.700
1159.798;    0.640;  -11.920;  658.160
1160.335;    0.551;  -11.110;  631.820

