
Integration time [ms]:   3.276
Averaging Nr. [scans]: 1000
Smoothing Nr. [pixels]: 0
Data measured with spectrometer [name]: 7414430SP
Wave   ;Sample   ;Dark     ;Reference
[nm]   ;[counts] ;[counts] ;[counts] 

288.544;  156.219;    7.793;  793.890
289.143;  159.906;    7.462;  681.602
289.742;  160.492;    8.602;  828.814
290.341;  146.728;    1.321;  789.841
290.940;  137.472;   -0.709;  730.702
291.538;  137.669;    0.881;  881.108
292.137;  136.974;    0.122;  792.581
292.736;  139.799;   -1.929;  975.101
293.335;  136.424;   -8.229;  735.086
293.934;  137.366;   -5.279;  781.677
294.532;  136.781;   -1.369; 1031.958
295.131;  122.963;   -7.641;  834.394
295.730;  123.022;   -8.420;  809.588
296.328;  121.932;   -5.611;  783.442
296.927;  121.937;   -5.781;  779.652
297.525;  121.524;   -6.361;  781.236
298.124;  111.412;  -11.382;  654.009
298.722;  117.047;   -7.641;  761.933
299.321;  115.047;   -6.811;  708.597
299.919;  111.977;   -6.991;  751.918
300.518;  108.549;  -10.362;  689.338
301.116;  109.669;   -9.581;  691.381
301.715;  109.213;   -4.891;  730.222
302.313;  109.331;   -8.801;  704.943
302.911;  105.281;   -8.522;  733.830
303.509;  109.733;   -6.171;  925.627
304.108;  106.871;   -7.311;  760.383
304.706;  106.308;   -8.321;  801.664
305.304;  100.942;  -10.222;  796.707
305.902;  105.998;   -6.021;  784.484
306.500;  102.388;   -4.971;  728.200
307.098;   99.949;   -7.061;  746.560
307.696;   98.485;   -8.801;  780.432
308.294;   99.074;   -6.411;  731.359
308.892;  100.681;   -2.901;  759.769
309.490;   96.093;   -5.041;  712.161
310.088;   93.486;   -5.002;  788.444
310.686;   98.727;   -2.041;  821.749
311.284;   94.320;   -2.351;  766.040
311.882;   92.173;   -4.422;  731.225
312.480;   89.136;   -4.192;  697.167
313.078;   90.995;   -1.172;  808.331
313.675;   92.108;   -2.601;  691.600
314.273;   85.578;   -1.312;  797.837
314.871;   86.246;   -3.942;  589.829
315.468;   84.766;   -2.802;  652.090
316.066;   87.437;   -0.701;  694.427
316.664;   79.482;   -4.362;  656.351
317.261;   83.304;   -2.872;  910.128
317.859;   79.306;   -2.022;  768.735
318.456;   79.383;   -0.531;  830.096
319.054;   75.956;   -3.912;  787.828
319.651;   74.269;   -4.752;  759.928
320.249;   72.871;   -2.602;  810.188
320.846;   71.907;   -0.821;  714.286
321.443;   68.359;   -4.642;  832.135
322.041;   65.109;   -5.002;  812.315
322.638;   63.165;   -3.982;  701.456
323.235;   64.877;   -3.411;  665.683
323.833;   61.493;   -7.361;  740.354
324.430;   55.771;   -8.611;  615.900
325.027;   57.586;   -4.061;  876.855
325.624;   57.424;   -4.031;  644.532
326.221;   54.335;   -7.481;  689.717
326.818;   53.596;   -5.281;  818.332
327.415;   56.825;   -7.460;  748.828
328.012;   56.714;   -5.510;  690.585
328.609;   54.877;   -7.880;  731.389
329.206;   52.120;   -8.331;  778.621
329.803;   53.349;   -5.121;  737.841
330.400;   57.208;   -4.510;  704.260
330.997;   57.897;   -6.441;  817.147
331.594;   56.178;   -8.831;  788.185
332.191;   61.500;   -7.621;  728.722
332.787;   64.183;   -4.591;  844.463
333.384;   64.119;   -7.412;  763.093
333.981;   61.259;   -8.293;  815.687
334.578;   64.823;   -7.052;  708.378
335.174;   66.609;   -3.102;  731.469
335.771;   66.966;   -5.943;  836.456
336.367;   63.945;   -7.393;  710.631
336.964;   66.290;   -4.063;  793.266
337.561;   64.646;   -3.813;  731.112
338.157;   60.596;   -4.654;  911.916
338.754;   59.557;   -7.934;  796.589
339.350;   58.363;   -4.414;  722.493
339.946;   59.310;   -4.664;  773.135
340.543;   51.742;   -6.375;  846.136
341.139;   46.368;   -9.815;  720.836
341.735;   42.889;   -4.526;  772.593
342.332;   42.040;   -4.895;  691.472
342.928;   43.252;   -4.295;  795.394
343.524;   36.036;   -5.476;  761.684
344.120;   31.680;   -5.856;  738.562
344.716;   36.386;   -2.155;  723.717
345.313;   33.607;   -6.275;  795.342
345.909;   27.780;   -8.815;  627.336
346.505;   29.767;   -5.305;  740.247
347.101;   30.688;   -2.674;  827.864
347.697;   29.527;   -4.344;  785.398
348.293;   25.553;   -9.975;  627.244
348.889;   26.173;   -5.774;  745.914
349.485;   25.546;   -5.004;  688.205
350.081;   25.861;   -4.704;  772.592
350.676;   21.089;   -6.635;  691.606
351.272;   26.030;   -4.504;  809.530
351.868;   25.107;   -3.914;  780.497
352.464;   22.100;   -9.044;  723.932
353.059;   19.778;   -8.314;  646.017
353.655;   22.128;   -7.024;  777.063
354.251;   23.367;   -5.343;  759.845
354.846;   18.073;   -8.604;  740.646
355.442;   14.972;   -6.945;  753.071
356.038;   17.385;   -7.564;  751.708
356.633;   17.512;   -5.814;  728.594
357.229;   15.001;   -7.364;  724.757
357.824;   13.777;   -8.024;  703.600
358.420;   12.571;   -9.384;  679.726
359.015;   13.937;   -5.104;  695.357
359.610;   14.407;   -6.854;  763.920
360.206;    9.424;  -10.185;  603.240
360.801;   11.663;   -7.054;  646.503
361.396;   14.331;   -5.034;  725.975
361.992;    9.551;   -8.284;  668.220
362.587;    6.147;   -8.625;  670.160
363.182;    7.627;   -7.674;  689.631
363.777;    8.930;   -5.164;  738.242
364.372;    8.314;   -8.604;  737.314
364.967;    4.337;   -9.055;  680.744
365.563;    9.526;   -6.114;  815.567
366.158;    6.348;   -5.814;  685.161
366.753;    7.098;   -7.854;  649.263
367.348;    4.741;   -7.804;  746.056
367.942;    5.140;   -7.954;  697.298
368.537;    4.741;   -4.984;  754.245
369.132;    4.503;   -8.564;  703.428
369.727;    0.404;   -8.855;  638.079
370.322;    1.589;   -6.245;  580.186
370.917;    1.283;   -6.425;  710.646
371.511;    3.651;   -6.294;  861.834
372.106;    0.382;   -7.685;  776.964
372.701;   -1.946;   -7.335;  585.988
373.296;    2.883;   -4.564;  863.135
373.890;   -1.811;  -10.235;  647.840
374.485;   -4.339;   -7.885;  691.199
375.079;   -0.283;   -7.324;  738.685
375.674;    1.576;   -3.494;  812.970
376.268;   -3.135;   -8.525;  691.759
376.863;   -8.426;  -10.086;  580.327
377.457;   -2.661;   -7.025;  662.490
378.052;   -4.347;   -3.585;  764.884
378.646;   -5.235;   -7.595;  741.167
379.240;   -6.015;   -8.335;  721.176
379.835;   -4.662;   -5.785;  636.978
380.429;   -6.286;   -4.335;  562.557
381.023;   -6.403;   -6.805;  779.205
381.617;   -9.099;   -9.195;  680.106
382.212;   -5.044;   -6.905;  685.303
382.806;   -4.646;   -3.745;  760.690
383.400;   -8.506;   -7.745;  672.281
383.994;  -10.075;   -9.765;  664.870
384.588;   -6.158;   -6.564;  697.701
385.182;   -4.723;   -5.344;  726.624
385.776;   -6.402;   -8.514;  706.875
386.370;  -10.394;   -9.555;  681.968
386.964;   -8.724;   -8.715;  684.155
387.558;   -6.306;   -6.174;  598.360
388.152;   -9.750;   -8.725;  681.959
388.745;   -7.629;   -7.965;  814.707
389.339;   -5.997;   -5.924;  747.642
389.933;   -5.577;   -5.524;  695.370
390.527;   -6.483;   -7.114;  859.029
391.120;  -12.723;  -10.725;  595.318
391.714;   -9.644;   -8.035;  711.633
392.308;   -6.801;   -3.574;  780.253
392.901;  -10.056;   -7.245;  642.460
393.495;  -12.141;   -9.285;  595.414
394.089;   -9.503;   -5.895;  760.452
394.682;  -10.017;   -4.295;  697.188
395.275;  -11.180;   -9.875;  719.927
395.869;  -13.232;   -8.485;  667.314
396.462;  -11.075;   -7.455;  616.609
397.056;   -7.527;   -5.424;  776.621
397.649;  -11.696;   -6.605;  731.575
398.242;   -9.223;   -8.224;  712.645
398.836;   -7.610;   -7.474;  766.408
399.429;   -9.071;   -7.094;  631.041
400.022;  -12.682;   -9.475;  665.902
400.615;  -10.508;   -7.145;  805.609
401.208;   -7.733;   -7.174;  691.451
401.802;  -11.119;   -5.515;  699.329
402.395;  -11.821;   -9.875;  683.502
402.988;  -13.195;   -8.845;  696.627
403.581;   -9.403;   -8.874;  646.878
404.174;   -7.314;   -5.324;  686.568
404.767;  -10.326;   -9.575;  638.583
405.360;  -12.492;  -10.965;  621.445
405.953;   -7.134;   -8.764;  759.034
406.545;   -5.989;   -7.514;  725.342
407.138;  -10.456;  -10.025;  618.350
407.731;   -8.940;  -10.034;  613.303
408.324;   -5.465;   -9.374;  660.554
408.917;   -6.017;   -6.534;  681.864
409.509;   -8.605;   -8.004;  740.396
410.102;  -10.091;   -9.875;  643.948
410.695;   -4.548;   -8.604;  665.758
411.287;   -5.541;   -6.794;  599.821
411.880;   -7.009;   -9.334;  585.421
412.472;   -9.055;  -10.254;  613.092
413.065;   -6.883;   -6.714;  629.408
413.657;   -4.010;   -7.234;  576.678
414.250;   -4.872;  -10.544;  646.681
414.842;   -6.249;   -9.744;  676.353
415.434;   -3.831;   -6.994;  570.463
416.027;    0.255;   -5.893;  652.196
416.619;   -1.898;   -7.264;  713.400
417.211;   -2.422;  -10.374;  599.352
417.804;    1.305;   -7.993;  628.499
418.396;   -2.685;   -7.234;  607.643
418.988;   -0.560;   -9.443;  659.238
419.580;   -4.012;  -10.724;  568.276
420.172;   -1.386;  -10.323;  536.196
420.764;    2.033;   -8.793;  672.482
421.356;    1.484;  -11.143;  636.898
421.948;    0.244;   -8.293;  677.661
422.540;    5.847;   -7.893;  680.027
423.132;    5.189;   -7.082;  600.641
423.724;    1.272;   -8.653;  561.267
424.316;    3.621;  -10.213;  621.345
424.908;    6.855;   -9.762;  591.517
425.500;    7.734;   -5.572;  647.978
426.092;    7.666;   -8.422;  648.268
426.683;    7.142;   -9.283;  684.836
427.275;    9.523;   -7.852;  641.471
427.867;   12.143;   -5.272;  668.948
428.458;   12.133;   -7.682;  732.344
429.050;   10.674;  -10.612;  680.749
429.642;   13.149;   -9.882;  743.124
430.233;   13.331;   -6.962;  569.356
430.825;   14.216;   -6.842;  724.809
431.416;   11.868;   -9.672;  698.241
432.008;   15.588;   -6.552;  651.723
432.599;   15.892;   -6.891;  656.073
433.190;   13.447;  -10.912;  637.670
433.782;   12.222;  -11.172;  590.395
434.373;   19.372;   -6.061;  884.765
434.964;   18.454;   -8.251;  602.920
435.556;   16.885;   -9.722;  634.537
436.147;   19.231;   -9.082;  758.490
436.738;   19.549;   -8.041;  701.099
437.329;   24.517;   -7.341;  721.723
437.920;   17.007;   -8.162;  666.688
438.511;   17.924;  -11.802;  564.526
439.103;   23.997;  -10.191;  623.998
439.694;   25.825;   -7.601;  681.583
440.285;   27.187;   -8.541;  764.432
440.876;   24.985;   -9.751;  845.738
441.466;   24.207;   -9.401;  575.162
442.057;   29.351;   -7.760;  665.814
442.648;   28.660;   -9.971;  746.255
443.239;   27.244;  -11.001;  620.477
443.830;   32.046;   -7.990;  704.958
444.421;   33.911;   -7.910;  655.474
445.011;   29.650;   -8.131;  693.619
445.602;   29.873;   -7.111;  743.126
446.193;   31.912;  -10.920;  488.117
446.783;   36.288;   -6.500;  640.397
447.374;   31.442;   -8.671;  692.759
447.964;   32.353;  -10.781;  713.770
448.555;   40.808;   -9.650;  822.742
449.145;   37.692;   -8.660;  662.853
449.736;   38.376;   -8.990;  803.179
450.326;   38.130;   -9.500;  713.626
450.917;   42.475;   -8.680;  675.324
451.507;   40.895;   -7.520;  600.661
452.097;   42.309;   -8.590;  746.267
452.688;   43.464;  -11.340;  742.160
453.278;   43.868;  -10.100;  566.840
453.868;   48.138;   -6.019;  793.550
454.458;   45.948;   -9.440;  651.141
455.048;   46.212;  -10.560;  711.783
455.639;   48.864;  -11.799;  567.096
456.229;   51.898;   -6.899;  710.694
456.819;   53.295;   -7.389;  751.158
457.409;   53.431;  -11.119;  773.993
457.999;   56.140;   -9.289;  737.505
458.589;   56.306;   -6.139;  686.606
459.179;   56.263;   -8.729;  717.658
459.769;   54.234;   -9.789;  627.099
460.358;   60.127;  -10.259;  797.262
460.948;   58.899;   -7.299;  689.503
461.538;   60.702;  -10.289;  660.677
462.128;   58.824;  -11.269;  664.934
462.717;   65.745;   -9.368;  710.326
463.307;   68.581;   -7.908;  705.846
463.897;   65.299;   -9.599;  656.942
464.486;   63.931;   -9.769;  837.128
465.076;   68.798;   -8.048;  733.776
465.666;   71.864;   -9.358;  652.900
466.255;   69.152;   -7.919;  785.651
466.845;   68.395;  -11.689;  666.749
467.434;   71.325;   -7.818;  725.873
468.023;   73.084;   -7.678;  658.357
468.613;   70.811;  -10.939;  713.946
469.202;   75.088;  -10.118;  646.507
469.791;   80.129;   -9.108;  737.811
470.381;   81.714;   -6.058;  742.813
470.970;   80.943;  -10.428;  711.099
471.559;   81.135;  -10.268;  733.291
472.148;   84.136;   -8.448;  675.737
472.738;   87.049;   -6.917;  765.466
473.327;   87.136;  -11.978;  637.529
473.916;   85.726;  -11.888;  737.446
474.505;   90.528;   -9.437;  751.703
475.094;   93.493;   -6.747;  806.570
475.683;   93.189;   -9.367;  797.699
476.272;   94.096;  -12.637;  730.632
476.861;   96.301;  -10.027;  706.754
477.449;  103.209;   -8.716;  728.487
478.038;   97.396;   -9.577;  692.513
478.627;   99.448;   -9.718;  714.852
479.216;  106.269;   -8.947;  769.441
479.805;  109.671;   -6.256;  783.375
480.393;  109.059;   -7.937; 1008.945
480.982;  108.421;   -7.717;  874.501
481.571;  115.232;   -9.266;  858.333
482.159;  116.425;   -7.636;  705.386
482.748;  116.481;   -9.667;  821.385
483.336;  119.938;  -10.376;  858.209
483.925;  122.089;   -7.147;  774.373
484.513;  128.920;   -7.996;  758.962
485.102;  125.790;  -10.027;  810.965
485.690;  133.538;  -10.446; 1011.050
486.278;  135.450;   -8.446;  979.329
486.867;  138.275;   -6.356;  809.662
487.455;  139.764;   -9.136;  898.229
488.043;  140.836;  -10.646;  748.361
488.631;  150.757;   -7.456; 1005.079
489.220;  154.871;   -6.636;  908.626
489.808;  156.553;  -11.036;  741.415
490.396;  164.653;  -10.246;  914.645
490.984;  173.134;   -8.556;  830.161
491.572;  187.319;   -5.886;  940.315
492.160;  196.296;   -9.486;  919.081
492.748;  208.717;  -10.976;  884.341
493.336;  234.880;   -8.776; 1019.693
493.924;  271.436;   -5.465;  958.077
494.512;  317.203;   -9.986; 1066.638
495.100;  368.799;  -10.636; 1103.280
495.687;  445.956;  -10.885; 1206.373
496.275;  543.533;   -8.126; 1150.796
496.863;  647.475;  -10.586; 1281.171
497.451;  774.965;  -11.926; 1386.805
498.038;  900.714;  -10.885; 1556.729
498.626; 1044.631;   -6.315; 1741.407
499.214; 1286.345;   -7.326; 2016.609
499.801; 1568.529;  -11.906; 2220.633
500.389; 1937.537;  -10.466; 2312.494
500.976; 2261.008;   -5.236; 2744.849
501.564; 2850.287;   -8.936; 3148.565
502.151; 3598.390;  -13.176; 3515.999
502.738; 4045.625;  -10.646; 3971.274
503.326; 4551.582;   -9.525; 4403.796
503.913; 5030.638;  -10.856; 5161.749
504.500; 5480.710;  -11.586; 5986.420
505.088; 6136.426;  -10.336; 6381.201
505.675; 7143.605;   -6.355; 6925.547
506.262; 7848.785;   -9.046; 7619.060
506.849; 8262.060;  -10.416; 8733.969
507.436; 8876.693;  -10.305; 9790.121
508.023; 9354.620;   -5.496; 9985.472
508.610; 9452.712;   -7.856;10434.618
509.197;10621.652;  -10.097;11198.435
509.784;12192.839;  -10.886;12391.194
510.371;14001.506;   -9.315;13603.713
510.958;15344.492;   -9.936;14426.586
511.545;15915.625;   -9.326;15243.775
512.132;16113.865;  -10.075;15945.876
512.719;16718.668;   -7.796;16340.369
513.305;17941.186;  -10.606;18011.766
513.892;19811.102;  -11.486;19754.971
514.479;21253.816;   -9.126;20967.805
515.066;22687.320;   -6.026;22299.793
515.652;22941.568;   -8.466;22908.660
516.239;23725.070;  -10.886;23798.875
516.825;25187.365;  -11.496;25567.275
517.412;26747.438;   -5.796;28154.959
517.998;28155.727;  -10.506;28344.111
518.585;29084.240;  -10.076;27134.219
519.171;28229.840;   -8.315;27268.576
519.758;29130.162;   -8.596;28964.129
520.344;31868.994;   -8.466;30664.494
520.930;30520.340;  -11.006;32550.605
521.516;29068.186;  -10.495;35422.895
522.103;31028.670;   -5.526;38280.004
522.689;33424.078;   -8.746;37835.117
523.275;34901.637;  -11.376;37288.613
523.861;37087.719;  -11.156;37281.395
524.447;36724.539;   -8.135;37846.949
525.033;36936.430;   -7.896;38321.949
525.619;37676.492;  -12.476;38579.285
526.205;37614.172;   -9.516;40622.875
526.791;37532.852;   -6.926;42258.836
527.377;37143.898;   -8.346;42966.902
527.963;38686.500;   -8.717;42018.949
528.549;39985.223;  -11.016;42476.828
529.135;38447.578;   -8.536;41854.852
529.721;38267.469;   -9.666;41237.711
530.306;37486.895;  -10.066;41259.445
530.892;38726.285;  -11.356;41506.047
531.478;41419.637;   -6.596;43559.613
532.063;43491.953;   -8.836;47695.563
532.649;41025.637;  -10.047;50808.324
533.235;41079.988;   -9.746;51787.500
533.820;43625.309;   -6.566;52145.035
534.406;44990.547;  -10.817;51133.488
534.991;46667.895;   -9.416;49996.805
535.576;45245.938;   -9.036;48882.852
536.162;42626.441;   -6.156;46942.285
536.747;43262.590;  -11.607;45711.746
537.333;45582.996;  -11.787;48510.180
537.918;46180.699;  -12.437;50439.891
538.503;45694.402;   -7.196;50863.711
539.088;46780.355;  -10.556;50906.922
539.673;47227.188;   -8.767;52621.965
540.259;44090.125;  -10.026;52368.094
540.844;43634.785;   -7.416;50879.109
541.429;42731.012;   -9.467;52077.777
542.014;42237.148;   -9.527;52716.695
542.599;45752.641;   -9.946;52363.281
543.184;47431.270;   -7.927;53187.137
543.769;47243.113;   -9.297;54697.605
544.354;46817.965;  -10.127;53913.914
544.938;44481.266;   -9.267;49680.164
545.523;42775.117;   -6.506;47386.277
546.108;44679.555;   -9.787;49151.949
546.693;45216.512;  -11.587;51384.637
547.278;45909.672;  -10.986;51853.254
547.862;46350.281;   -8.206;51173.750
548.447;44220.574;  -10.067;51691.395
549.031;44115.469;   -9.637;52456.703
549.616;44480.328;   -9.926;52714.516
550.201;43758.246;   -6.347;52414.598
550.785;45016.352;   -7.917;52355.059
551.370;46220.527;  -10.867;54589.453
551.954;48439.895;   -9.047;58267.348
552.538;47204.914;   -7.827;59062.176
553.123;45304.180;  -10.287;58115.285
553.707;44459.523;  -12.178;56556.285
554.291;42051.883;   -8.717;56201.668
554.876;43412.125;   -7.457;55335.762
555.460;45339.109;  -10.387;54155.703
556.044;46725.969;   -9.618;53721.484
556.628;47538.773;  -11.567;53731.016
557.212;48368.500;   -8.097;54312.531
557.796;49521.113;  -11.077;53797.773
558.380;47477.648;  -11.108;56145.984
558.964;46179.020;   -9.057;57277.930
559.548;43638.598;   -6.977;56459.641
560.132;40219.023;  -11.457;54434.543
560.716;41636.352;  -11.378;54800.617
561.300;43621.813;   -9.577;57606.945
561.884;41984.742;   -7.127;58972.445
562.467;40728.855;   -7.118;57327.570
563.051;39363.965;  -13.358;54962.434
563.635;37488.652;  -10.178;52594.473
564.219;39901.926;   -7.837;50610.410
564.802;43581.656;  -11.398;49551.180
565.386;43677.559;  -12.788;48370.953
565.969;44748.027;   -9.077;48178.871
566.553;43332.406;   -6.207;49957.305
567.136;41488.098;   -8.568;50369.594
567.720;42913.133;  -11.868;49492.004
568.303;44350.898;   -8.268;50616.352
568.887;43711.914;   -8.698;50727.148
569.470;41632.816;   -6.808;51698.379
570.053;39342.250;  -13.188;52122.078
570.637;37091.973;  -12.037;52536.438
571.220;37318.328;   -8.577;51186.098
571.803;37487.863;   -8.498;51032.762
572.386;39305.824;  -10.498;49609.887
572.969;40009.508;   -9.388;48285.926
573.552;40211.742;   -8.338;47624.285
574.135;39327.004;   -8.518;45498.641
574.718;36576.652;  -13.628;41970.434
575.301;37390.656;  -10.893;41447.137
575.884;38204.656;   -8.158;40923.836
576.467;41825.148;  -10.328;45267.723
577.050;41403.016;  -13.058;48175.543
577.633;40195.520;   -9.458;47729.328
578.216;36856.711;   -8.928;47579.793
578.799;34666.277;   -9.358;47820.996
579.381;35983.797;  -11.388;48115.551
579.964;36257.000;  -11.718;47333.766
580.547;35074.570;   -8.588;46668.969
581.129;35484.531;   -8.859;44466.141
581.712;37233.727;  -10.729;44164.922
582.294;36967.867;  -11.118;46477.855
582.877;37733.656;   -5.218;48244.254
583.459;38132.828;   -8.679;47437.895
584.042;39543.453;  -10.709;46943.219
584.624;37226.648;  -11.669;46792.227
585.206;36321.992;   -8.218;46557.250
585.789;37678.371;  -10.569;45793.773
586.371;37610.387;  -11.859;43836.391
586.953;37832.355;  -10.719;42972.492
587.536;39152.703;   -7.198;42487.211
588.118;39272.770;   -8.720;42086.414
588.700;38603.906;  -10.439;43389.930
589.282;35629.121;   -9.198;43646.039
589.864;33634.387;   -9.199;43438.109
590.446;33562.141;  -11.319;43151.926
591.028;33162.855;  -11.159;42781.867
591.610;33819.359;  -11.779;42839.098
592.192;35062.855;   -7.668;42820.402
592.774;34059.781;  -11.949;40724.277
593.356;31758.160;  -12.129;39874.789
593.937;31607.535;  -10.669;39980.648
594.519;34405.887;   -6.509;42069.633
595.101;34466.891;  -10.849;42976.031
595.683;33153.648;  -11.679;44084.441
596.264;32402.928;   -9.049;43478.797
596.846;32129.604;   -8.849;43803.672
597.427;32553.480;   -9.570;42986.934
598.009;34222.484;  -12.620;42832.219
598.591;34099.824;  -10.039;42580.086
599.172;36397.758;  -10.369;43061.805
599.753;38392.242;   -9.140;41691.469
600.335;37794.430;  -11.430;40692.520
600.916;34786.711;   -9.939;39982.422
601.498;31749.303;   -8.479;40318.617
602.079;31595.432;  -10.920;40670.609
602.660;31276.813;  -11.480;41450.898
603.241;31911.564;  -11.699;41137.738
603.823;31976.783;   -9.579;38868.797
604.404;31746.572;  -10.620;38182.785
604.985;34707.094;  -10.450;38078.047
605.566;35768.051;   -9.129;38056.633
606.147;36696.379;   -7.510;37020.418
606.728;35356.570;  -10.660;37883.359
607.309;33613.027;  -11.740;38748.273
607.890;33478.691;   -9.759;38850.230
608.471;32053.057;   -8.250;37457.918
609.051;31962.846;   -9.240;36066.457
609.632;31683.947;  -12.120;35991.074
610.213;31401.143;   -9.110;37402.641
610.794;32141.771;   -8.030;38383.363
611.374;30969.260;   -8.110;40562.387
611.955;31034.678;  -13.560;38533.727
612.536;31835.771;  -11.400;36951.789
613.116;31262.078;   -8.070;37197.891
613.697;31999.912;  -10.830;38411.125
614.277;31457.004;  -11.641;38673.938
614.858;30950.400;  -13.310;37075.863
615.438;30773.355;   -7.460;35092.906
616.019;28537.467;   -7.601;33666.301
616.599;29266.578;  -12.020;34189.023
617.179;29205.990;  -11.780;36952.047
617.760;28454.416;   -8.570;39582.574
618.340;29455.279;  -11.471;38943.977
618.920;30065.184;  -11.170;37594.156
619.500;30796.943;  -11.071;37866.938
620.080;31101.010;   -7.750;37869.043
620.660;31318.133;  -12.711;36868.617
621.241;32103.592;  -10.211;36352.309
621.821;31735.686;  -10.961;35459.520
622.401;31858.258;   -7.720;35207.414
622.980;33916.148;   -8.981;35980.422
623.560;32270.832;   -9.331;37351.328
624.140;27963.385;   -9.850;34388.582
624.720;24322.434;   -7.451;32368.764
625.300;24179.027;   -9.070;32638.629
625.880;28224.338;  -12.601;34599.035
626.459;30746.451;  -11.751;36831.738
627.039;30231.314;   -9.281;38299.098
627.619;29748.682;   -8.801;38289.574
628.198;30108.568;  -12.071;37220.695
628.778;31023.574;   -9.461;37632.563
629.357;32016.045;   -8.491;38003.012
629.937;31860.279;   -9.721;38402.039
630.516;32448.869;   -9.951;37868.801
631.096;33284.152;  -11.731;35760.410
631.675;35335.637;   -8.572;35225.219
632.254;34960.961;  -11.282;35130.289
632.834;33894.883;  -13.322;35794.570
633.413;34790.449;  -10.301;35788.922
633.992;34899.355;   -8.582;34532.863
634.571;35992.922;   -8.352;33590.113
635.151;34994.293;  -11.912;34943.863
635.730;33124.414;  -10.511;35352.523
636.309;32787.539;   -7.731;35366.605
636.888;32044.641;   -9.952;36165.637
637.467;31323.279;  -11.672;37515.902
638.046;29775.703;   -8.901;39288.695
638.625;29203.813;   -7.912;38279.699
639.204;28827.246;  -10.022;37741.598
639.782;30418.109;  -12.252;38364.551
640.361;32808.465;  -10.041;36740.621
640.940;32754.938;  -11.161;34950.082
641.519;32324.221;   -9.701;34137.398
642.097;32804.195;  -11.271;35654.258
642.676;32498.793;   -8.651;35637.957
643.255;31680.246;   -8.711;36567.074
643.833;31380.813;   -9.581;37809.434
644.412;32003.906;  -13.711;37337.293
644.990;33246.395;  -11.811;37018.531
645.569;36150.688;   -9.411;36518.469
646.147;36581.578;  -10.291;36186.430
646.726;34933.766;  -12.401;36267.688
647.304;33415.281;  -10.411;36647.625
647.882;34168.352;   -9.651;39286.742
648.461;33794.930;   -9.631;39157.703
649.039;31129.477;  -11.881;35412.883
649.617;31085.293;   -9.661;34744.918
650.195;31374.088;   -9.301;35403.098
650.773;30564.262;  -10.511;35053.797
651.352;30434.619;  -11.521;33756.816
651.930;29239.039;  -12.211;31868.773
652.508;28510.740;   -9.171;33121.551
653.086;29853.066;   -9.371;33564.793
653.663;31779.734;  -13.161;34054.668
654.241;30459.158;  -13.031;35693.309
654.819;28747.545;   -9.371;36422.906
655.397;29358.537;  -10.511;38213.484
655.975;29599.971;  -10.371;39507.625
656.553;30806.014;  -10.051;39498.223
657.130;31684.150;  -10.061;40395.480
657.708;28704.016;   -9.561;39242.020
658.286;26547.551;  -11.511;38920.020
658.863;26641.564;  -10.261;40202.898
659.441;29113.336;   -7.531;39677.938
660.018;31945.293;   -9.501;40413.355
660.596;32500.645;  -13.301;39931.414
661.173;35042.496;  -11.211;39604.531
661.750;34072.078;   -9.951;39700.070
662.328;31620.559;   -9.390;39292.809
662.905;30330.922;  -11.330;38235.648
663.482;27733.125;   -9.050;36212.305
664.060;25482.809;   -8.240;35944.945
664.637;29479.381;  -10.050;35170.785
665.214;33657.586;  -11.760;34197.523
665.791;32253.414;  -10.530;34549.520
666.368;31999.473;   -9.690;35118.578
666.945;32179.170;   -9.320;36019.418
667.522;32811.793;  -11.860;36048.438
668.099;31586.748;  -10.770;36243.914
668.676;32208.836;   -6.260;35958.875
669.253;34250.039;   -7.000;37384.730
669.830;34027.641;  -10.190;36779.629
670.407;32652.785;   -9.550;35231.289
670.984;32018.320;   -9.260;35544.270
671.560;30870.137;   -9.280;35466.867
672.137;29693.590;  -11.810;34280.863
672.714;29783.676;  -11.490;34632.863
673.290;30199.555;   -7.740;35135.422
673.867;30137.609;  -10.660;36114.480
674.443;29204.660;  -12.230;36152.859
675.020;27475.977;  -10.450;35327.238
675.596;26484.184;   -9.260;35795.176
676.173;27793.621;  -10.780;35430.355
676.749;28560.932;  -13.690;33549.516
677.326;29202.492;  -11.980;32210.012
677.902;27254.027;   -8.630;32068.871
678.478;26089.654;  -10.730;32583.891
679.054;28117.510;  -10.520;32088.928
679.631;29460.963;  -11.920;30978.848
680.207;30543.820;   -7.490;33160.887
680.783;31760.096;   -9.860;35570.363
681.359;32156.088;  -13.380;36125.184
681.935;31028.447;  -12.480;35240.922
682.511;31447.178;   -7.900;34429.961
683.087;32070.504;   -7.710;34463.680
683.663;32608.160;  -11.480;34648.898
684.239;32565.381;  -14.090;34546.457
684.815;33716.855;   -7.560;35586.375
685.390;33693.621;   -9.910;35821.895
685.966;33268.484;  -11.159;35085.871
686.542;33683.074;  -11.169;34198.230
687.118;32042.877;   -5.959;32847.707
687.693;32273.332;  -10.329;32794.027
688.269;31929.566;  -12.059;33072.367
688.844;32588.791;  -10.909;33141.664
689.420;33091.172;   -8.019;33965.742
689.995;29580.686;   -8.399;34655.523
690.571;28922.977;  -10.949;33576.742
691.146;28005.469;   -9.619;32657.219
691.722;26136.541;   -8.999;32526.979
692.297;25604.893;  -11.589;33014.617
692.872;26440.066;  -11.739;34012.254
693.448;26473.348;  -11.059;34237.434
694.023;28161.055;  -10.139;34142.672
694.598;30206.514;   -9.029;34132.031
695.173;29931.197;  -13.319;34205.250
695.748;27642.297;  -10.169;32882.488
696.323;25402.432;   -8.339;32864.906
696.898;25228.426;   -8.169;33170.004
697.473;28181.434;  -12.309;32432.984
698.048;27594.354;  -10.989;31649.303
698.623;26747.535;   -9.329;30778.141
699.198;28226.223;   -9.849;31140.119
699.773;29430.605;  -12.329;31764.299
700.348;29501.609;  -10.389;31780.816
700.922;27550.824;   -9.269;32046.375
701.497;25878.740;   -9.329;32603.574
702.072;27397.600;  -10.789;34799.871
702.646;27235.844;  -10.839;35793.172
703.221;28195.740;   -9.099;35201.590
703.795;28600.373;  -10.939;34764.527
704.370;27486.910;  -12.859;34307.367
704.944;28918.273;  -11.559;33509.887
705.519;29923.396;   -7.939;31388.584
706.093;31954.633;  -10.499;31340.104
706.668;32701.564;  -11.289;32630.281
707.242;31614.270;  -11.509;32728.779
707.816;30216.916;   -9.639;32947.238
708.390;29803.055;  -11.429;33277.855
708.965;30993.230;  -11.869;33834.336
709.539;31054.689;  -11.689;33709.273
710.113;30546.951;  -10.478;33044.313
710.687;27906.793;  -10.228;31953.992
711.261;27256.371;  -13.698;30505.949
711.835;26872.826;  -13.378;30262.369
712.409;26455.008;   -9.698;31254.447
712.983;25616.547;  -11.898;32754.986
713.557;24484.355;  -15.138;34018.824
714.131;25669.383;  -14.098;34579.625
714.704;25695.012;   -9.958;33890.262
715.278;25037.369;  -10.028;33531.102
715.852;24305.783;  -11.148;33601.660
716.425;24160.549;   -9.068;33515.117
716.999;26051.100;  -10.038;33185.555
717.573;26667.582;   -9.798;33905.996
718.146;27627.266;  -12.378;35199.293
718.720;28068.992;  -11.918;35060.551
719.293;27281.232;   -8.088;34973.230
719.867;26331.539;  -10.888;36394.449
720.440;27073.105;  -11.938;36663.008
721.013;29025.400;  -12.818;35102.426
721.587;30520.525;  -10.298;33985.266
722.160;30178.041;  -10.048;33524.965
722.733;28249.408;  -12.108;32987.043
723.306;26502.148;  -10.818;33066.301
723.880;26973.326;   -8.908;33399.500
724.453;25831.768;   -9.878;33468.297
725.026;25485.498;  -11.188;33816.637
725.599;25725.994;  -11.678;32797.996
726.172;25618.008;   -9.618;33187.434
726.745;26872.357;   -8.258;35136.613
727.318;29415.918;  -12.978;35751.730
727.891;31197.182;  -12.148;35890.430
728.463;32685.400;   -8.968;34822.090
729.036;32967.348;  -10.188;32895.086
729.609;30902.410;  -11.788;31823.225
730.182;28899.854;  -11.788;31445.283
730.754;27994.074;  -10.268;32373.223
731.327;27625.318;   -9.998;33676.820
731.900;26775.799;  -12.228;33417.000
732.472;25766.723;  -13.848;31978.498
733.045;25564.254;   -8.698;30368.777
733.617;24583.357;  -10.607;30574.215
734.190;23137.754;  -11.507;31280.975
734.762;23804.375;  -13.647;31674.412
735.334;25285.414;   -9.767;31247.291
735.907;25702.152;   -9.897;29876.211
736.479;23569.209;  -11.637;29808.488
737.051;22819.775;   -9.567;30233.547
737.623;23614.668;   -8.187;31469.086
738.195;25631.857;  -11.187;31784.225
738.768;26142.938;  -12.337;32120.523
739.340;25612.703;  -12.227;32094.342
739.912;25432.361;  -11.057;31312.680
740.484;26231.797;  -10.207;31946.238
741.056;26890.080;  -10.047;32984.059
741.628;26334.664;  -13.627;33897.715
742.199;26928.627;   -7.177;33213.016
742.771;25143.428;  -10.797;31369.113
743.343;23895.811;  -11.997;31865.473
743.915;24135.000;  -12.867;32388.631
744.487;24873.908;   -7.617;31079.568
745.058;25963.313;   -9.557;30570.107
745.630;25429.627;   -9.877;29970.127
746.201;24379.666;  -14.177;29186.766
746.773;24128.996;   -9.237;28805.723
747.344;24329.824;   -9.847;29591.223
747.916;24411.451;  -11.657;31412.201
748.487;24090.625;  -10.587;32194.898
749.059;23931.609;   -8.707;32533.719
749.630;23170.061;  -10.537;32158.518
750.201;23432.502;  -11.687;30855.395
750.773;23552.896;  -11.647;28622.555
751.344;24464.443;   -7.147;28405.732
751.915;24100.727;   -9.757;28461.551
752.486;23453.701;  -12.427;27842.850
753.057;22068.277;  -12.227;27845.008
753.628;22045.547;  -10.417;27728.107
754.199;22257.891;  -11.767;27381.086
754.770;21330.203;  -11.187;25882.203
755.341;20612.244;  -10.507;25886.184
755.912;20767.246;   -9.387;26050.861
756.483;21300.246;  -10.647;26798.779
757.054;20959.666;  -11.837;27048.238
757.625;19238.160;  -12.716;26294.838
758.195;18670.184;   -9.666;26142.076
758.766;19471.588;   -8.656;26392.234
759.337;19232.412;  -12.856;26334.594
759.907;18423.590;  -13.366;27579.652
760.478;17442.760;   -8.576;28352.770
761.048;18239.082;  -10.526;27325.088
761.619;18936.549;  -11.116;26460.428
762.189;18614.754;  -12.136;26029.826
762.760;18678.490;   -9.456;26430.145
763.330;18979.109;   -7.136;26670.902
763.900;18796.988;  -11.786;26603.021
764.471;17963.477;  -11.546;25542.740
765.041;17614.959;   -8.096;24358.459
765.611;17652.242;   -8.876;23991.297
766.181;17570.777;  -12.196;24470.236
766.751;18086.357;  -11.636;24845.975
767.321;17907.791;  -10.156;24533.633
767.891;17677.186;  -11.766;24916.492
768.461;17362.023;  -14.936;24776.771
769.031;16737.225;  -12.356;24757.988
769.601;16575.244;   -7.526;24181.088
770.171;16900.883;  -10.766;23670.387
770.741;17251.029;  -13.176;22960.045
771.311;16709.760;  -10.616;22917.523
771.880;15475.647;   -9.576;23562.941
772.450;15111.717;  -10.336;24216.500
773.020;15247.827;  -13.516;24140.398
773.589;14956.098;  -13.466;24414.857
774.159;14421.971;   -8.686;23858.717
774.729;13947.056;   -9.476;22942.135
775.298;13901.714;  -13.666;22324.033
775.867;13779.153;  -11.716;21140.313
776.437;13231.041;   -9.906;20838.092
777.006;13161.446;  -12.166;20599.510
777.576;14198.188;  -12.356;20508.809
778.145;13352.774;  -11.646;20732.947
778.714;12200.228;   -8.226;21062.465
779.283;11831.059;   -9.556;20949.664
779.853;11764.771;  -14.116;20508.623
780.422;11858.282;  -11.506;20649.082
780.991;12257.240;   -9.556;21527.520
781.560;12796.020;   -9.095;22632.658
782.129;11763.042;  -12.135;23048.277
782.698;10689.378;  -10.865;23438.555
783.267;10222.792;   -9.335;23267.734
783.836;10582.623;  -11.045;22415.133
784.404;11151.722;  -13.865;20443.152
784.973;11289.174;  -13.095;19699.150
785.542;11175.281;  -11.575;19763.828
786.111;10935.611;   -9.705;20341.408
786.679;10739.402;  -12.105;20207.967
787.248;10574.204;  -12.455;19516.465
787.817;10444.660;  -11.535;18900.363
788.385;10264.407;   -9.765;17879.121
788.954;10211.715;  -14.005;17658.301
789.522;10212.875;  -11.955;17788.879
790.090; 9537.755;  -10.135;18118.277
790.659; 8770.079;  -10.975;18338.736
791.227; 8771.610;  -13.375;18508.615
791.795; 9038.997;  -12.375;17898.254
792.364; 9262.282;  -10.725;17295.133
792.932; 9585.952;   -9.715;16822.051
793.500; 9382.688;  -12.675;17040.148
794.068; 9616.771;  -13.495;17179.787
794.636; 9632.494;  -10.885;16664.246
795.204; 9409.955;  -11.045;16524.545
795.772; 9450.912;  -13.175;17274.564
796.340; 9274.786;  -12.445;17891.002
796.908; 9531.832;   -9.735;17648.561
797.476; 9854.461;   -9.815;17064.080
798.044; 9562.707;  -13.985;16672.777
798.612; 9158.097;  -13.115;17023.996
799.180; 8496.363;  -10.185;16561.615
799.747; 8391.525;   -9.055;15962.773
800.315; 8623.577;  -12.385;15296.992
800.883; 7975.537;  -15.035;14801.771
801.450; 7345.221;  -10.365;14534.430
802.018; 7146.787;   -9.855;14173.248
802.585; 7113.188;  -11.905;14029.547
803.153; 7260.920;  -11.585;13836.846
803.720; 7075.054;   -9.095;13567.324
804.287; 7089.118;   -9.135;13360.622
804.855; 7310.239;  -11.604;13681.981
805.422; 7724.194;  -11.794;13536.560
805.989; 7933.294;  -10.734;13355.958
806.556; 7925.961;  -10.444;13747.896
807.124; 8396.025;  -12.764;13987.376
807.691; 8948.203;  -12.964;14038.674
808.258; 9009.620;  -11.134;14120.152
808.825; 9027.853;   -9.854;13860.111
809.392; 8678.784;  -10.504;13268.790
809.959; 8033.047;  -13.054;12680.389
810.526; 7358.309;   -8.294;12427.308
811.093; 6728.241;   -8.394;12030.105
811.659; 6569.584;  -12.304;11653.664
812.226; 6760.939;  -13.944;11637.183
812.793; 7183.040;  -10.484;11611.521
813.360; 7346.322;  -10.144;11885.181
813.926; 7402.145;  -11.684;12770.539
814.493; 7337.635;  -13.644;12677.638
815.060; 7238.886;   -9.724;11974.336
815.626; 7451.699;   -9.854;11594.715
816.193; 7461.848;  -13.254;11579.474
816.759; 6795.528;  -13.204;11666.972
817.325; 6411.236;   -9.434;11325.530
817.892; 6284.333;  -10.134;11105.369
818.458; 6467.668;  -13.474;10843.928
819.024; 6955.285;  -11.854;10714.406
819.591; 7045.364;  -10.244;10469.165
820.157; 6810.539;  -10.704;10235.523
820.723; 6744.808;  -12.324;10847.563
821.289; 6611.752;   -9.444;11040.980
821.855; 6750.087;   -8.374;10357.100
822.421; 7113.266;  -10.234; 9978.918
822.987; 7015.086;  -13.294; 9754.177
823.553; 6642.888;  -10.884;10065.755
824.119; 6359.065;   -8.884;10036.294
824.685; 5860.479;   -6.784;10029.192
825.251; 5753.337;  -12.004;10199.230
825.816; 5499.377;  -11.474; 9820.189
826.382; 5337.668;   -9.174; 9297.248
826.948; 5666.277;   -9.214; 9381.347
827.513; 6060.891;  -10.774; 9450.726
828.079; 6102.813;  -11.924; 9472.444
828.645; 5867.150;  -10.543; 9292.643
829.210; 5729.191;  -10.533; 9065.341
829.776; 5624.735;  -10.753; 9132.620
830.341; 5739.730;  -10.173; 9092.878
830.906; 5697.838;  -10.743; 9078.557
831.472; 5417.980;  -11.113; 8534.535
832.037; 5076.374;  -10.603; 8677.874
832.602; 4942.837;  -13.323; 8628.692
833.167; 4720.536;  -10.823; 8879.031
833.733; 4623.823;  -10.113; 9189.790
834.298; 4478.785;  -13.583; 9052.608
834.863; 4648.662;  -12.703; 8895.087
835.428; 4861.292;  -10.523; 8824.266
835.993; 4806.114;   -6.963; 8845.385
836.558; 4754.113;  -10.763; 8888.563
837.123; 4894.404;   -9.903; 8966.582
837.688; 5221.862;   -9.913; 8617.860
838.253; 5230.016;  -10.283; 8590.699
838.817; 4890.450;  -12.963; 8443.797
839.382; 4804.940;  -14.243; 8799.356
839.947; 4977.288;  -10.733; 8810.595
840.511; 4980.782;   -9.383; 8796.394
841.076; 4749.675;  -12.563; 8347.231
841.641; 4538.427;  -12.953; 8224.330
842.205; 4368.157;   -7.043; 8223.349
842.770; 4163.667;   -8.163; 8622.107
843.334; 4323.375;  -12.503; 8410.386
843.898; 4428.497;  -11.693; 8337.465
844.463; 4021.003;  -10.203; 8506.283
845.027; 3755.224;   -9.533; 8280.962
845.591; 3786.166;  -13.443; 8231.141
846.156; 3851.355;  -13.143; 7969.179
846.720; 3709.122;   -9.433; 7768.278
847.284; 3631.211;  -11.033; 7630.957
847.848; 3587.573;  -10.403; 7472.395
848.412; 3409.143;  -11.553; 7437.394
848.976; 3327.503;   -8.393; 7674.592
849.540; 3299.592;   -8.713; 7836.011
850.104; 3294.151;  -12.463; 7913.669
850.668; 3368.353;  -12.973; 7694.508
851.232; 3344.454;  -10.793; 7756.887
851.796; 3355.497;  -10.662; 7926.545
852.359; 3424.763;  -13.082; 7827.844
852.923; 3406.271;  -12.192; 7641.163
853.487; 3390.058;  -11.912; 7342.501
854.050; 3278.085;  -10.892; 7042.820
854.614; 3372.173;  -13.992; 7151.338
855.177; 3421.950;  -11.732; 7105.077
855.741; 3300.960;   -8.962; 6989.675
856.304; 3164.856;   -9.442; 6596.634
856.868; 3034.500;  -14.192; 6356.272
857.431; 2991.436;  -12.702; 6468.571
857.995; 3027.706;   -9.942; 6373.210
858.558; 3122.073;   -9.112; 6324.448
859.121; 3050.738;  -12.932; 6408.327
859.684; 2966.828;  -13.442; 6347.886
860.247; 2930.138;  -10.632; 6321.264
860.810; 2898.994;  -11.272; 6301.903
861.374; 2820.031;   -9.832; 6607.881
861.937; 2729.779;  -11.762; 6408.200
862.500; 2731.451;   -9.722; 6572.639
863.062; 2699.875;  -10.512; 6387.297
863.625; 2688.203;  -11.232; 6190.836
864.188; 2736.623;  -14.112; 5807.254
864.751; 2734.932;  -11.302; 5682.413
865.314; 2603.826;  -10.112; 5547.492
865.876; 2429.735;  -12.182; 5500.150
866.439; 2275.146;  -10.722; 5415.909
867.002; 2182.331;   -9.252; 5501.567
867.564; 2231.988;   -9.572; 5413.946
868.127; 2270.443;  -13.142; 5160.325
868.689; 2373.463;  -12.902; 5133.183
869.252; 2487.087;   -9.732; 5252.382
869.814; 2405.513;   -9.432; 5297.141
870.377; 2312.168;  -11.552; 5390.919
870.939; 2315.300;   -9.052; 5599.898
871.501; 2257.940;  -10.982; 5248.336
872.063; 2157.307;  -12.292; 4854.235
872.626; 2093.540;  -14.912; 4817.074
873.188; 1994.290;  -13.112; 4987.732
873.750; 1981.252;  -13.442; 4868.651
874.312; 1954.874;   -9.402; 4779.330
874.874; 1893.434;  -11.062; 4866.348
875.436; 1763.978;  -13.931; 4718.887
875.998; 1647.382;   -9.561; 4660.005
876.560; 1622.609;  -11.321; 4462.964
877.122; 1669.821;  -12.221; 4145.042
877.683; 1774.888;  -12.191; 4056.481
878.245; 1831.765;  -12.101; 3950.740
878.807; 1889.850;   -8.971; 4058.958
879.369; 1849.936;  -12.071; 3954.677
879.930; 1709.242;  -14.621; 3941.495
880.492; 1614.422;  -10.311; 4067.014
881.053; 1613.093;  -10.901; 3859.633
881.615; 1593.019;  -14.411; 3776.071
882.176; 1528.581;  -13.761; 3734.750
882.738; 1456.308;   -9.181; 3678.489
883.299; 1431.770;  -11.791; 3405.407
883.860; 1435.004;  -13.121; 3351.106
884.422; 1382.881;  -11.211; 3394.044
884.983; 1307.743;  -10.091; 3166.443
885.544; 1264.609;   -8.461; 3189.802
886.105; 1201.098;  -12.361; 3160.360
886.666; 1134.752;  -14.141; 3093.059
887.227; 1105.604;  -11.361; 2941.957
887.788; 1058.105;  -11.401; 2974.836
888.349;  966.390;  -13.791; 2721.214
888.910;  922.938;  -13.191; 2696.493
889.471;  891.901;   -9.881; 2560.172
890.032;  904.492;   -9.881; 2558.190
890.593;  890.345;  -10.371; 2567.669
891.153;  797.295;  -13.301; 2460.307
891.714;  692.577;  -11.431; 2372.046
892.275;  653.683;  -11.291; 2309.505
892.835;  665.958;  -11.471; 2382.543
893.396;  659.020;  -11.541; 2295.502
893.956;  629.189;  -11.181; 2162.420
894.517;  588.806;  -11.741; 2125.439
895.077;  536.243;  -11.671; 2086.978
895.638;  496.983;  -11.311; 2126.316
896.198;  487.732;   -9.831; 1838.275
896.758;  470.961;   -8.421; 1892.813
897.319;  448.401;  -12.351; 1792.232
897.879;  428.721;  -13.511; 1762.751
898.439;  397.009;  -12.001; 1661.149
898.999;  379.746;  -10.180; 1781.468
899.559;  374.731;  -12.030; 1703.347
900.119;  365.951;  -15.710; 1537.525
900.679;  349.332;   -8.900; 1638.384
901.239;  327.864;   -8.340; 1527.902
901.799;  300.673;  -13.910; 1456.441
902.359;  277.838;  -13.460; 1357.140
902.919;  271.679;  -11.490; 1331.118
903.479;  271.680;  -12.110; 1317.257
904.038;  265.551;  -11.720; 1262.595
904.598;  256.569;  -13.610; 1152.034
905.158;  244.507;  -11.040; 1240.893
905.717;  229.095;  -10.900; 1233.691
906.277;  220.150;  -15.080; 1217.330
906.836;  218.754;  -13.380; 1222.408
907.396;  214.490;  -10.780; 1193.047
907.955;  207.502;   -8.500; 1182.526
908.515;  202.372;  -12.760; 1099.364
909.074;  202.552;  -11.900; 1092.863
909.633;  202.029;   -8.950; 1069.121
910.192;  199.524;   -8.770; 1196.460
910.752;  189.229;  -12.390; 1029.960
911.311;  178.738;  -13.680; 1009.780
911.870;  170.446;  -12.370;  971.460
912.429;  164.234;  -10.900; 1094.080
912.988;  162.487;  -11.690; 1081.060
913.547;  159.758;  -13.240;  940.380
914.106;  157.575;  -11.990;  999.420
914.665;  156.126;   -9.990;  984.020
915.224;  153.927;  -12.880; 1035.760
915.782;  151.714;  -12.350;  922.560
916.341;  150.812;   -9.110; 1049.840
916.900;  148.735;   -9.270;  925.260
917.458;  146.637;  -13.240;  884.220
918.017;  145.322;  -13.550;  942.600
918.576;  143.810;  -12.320;  904.440
919.134;  141.966;  -11.490;  837.980
919.693;  140.086;  -13.670;  893.060
920.251;  139.754;  -15.470;  876.500
920.809;  138.324;  -11.290;  839.580
921.368;  138.423;  -10.210;  885.360
921.926;  135.580;  -12.140;  842.940
922.484;  134.025;  -13.080;  903.360
923.042;  132.950;  -11.720;  880.340
923.601;  133.409;   -7.480;  998.680
924.159;  131.327;  -11.570;  935.560
924.717;  129.608;  -13.840;  841.080
925.275;  129.868;  -10.640;  903.240
925.833;  128.795;  -11.540;  779.320
926.391;  129.910;  -12.960;  938.380
926.949;  130.204;  -14.130;  857.680
927.506;  128.386;  -11.750;  903.500
928.064;  128.566;  -10.250;  877.580
928.622;  129.647;  -13.030;  880.100
929.180;  131.707;  -13.400;  814.180
929.737;  133.532;  -10.700;  808.540
930.295;  136.567;  -10.070;  928.480
930.853;  135.626;  -11.960;  849.100
931.410;  136.534;  -13.120;  821.120
931.968;  138.415;  -10.770;  940.660
932.525;  139.653;  -10.680;  909.380
933.082;  137.907;  -13.130;  811.440
933.640;  139.190;  -13.210;  925.900
934.197;  138.509;  -11.060;  886.360
934.754;  138.544;   -9.580;  897.780
935.312;  139.500;  -14.000;  863.340
935.869;  140.812;  -10.710; 1012.980
936.426;  139.429;   -9.860;  872.800
936.983;  139.109;   -9.710;  889.020
937.540;  140.460;  -13.990;  838.280
938.097;  145.233;  -14.040;  940.120
938.654;  147.679;  -10.310;  898.860
939.211;  148.257;  -10.560;  952.480
939.768;  147.690;  -13.900;  915.420
940.324;  150.795;  -14.760;  904.200
940.881;  154.744;  -10.370;  878.500
941.438;  159.064;   -8.260; 1021.200
941.995;  157.801;  -12.540;  992.560
942.551;  157.715;  -14.670;  875.620
943.108;  158.338;  -10.450;  937.920
943.664;  159.629;  -10.750;  869.340
944.221;  162.117;  -11.550; 1088.140
944.777;  161.748;  -14.770;  869.680
945.334;  158.514;  -12.820;  884.840
945.890;  153.802;  -10.130;  946.480
946.446;  150.349;  -13.470;  947.020
947.003;  153.468;  -12.120;  964.940
947.559;  153.375;   -9.980; 1063.040
948.115;  150.092;   -9.080; 1026.540
948.671;  147.536;  -10.830;  967.300
949.227;  147.308;  -12.440;  859.560
949.783;  147.381;  -12.910;  858.900
950.339;  150.519;  -10.270;  991.000
950.895;  152.023;  -13.630; 1023.840
951.451;  151.112;  -15.100;  925.280
952.007;  149.182;  -11.330;  998.540
952.563;  145.777;  -10.580;  937.780
953.118;  143.108;  -13.440;  904.940
953.674;  142.403;  -12.710;  935.780
954.230;  145.357;  -10.350;  949.640
954.785;  147.684;   -9.190;  936.640
955.341;  150.159;  -11.200;  998.160
955.897;  144.421;  -16.560;  834.660
956.452;  142.891;  -12.570;  953.840
957.008;  140.843;   -7.970; 1083.640
957.563;  136.974;  -11.940; 1009.540
958.118;  133.040;  -13.450;  877.700
958.674;  131.732;  -12.030;  946.780
959.229;  133.943;   -9.410; 1013.980
959.784;  132.586;  -12.000;  832.400
960.339;  133.014;  -14.780; 1001.280
960.894;  130.615;   -9.860;  963.760
961.449;  126.680;   -9.970;  859.960
962.004;  127.770;  -10.900; 1212.840
962.559;  125.334;  -13.150;  860.140
963.114;  123.456;  -13.740;  742.480
963.669;  122.538;   -9.820;  915.500
964.224;  121.194;  -13.890;  874.340
964.779;  120.851;  -12.600;  828.420
965.334;  122.933;  -10.950; 1017.860
965.888;  121.784;  -11.170;  875.360
966.443;  121.169;  -12.540;  972.380
966.998;  118.383;  -15.780;  819.460
967.552;  117.483;   -9.760;  908.380
968.107;  114.701;   -9.060;  868.300
968.661;  114.950;  -11.950;  922.440
969.216;  112.589;  -12.800;  856.280
969.770;  111.082;  -11.210;  917.200
970.324;  111.058;  -11.610;  923.140
970.879;  112.008;  -11.370;  947.180
971.433;  113.140;  -12.540;  952.720
971.987;  111.657;  -11.320;  895.340
972.541;  109.769;  -10.720;  917.100
973.095;  109.631;   -9.680; 1009.460
973.649;  106.795;  -11.440;  809.480
974.203;  104.701;  -11.210;  829.040
974.757;  104.342;  -10.240;  855.220
975.311;  104.321;  -13.720;  872.600
975.865;  104.023;  -13.770;  881.820
976.419;  100.653;  -11.690;  857.400
976.973;   98.750;   -9.510;  849.620
977.526;   97.410;  -12.620;  949.920
978.080;   96.035;  -12.010;  796.780
978.634;   95.335;  -10.170;  921.320
979.187;   94.293;   -9.020;  905.400
979.741;   96.378;   -9.820; 1018.380
980.294;   94.435;  -14.870;  789.160
980.848;   93.644;  -12.380;  717.220
981.401;   93.063;  -10.350;  816.540
981.955;   91.914;  -13.720;  844.300
982.508;   88.651;  -11.490;  746.340
983.061;   88.086;  -10.000;  915.260
983.615;   86.411;  -11.480;  798.800
984.168;   84.260;  -13.220;  770.080
984.721;   83.408;  -13.960;  880.760
985.274;   81.234;  -10.870;  867.500
985.827;   79.445;   -9.790;  834.220
986.380;   77.475;  -13.120;  721.340
986.933;   77.112;  -12.450;  864.800
987.486;   75.767;  -10.210;  861.920
988.039;   77.289;   -8.430;  863.100
988.591;   75.976;  -10.520;  893.260
989.144;   73.170;  -14.860;  737.260
989.697;   72.264;  -13.080;  758.740
990.250;   71.961;  -10.150;  858.100
990.802;   69.798;  -13.430;  755.860
991.355;   68.992;  -12.750;  974.880
991.907;   67.322;  -12.040;  864.320
992.460;   65.651;  -11.330;  753.760
993.012;   64.884;  -13.610;  749.540
993.565;   62.724;  -13.460;  711.360
994.117;   63.694;   -9.360;  950.780
994.669;   60.890;  -11.300;  701.320
995.221;   59.824;  -13.540;  791.920
995.774;   59.270;  -13.430;  787.580
996.326;   56.682;  -12.520;  740.220
996.878;   57.129;  -10.950;  838.420
997.430;   53.874;  -14.300;  699.860
997.982;   53.520;  -13.760;  750.140
998.534;   52.922;  -11.530;  739.060
999.086;   52.547;  -10.310;  738.220
999.638;   51.179;  -12.530;  661.380
1000.190;   50.077;  -11.840;  699.320
1000.741;   49.271;  -10.260;  742.700
1001.293;   49.274;   -8.860;  686.020
1001.845;   48.680;  -13.700;  676.640
1002.396;   49.568;  -12.100;  743.400
1002.948;   47.623;  -12.760;  737.400
1003.500;   46.477;  -10.380;  723.780
1004.051;   46.468;  -11.900;  907.580
1004.603;   45.960;  -12.250;  791.820
1005.154;   42.149;  -13.210;  608.980
1005.705;   41.963;  -10.950;  723.960
1006.257;   41.690;  -13.880;  707.220
1006.808;   41.171;  -12.840;  685.460
1007.359;   39.843;  -10.570;  763.240
1007.910;   39.349;   -9.620;  646.640
1008.461;   38.829;  -13.630;  732.940
1009.013;   38.168;  -17.200;  588.340
1009.564;   38.647;  -10.200;  793.520
1010.115;   37.201;  -12.570;  597.040
1010.665;   36.856;  -15.150;  602.160
1011.216;   36.804;  -14.480;  667.920
1011.767;   36.476;  -11.340;  697.920
1012.318;   36.078;   -9.780;  736.980
1012.869;   34.919;  -12.380;  679.000
1013.419;   34.604;  -15.560;  603.120
1013.970;   35.516;  -11.010;  666.640
1014.521;   34.896;  -11.610;  620.620
1015.071;   34.782;  -13.450;  670.380
1015.622;   34.522;  -13.870;  635.460
1016.172;   33.205;  -11.610;  596.820
1016.723;   33.612;  -12.120;  614.380
1017.273;   32.581;  -13.620;  604.160
1017.823;   32.966;  -14.140;  650.340
1018.374;   32.875;  -12.800;  611.760
1018.924;   32.195;  -12.340;  716.880
1019.474;   32.423;  -11.410;  718.880
1020.024;   31.082;  -14.770;  657.580
1020.574;   32.819;   -9.780;  726.160
1021.124;   33.300;   -8.560;  673.580
1021.674;   30.607;  -15.190;  559.120
1022.224;   32.153;  -13.530;  708.940
1022.774;   31.151;  -13.280;  668.820
1023.324;   31.704;  -10.690;  753.520
1023.874;   32.910;  -10.240;  875.760
1024.423;   30.415;  -12.540;  613.700
1024.973;   29.808;  -10.010;  610.760
1025.523;   29.351;  -10.550;  620.960
1026.072;   28.819;  -13.560;  606.420
1026.622;   28.940;  -15.120;  675.740
1027.172;   29.827;  -11.260;  715.660
1027.721;   28.607;  -11.410;  601.220
1028.270;   29.524;  -13.530;  663.400
1028.820;   28.823;  -13.680;  638.080
1029.369;   28.296;  -13.520;  612.700
1029.918;   27.674;  -10.980;  649.840
1030.468;   27.926;  -13.530;  564.780
1031.017;   28.263;  -13.170;  634.800
1031.566;   27.094;  -12.200;  608.900
1032.115;   28.052;   -9.960;  694.500
1032.664;   26.213;  -13.210;  596.480
1033.213;   27.322;  -12.500;  735.420
1033.762;   27.244;  -11.910;  635.620
1034.311;   27.251;   -9.640;  677.220
1034.860;   27.286;  -13.310;  691.000
1035.408;   27.282;  -11.830;  722.720
1035.957;   26.820;  -12.000;  719.540
1036.506;   24.573;  -11.690;  530.800
1037.055;   26.729;  -10.990;  844.320
1037.603;   25.654;  -15.120;  664.000
1038.152;   23.849;  -12.450;  534.760
1038.700;   25.051;  -10.560;  585.740
1039.249;   24.589;  -11.080;  681.220
1039.797;   25.259;  -12.540;  633.360
1040.345;   25.095;  -11.920;  705.420
1040.894;   24.657;  -11.410;  625.300
1041.442;   23.952;  -14.320;  632.200
1041.990;   23.525;  -16.240;  559.160
1042.538;   23.046;  -11.680;  536.180
1043.087;   23.104;  -10.760;  570.860
1043.635;   24.061;  -11.850;  670.500
1044.183;   23.171;  -15.480;  586.400
1044.731;   22.765;  -11.770;  576.000
1045.279;   23.319;  -13.090;  674.920
1045.827;   25.137;  -12.440;  892.400
1046.374;   21.929;  -13.840;  515.420
1046.922;   21.485;  -13.220;  590.580
1047.470;   23.269;  -10.230;  691.300
1048.018;   22.968;  -14.590;  647.960
1048.565;   23.656;  -12.050;  708.600
1049.113;   21.400;  -11.650;  557.000
1049.660;   21.851;  -10.510;  629.660
1050.208;   21.799;  -13.310;  675.640
1050.755;   20.903;  -15.900;  606.580
1051.303;   21.762;  -11.430;  686.820
1051.850;   21.277;   -8.480;  635.120
1052.397;   20.043;  -15.010;  473.960
1052.945;   20.251;  -13.960;  617.760
1053.492;   21.202;  -13.150;  741.840
1054.039;   22.131;   -9.630;  720.180
1054.586;   19.706;  -13.680;  557.240
1055.133;   21.097;  -14.570;  693.140
1055.680;   21.379;  -13.820;  646.620
1056.227;   20.082;  -11.730;  542.780
1056.774;   21.148;  -12.480;  794.980
1057.321;   18.773;  -13.930;  523.260
1057.868;   19.239;  -11.690;  651.320
1058.415;   19.119;   -9.520;  651.980
1058.961;   19.755;  -13.160;  678.940
1059.508;   19.165;  -12.920;  643.820
1060.055;   18.952;  -11.920;  581.780
1060.601;   19.528;  -11.500;  624.300
1061.148;   19.060;  -14.330;  616.820
1061.694;   17.862;  -16.870;  592.580
1062.241;   18.618;  -10.330;  596.320
1062.787;   18.724;  -10.620;  663.140
1063.334;   19.756;  -10.110;  808.560
1063.880;   18.519;  -13.400;  668.360
1064.426;   18.919;  -10.680;  706.820
1064.972;   17.578;   -9.920;  601.340
1065.518;   16.464;  -10.980;  566.640
1066.065;   17.241;  -14.890;  624.460
1066.611;   17.536;  -12.870;  598.800
1067.157;   17.842;  -12.950;  641.860
1067.703;   17.171;  -13.540;  668.480
1068.249;   16.931;  -13.540;  605.220
1068.794;   17.312;  -12.600;  626.880
1069.340;   15.925;  -10.620;  578.960
1069.886;   17.072;  -12.830;  590.700
1070.432;   15.608;  -14.870;  541.720
1070.977;   15.417;  -11.980;  601.080
1071.523;   16.061;   -8.200;  573.060
1072.068;   16.066;  -12.330;  582.000
1072.614;   15.566;  -16.370;  527.760
1073.160;   16.338;  -11.100;  687.040
1073.705;   14.581;  -10.480;  572.520
1074.250;   15.233;  -14.520;  559.900
1074.796;   15.477;  -11.460;  655.160
1075.341;   15.305;  -11.950;  664.100
1075.886;   15.020;  -11.460;  594.240
1076.431;   14.826;  -13.770;  649.880
1076.976;   14.955;  -12.680;  639.220
1077.521;   14.150;  -13.170;  583.080
1078.067;   13.459;  -10.860;  579.400
1078.612;   14.373;  -13.920;  661.620
1079.156;   14.895;  -13.880;  601.540
1079.701;   14.705;  -13.120;  693.260
1080.246;   15.166;   -9.940;  696.300
1080.791;   13.981;  -14.740;  625.020
1081.336;   13.771;  -13.750;  659.320
1081.880;   14.410;  -13.400;  649.680
1082.425;   13.217;  -12.220;  573.480
1082.970;   14.217;  -11.610;  717.040
1083.514;   13.234;  -13.580;  597.000
1084.059;   12.721;  -12.810;  586.720
1084.603;   12.504;  -12.320;  565.840
1085.147;   12.682;  -13.190;  645.220
1085.692;   13.776;  -12.480;  716.800
1086.236;   11.854;  -13.020;  503.140
1086.780;   13.694;   -9.190;  751.440
1087.325;   12.657;  -12.480;  654.620
1087.869;   12.208;  -12.450;  610.700
1088.413;   13.122;  -12.240;  705.040
1088.957;   11.455;   -9.020;  543.400
1089.501;   12.869;  -10.320;  766.640
1090.045;   12.750;  -12.720;  726.480
1090.589;   10.623;  -13.690;  569.920
1091.133;   12.056;  -10.020;  673.340
1091.676;   11.801;  -12.330;  591.940
1092.220;   12.034;  -14.970;  600.920
1092.764;   12.627;  -12.430;  706.960
1093.307;   12.163;   -9.800;  673.780
1093.851;   10.293;  -14.970;  556.540
1094.395;   12.025;  -15.310;  683.140
1094.938;   10.883;  -10.370;  632.520
1095.482;   11.051;  -11.050;  559.800
1096.025;   11.573;  -11.840;  710.880
1096.568;   11.892;  -12.840;  779.280
1097.112;    9.203;  -14.700;  508.180
1097.655;   11.258;   -8.720;  603.000
1098.198;    9.029;  -13.610;  600.180
1098.741;    8.815;  -13.350;  612.860
1099.285;   10.722;  -11.230;  657.300
1099.828;    9.107;  -11.840;  439.400
1100.371;    9.525;  -10.840;  608.160
1100.914;    9.441;  -14.190;  682.660
1101.457;    9.470;  -11.240;  679.900
1101.999;    8.633;  -11.270;  584.680
1102.542;    9.415;  -11.480;  641.440
1103.085;    9.934;  -11.750;  658.500
1103.628;   10.018;  -11.400;  762.060
1104.170;    8.416;  -10.490;  588.280
1104.713;    9.460;  -10.600;  646.700
1105.256;    8.569;  -14.360;  557.440
1105.798;    8.394;  -13.210;  499.980
1106.341;    9.441;  -10.270;  728.900
1106.883;    8.081;  -12.200;  521.340
1107.425;    8.735;  -13.110;  668.180
1107.968;    8.155;  -12.840;  612.380
1108.510;    9.008;   -6.480;  684.960
1109.052;    7.017;  -13.940;  612.620
1109.594;    7.790;  -13.690;  554.440
1110.136;    8.044;  -11.880;  643.220
1110.679;    7.997;   -9.500;  633.080
1111.221;    7.931;  -14.160;  604.460
1111.763;    7.605;  -13.980;  559.220
1112.304;    6.517;  -13.880;  547.140
1112.846;    8.168;  -12.210;  666.240
1113.388;    9.076;  -11.390;  942.180
1113.930;    6.983;  -14.540;  694.200
1114.472;    7.305;  -12.640;  606.540
1115.013;    5.651;  -11.620;  551.280
1115.555;    5.854;  -13.640;  587.100
1116.097;    5.850;  -15.380;  579.480
1116.638;    6.921;  -12.640;  684.600
1117.180;    6.862;   -9.850;  667.740
1117.721;    5.909;  -13.690;  568.580
1118.262;    6.762;  -12.680;  677.960
1118.804;    6.905;  -12.530;  637.340
1119.345;    6.346;  -11.690;  578.400
1119.886;    6.273;  -13.380;  704.040
1120.427;    5.992;  -14.070;  589.020
1120.969;    5.125;  -13.500;  597.920
1121.510;    5.198;  -11.480;  563.060
1122.051;    5.375;  -12.830;  723.580
1122.592;    5.349;  -14.290;  655.420
1123.133;    4.360;  -12.400;  547.940
1123.673;    5.674;  -10.130;  706.480
1124.214;    5.379;  -12.930;  612.460
1124.755;    5.430;  -14.380;  639.460
1125.296;    5.286;  -14.000;  627.320
1125.836;    6.315;  -10.070;  691.500
1126.377;    4.092;  -12.640;  599.660
1126.918;    5.640;  -12.960;  614.980
1127.458;    4.580;  -13.350;  622.220
1127.999;    5.092;  -10.750;  656.980
1128.539;    4.913;  -12.350;  694.240
1129.079;    4.733;  -14.860;  632.720
1129.620;    3.842;  -13.840;  558.100
1130.160;    4.890;  -12.330;  539.480
1130.700;    4.396;  -14.530;  640.840
1131.240;    5.012;  -12.530;  643.700
1131.781;    3.638;  -14.450;  619.680
1132.321;    3.888;   -9.790;  599.120
1132.861;    2.884;  -14.860;  564.200
1133.401;    2.554;  -14.290;  593.940
1133.941;    4.602;  -11.750;  626.280
1134.481;    2.741;   -9.920;  597.580
1135.020;    2.947;  -12.290;  609.160
1135.560;    3.456;  -11.650;  674.940
1136.100;    2.855;  -16.270;  501.160
1136.640;    2.683;  -10.890;  510.480
1137.179;    2.319;  -14.180;  537.960
1137.719;    3.467;  -16.250;  605.400
1138.258;    2.155;  -14.230;  587.360
1138.798;    3.405;   -9.090;  663.780
1139.337;    1.448;  -15.130;  482.840
1139.877;    2.833;  -13.680;  642.360
1140.416;    5.128;  -11.320;  878.060
1140.955;    2.380;  -10.860;  535.380
1141.494;    2.669;  -12.920;  669.280
1142.034;    2.116;  -13.930;  583.520
1142.573;    2.878;  -11.440;  646.280
1143.112;    1.505;  -12.000;  553.480
1143.651;    2.323;  -13.670;  536.480
1144.190;    1.773;  -12.730;  691.640
1144.729;    1.915;  -14.560;  607.420
1145.267;    1.495;  -11.830;  584.900
1145.806;    2.863;  -12.230;  637.040
1146.345;    1.888;  -14.130;  635.020
1146.884;    1.798;  -11.590;  622.500
1147.422;    1.155;  -12.550;  533.060
1147.961;    2.775;  -11.180;  708.460
1148.500;    2.529;  -11.510;  669.720
1149.038;    1.880;  -11.640;  632.500
1149.577;    1.925;  -10.130;  698.640
1150.115;   -0.425;  -13.970;  452.280
1150.653;    1.633;  -14.520;  607.340
1151.192;    1.630;  -12.810;  552.920
1151.730;    1.263;   -9.100;  652.560
1152.268;    0.126;  -12.220;  589.520
1152.806;    0.573;  -14.140;  571.180
1153.344;   -0.327;  -12.350;  577.640
1153.882;    1.169;   -8.980;  600.060
1154.421;   -0.251;  -15.190;  470.620
1154.958;    0.709;  -15.210;  595.240
1155.496;    1.970;  -12.850;  645.280
1156.034;    1.372;   -9.940;  721.880
1156.572;    1.275;  -13.570;  667.060
1157.110;   -0.691;  -14.590;  473.940
1157.647;    0.537;  -13.030;  676.960
1158.185;   -0.204;  -12.140;  564.320
1158.723;   -1.232;  -14.390;  509.200
1159.260;    0.077;  -14.090;  701.700
1159.798;    0.704;  -11.920;  658.160
1160.335;   -0.280;  -11.110;  631.820

