
Integration time [ms]:   3.276
Averaging Nr. [scans]: 1000
Smoothing Nr. [pixels]: 0
Data measured with spectrometer [name]: 7414430SP
Wave   ;Sample   ;Dark     ;Reference
[nm]   ;[counts] ;[counts] ;[counts] 

288.544;  151.543;    7.793;  793.890
289.143;  155.354;    7.462;  681.602
289.742;  155.254;    8.602;  828.814
290.341;  140.520;    1.321;  789.841
290.940;  129.790;   -0.709;  730.702
291.538;  131.236;    0.881;  881.108
292.137;  131.147;    0.122;  792.581
292.736;  136.256;   -1.929;  975.101
293.335;  132.664;   -8.229;  735.086
293.934;  132.107;   -5.279;  781.677
294.532;  131.062;   -1.369; 1031.958
295.131;  116.828;   -7.641;  834.394
295.730;  117.625;   -8.420;  809.588
296.328;  115.801;   -5.611;  783.442
296.927;  116.616;   -5.781;  779.652
297.525;  117.398;   -6.361;  781.236
298.124;  108.227;  -11.382;  654.009
298.722;  111.752;   -7.641;  761.933
299.321;  109.790;   -6.811;  708.597
299.919;  107.618;   -6.991;  751.918
300.518;  104.453;  -10.362;  689.338
301.116;  105.850;   -9.581;  691.381
301.715;  106.152;   -4.891;  730.222
302.313;  105.502;   -8.801;  704.943
302.911;  101.416;   -8.522;  733.830
303.509;  106.059;   -6.171;  925.627
304.108;  103.000;   -7.311;  760.383
304.706;  102.827;   -8.321;  801.664
305.304;   97.106;  -10.222;  796.707
305.902;  102.651;   -6.021;  784.484
306.500;   99.031;   -4.971;  728.200
307.098;   96.688;   -7.061;  746.560
307.696;   95.198;   -8.801;  780.432
308.294;   96.060;   -6.411;  731.359
308.892;   96.985;   -2.901;  759.769
309.490;   94.659;   -5.041;  712.161
310.088;   92.404;   -5.002;  788.444
310.686;   96.267;   -2.041;  821.749
311.284;   91.901;   -2.351;  766.040
311.882;   89.299;   -4.422;  731.225
312.480;   86.236;   -4.192;  697.167
313.078;   87.696;   -1.172;  808.331
313.675;   88.414;   -2.601;  691.600
314.273;   83.197;   -1.312;  797.837
314.871;   83.117;   -3.942;  589.829
315.468;   82.120;   -2.802;  652.090
316.066;   83.825;   -0.701;  694.427
316.664;   77.521;   -4.362;  656.351
317.261;   81.973;   -2.872;  910.128
317.859;   76.058;   -2.022;  768.735
318.456;   76.677;   -0.531;  830.096
319.054;   72.872;   -3.912;  787.828
319.651;   71.446;   -4.752;  759.928
320.249;   70.431;   -2.602;  810.188
320.846;   68.016;   -0.821;  714.286
321.443;   66.063;   -4.642;  832.135
322.041;   63.396;   -5.002;  812.315
322.638;   61.642;   -3.982;  701.456
323.235;   62.215;   -3.411;  665.683
323.833;   59.384;   -7.361;  740.354
324.430;   54.624;   -8.611;  615.900
325.027;   55.717;   -4.061;  876.855
325.624;   55.522;   -4.031;  644.532
326.221;   51.588;   -7.481;  689.717
326.818;   51.607;   -5.281;  818.332
327.415;   55.980;   -7.460;  748.828
328.012;   54.573;   -5.510;  690.585
328.609;   53.405;   -7.880;  731.389
329.206;   52.108;   -8.331;  778.621
329.803;   52.049;   -5.121;  737.841
330.400;   53.518;   -4.510;  704.260
330.997;   56.223;   -6.441;  817.147
331.594;   54.118;   -8.831;  788.185
332.191;   59.446;   -7.621;  728.722
332.787;   62.755;   -4.591;  844.463
333.384;   60.954;   -7.412;  763.093
333.981;   60.075;   -8.293;  815.687
334.578;   63.178;   -7.052;  708.378
335.174;   65.587;   -3.102;  731.469
335.771;   65.268;   -5.943;  836.456
336.367;   61.657;   -7.393;  710.631
336.964;   65.916;   -4.063;  793.266
337.561;   62.982;   -3.813;  731.112
338.157;   59.688;   -4.654;  911.916
338.754;   57.683;   -7.934;  796.589
339.350;   54.895;   -4.414;  722.493
339.946;   57.219;   -4.664;  773.135
340.543;   48.516;   -6.375;  846.136
341.139;   44.216;   -9.815;  720.836
341.735;   41.624;   -4.526;  772.593
342.332;   40.363;   -4.895;  691.472
342.928;   40.822;   -4.295;  795.394
343.524;   33.788;   -5.476;  761.684
344.120;   31.327;   -5.856;  738.562
344.716;   34.220;   -2.155;  723.717
345.313;   32.241;   -6.275;  795.342
345.909;   27.253;   -8.815;  627.336
346.505;   28.468;   -5.305;  740.247
347.101;   29.062;   -2.674;  827.864
347.697;   29.463;   -4.344;  785.398
348.293;   23.472;   -9.975;  627.244
348.889;   24.889;   -5.774;  745.914
349.485;   24.160;   -5.004;  688.205
350.081;   24.711;   -4.704;  772.592
350.676;   19.980;   -6.635;  691.606
351.272;   24.861;   -4.504;  809.530
351.868;   23.805;   -3.914;  780.497
352.464;   21.105;   -9.044;  723.932
353.059;   18.066;   -8.314;  646.017
353.655;   20.726;   -7.024;  777.063
354.251;   22.136;   -5.343;  759.845
354.846;   16.771;   -8.604;  740.646
355.442;   13.702;   -6.945;  753.071
356.038;   16.312;   -7.564;  751.708
356.633;   16.871;   -5.814;  728.594
357.229;   14.611;   -7.364;  724.757
357.824;   12.483;   -8.024;  703.600
358.420;   11.866;   -9.384;  679.726
359.015;   11.915;   -5.104;  695.357
359.610;   12.921;   -6.854;  763.920
360.206;    7.625;  -10.185;  603.240
360.801;   10.215;   -7.054;  646.503
361.396;   12.560;   -5.034;  725.975
361.992;    8.079;   -8.284;  668.220
362.587;    5.193;   -8.625;  670.160
363.182;    6.620;   -7.674;  689.631
363.777;    7.595;   -5.164;  738.242
364.372;    7.861;   -8.604;  737.314
364.967;    3.071;   -9.055;  680.744
365.563;    8.723;   -6.114;  815.567
366.158;    5.468;   -5.814;  685.161
366.753;    5.819;   -7.854;  649.263
367.348;    4.212;   -7.804;  746.056
367.942;    3.788;   -7.954;  697.298
368.537;    2.801;   -4.984;  754.245
369.132;    2.751;   -8.564;  703.428
369.727;   -0.046;   -8.855;  638.079
370.322;    0.522;   -6.245;  580.186
370.917;    0.195;   -6.425;  710.646
371.511;    3.108;   -6.294;  861.834
372.106;   -0.321;   -7.685;  776.964
372.701;   -3.204;   -7.335;  585.988
373.296;    1.692;   -4.564;  863.135
373.890;   -3.405;  -10.235;  647.840
374.485;   -4.756;   -7.885;  691.199
375.079;   -0.946;   -7.324;  738.685
375.674;   -0.349;   -3.494;  812.970
376.268;   -4.674;   -8.525;  691.759
376.863;   -9.271;  -10.086;  580.327
377.457;   -3.805;   -7.025;  662.490
378.052;   -6.015;   -3.585;  764.884
378.646;   -5.880;   -7.595;  741.167
379.240;   -6.640;   -8.335;  721.176
379.835;   -5.860;   -5.785;  636.978
380.429;   -8.451;   -4.335;  562.557
381.023;   -7.649;   -6.805;  779.205
381.617;   -9.923;   -9.195;  680.106
382.212;   -6.863;   -6.905;  685.303
382.806;   -6.292;   -3.745;  760.690
383.400;   -9.827;   -7.745;  672.281
383.994;  -10.820;   -9.765;  664.870
384.588;   -6.913;   -6.564;  697.701
385.182;   -5.843;   -5.344;  726.624
385.776;   -7.113;   -8.514;  706.875
386.370;  -10.311;   -9.555;  681.968
386.964;   -8.464;   -8.715;  684.155
387.558;   -7.798;   -6.174;  598.360
388.152;  -11.133;   -8.725;  681.959
388.745;   -8.967;   -7.965;  814.707
389.339;   -7.341;   -5.924;  747.642
389.933;   -6.422;   -5.524;  695.370
390.527;   -7.309;   -7.114;  859.029
391.120;  -13.852;  -10.725;  595.318
391.714;  -10.804;   -8.035;  711.633
392.308;   -8.066;   -3.574;  780.253
392.901;  -11.103;   -7.245;  642.460
393.495;  -12.458;   -9.285;  595.414
394.089;  -10.584;   -5.895;  760.452
394.682;  -11.571;   -4.295;  697.188
395.275;  -12.363;   -9.875;  719.927
395.869;  -12.805;   -8.485;  667.314
396.462;  -11.538;   -7.455;  616.609
397.056;   -8.125;   -5.424;  776.621
397.649;  -12.719;   -6.605;  731.575
398.242;  -10.169;   -8.224;  712.645
398.836;   -8.852;   -7.474;  766.408
399.429;  -10.055;   -7.094;  631.041
400.022;  -13.952;   -9.475;  665.902
400.615;  -11.171;   -7.145;  805.609
401.208;   -9.149;   -7.174;  691.451
401.802;  -11.847;   -5.515;  699.329
402.395;  -12.749;   -9.875;  683.502
402.988;  -13.858;   -8.845;  696.627
403.581;  -10.939;   -8.874;  646.878
404.174;   -7.973;   -5.324;  686.568
404.767;  -10.908;   -9.575;  638.583
405.360;  -13.025;  -10.965;  621.445
405.953;   -8.707;   -8.764;  759.034
406.545;   -7.681;   -7.514;  725.342
407.138;  -12.212;  -10.025;  618.350
407.731;   -9.997;  -10.034;  613.303
408.324;   -6.390;   -9.374;  660.554
408.917;   -7.648;   -6.534;  681.864
409.509;   -8.525;   -8.004;  740.396
410.102;  -10.444;   -9.875;  643.948
410.695;   -5.281;   -8.604;  665.758
411.287;   -6.079;   -6.794;  599.821
411.880;   -7.115;   -9.334;  585.421
412.472;   -9.857;  -10.254;  613.092
413.065;   -6.853;   -6.714;  629.408
413.657;   -5.550;   -7.234;  576.678
414.250;   -5.702;  -10.544;  646.681
414.842;   -7.291;   -9.744;  676.353
415.434;   -5.125;   -6.994;  570.463
416.027;   -1.095;   -5.893;  652.196
416.619;   -3.012;   -7.264;  713.400
417.211;   -3.264;  -10.374;  599.352
417.804;    0.083;   -7.993;  628.499
418.396;   -3.763;   -7.234;  607.643
418.988;   -1.371;   -9.443;  659.238
419.580;   -4.439;  -10.724;  568.276
420.172;   -2.009;  -10.323;  536.196
420.764;    1.638;   -8.793;  672.482
421.356;    0.465;  -11.143;  636.898
421.948;   -0.357;   -8.293;  677.661
422.540;    4.424;   -7.893;  680.027
423.132;    3.835;   -7.082;  600.641
423.724;    0.607;   -8.653;  561.267
424.316;    2.463;  -10.213;  621.345
424.908;    6.268;   -9.762;  591.517
425.500;    7.116;   -5.572;  647.978
426.092;    7.540;   -8.422;  648.268
426.683;    6.997;   -9.283;  684.836
427.275;   10.032;   -7.852;  641.471
427.867;   10.934;   -5.272;  668.948
428.458;   11.779;   -7.682;  732.344
429.050;   10.588;  -10.612;  680.749
429.642;   12.413;   -9.882;  743.124
430.233;   12.347;   -6.962;  569.356
430.825;   14.166;   -6.842;  724.809
431.416;   11.356;   -9.672;  698.241
432.008;   15.110;   -6.552;  651.723
432.599;   15.424;   -6.891;  656.073
433.190;   12.809;  -10.912;  637.670
433.782;   12.423;  -11.172;  590.395
434.373;   19.481;   -6.061;  884.765
434.964;   18.031;   -8.251;  602.920
435.556;   15.782;   -9.722;  634.537
436.147;   18.699;   -9.082;  758.490
436.738;   19.032;   -8.041;  701.099
437.329;   23.647;   -7.341;  721.723
437.920;   16.957;   -8.162;  666.688
438.511;   17.515;  -11.802;  564.526
439.103;   23.831;  -10.191;  623.998
439.694;   25.688;   -7.601;  681.583
440.285;   26.498;   -8.541;  764.432
440.876;   24.861;   -9.751;  845.738
441.466;   24.657;   -9.401;  575.162
442.057;   29.236;   -7.760;  665.814
442.648;   27.432;   -9.971;  746.255
443.239;   27.003;  -11.001;  620.477
443.830;   31.783;   -7.990;  704.958
444.421;   33.868;   -7.910;  655.474
445.011;   29.018;   -8.131;  693.619
445.602;   29.876;   -7.111;  743.126
446.193;   32.197;  -10.920;  488.117
446.783;   35.609;   -6.500;  640.397
447.374;   31.418;   -8.671;  692.759
447.964;   32.244;  -10.781;  713.770
448.555;   40.601;   -9.650;  822.742
449.145;   36.643;   -8.660;  662.853
449.736;   38.247;   -8.990;  803.179
450.326;   38.235;   -9.500;  713.626
450.917;   42.957;   -8.680;  675.324
451.507;   42.413;   -7.520;  600.661
452.097;   42.443;   -8.590;  746.267
452.688;   44.540;  -11.340;  742.160
453.278;   42.962;  -10.100;  566.840
453.868;   47.893;   -6.019;  793.550
454.458;   45.845;   -9.440;  651.141
455.048;   46.356;  -10.560;  711.783
455.639;   48.174;  -11.799;  567.096
456.229;   51.524;   -6.899;  710.694
456.819;   53.389;   -7.389;  751.158
457.409;   54.227;  -11.119;  773.993
457.999;   56.213;   -9.289;  737.505
458.589;   56.626;   -6.139;  686.606
459.179;   56.648;   -8.729;  717.658
459.769;   54.193;   -9.789;  627.099
460.358;   59.385;  -10.259;  797.262
460.948;   59.164;   -7.299;  689.503
461.538;   61.133;  -10.289;  660.677
462.128;   59.673;  -11.269;  664.934
462.717;   66.054;   -9.368;  710.326
463.307;   68.938;   -7.908;  705.846
463.897;   64.464;   -9.599;  656.942
464.486;   63.989;   -9.769;  837.128
465.076;   68.851;   -8.048;  733.776
465.666;   72.246;   -9.358;  652.900
466.255;   69.965;   -7.919;  785.651
466.845;   69.420;  -11.689;  666.749
467.434;   72.731;   -7.818;  725.873
468.023;   72.378;   -7.678;  658.357
468.613;   71.711;  -10.939;  713.946
469.202;   75.827;  -10.118;  646.507
469.791;   79.484;   -9.108;  737.811
470.381;   81.945;   -6.058;  742.813
470.970;   81.619;  -10.428;  711.099
471.559;   81.808;  -10.268;  733.291
472.148;   84.451;   -8.448;  675.737
472.738;   87.242;   -6.917;  765.466
473.327;   87.026;  -11.978;  637.529
473.916;   87.071;  -11.888;  737.446
474.505;   90.496;   -9.437;  751.703
475.094;   93.166;   -6.747;  806.570
475.683;   93.020;   -9.367;  797.699
476.272;   93.828;  -12.637;  730.632
476.861;   96.776;  -10.027;  706.754
477.449;  103.679;   -8.716;  728.487
478.038;   97.840;   -9.577;  692.513
478.627;   99.114;   -9.718;  714.852
479.216;  106.388;   -8.947;  769.441
479.805;  108.507;   -6.256;  783.375
480.393;  109.186;   -7.937; 1008.945
480.982;  108.513;   -7.717;  874.501
481.571;  113.917;   -9.266;  858.333
482.159;  115.364;   -7.636;  705.386
482.748;  114.071;   -9.667;  821.385
483.336;  119.140;  -10.376;  858.209
483.925;  120.753;   -7.147;  774.373
484.513;  126.724;   -7.996;  758.962
485.102;  123.518;  -10.027;  810.965
485.690;  133.427;  -10.446; 1011.050
486.278;  135.626;   -8.446;  979.329
486.867;  135.027;   -6.356;  809.662
487.455;  137.079;   -9.136;  898.229
488.043;  139.577;  -10.646;  748.361
488.631;  148.434;   -7.456; 1005.079
489.220;  151.820;   -6.636;  908.626
489.808;  152.351;  -11.036;  741.415
490.396;  160.750;  -10.246;  914.645
490.984;  167.573;   -8.556;  830.161
491.572;  178.604;   -5.886;  940.315
492.160;  184.865;   -9.486;  919.081
492.748;  198.894;  -10.976;  884.341
493.336;  223.205;   -8.776; 1019.693
493.924;  252.022;   -5.465;  958.077
494.512;  283.917;   -9.986; 1066.638
495.100;  324.187;  -10.636; 1103.280
495.687;  381.731;  -10.885; 1206.373
496.275;  447.308;   -8.126; 1150.796
496.863;  519.505;  -10.586; 1281.171
497.451;  624.228;  -11.926; 1386.805
498.038;  767.589;  -10.885; 1556.729
498.626;  884.594;   -6.315; 1741.407
499.214; 1041.378;   -7.326; 2016.609
499.801; 1242.134;  -11.906; 2220.633
500.389; 1504.596;  -10.466; 2312.494
500.976; 1835.358;   -5.236; 2744.849
501.564; 2286.441;   -8.936; 3148.565
502.151; 2669.415;  -13.176; 3515.999
502.738; 3138.025;  -10.646; 3971.274
503.326; 3556.912;   -9.525; 4403.796
503.913; 3961.424;  -10.856; 5161.749
504.500; 4294.393;  -11.586; 5986.420
505.088; 4766.950;  -10.336; 6381.201
505.675; 5339.108;   -6.355; 6925.547
506.262; 6002.860;   -9.046; 7619.060
506.849; 6753.154;  -10.416; 8733.969
507.436; 7275.961;  -10.305; 9790.121
508.023; 7890.607;   -5.496; 9985.472
508.610; 8150.585;   -7.856;10434.618
509.197; 8820.762;  -10.097;11198.435
509.784;10302.024;  -10.886;12391.194
510.371;11426.473;   -9.315;13603.713
510.958;12219.373;   -9.936;14426.586
511.545;13016.060;   -9.326;15243.775
512.132;13932.025;  -10.075;15945.876
512.719;14475.574;   -7.796;16340.369
513.305;15435.273;  -10.606;18011.766
513.892;16213.574;  -11.486;19754.971
514.479;17666.584;   -9.126;20967.805
515.066;19399.768;   -6.026;22299.793
515.652;20831.070;   -8.466;22908.660
516.239;22011.984;  -10.886;23798.875
516.825;23018.367;  -11.496;25567.275
517.412;23967.848;   -5.796;28154.959
517.998;24921.949;  -10.506;28344.111
518.585;25129.422;  -10.076;27134.219
519.171;25407.658;   -8.315;27268.576
519.758;26614.207;   -8.596;28964.129
520.344;28793.012;   -8.466;30664.494
520.930;29174.785;  -11.006;32550.605
521.516;30524.742;  -10.495;35422.895
522.103;33055.086;   -5.526;38280.004
522.689;33763.277;   -8.746;37835.117
523.275;33568.781;  -11.376;37288.613
523.861;34939.273;  -11.156;37281.395
524.447;36316.336;   -8.135;37846.949
525.033;35818.301;   -7.896;38321.949
525.619;36027.473;  -12.476;38579.285
526.205;37616.324;   -9.516;40622.875
526.791;40692.250;   -6.926;42258.836
527.377;40852.805;   -8.346;42966.902
527.963;42440.383;   -8.717;42018.949
528.549;41370.094;  -11.016;42476.828
529.135;39772.379;   -8.536;41854.852
529.721;38989.102;   -9.666;41237.711
530.306;38442.375;  -10.066;41259.445
530.892;38485.309;  -11.356;41506.047
531.478;39966.602;   -6.596;43559.613
532.063;42743.250;   -8.836;47695.563
532.649;43394.188;  -10.047;50808.324
533.235;44394.992;   -9.746;51787.500
533.820;45257.512;   -6.566;52145.035
534.406;46301.297;  -10.817;51133.488
534.991;45902.441;   -9.416;49996.805
535.576;44473.137;   -9.036;48882.852
536.162;45172.586;   -6.156;46942.285
536.747;46339.855;  -11.607;45711.746
537.333;49566.094;  -11.787;48510.180
537.918;53314.750;  -12.437;50439.891
538.503;52256.359;   -7.196;50863.711
539.088;48548.488;  -10.556;50906.922
539.673;48460.855;   -8.767;52621.965
540.259;48429.918;  -10.026;52368.094
540.844;45671.477;   -7.416;50879.109
541.429;46660.270;   -9.467;52077.777
542.014;50013.762;   -9.527;52716.695
542.599;49834.254;   -9.946;52363.281
543.184;46723.531;   -7.927;53187.137
543.769;47546.211;   -9.297;54697.605
544.354;47322.586;  -10.127;53913.914
544.938;46393.156;   -9.267;49680.164
545.523;48617.371;   -6.506;47386.277
546.108;51034.004;   -9.787;49151.949
546.693;53216.242;  -11.587;51384.637
547.278;53153.750;  -10.986;51853.254
547.862;50133.605;   -8.206;51173.750
548.447;45569.102;  -10.067;51691.395
549.031;44651.906;   -9.637;52456.703
549.616;49368.223;   -9.926;52714.516
550.201;48808.457;   -6.347;52414.598
550.785;49642.664;   -7.917;52355.059
551.370;48895.969;  -10.867;54589.453
551.954;48588.281;   -9.047;58267.348
552.538;50172.156;   -7.827;59062.176
553.123;48437.215;  -10.287;58115.285
553.707;45533.867;  -12.178;56556.285
554.291;46244.633;   -8.717;56201.668
554.876;48414.016;   -7.457;55335.762
555.460;49031.250;  -10.387;54155.703
556.044;50708.180;   -9.618;53721.484
556.628;48917.121;  -11.567;53731.016
557.212;47586.477;   -8.097;54312.531
557.796;45566.320;  -11.077;53797.773
558.380;45883.793;  -11.108;56145.984
558.964;46990.773;   -9.057;57277.930
559.548;48153.180;   -6.977;56459.641
560.132;45727.207;  -11.457;54434.543
560.716;44256.625;  -11.378;54800.617
561.300;45055.863;   -9.577;57606.945
561.884;46155.332;   -7.127;58972.445
562.467;44562.051;   -7.118;57327.570
563.051;44225.516;  -13.358;54962.434
563.635;45190.168;  -10.178;52594.473
564.219;45363.504;   -7.837;50610.410
564.802;45949.758;  -11.398;49551.180
565.386;46050.223;  -12.788;48370.953
565.969;45791.918;   -9.077;48178.871
566.553;44374.480;   -6.207;49957.305
567.136;44819.949;   -8.568;50369.594
567.720;41279.184;  -11.868;49492.004
568.303;39350.336;   -8.268;50616.352
568.887;39272.922;   -8.698;50727.148
569.470;39594.813;   -6.808;51698.379
570.053;38732.211;  -13.188;52122.078
570.637;37123.176;  -12.037;52536.438
571.220;36636.117;   -8.577;51186.098
571.803;36955.621;   -8.498;51032.762
572.386;38669.844;  -10.498;49609.887
572.969;41469.438;   -9.388;48285.926
573.552;40208.344;   -8.338;47624.285
574.135;39002.133;   -8.518;45498.641
574.718;36568.117;  -13.628;41970.434
575.301;35419.707;  -10.893;41447.137
575.884;34271.297;   -8.158;40923.836
576.467;35379.480;  -10.328;45267.723
577.050;37168.516;  -13.058;48175.543
577.633;38860.957;   -9.458;47729.328
578.216;38069.465;   -8.928;47579.793
578.799;37047.820;   -9.358;47820.996
579.381;35712.414;  -11.388;48115.551
579.964;33735.684;  -11.718;47333.766
580.547;35290.031;   -8.588;46668.969
581.129;36098.945;   -8.859;44466.141
581.712;36681.785;  -10.729;44164.922
582.294;37426.730;  -11.118;46477.855
582.877;37644.438;   -5.218;48244.254
583.459;35544.172;   -8.679;47437.895
584.042;33619.215;  -10.709;46943.219
584.624;33917.609;  -11.669;46792.227
585.206;33540.340;   -8.218;46557.250
585.789;33456.211;  -10.569;45793.773
586.371;36285.961;  -11.859;43836.391
586.953;37199.301;  -10.719;42972.492
587.536;38004.922;   -7.198;42487.211
588.118;38591.008;   -8.720;42086.414
588.700;34657.801;  -10.439;43389.930
589.282;33528.145;   -9.198;43646.039
589.864;34303.359;   -9.199;43438.109
590.446;35613.984;  -11.319;43151.926
591.028;35692.207;  -11.159;42781.867
591.610;34643.559;  -11.779;42839.098
592.192;31524.057;   -7.668;42820.402
592.774;29795.641;  -11.949;40724.277
593.356;28607.131;  -12.129;39874.789
593.937;27928.779;  -10.669;39980.648
594.519;29942.373;   -6.509;42069.633
595.101;32373.307;  -10.849;42976.031
595.683;32661.156;  -11.679;44084.441
596.264;33574.543;   -9.049;43478.797
596.846;32891.398;   -8.849;43803.672
597.427;32498.949;   -9.570;42986.934
598.009;34260.809;  -12.620;42832.219
598.591;34660.020;  -10.039;42580.086
599.172;33964.773;  -10.369;43061.805
599.753;34058.563;   -9.140;41691.469
600.335;35686.230;  -11.430;40692.520
600.916;34146.016;   -9.939;39982.422
601.498;31603.484;   -8.479;40318.617
602.079;30085.191;  -10.920;40670.609
602.660;29734.896;  -11.480;41450.898
603.241;31139.908;  -11.699;41137.738
603.823;29994.133;   -9.579;38868.797
604.404;29335.053;  -10.620;38182.785
604.985;30905.695;  -10.450;38078.047
605.566;30660.789;   -9.129;38056.633
606.147;30570.096;   -7.510;37020.418
606.728;32606.188;  -10.660;37883.359
607.309;31553.975;  -11.740;38748.273
607.890;30882.039;   -9.759;38850.230
608.471;30435.168;   -8.250;37457.918
609.051;29744.016;   -9.240;36066.457
609.632;28636.611;  -12.120;35991.074
610.213;29330.588;   -9.110;37402.641
610.794;30198.924;   -8.030;38383.363
611.374;29535.391;   -8.110;40562.387
611.955;29988.426;  -13.560;38533.727
612.536;31583.240;  -11.400;36951.789
613.116;31037.260;   -8.070;37197.891
613.697;31384.346;  -10.830;38411.125
614.277;29644.969;  -11.641;38673.938
614.858;30546.951;  -13.310;37075.863
615.438;30179.340;   -7.460;35092.906
616.019;27629.744;   -7.601;33666.301
616.599;28126.883;  -12.020;34189.023
617.179;30163.406;  -11.780;36952.047
617.760;31032.928;   -8.570;39582.574
618.340;32106.121;  -11.471;38943.977
618.920;33666.770;  -11.170;37594.156
619.500;33306.254;  -11.071;37866.938
620.080;32198.725;   -7.750;37869.043
620.660;33027.809;  -12.711;36868.617
621.241;34061.246;  -10.211;36352.309
621.821;34399.941;  -10.961;35459.520
622.401;33920.555;   -7.720;35207.414
622.980;32858.496;   -8.981;35980.422
623.560;31283.830;   -9.331;37351.328
624.140;30240.813;   -9.850;34388.582
624.720;25547.031;   -7.451;32368.764
625.300;21914.838;   -9.070;32638.629
625.880;25168.916;  -12.601;34599.035
626.459;29033.586;  -11.751;36831.738
627.039;32016.859;   -9.281;38299.098
627.619;32049.045;   -8.801;38289.574
628.198;30393.414;  -12.071;37220.695
628.778;29473.439;   -9.461;37632.563
629.357;30116.883;   -8.491;38003.012
629.937;30121.258;   -9.721;38402.039
630.516;29617.139;   -9.951;37868.801
631.096;29651.586;  -11.731;35760.410
631.675;32105.021;   -8.572;35225.219
632.254;37414.340;  -11.282;35130.289
632.834;36792.426;  -13.322;35794.570
633.413;35018.344;  -10.301;35788.922
633.992;32443.574;   -8.582;34532.863
634.571;33442.352;   -8.352;33590.113
635.151;36422.969;  -11.912;34943.863
635.730;34884.609;  -10.511;35352.523
636.309;31234.873;   -7.731;35366.605
636.888;28283.979;   -9.952;36165.637
637.467;28590.404;  -11.672;37515.902
638.046;30460.650;   -8.901;39288.695
638.625;33690.426;   -7.912;38279.699
639.204;33667.957;  -10.022;37741.598
639.782;31991.129;  -12.252;38364.551
640.361;28378.867;  -10.041;36740.621
640.940;25495.195;  -11.161;34950.082
641.519;25856.936;   -9.701;34137.398
642.097;28322.670;  -11.271;35654.258
642.676;31294.191;   -8.651;35637.957
643.255;32630.984;   -8.711;36567.074
643.833;31870.305;   -9.581;37809.434
644.412;32114.742;  -13.711;37337.293
644.990;31239.592;  -11.811;37018.531
645.569;30791.973;   -9.411;36518.469
646.147;29904.926;  -10.291;36186.430
646.726;29591.453;  -12.401;36267.688
647.304;30900.744;  -10.411;36647.625
647.882;32670.219;   -9.651;39286.742
648.461;34232.434;   -9.631;39157.703
649.039;32830.832;  -11.881;35412.883
649.617;32213.389;   -9.661;34744.918
650.195;31733.793;   -9.301;35403.098
650.773;30655.381;  -10.511;35053.797
651.352;27877.225;  -11.521;33756.816
651.930;25371.119;  -12.211;31868.773
652.508;23916.791;   -9.171;33121.551
653.086;27911.512;   -9.371;33564.793
653.663;31168.430;  -13.161;34054.668
654.241;29584.873;  -13.031;35693.309
654.819;30886.477;   -9.371;36422.906
655.397;30906.168;  -10.511;38213.484
655.975;30606.730;  -10.371;39507.625
656.553;30769.082;  -10.051;39498.223
657.130;29168.713;  -10.061;40395.480
657.708;28304.813;   -9.561;39242.020
658.286;28293.367;  -11.511;38920.020
658.863;29603.975;  -10.261;40202.898
659.441;32406.250;   -7.531;39677.938
660.018;31792.055;   -9.501;40413.355
660.596;30622.381;  -13.301;39931.414
661.173;32529.896;  -11.211;39604.531
661.750;32710.691;   -9.951;39700.070
662.328;31505.119;   -9.390;39292.809
662.905;30772.262;  -11.330;38235.648
663.482;26694.127;   -9.050;36212.305
664.060;24593.578;   -8.240;35944.945
664.637;27113.412;  -10.050;35170.785
665.214;29010.771;  -11.760;34197.523
665.791;31102.969;  -10.530;34549.520
666.368;29878.520;   -9.690;35118.578
666.945;30060.980;   -9.320;36019.418
667.522;31661.957;  -11.860;36048.438
668.099;31783.057;  -10.770;36243.914
668.676;30969.512;   -6.260;35958.875
669.253;29399.311;   -7.000;37384.730
669.830;29671.650;  -10.190;36779.629
670.407;29349.762;   -9.550;35231.289
670.984;29342.934;   -9.260;35544.270
671.560;30074.240;   -9.280;35466.867
672.137;29110.695;  -11.810;34280.863
672.714;29804.490;  -11.490;34632.863
673.290;30315.043;   -7.740;35135.422
673.867;30229.047;  -10.660;36114.480
674.443;30727.396;  -12.230;36152.859
675.020;29203.207;  -10.450;35327.238
675.596;30041.066;   -9.260;35795.176
676.173;30470.596;  -10.780;35430.355
676.749;30031.621;  -13.690;33549.516
677.326;30114.918;  -11.980;32210.012
677.902;30226.145;   -8.630;32068.871
678.478;29433.326;  -10.730;32583.891
679.054;28844.047;  -10.520;32088.928
679.631;29729.809;  -11.920;30978.848
680.207;30889.541;   -7.490;33160.887
680.783;32127.205;   -9.860;35570.363
681.359;31258.807;  -13.380;36125.184
681.935;30546.924;  -12.480;35240.922
682.511;29700.168;   -7.900;34429.961
683.087;29568.111;   -7.710;34463.680
683.663;29123.055;  -11.480;34648.898
684.239;28394.465;  -14.090;34546.457
684.815;28153.854;   -7.560;35586.375
685.390;28474.768;   -9.910;35821.895
685.966;28944.559;  -11.159;35085.871
686.542;31588.590;  -11.169;34198.230
687.118;33870.199;   -5.959;32847.707
687.693;34172.656;  -10.329;32794.027
688.269;33395.949;  -12.059;33072.367
688.844;31322.148;  -10.909;33141.664
689.420;29385.225;   -8.019;33965.742
689.995;27217.654;   -8.399;34655.523
690.571;25889.537;  -10.949;33576.742
691.146;26313.225;   -9.619;32657.219
691.722;25799.420;   -8.999;32526.979
692.297;25175.898;  -11.589;33014.617
692.872;26988.529;  -11.739;34012.254
693.448;26758.775;  -11.059;34237.434
694.023;25907.230;  -10.139;34142.672
694.598;27949.240;   -9.029;34132.031
695.173;28397.131;  -13.319;34205.250
695.748;27898.143;  -10.169;32882.488
696.323;27918.643;   -8.339;32864.906
696.898;27841.045;   -8.169;33170.004
697.473;27702.012;  -12.309;32432.984
698.048;27414.885;  -10.989;31649.303
698.623;27524.127;   -9.329;30778.141
699.198;29177.986;   -9.849;31140.119
699.773;30289.744;  -12.329;31764.299
700.348;28849.180;  -10.389;31780.816
700.922;28913.805;   -9.269;32046.375
701.497;29591.846;   -9.329;32603.574
702.072;29787.289;  -10.789;34799.871
702.646;28704.805;  -10.839;35793.172
703.221;26362.234;   -9.099;35201.590
703.795;28376.309;  -10.939;34764.527
704.370;29061.131;  -12.859;34307.367
704.944;29330.863;  -11.559;33509.887
705.519;30280.529;   -7.939;31388.584
706.093;31400.283;  -10.499;31340.104
706.668;31853.814;  -11.289;32630.281
707.242;30400.225;  -11.509;32728.779
707.816;28678.105;   -9.639;32947.238
708.390;27302.840;  -11.429;33277.855
708.965;28065.180;  -11.869;33834.336
709.539;28407.975;  -11.689;33709.273
710.113;28890.947;  -10.478;33044.313
710.687;28539.682;  -10.228;31953.992
711.261;26596.191;  -13.698;30505.949
711.835;26124.824;  -13.378;30262.369
712.409;26707.627;   -9.698;31254.447
712.983;28395.549;  -11.898;32754.986
713.557;29461.873;  -15.138;34018.824
714.131;29244.379;  -14.098;34579.625
714.704;28356.104;   -9.958;33890.262
715.278;25859.580;  -10.028;33531.102
715.852;25042.115;  -11.148;33601.660
716.425;25931.889;   -9.068;33515.117
716.999;26568.814;  -10.038;33185.555
717.573;27538.803;   -9.798;33905.996
718.146;28821.395;  -12.378;35199.293
718.720;28619.520;  -11.918;35060.551
719.293;28036.234;   -8.088;34973.230
719.867;30930.164;  -10.888;36394.449
720.440;31051.803;  -11.938;36663.008
721.013;29642.189;  -12.818;35102.426
721.587;28225.770;  -10.298;33985.266
722.160;26583.592;  -10.048;33524.965
722.733;25583.744;  -12.108;32987.043
723.306;26160.223;  -10.818;33066.301
723.880;28344.682;   -8.908;33399.500
724.453;30434.953;   -9.878;33468.297
725.026;29492.109;  -11.188;33816.637
725.599;26528.646;  -11.678;32797.996
726.172;26477.658;   -9.618;33187.434
726.745;27670.383;   -8.258;35136.613
727.318;29270.387;  -12.978;35751.730
727.891;30232.240;  -12.148;35890.430
728.463;30138.217;   -8.968;34822.090
729.036;28935.125;  -10.188;32895.086
729.609;29087.908;  -11.788;31823.225
730.182;25874.303;  -11.788;31445.283
730.754;23470.404;  -10.268;32373.223
731.327;23627.254;   -9.998;33676.820
731.900;23619.643;  -12.228;33417.000
732.472;24737.936;  -13.848;31978.498
733.045;26969.957;   -8.698;30368.777
733.617;27024.160;  -10.607;30574.215
734.190;26667.563;  -11.507;31280.975
734.762;24048.748;  -13.647;31674.412
735.334;22305.916;   -9.767;31247.291
735.907;22682.322;   -9.897;29876.211
736.479;22616.707;  -11.637;29808.488
737.051;22286.947;   -9.567;30233.547
737.623;23571.430;   -8.187;31469.086
738.195;24437.658;  -11.187;31784.225
738.768;26090.820;  -12.337;32120.523
739.340;26316.025;  -12.227;32094.342
739.912;25247.441;  -11.057;31312.680
740.484;24012.686;  -10.207;31946.238
741.056;22753.203;  -10.047;32984.059
741.628;24270.166;  -13.627;33897.715
742.199;26550.352;   -7.177;33213.016
742.771;25029.223;  -10.797;31369.113
743.343;22701.137;  -11.997;31865.473
743.915;21467.465;  -12.867;32388.631
744.487;21528.123;   -7.617;31079.568
745.058;21813.969;   -9.557;30570.107
745.630;22627.461;   -9.877;29970.127
746.201;23829.887;  -14.177;29186.766
746.773;24354.613;   -9.237;28805.723
747.344;24155.271;   -9.847;29591.223
747.916;22467.385;  -11.657;31412.201
748.487;22183.488;  -10.587;32194.898
749.059;23320.717;   -8.707;32533.719
749.630;24289.832;  -10.537;32158.518
750.201;23325.373;  -11.687;30855.395
750.773;21645.258;  -11.647;28622.555
751.344;21676.334;   -7.147;28405.732
751.915;22705.137;   -9.757;28461.551
752.486;22265.461;  -12.427;27842.850
753.057;19985.041;  -12.227;27845.008
753.628;18789.830;  -10.417;27728.107
754.199;19866.791;  -11.767;27381.086
754.770;21055.090;  -11.187;25882.203
755.341;21116.287;  -10.507;25886.184
755.912;21431.801;   -9.387;26050.861
756.483;20800.609;  -10.647;26798.779
757.054;18920.609;  -11.837;27048.238
757.625;17614.926;  -12.716;26294.838
758.195;17344.877;   -9.666;26142.076
758.766;16985.535;   -8.656;26392.234
759.337;17762.686;  -12.856;26334.594
759.907;19534.275;  -13.366;27579.652
760.478;20442.125;   -8.576;28352.770
761.048;19982.721;  -10.526;27325.088
761.619;19237.857;  -11.116;26460.428
762.189;19114.350;  -12.136;26029.826
762.760;19928.555;   -9.456;26430.145
763.330;21172.672;   -7.136;26670.902
763.900;20701.842;  -11.786;26603.021
764.471;18074.518;  -11.546;25542.740
765.041;16868.590;   -8.096;24358.459
765.611;17028.824;   -8.876;23991.297
766.181;17421.426;  -12.196;24470.236
766.751;18171.855;  -11.636;24845.975
767.321;18165.984;  -10.156;24533.633
767.891;16368.443;  -11.766;24916.492
768.461;15729.657;  -14.936;24776.771
769.031;16138.574;  -12.356;24757.988
769.601;17867.066;   -7.526;24181.088
770.171;17873.404;  -10.766;23670.387
770.741;16769.932;  -13.176;22960.045
771.311;16797.520;  -10.616;22917.523
771.880;17289.568;   -9.576;23562.941
772.450;16858.512;  -10.336;24216.500
773.020;16672.482;  -13.516;24140.398
773.589;16234.721;  -13.466;24414.857
774.159;15753.921;   -8.686;23858.717
774.729;15311.373;   -9.476;22942.135
775.298;14907.119;  -13.666;22324.033
775.867;14584.236;  -11.716;21140.313
776.437;14685.849;   -9.906;20838.092
777.006;14360.989;  -12.166;20599.510
777.576;14244.925;  -12.356;20508.809
778.145;14367.935;  -11.646;20732.947
778.714;14320.284;   -8.226;21062.465
779.283;13570.301;   -9.556;20949.664
779.853;13072.837;  -14.116;20508.623
780.422;13467.349;  -11.506;20649.082
780.991;13015.353;   -9.556;21527.520
781.560;11933.815;   -9.095;22632.658
782.129;11755.188;  -12.135;23048.277
782.698;11771.217;  -10.865;23438.555
783.267;11465.227;   -9.335;23267.734
783.836;11397.407;  -11.045;22415.133
784.404;12373.619;  -13.865;20443.152
784.973;12864.171;  -13.095;19699.150
785.542;12692.275;  -11.575;19763.828
786.111;12498.545;   -9.705;20341.408
786.679;12136.533;  -12.105;20207.967
787.248;11928.602;  -12.455;19516.465
787.817;11721.085;  -11.535;18900.363
788.385;11331.292;   -9.765;17879.121
788.954;10764.547;  -14.005;17658.301
789.522;10289.344;  -11.955;17788.879
790.090;10837.367;  -10.135;18118.277
790.659;11307.535;  -10.975;18338.736
791.227;10771.968;  -13.375;18508.615
791.795;11166.851;  -12.375;17898.254
792.364;11593.077;  -10.725;17295.133
792.932;11981.927;   -9.715;16822.051
793.500;12161.268;  -12.675;17040.148
794.068;12351.174;  -13.495;17179.787
794.636;12495.750;  -10.885;16664.246
795.204;11915.738;  -11.045;16524.545
795.772;11914.940;  -13.175;17274.564
796.340;11415.791;  -12.445;17891.002
796.908;11221.259;   -9.735;17648.561
797.476;11210.601;   -9.815;17064.080
798.044;10809.647;  -13.985;16672.777
798.612; 9995.791;  -13.115;17023.996
799.180; 9685.659;  -10.185;16561.615
799.747; 9580.019;   -9.055;15962.773
800.315; 9232.492;  -12.385;15296.992
800.883; 8956.346;  -15.035;14801.771
801.450; 9015.639;  -10.365;14534.430
802.018; 9059.486;   -9.855;14173.248
802.585; 9089.434;  -11.905;14029.547
803.153; 9101.190;  -11.585;13836.846
803.720; 8990.107;   -9.095;13567.324
804.287; 8668.382;   -9.135;13360.622
804.855; 8225.078;  -11.604;13681.981
805.422; 8076.466;  -11.794;13536.560
805.989; 8055.235;  -10.734;13355.958
806.556; 8151.791;  -10.444;13747.896
807.124; 8415.111;  -12.764;13987.376
807.691; 8360.579;  -12.964;14038.674
808.258; 8203.489;  -11.134;14120.152
808.825; 7945.863;   -9.854;13860.111
809.392; 8019.156;  -10.504;13268.790
809.959; 7520.408;  -13.054;12680.389
810.526; 7074.017;   -8.294;12427.308
811.093; 7122.476;   -8.394;12030.105
811.659; 7786.158;  -12.304;11653.664
812.226; 8278.743;  -13.944;11637.183
812.793; 7969.670;  -10.484;11611.521
813.360; 7328.673;  -10.144;11885.181
813.926; 6928.515;  -11.684;12770.539
814.493; 6641.340;  -13.644;12677.638
815.060; 6255.356;   -9.724;11974.336
815.626; 6265.199;   -9.854;11594.715
816.193; 6658.410;  -13.254;11579.474
816.759; 6732.444;  -13.204;11666.972
817.325; 6851.034;   -9.434;11325.530
817.892; 7184.871;  -10.134;11105.369
818.458; 7566.545;  -13.474;10843.928
819.024; 7263.704;  -11.854;10714.406
819.591; 6947.226;  -10.244;10469.165
820.157; 6690.150;  -10.704;10235.523
820.723; 6128.470;  -12.324;10847.563
821.289; 5808.031;   -9.444;11040.980
821.855; 5766.930;   -8.374;10357.100
822.421; 5842.439;  -10.234; 9978.918
822.987; 5817.414;  -13.294; 9754.177
823.553; 5468.747;  -10.884;10065.755
824.119; 5277.637;   -8.884;10036.294
824.685; 5381.790;   -6.784;10029.192
825.251; 5486.708;  -12.004;10199.230
825.816; 5419.000;  -11.474; 9820.189
826.382; 5161.153;   -9.174; 9297.248
826.948; 5323.576;   -9.214; 9381.347
827.513; 5748.374;  -10.774; 9450.726
828.079; 5619.593;  -11.924; 9472.444
828.645; 5026.741;  -10.543; 9292.643
829.210; 4873.308;  -10.533; 9065.341
829.776; 4841.635;  -10.753; 9132.620
830.341; 4710.436;  -10.173; 9092.878
830.906; 4861.500;  -10.743; 9078.557
831.472; 5236.398;  -11.113; 8534.535
832.037; 5053.107;  -10.603; 8677.874
832.602; 4527.886;  -13.323; 8628.692
833.167; 4216.945;  -10.823; 8879.031
833.733; 4167.749;  -10.113; 9189.790
834.298; 4299.558;  -13.583; 9052.608
834.863; 4349.900;  -12.703; 8895.087
835.428; 4310.482;  -10.523; 8824.266
835.993; 4180.095;   -6.963; 8845.385
836.558; 4032.398;  -10.763; 8888.563
837.123; 4124.135;   -9.903; 8966.582
837.688; 4329.570;   -9.913; 8617.860
838.253; 4544.513;  -10.283; 8590.699
838.817; 4747.985;  -12.963; 8443.797
839.382; 4695.717;  -14.243; 8799.356
839.947; 4390.710;  -10.733; 8810.595
840.511; 4083.070;   -9.383; 8796.394
841.076; 3729.839;  -12.563; 8347.231
841.641; 3767.304;  -12.953; 8224.330
842.205; 3854.797;   -7.043; 8223.349
842.770; 3927.867;   -8.163; 8622.107
843.334; 4107.724;  -12.503; 8410.386
843.898; 4086.766;  -11.693; 8337.465
844.463; 4121.792;  -10.203; 8506.283
845.027; 3917.054;   -9.533; 8280.962
845.591; 3724.429;  -13.443; 8231.141
846.156; 3740.829;  -13.143; 7969.179
846.720; 3618.171;   -9.433; 7768.278
847.284; 3497.329;  -11.033; 7630.957
847.848; 3340.683;  -10.403; 7472.395
848.412; 3258.010;  -11.553; 7437.394
848.976; 3303.769;   -8.393; 7674.592
849.540; 3239.643;   -8.713; 7836.011
850.104; 3308.207;  -12.463; 7913.669
850.668; 3655.622;  -12.973; 7694.508
851.232; 3790.989;  -10.793; 7756.887
851.796; 3621.509;  -10.662; 7926.545
852.359; 3312.999;  -13.082; 7827.844
852.923; 3149.572;  -12.192; 7641.163
853.487; 2980.239;  -11.912; 7342.501
854.050; 2919.450;  -10.892; 7042.820
854.614; 3054.203;  -13.992; 7151.338
855.177; 3170.137;  -11.732; 7105.077
855.741; 3223.317;   -8.962; 6989.675
856.304; 3117.203;   -9.442; 6596.634
856.868; 3047.157;  -14.192; 6356.272
857.431; 3145.483;  -12.702; 6468.571
857.995; 3249.090;   -9.942; 6373.210
858.558; 3260.739;   -9.112; 6324.448
859.121; 3013.769;  -12.932; 6408.327
859.684; 2888.515;  -13.442; 6347.886
860.247; 3010.173;  -10.632; 6321.264
860.810; 3016.865;  -11.272; 6301.903
861.374; 2790.400;   -9.832; 6607.881
861.937; 2540.801;  -11.762; 6408.200
862.500; 2509.270;   -9.722; 6572.639
863.062; 2658.833;  -10.512; 6387.297
863.625; 2840.770;  -11.232; 6190.836
864.188; 3001.889;  -14.112; 5807.254
864.751; 3045.778;  -11.302; 5682.413
865.314; 2939.031;  -10.112; 5547.492
865.876; 2753.392;  -12.182; 5500.150
866.439; 2746.036;  -10.722; 5415.909
867.002; 2712.034;   -9.252; 5501.567
867.564; 2516.038;   -9.572; 5413.946
868.127; 2307.771;  -13.142; 5160.325
868.689; 2219.807;  -12.902; 5133.183
869.252; 2156.605;   -9.732; 5252.382
869.814; 2074.528;   -9.432; 5297.141
870.377; 2084.287;  -11.552; 5390.919
870.939; 2154.133;   -9.052; 5599.898
871.501; 2214.383;  -10.982; 5248.336
872.063; 2226.929;  -12.292; 4854.235
872.626; 2186.338;  -14.912; 4817.074
873.188; 2183.629;  -13.112; 4987.732
873.750; 2143.912;  -13.442; 4868.651
874.312; 2044.898;   -9.402; 4779.330
874.874; 1961.305;  -11.062; 4866.348
875.436; 1889.634;  -13.931; 4718.887
875.998; 1889.010;   -9.561; 4660.005
876.560; 1905.229;  -11.321; 4462.964
877.122; 1847.413;  -12.221; 4145.042
877.683; 1748.546;  -12.191; 4056.481
878.245; 1671.782;  -12.101; 3950.740
878.807; 1707.310;   -8.971; 4058.958
879.369; 1730.779;  -12.071; 3954.677
879.930; 1640.667;  -14.621; 3941.495
880.492; 1580.090;  -10.311; 4067.014
881.053; 1557.281;  -10.901; 3859.633
881.615; 1452.991;  -14.411; 3776.071
882.176; 1359.440;  -13.761; 3734.750
882.738; 1324.435;   -9.181; 3678.489
883.299; 1299.196;  -11.791; 3405.407
883.860; 1295.441;  -13.121; 3351.106
884.422; 1300.637;  -11.211; 3394.044
884.983; 1265.038;  -10.091; 3166.443
885.544; 1179.680;   -8.461; 3189.802
886.105; 1100.495;  -12.361; 3160.360
886.666; 1030.003;  -14.141; 3093.059
887.227;  970.333;  -11.361; 2941.957
887.788;  904.982;  -11.401; 2974.836
888.349;  842.732;  -13.791; 2721.214
888.910;  840.407;  -13.191; 2696.493
889.471;  847.678;   -9.881; 2560.172
890.032;  836.310;   -9.881; 2558.190
890.593;  812.481;  -10.371; 2567.669
891.153;  783.516;  -13.301; 2460.307
891.714;  738.952;  -11.431; 2372.046
892.275;  702.901;  -11.291; 2309.505
892.835;  670.856;  -11.471; 2382.543
893.396;  616.949;  -11.541; 2295.502
893.956;  559.915;  -11.181; 2162.420
894.517;  522.216;  -11.741; 2125.439
895.077;  513.740;  -11.671; 2086.978
895.638;  513.590;  -11.311; 2126.316
896.198;  485.482;   -9.831; 1838.275
896.758;  443.116;   -8.421; 1892.813
897.319;  411.330;  -12.351; 1792.232
897.879;  394.334;  -13.511; 1762.751
898.439;  369.633;  -12.001; 1661.149
898.999;  344.861;  -10.180; 1781.468
899.559;  335.915;  -12.030; 1703.347
900.119;  332.098;  -15.710; 1537.525
900.679;  328.610;   -8.900; 1638.384
901.239;  317.024;   -8.340; 1527.902
901.799;  307.020;  -13.910; 1456.441
902.359;  298.429;  -13.460; 1357.140
902.919;  291.459;  -11.490; 1331.118
903.479;  279.202;  -12.110; 1317.257
904.038;  256.744;  -11.720; 1262.595
904.598;  241.625;  -13.610; 1152.034
905.158;  237.159;  -11.040; 1240.893
905.717;  231.085;  -10.900; 1233.691
906.277;  220.672;  -15.080; 1217.330
906.836;  211.283;  -13.380; 1222.408
907.396;  204.124;  -10.780; 1193.047
907.955;  197.269;   -8.500; 1182.526
908.515;  190.606;  -12.760; 1099.364
909.074;  184.307;  -11.900; 1092.863
909.633;  178.557;   -8.950; 1069.121
910.192;  173.864;   -8.770; 1196.460
910.752;  169.202;  -12.390; 1029.960
911.311;  165.533;  -13.680; 1009.780
911.870;  162.578;  -12.370;  971.460
912.429;  163.249;  -10.900; 1094.080
912.988;  162.114;  -11.690; 1081.060
913.547;  157.767;  -13.240;  940.380
914.106;  152.143;  -11.990;  999.420
914.665;  148.275;   -9.990;  984.020
915.224;  147.804;  -12.880; 1035.760
915.782;  147.854;  -12.350;  922.560
916.341;  147.750;   -9.110; 1049.840
916.900;  143.938;   -9.270;  925.260
917.458;  142.250;  -13.240;  884.220
918.017;  141.413;  -13.550;  942.600
918.576;  140.414;  -12.320;  904.440
919.134;  138.940;  -11.490;  837.980
919.693;  137.676;  -13.670;  893.060
920.251;  135.195;  -15.470;  876.500
920.809;  133.646;  -11.290;  839.580
921.368;  133.701;  -10.210;  885.360
921.926;  132.987;  -12.140;  842.940
922.484;  132.018;  -13.080;  903.360
923.042;  130.703;  -11.720;  880.340
923.601;  133.163;   -7.480;  998.680
924.159;  132.931;  -11.570;  935.560
924.717;  129.708;  -13.840;  841.080
925.275;  128.764;  -10.640;  903.240
925.833;  128.190;  -11.540;  779.320
926.391;  130.079;  -12.960;  938.380
926.949;  128.692;  -14.130;  857.680
927.506;  128.614;  -11.750;  903.500
928.064;  128.858;  -10.250;  877.580
928.622;  127.738;  -13.030;  880.100
929.180;  127.069;  -13.400;  814.180
929.737;  127.875;  -10.700;  808.540
930.295;  131.596;  -10.070;  928.480
930.853;  133.211;  -11.960;  849.100
931.410;  133.787;  -13.120;  821.120
931.968;  133.512;  -10.770;  940.660
932.525;  132.582;  -10.680;  909.380
933.082;  133.369;  -13.130;  811.440
933.640;  134.384;  -13.210;  925.900
934.197;  132.179;  -11.060;  886.360
934.754;  133.651;   -9.580;  897.780
935.312;  136.105;  -14.000;  863.340
935.869;  139.895;  -10.710; 1012.980
936.426;  139.296;   -9.860;  872.800
936.983;  140.838;   -9.710;  889.020
937.540;  141.006;  -13.990;  838.280
938.097;  140.484;  -14.040;  940.120
938.654;  139.846;  -10.310;  898.860
939.211;  142.893;  -10.560;  952.480
939.768;  146.351;  -13.900;  915.420
940.324;  149.314;  -14.760;  904.200
940.881;  150.383;  -10.370;  878.500
941.438;  151.332;   -8.260; 1021.200
941.995;  147.970;  -12.540;  992.560
942.551;  144.761;  -14.670;  875.620
943.108;  144.613;  -10.450;  937.920
943.664;  146.701;  -10.750;  869.340
944.221;  150.315;  -11.550; 1088.140
944.777;  147.274;  -14.770;  869.680
945.334;  149.891;  -12.820;  884.840
945.890;  151.119;  -10.130;  946.480
946.446;  151.534;  -13.470;  947.020
947.003;  153.457;  -12.120;  964.940
947.559;  155.314;   -9.980; 1063.040
948.115;  153.145;   -9.080; 1026.540
948.671;  151.950;  -10.830;  967.300
949.227;  148.594;  -12.440;  859.560
949.783;  146.364;  -12.910;  858.900
950.339;  147.267;  -10.270;  991.000
950.895;  148.111;  -13.630; 1023.840
951.451;  147.640;  -15.100;  925.280
952.007;  148.394;  -11.330;  998.540
952.563;  149.683;  -10.580;  937.780
953.118;  148.447;  -13.440;  904.940
953.674;  148.174;  -12.710;  935.780
954.230;  147.349;  -10.350;  949.640
954.785;  145.257;   -9.190;  936.640
955.341;  143.588;  -11.200;  998.160
955.897;  141.046;  -16.560;  834.660
956.452;  142.651;  -12.570;  953.840
957.008;  141.816;   -7.970; 1083.640
957.563;  139.325;  -11.940; 1009.540
958.118;  135.061;  -13.450;  877.700
958.674;  134.685;  -12.030;  946.780
959.229;  136.465;   -9.410; 1013.980
959.784;  133.752;  -12.000;  832.400
960.339;  132.354;  -14.780; 1001.280
960.894;  129.734;   -9.860;  963.760
961.449;  125.097;   -9.970;  859.960
962.004;  125.960;  -10.900; 1212.840
962.559;  121.182;  -13.150;  860.140
963.114;  118.888;  -13.740;  742.480
963.669;  118.249;   -9.820;  915.500
964.224;  117.450;  -13.890;  874.340
964.779;  116.845;  -12.600;  828.420
965.334;  117.908;  -10.950; 1017.860
965.888;  117.489;  -11.170;  875.360
966.443;  118.997;  -12.540;  972.380
966.998;  118.959;  -15.780;  819.460
967.552;  118.023;   -9.760;  908.380
968.107;  114.306;   -9.060;  868.300
968.661;  115.049;  -11.950;  922.440
969.216;  115.641;  -12.800;  856.280
969.770;  116.038;  -11.210;  917.200
970.324;  114.721;  -11.610;  923.140
970.879;  112.384;  -11.370;  947.180
971.433;  108.749;  -12.540;  952.720
971.987;  103.630;  -11.320;  895.340
972.541;  100.796;  -10.720;  917.100
973.095;  101.518;   -9.680; 1009.460
973.649;   99.676;  -11.440;  809.480
974.203;   98.787;  -11.210;  829.040
974.757;   98.603;  -10.240;  855.220
975.311;   99.242;  -13.720;  872.600
975.865;   97.876;  -13.770;  881.820
976.419;   95.395;  -11.690;  857.400
976.973;   97.086;   -9.510;  849.620
977.526;   98.674;  -12.620;  949.920
978.080;   97.632;  -12.010;  796.780
978.634;   98.989;  -10.170;  921.320
979.187;   96.536;   -9.020;  905.400
979.741;   94.463;   -9.820; 1018.380
980.294;   89.608;  -14.870;  789.160
980.848;   86.805;  -12.380;  717.220
981.401;   89.569;  -10.350;  816.540
981.955;   91.925;  -13.720;  844.300
982.508;   90.807;  -11.490;  746.340
983.061;   91.092;  -10.000;  915.260
983.615;   86.458;  -11.480;  798.800
984.168;   83.778;  -13.220;  770.080
984.721;   83.117;  -13.960;  880.760
985.274;   82.464;  -10.870;  867.500
985.827;   80.693;   -9.790;  834.220
986.380;   78.568;  -13.120;  721.340
986.933;   78.192;  -12.450;  864.800
987.486;   76.485;  -10.210;  861.920
988.039;   75.412;   -8.430;  863.100
988.591;   73.803;  -10.520;  893.260
989.144;   71.247;  -14.860;  737.260
989.697;   70.353;  -13.080;  758.740
990.250;   71.032;  -10.150;  858.100
990.802;   69.658;  -13.430;  755.860
991.355;   70.787;  -12.750;  974.880
991.907;   68.755;  -12.040;  864.320
992.460;   66.722;  -11.330;  753.760
993.012;   65.882;  -13.610;  749.540
993.565;   64.557;  -13.460;  711.360
994.117;   65.756;   -9.360;  950.780
994.669;   62.487;  -11.300;  701.320
995.221;   60.830;  -13.540;  791.920
995.774;   58.972;  -13.430;  787.580
996.326;   57.574;  -12.520;  740.220
996.878;   57.206;  -10.950;  838.420
997.430;   55.469;  -14.300;  699.860
997.982;   54.752;  -13.760;  750.140
998.534;   53.768;  -11.530;  739.060
999.086;   52.403;  -10.310;  738.220
999.638;   51.705;  -12.530;  661.380
1000.190;   50.533;  -11.840;  699.320
1000.741;   50.220;  -10.260;  742.700
1001.293;   50.145;   -8.860;  686.020
1001.845;   49.112;  -13.700;  676.640
1002.396;   48.538;  -12.100;  743.400
1002.948;   48.288;  -12.760;  737.400
1003.500;   46.527;  -10.380;  723.780
1004.051;   47.105;  -11.900;  907.580
1004.603;   45.715;  -12.250;  791.820
1005.154;   41.370;  -13.210;  608.980
1005.705;   41.352;  -10.950;  723.960
1006.257;   40.587;  -13.880;  707.220
1006.808;   39.644;  -12.840;  685.460
1007.359;   39.584;  -10.570;  763.240
1007.910;   38.945;   -9.620;  646.640
1008.461;   38.590;  -13.630;  732.940
1009.013;   37.299;  -17.200;  588.340
1009.564;   38.744;  -10.200;  793.520
1010.115;   36.337;  -12.570;  597.040
1010.665;   36.155;  -15.150;  602.160
1011.216;   36.069;  -14.480;  667.920
1011.767;   35.824;  -11.340;  697.920
1012.318;   35.890;   -9.780;  736.980
1012.869;   34.846;  -12.380;  679.000
1013.419;   34.597;  -15.560;  603.120
1013.970;   34.598;  -11.010;  666.640
1014.521;   33.573;  -11.610;  620.620
1015.071;   34.878;  -13.450;  670.380
1015.622;   33.622;  -13.870;  635.460
1016.172;   32.822;  -11.610;  596.820
1016.723;   33.488;  -12.120;  614.380
1017.273;   32.570;  -13.620;  604.160
1017.823;   32.292;  -14.140;  650.340
1018.374;   32.401;  -12.800;  611.760
1018.924;   31.723;  -12.340;  716.880
1019.474;   33.029;  -11.410;  718.880
1020.024;   31.579;  -14.770;  657.580
1020.574;   31.767;   -9.780;  726.160
1021.124;   31.772;   -8.560;  673.580
1021.674;   30.868;  -15.190;  559.120
1022.224;   31.956;  -13.530;  708.940
1022.774;   30.803;  -13.280;  668.820
1023.324;   31.400;  -10.690;  753.520
1023.874;   32.292;  -10.240;  875.760
1024.423;   29.870;  -12.540;  613.700
1024.973;   29.470;  -10.010;  610.760
1025.523;   28.558;  -10.550;  620.960
1026.072;   29.171;  -13.560;  606.420
1026.622;   28.838;  -15.120;  675.740
1027.172;   30.064;  -11.260;  715.660
1027.721;   28.419;  -11.410;  601.220
1028.270;   29.458;  -13.530;  663.400
1028.820;   28.557;  -13.680;  638.080
1029.369;   28.699;  -13.520;  612.700
1029.918;   28.509;  -10.980;  649.840
1030.468;   27.568;  -13.530;  564.780
1031.017;   28.280;  -13.170;  634.800
1031.566;   26.434;  -12.200;  608.900
1032.115;   27.459;   -9.960;  694.500
1032.664;   26.783;  -13.210;  596.480
1033.213;   27.458;  -12.500;  735.420
1033.762;   27.158;  -11.910;  635.620
1034.311;   26.810;   -9.640;  677.220
1034.860;   26.876;  -13.310;  691.000
1035.408;   26.833;  -11.830;  722.720
1035.957;   26.547;  -12.000;  719.540
1036.506;   24.654;  -11.690;  530.800
1037.055;   27.405;  -10.990;  844.320
1037.603;   25.777;  -15.120;  664.000
1038.152;   23.322;  -12.450;  534.760
1038.700;   24.537;  -10.560;  585.740
1039.249;   24.433;  -11.080;  681.220
1039.797;   24.863;  -12.540;  633.360
1040.345;   24.697;  -11.920;  705.420
1040.894;   23.962;  -11.410;  625.300
1041.442;   24.349;  -14.320;  632.200
1041.990;   22.446;  -16.240;  559.160
1042.538;   23.094;  -11.680;  536.180
1043.087;   22.682;  -10.760;  570.860
1043.635;   24.966;  -11.850;  670.500
1044.183;   23.212;  -15.480;  586.400
1044.731;   22.380;  -11.770;  576.000
1045.279;   22.001;  -13.090;  674.920
1045.827;   24.332;  -12.440;  892.400
1046.374;   21.756;  -13.840;  515.420
1046.922;   20.901;  -13.220;  590.580
1047.470;   23.018;  -10.230;  691.300
1048.018;   22.532;  -14.590;  647.960
1048.565;   23.489;  -12.050;  708.600
1049.113;   21.031;  -11.650;  557.000
1049.660;   20.961;  -10.510;  629.660
1050.208;   21.455;  -13.310;  675.640
1050.755;   20.667;  -15.900;  606.580
1051.303;   21.469;  -11.430;  686.820
1051.850;   20.266;   -8.480;  635.120
1052.397;   19.173;  -15.010;  473.960
1052.945;   19.942;  -13.960;  617.760
1053.492;   21.667;  -13.150;  741.840
1054.039;   21.620;   -9.630;  720.180
1054.586;   19.915;  -13.680;  557.240
1055.133;   20.720;  -14.570;  693.140
1055.680;   20.305;  -13.820;  646.620
1056.227;   18.837;  -11.730;  542.780
1056.774;   20.909;  -12.480;  794.980
1057.321;   18.480;  -13.930;  523.260
1057.868;   19.245;  -11.690;  651.320
1058.415;   19.259;   -9.520;  651.980
1058.961;   19.471;  -13.160;  678.940
1059.508;   19.411;  -12.920;  643.820
1060.055;   18.951;  -11.920;  581.780
1060.601;   18.751;  -11.500;  624.300
1061.148;   19.254;  -14.330;  616.820
1061.694;   17.966;  -16.870;  592.580
1062.241;   17.745;  -10.330;  596.320
1062.787;   18.813;  -10.620;  663.140
1063.334;   20.527;  -10.110;  808.560
1063.880;   18.316;  -13.400;  668.360
1064.426;   18.513;  -10.680;  706.820
1064.972;   17.280;   -9.920;  601.340
1065.518;   15.950;  -10.980;  566.640
1066.065;   17.932;  -14.890;  624.460
1066.611;   16.896;  -12.870;  598.800
1067.157;   17.624;  -12.950;  641.860
1067.703;   17.328;  -13.540;  668.480
1068.249;   17.585;  -13.540;  605.220
1068.794;   16.456;  -12.600;  626.880
1069.340;   15.662;  -10.620;  578.960
1069.886;   17.079;  -12.830;  590.700
1070.432;   15.351;  -14.870;  541.720
1070.977;   15.990;  -11.980;  601.080
1071.523;   16.017;   -8.200;  573.060
1072.068;   16.701;  -12.330;  582.000
1072.614;   15.385;  -16.370;  527.760
1073.160;   15.892;  -11.100;  687.040
1073.705;   14.930;  -10.480;  572.520
1074.250;   15.243;  -14.520;  559.900
1074.796;   17.558;  -11.460;  655.160
1075.341;   16.070;  -11.950;  664.100
1075.886;   15.072;  -11.460;  594.240
1076.431;   14.421;  -13.770;  649.880
1076.976;   15.242;  -12.680;  639.220
1077.521;   14.683;  -13.170;  583.080
1078.067;   13.800;  -10.860;  579.400
1078.612;   14.231;  -13.920;  661.620
1079.156;   14.333;  -13.880;  601.540
1079.701;   14.665;  -13.120;  693.260
1080.246;   15.198;   -9.940;  696.300
1080.791;   15.401;  -14.740;  625.020
1081.336;   14.109;  -13.750;  659.320
1081.880;   14.031;  -13.400;  649.680
1082.425;   12.552;  -12.220;  573.480
1082.970;   15.115;  -11.610;  717.040
1083.514;   13.729;  -13.580;  597.000
1084.059;   12.323;  -12.810;  586.720
1084.603;   12.722;  -12.320;  565.840
1085.147;   13.244;  -13.190;  645.220
1085.692;   14.262;  -12.480;  716.800
1086.236;   11.925;  -13.020;  503.140
1086.780;   13.989;   -9.190;  751.440
1087.325;   12.807;  -12.480;  654.620
1087.869;   13.098;  -12.450;  610.700
1088.413;   13.396;  -12.240;  705.040
1088.957;   10.867;   -9.020;  543.400
1089.501;   13.572;  -10.320;  766.640
1090.045;   12.666;  -12.720;  726.480
1090.589;   10.786;  -13.690;  569.920
1091.133;   11.769;  -10.020;  673.340
1091.676;   12.020;  -12.330;  591.940
1092.220;   11.774;  -14.970;  600.920
1092.764;   12.305;  -12.430;  706.960
1093.307;   12.015;   -9.800;  673.780
1093.851;   10.660;  -14.970;  556.540
1094.395;   12.138;  -15.310;  683.140
1094.938;   11.165;  -10.370;  632.520
1095.482;   10.857;  -11.050;  559.800
1096.025;   11.570;  -11.840;  710.880
1096.568;   12.010;  -12.840;  779.280
1097.112;    8.994;  -14.700;  508.180
1097.655;   11.436;   -8.720;  603.000
1098.198;    9.576;  -13.610;  600.180
1098.741;   10.064;  -13.350;  612.860
1099.285;   10.780;  -11.230;  657.300
1099.828;    8.780;  -11.840;  439.400
1100.371;   10.124;  -10.840;  608.160
1100.914;   10.485;  -14.190;  682.660
1101.457;   10.163;  -11.240;  679.900
1101.999;    8.439;  -11.270;  584.680
1102.542;   10.088;  -11.480;  641.440
1103.085;    9.586;  -11.750;  658.500
1103.628;   10.217;  -11.400;  762.060
1104.170;    8.897;  -10.490;  588.280
1104.713;   10.279;  -10.600;  646.700
1105.256;    8.968;  -14.360;  557.440
1105.798;    7.547;  -13.210;  499.980
1106.341;    9.374;  -10.270;  728.900
1106.883;    8.895;  -12.200;  521.340
1107.425;    9.028;  -13.110;  668.180
1107.968;    8.423;  -12.840;  612.380
1108.510;    9.062;   -6.480;  684.960
1109.052;    7.664;  -13.940;  612.620
1109.594;    8.229;  -13.690;  554.440
1110.136;    8.529;  -11.880;  643.220
1110.679;    7.215;   -9.500;  633.080
1111.221;    8.679;  -14.160;  604.460
1111.763;    7.093;  -13.980;  559.220
1112.304;    6.665;  -13.880;  547.140
1112.846;    7.692;  -12.210;  666.240
1113.388;   10.614;  -11.390;  942.180
1113.930;    7.622;  -14.540;  694.200
1114.472;    6.908;  -12.640;  606.540
1115.013;    5.440;  -11.620;  551.280
1115.555;    6.455;  -13.640;  587.100
1116.097;    5.746;  -15.380;  579.480
1116.638;    7.292;  -12.640;  684.600
1117.180;    6.996;   -9.850;  667.740
1117.721;    7.005;  -13.690;  568.580
1118.262;    6.744;  -12.680;  677.960
1118.804;    7.330;  -12.530;  637.340
1119.345;    5.406;  -11.690;  578.400
1119.886;    7.168;  -13.380;  704.040
1120.427;    6.216;  -14.070;  589.020
1120.969;    4.999;  -13.500;  597.920
1121.510;    4.757;  -11.480;  563.060
1122.051;    6.184;  -12.830;  723.580
1122.592;    5.220;  -14.290;  655.420
1123.133;    4.133;  -12.400;  547.940
1123.673;    6.813;  -10.130;  706.480
1124.214;    5.369;  -12.930;  612.460
1124.755;    6.092;  -14.380;  639.460
1125.296;    4.812;  -14.000;  627.320
1125.836;    5.958;  -10.070;  691.500
1126.377;    4.815;  -12.640;  599.660
1126.918;    5.569;  -12.960;  614.980
1127.458;    4.792;  -13.350;  622.220
1127.999;    4.831;  -10.750;  656.980
1128.539;    5.191;  -12.350;  694.240
1129.079;    4.166;  -14.860;  632.720
1129.620;    4.012;  -13.840;  558.100
1130.160;    3.841;  -12.330;  539.480
1130.700;    4.563;  -14.530;  640.840
1131.240;    5.278;  -12.530;  643.700
1131.781;    4.039;  -14.450;  619.680
1132.321;    3.625;   -9.790;  599.120
1132.861;    3.848;  -14.860;  564.200
1133.401;    3.888;  -14.290;  593.940
1133.941;    3.267;  -11.750;  626.280
1134.481;    2.754;   -9.920;  597.580
1135.020;    2.735;  -12.290;  609.160
1135.560;    3.106;  -11.650;  674.940
1136.100;    2.752;  -16.270;  501.160
1136.640;    2.534;  -10.890;  510.480
1137.179;    3.502;  -14.180;  537.960
1137.719;    3.112;  -16.250;  605.400
1138.258;    3.516;  -14.230;  587.360
1138.798;    2.810;   -9.090;  663.780
1139.337;    1.887;  -15.130;  482.840
1139.877;    3.315;  -13.680;  642.360
1140.416;    5.915;  -11.320;  878.060
1140.955;    2.467;  -10.860;  535.380
1141.494;    3.324;  -12.920;  669.280
1142.034;    2.379;  -13.930;  583.520
1142.573;    3.038;  -11.440;  646.280
1143.112;    2.003;  -12.000;  553.480
1143.651;    2.483;  -13.670;  536.480
1144.190;    2.721;  -12.730;  691.640
1144.729;    2.633;  -14.560;  607.420
1145.267;    1.962;  -11.830;  584.900
1145.806;    2.911;  -12.230;  637.040
1146.345;    1.181;  -14.130;  635.020
1146.884;    2.216;  -11.590;  622.500
1147.422;    1.332;  -12.550;  533.060
1147.961;    3.041;  -11.180;  708.460
1148.500;    2.966;  -11.510;  669.720
1149.038;    1.897;  -11.640;  632.500
1149.577;    2.353;  -10.130;  698.640
1150.115;    0.125;  -13.970;  452.280
1150.653;    1.467;  -14.520;  607.340
1151.192;    1.482;  -12.810;  552.920
1151.730;    1.720;   -9.100;  652.560
1152.268;    1.080;  -12.220;  589.520
1152.806;    1.109;  -14.140;  571.180
1153.344;   -0.182;  -12.350;  577.640
1153.882;    0.801;   -8.980;  600.060
1154.421;    0.006;  -15.190;  470.620
1154.958;    0.324;  -15.210;  595.240
1155.496;    1.241;  -12.850;  645.280
1156.034;    0.668;   -9.940;  721.880
1156.572;    1.909;  -13.570;  667.060
1157.110;    0.230;  -14.590;  473.940
1157.647;    1.449;  -13.030;  676.960
1158.185;   -0.429;  -12.140;  564.320
1158.723;   -1.133;  -14.390;  509.200
1159.260;    0.274;  -14.090;  701.700
1159.798;    0.791;  -11.920;  658.160
1160.335;   -0.647;  -11.110;  631.820

