
Integration time [ms]:   3.276
Averaging Nr. [scans]: 1000
Smoothing Nr. [pixels]: 0
Data measured with spectrometer [name]: 7414430SP
Wave   ;Sample   ;Dark     ;Reference
[nm]   ;[counts] ;[counts] ;[counts] 

288.544;  157.993;    7.793;  793.890
289.143;  160.660;    7.462;  681.602
289.742;  162.016;    8.602;  828.814
290.341;  148.987;    1.321;  789.841
290.940;  138.524;   -0.709;  730.702
291.538;  140.987;    0.881;  881.108
292.137;  140.185;    0.122;  792.581
292.736;  142.916;   -1.929;  975.101
293.335;  138.784;   -8.229;  735.086
293.934;  140.181;   -5.279;  781.677
294.532;  140.864;   -1.369; 1031.958
295.131;  126.550;   -7.641;  834.394
295.730;  126.204;   -8.420;  809.588
296.328;  123.434;   -5.611;  783.442
296.927;  123.238;   -5.781;  779.652
297.525;  125.249;   -6.361;  781.236
298.124;  115.672;  -11.382;  654.009
298.722;  120.578;   -7.641;  761.933
299.321;  117.329;   -6.811;  708.597
299.919;  113.605;   -6.991;  751.918
300.518;  110.193;  -10.362;  689.338
301.116;  112.912;   -9.581;  691.381
301.715;  113.793;   -4.891;  730.222
302.313;  111.986;   -8.801;  704.943
302.911;  106.015;   -8.522;  733.830
303.509;  111.111;   -6.171;  925.627
304.108;  110.045;   -7.311;  760.383
304.706;  109.354;   -8.321;  801.664
305.304;  102.563;  -10.222;  796.707
305.902;  108.330;   -6.021;  784.484
306.500;  104.631;   -4.971;  728.200
307.098;  103.635;   -7.061;  746.560
307.696;  100.391;   -8.801;  780.432
308.294;  100.590;   -6.411;  731.359
308.892;  103.148;   -2.901;  759.769
309.490;   99.288;   -5.041;  712.161
310.088;   96.773;   -5.002;  788.444
310.686;  101.505;   -2.041;  821.749
311.284;   97.440;   -2.351;  766.040
311.882;   94.446;   -4.422;  731.225
312.480;   91.836;   -4.192;  697.167
313.078;   92.690;   -1.172;  808.331
313.675;   93.730;   -2.601;  691.600
314.273;   88.989;   -1.312;  797.837
314.871;   86.827;   -3.942;  589.829
315.468;   85.542;   -2.802;  652.090
316.066;   89.105;   -0.701;  694.427
316.664;   82.007;   -4.362;  656.351
317.261;   85.164;   -2.872;  910.128
317.859;   81.782;   -2.022;  768.735
318.456;   81.360;   -0.531;  830.096
319.054;   78.200;   -3.912;  787.828
319.651;   75.687;   -4.752;  759.928
320.249;   74.654;   -2.602;  810.188
320.846;   73.009;   -0.821;  714.286
321.443;   70.943;   -4.642;  832.135
322.041;   67.460;   -5.002;  812.315
322.638;   64.090;   -3.982;  701.456
323.235;   66.277;   -3.411;  665.683
323.833;   63.249;   -7.361;  740.354
324.430;   57.577;   -8.611;  615.900
325.027;   59.447;   -4.061;  876.855
325.624;   58.762;   -4.031;  644.532
326.221;   56.111;   -7.481;  689.717
326.818;   54.939;   -5.281;  818.332
327.415;   57.815;   -7.460;  748.828
328.012;   56.527;   -5.510;  690.585
328.609;   55.911;   -7.880;  731.389
329.206;   53.957;   -8.331;  778.621
329.803;   54.374;   -5.121;  737.841
330.400;   56.467;   -4.510;  704.260
330.997;   58.110;   -6.441;  817.147
331.594;   55.858;   -8.831;  788.185
332.191;   61.186;   -7.621;  728.722
332.787;   65.664;   -4.591;  844.463
333.384;   64.917;   -7.412;  763.093
333.981;   63.675;   -8.293;  815.687
334.578;   66.438;   -7.052;  708.378
335.174;   69.536;   -3.102;  731.469
335.771;   68.088;   -5.943;  836.456
336.367;   65.604;   -7.393;  710.631
336.964;   70.930;   -4.063;  793.266
337.561;   67.327;   -3.813;  731.112
338.157;   64.218;   -4.654;  911.916
338.754;   62.163;   -7.934;  796.589
339.350;   60.313;   -4.414;  722.493
339.946;   62.778;   -4.664;  773.135
340.543;   53.800;   -6.375;  846.136
341.139;   48.057;   -9.815;  720.836
341.735;   44.797;   -4.526;  772.593
342.332;   44.742;   -4.895;  691.472
342.928;   44.931;   -4.295;  795.394
343.524;   37.013;   -5.476;  761.684
344.120;   32.955;   -5.856;  738.562
344.716;   36.806;   -2.155;  723.717
345.313;   34.787;   -6.275;  795.342
345.909;   29.178;   -8.815;  627.336
346.505;   30.489;   -5.305;  740.247
347.101;   30.989;   -2.674;  827.864
347.697;   30.547;   -4.344;  785.398
348.293;   25.621;   -9.975;  627.244
348.889;   26.894;   -5.774;  745.914
349.485;   26.167;   -5.004;  688.205
350.081;   26.543;   -4.704;  772.592
350.676;   22.041;   -6.635;  691.606
351.272;   26.552;   -4.504;  809.530
351.868;   26.303;   -3.914;  780.497
352.464;   23.643;   -9.044;  723.932
353.059;   18.796;   -8.314;  646.017
353.655;   22.225;   -7.024;  777.063
354.251;   23.224;   -5.343;  759.845
354.846;   17.538;   -8.604;  740.646
355.442;   15.906;   -6.945;  753.071
356.038;   17.958;   -7.564;  751.708
356.633;   18.103;   -5.814;  728.594
357.229;   15.082;   -7.364;  724.757
357.824;   14.180;   -8.024;  703.600
358.420;   12.601;   -9.384;  679.726
359.015;   13.463;   -5.104;  695.357
359.610;   14.334;   -6.854;  763.920
360.206;    7.265;  -10.185;  603.240
360.801;   11.156;   -7.054;  646.503
361.396;   13.611;   -5.034;  725.975
361.992;    8.727;   -8.284;  668.220
362.587;    5.093;   -8.625;  670.160
363.182;    6.970;   -7.674;  689.631
363.777;    8.961;   -5.164;  738.242
364.372;    7.848;   -8.604;  737.314
364.967;    3.876;   -9.055;  680.744
365.563;    8.388;   -6.114;  815.567
366.158;    6.110;   -5.814;  685.161
366.753;    6.088;   -7.854;  649.263
367.348;    3.812;   -7.804;  746.056
367.942;    4.804;   -7.954;  697.298
368.537;    3.164;   -4.984;  754.245
369.132;    3.711;   -8.564;  703.428
369.727;   -0.684;   -8.855;  638.079
370.322;    0.932;   -6.245;  580.186
370.917;    0.264;   -6.425;  710.646
371.511;    3.633;   -6.294;  861.834
372.106;   -0.503;   -7.685;  776.964
372.701;   -3.872;   -7.335;  585.988
373.296;    2.193;   -4.564;  863.135
373.890;   -3.145;  -10.235;  647.840
374.485;   -6.085;   -7.885;  691.199
375.079;   -1.261;   -7.324;  738.685
375.674;    0.988;   -3.494;  812.970
376.268;   -4.118;   -8.525;  691.759
376.863;   -9.963;  -10.086;  580.327
377.457;   -3.667;   -7.025;  662.490
378.052;   -5.438;   -3.585;  764.884
378.646;   -6.494;   -7.595;  741.167
379.240;   -7.513;   -8.335;  721.176
379.835;   -6.152;   -5.785;  636.978
380.429;   -8.127;   -4.335;  562.557
381.023;   -8.100;   -6.805;  779.205
381.617;  -10.747;   -9.195;  680.106
382.212;   -7.851;   -6.905;  685.303
382.806;   -6.173;   -3.745;  760.690
383.400;  -10.182;   -7.745;  672.281
383.994;  -11.201;   -9.765;  664.870
384.588;   -7.936;   -6.564;  697.701
385.182;   -6.511;   -5.344;  726.624
385.776;   -8.098;   -8.514;  706.875
386.370;  -11.372;   -9.555;  681.968
386.964;  -10.366;   -8.715;  684.155
387.558;   -8.525;   -6.174;  598.360
388.152;  -12.377;   -8.725;  681.959
388.745;  -10.458;   -7.965;  814.707
389.339;   -8.590;   -5.924;  747.642
389.933;   -8.115;   -5.524;  695.370
390.527;   -9.014;   -7.114;  859.029
391.120;  -16.136;  -10.725;  595.318
391.714;  -12.625;   -8.035;  711.633
392.308;   -9.165;   -3.574;  780.253
392.901;  -12.677;   -7.245;  642.460
393.495;  -14.947;   -9.285;  595.414
394.089;  -12.933;   -5.895;  760.452
394.682;  -13.838;   -4.295;  697.188
395.275;  -14.005;   -9.875;  719.927
395.869;  -15.290;   -8.485;  667.314
396.462;  -13.654;   -7.455;  616.609
397.056;   -9.609;   -5.424;  776.621
397.649;  -14.630;   -6.605;  731.575
398.242;  -12.318;   -8.224;  712.645
398.836;  -10.923;   -7.474;  766.408
399.429;  -12.247;   -7.094;  631.041
400.022;  -15.306;   -9.475;  665.902
400.615;  -13.640;   -7.145;  805.609
401.208;  -11.039;   -7.174;  691.451
401.802;  -13.503;   -5.515;  699.329
402.395;  -14.665;   -9.875;  683.502
402.988;  -15.586;   -8.845;  696.627
403.581;  -11.849;   -8.874;  646.878
404.174;  -10.001;   -5.324;  686.568
404.767;  -13.230;   -9.575;  638.583
405.360;  -16.147;  -10.965;  621.445
405.953;  -10.702;   -8.764;  759.034
406.545;   -9.458;   -7.514;  725.342
407.138;  -13.886;  -10.025;  618.350
407.731;  -12.954;  -10.034;  613.303
408.324;   -8.774;   -9.374;  660.554
408.917;   -9.302;   -6.534;  681.864
409.509;  -11.838;   -8.004;  740.396
410.102;  -13.403;   -9.875;  643.948
410.695;   -7.785;   -8.604;  665.758
411.287;   -8.184;   -6.794;  599.821
411.880;  -10.112;   -9.334;  585.421
412.472;  -13.036;  -10.254;  613.092
413.065;   -9.503;   -6.714;  629.408
413.657;   -7.532;   -7.234;  576.678
414.250;   -7.665;  -10.544;  646.681
414.842;  -10.112;   -9.744;  676.353
415.434;   -7.636;   -6.994;  570.463
416.027;   -3.515;   -5.893;  652.196
416.619;   -4.367;   -7.264;  713.400
417.211;   -5.793;  -10.374;  599.352
417.804;   -2.379;   -7.993;  628.499
418.396;   -5.735;   -7.234;  607.643
418.988;   -3.446;   -9.443;  659.238
419.580;   -8.103;  -10.724;  568.276
420.172;   -5.026;  -10.323;  536.196
420.764;   -1.013;   -8.793;  672.482
421.356;   -1.559;  -11.143;  636.898
421.948;   -3.409;   -8.293;  677.661
422.540;    1.405;   -7.893;  680.027
423.132;    1.819;   -7.082;  600.641
423.724;   -1.270;   -8.653;  561.267
424.316;   -0.370;  -10.213;  621.345
424.908;    3.509;   -9.762;  591.517
425.500;    4.471;   -5.572;  647.978
426.092;    4.309;   -8.422;  648.268
426.683;    3.065;   -9.283;  684.836
427.275;    5.764;   -7.852;  641.471
427.867;    8.234;   -5.272;  668.948
428.458;    8.285;   -7.682;  732.344
429.050;    6.018;  -10.612;  680.749
429.642;    9.262;   -9.882;  743.124
430.233;    9.305;   -6.962;  569.356
430.825;   10.423;   -6.842;  724.809
431.416;    7.979;   -9.672;  698.241
432.008;   11.739;   -6.552;  651.723
432.599;   12.895;   -6.891;  656.073
433.190;    9.533;  -10.912;  637.670
433.782;    8.067;  -11.172;  590.395
434.373;   16.293;   -6.061;  884.765
434.964;   14.948;   -8.251;  602.920
435.556;   13.027;   -9.722;  634.537
436.147;   14.313;   -9.082;  758.490
436.738;   15.770;   -8.041;  701.099
437.329;   20.953;   -7.341;  721.723
437.920;   13.421;   -8.162;  666.688
438.511;   13.076;  -11.802;  564.526
439.103;   19.611;  -10.191;  623.998
439.694;   21.630;   -7.601;  681.583
440.285;   22.743;   -8.541;  764.432
440.876;   20.257;   -9.751;  845.738
441.466;   19.490;   -9.401;  575.162
442.057;   25.921;   -7.760;  665.814
442.648;   24.009;   -9.971;  746.255
443.239;   22.145;  -11.001;  620.477
443.830;   28.225;   -7.990;  704.958
444.421;   29.503;   -7.910;  655.474
445.011;   26.590;   -8.131;  693.619
445.602;   25.431;   -7.111;  743.126
446.193;   27.115;  -10.920;  488.117
446.783;   31.375;   -6.500;  640.397
447.374;   27.190;   -8.671;  692.759
447.964;   27.464;  -10.781;  713.770
448.555;   36.544;   -9.650;  822.742
449.145;   32.384;   -8.660;  662.853
449.736;   33.431;   -8.990;  803.179
450.326;   33.046;   -9.500;  713.626
450.917;   37.753;   -8.680;  675.324
451.507;   37.974;   -7.520;  600.661
452.097;   38.830;   -8.590;  746.267
452.688;   39.387;  -11.340;  742.160
453.278;   39.598;  -10.100;  566.840
453.868;   43.297;   -6.019;  793.550
454.458;   41.108;   -9.440;  651.141
455.048;   41.399;  -10.560;  711.783
455.639;   42.577;  -11.799;  567.096
456.229;   46.983;   -6.899;  710.694
456.819;   49.092;   -7.389;  751.158
457.409;   49.081;  -11.119;  773.993
457.999;   52.069;   -9.289;  737.505
458.589;   51.705;   -6.139;  686.606
459.179;   52.245;   -8.729;  717.658
459.769;   48.586;   -9.789;  627.099
460.358;   54.650;  -10.259;  797.262
460.948;   54.426;   -7.299;  689.503
461.538;   55.841;  -10.289;  660.677
462.128;   53.997;  -11.269;  664.934
462.717;   61.215;   -9.368;  710.326
463.307;   64.632;   -7.908;  705.846
463.897;   59.750;   -9.599;  656.942
464.486;   58.654;   -9.769;  837.128
465.076;   63.424;   -8.048;  733.776
465.666;   66.988;   -9.358;  652.900
466.255;   64.551;   -7.919;  785.651
466.845;   63.320;  -11.689;  666.749
467.434;   66.115;   -7.818;  725.873
468.023;   68.585;   -7.678;  658.357
468.613;   65.370;  -10.939;  713.946
469.202;   69.262;  -10.118;  646.507
469.791;   74.133;   -9.108;  737.811
470.381;   76.859;   -6.058;  742.813
470.970;   75.418;  -10.428;  711.099
471.559;   74.782;  -10.268;  733.291
472.148;   78.027;   -8.448;  675.737
472.738;   80.889;   -6.917;  765.466
473.327;   81.251;  -11.978;  637.529
473.916;   79.787;  -11.888;  737.446
474.505;   84.339;   -9.437;  751.703
475.094;   87.277;   -6.747;  806.570
475.683;   86.822;   -9.367;  797.699
476.272;   87.068;  -12.637;  730.632
476.861;   90.103;  -10.027;  706.754
477.449;   96.807;   -8.716;  728.487
478.038;   91.376;   -9.577;  692.513
478.627;   92.405;   -9.718;  714.852
479.216;   98.904;   -8.947;  769.441
479.805;  102.858;   -6.256;  783.375
480.393;  102.604;   -7.937; 1008.945
480.982;  100.736;   -7.717;  874.501
481.571;  106.719;   -9.266;  858.333
482.159;  108.556;   -7.636;  705.386
482.748;  107.149;   -9.667;  821.385
483.336;  113.167;  -10.376;  858.209
483.925;  112.563;   -7.147;  774.373
484.513;  120.292;   -7.996;  758.962
485.102;  117.616;  -10.027;  810.965
485.690;  125.942;  -10.446; 1011.050
486.278;  128.209;   -8.446;  979.329
486.867;  127.312;   -6.356;  809.662
487.455;  129.914;   -9.136;  898.229
488.043;  131.677;  -10.646;  748.361
488.631;  140.310;   -7.456; 1005.079
489.220;  144.993;   -6.636;  908.626
489.808;  145.588;  -11.036;  741.415
490.396;  153.582;  -10.246;  914.645
490.984;  159.990;   -8.556;  830.161
491.572;  171.401;   -5.886;  940.315
492.160;  179.201;   -9.486;  919.081
492.748;  191.714;  -10.976;  884.341
493.336;  215.088;   -8.776; 1019.693
493.924;  244.096;   -5.465;  958.077
494.512;  278.177;   -9.986; 1066.638
495.100;  326.961;  -10.636; 1103.280
495.687;  388.773;  -10.885; 1206.373
496.275;  445.990;   -8.126; 1150.796
496.863;  513.901;  -10.586; 1281.171
497.451;  627.315;  -11.926; 1386.805
498.038;  740.006;  -10.885; 1556.729
498.626;  840.148;   -6.315; 1741.407
499.214;  990.051;   -7.326; 2016.609
499.801; 1209.917;  -11.906; 2220.633
500.389; 1463.971;  -10.466; 2312.494
500.976; 1716.422;   -5.236; 2744.849
501.564; 2138.972;   -8.936; 3148.565
502.151; 2591.143;  -13.176; 3515.999
502.738; 3113.855;  -10.646; 3971.274
503.326; 3499.636;   -9.525; 4403.796
503.913; 3807.256;  -10.856; 5161.749
504.500; 4317.787;  -11.586; 5986.420
505.088; 4591.912;  -10.336; 6381.201
505.675; 5038.979;   -6.355; 6925.547
506.262; 5512.985;   -9.046; 7619.060
506.849; 6047.696;  -10.416; 8733.969
507.436; 6562.771;  -10.305; 9790.121
508.023; 7015.576;   -5.496; 9985.472
508.610; 7821.940;   -7.856;10434.618
509.197; 9118.069;  -10.097;11198.435
509.784;10598.645;  -10.886;12391.194
510.371;11979.983;   -9.315;13603.713
510.958;12854.723;   -9.936;14426.586
511.545;13465.858;   -9.326;15243.775
512.132;13985.729;  -10.075;15945.876
512.719;14170.055;   -7.796;16340.369
513.305;15070.480;  -10.606;18011.766
513.892;16354.567;  -11.486;19754.971
514.479;18093.395;   -9.126;20967.805
515.066;19693.174;   -6.026;22299.793
515.652;19908.969;   -8.466;22908.660
516.239;20979.834;  -10.886;23798.875
516.825;23195.887;  -11.496;25567.275
517.412;25192.449;   -5.796;28154.959
517.998;27104.211;  -10.506;28344.111
518.585;26734.887;  -10.076;27134.219
519.171;25434.723;   -8.315;27268.576
519.758;26402.854;   -8.596;28964.129
520.344;27660.777;   -8.466;30664.494
520.930;30238.830;  -11.006;32550.605
521.516;30703.877;  -10.495;35422.895
522.103;29243.684;   -5.526;38280.004
522.689;29832.039;   -8.746;37835.117
523.275;31278.576;  -11.376;37288.613
523.861;33064.730;  -11.156;37281.395
524.447;36360.820;   -8.135;37846.949
525.033;37311.980;   -7.896;38321.949
525.619;37145.637;  -12.476;38579.285
526.205;37389.527;   -9.516;40622.875
526.791;36898.328;   -6.926;42258.836
527.377;37992.918;   -8.346;42966.902
527.963;39576.801;   -8.717;42018.949
528.549;38506.625;  -11.016;42476.828
529.135;38774.867;   -8.536;41854.852
529.721;38508.930;   -9.666;41237.711
530.306;36960.148;  -10.066;41259.445
530.892;36836.508;  -11.356;41506.047
531.478;36285.930;   -6.596;43559.613
532.063;36847.883;   -8.836;47695.563
532.649;40529.098;  -10.047;50808.324
533.235;41792.395;   -9.746;51787.500
533.820;41060.270;   -6.566;52145.035
534.406;39854.148;  -10.817;51133.488
534.991;42477.848;   -9.416;49996.805
535.576;43656.586;   -9.036;48882.852
536.162;43891.676;   -6.156;46942.285
536.747;45305.027;  -11.607;45711.746
537.333;45898.777;  -11.787;48510.180
537.918;46077.223;  -12.437;50439.891
538.503;47240.152;   -7.196;50863.711
539.088;44619.730;  -10.556;50906.922
539.673;43097.625;   -8.767;52621.965
540.259;44295.941;  -10.026;52368.094
540.844;46176.297;   -7.416;50879.109
541.429;45225.359;   -9.467;52077.777
542.014;44976.266;   -9.527;52716.695
542.599;47157.684;   -9.946;52363.281
543.184;49665.875;   -7.927;53187.137
543.769;48044.273;   -9.297;54697.605
544.354;44891.285;  -10.127;53913.914
544.938;43219.082;   -9.267;49680.164
545.523;45386.887;   -6.506;47386.277
546.108;49142.969;   -9.787;49151.949
546.693;48488.605;  -11.587;51384.637
547.278;48264.512;  -10.986;51853.254
547.862;45305.758;   -8.206;51173.750
548.447;42725.230;  -10.067;51691.395
549.031;43584.254;   -9.637;52456.703
549.616;44555.902;   -9.926;52714.516
550.201;43472.910;   -6.347;52414.598
550.785;43048.398;   -7.917;52355.059
551.370;44127.594;  -10.867;54589.453
551.954;44812.250;   -9.047;58267.348
552.538;45822.930;   -7.827;59062.176
553.123;45700.758;  -10.287;58115.285
553.707;41748.555;  -12.178;56556.285
554.291;42415.477;   -8.717;56201.668
554.876;45476.051;   -7.457;55335.762
555.460;46545.457;  -10.387;54155.703
556.044;47512.375;   -9.618;53721.484
556.628;46652.152;  -11.567;53731.016
557.212;44760.262;   -8.097;54312.531
557.796;46001.480;  -11.077;53797.773
558.380;43947.875;  -11.108;56145.984
558.964;42702.227;   -9.057;57277.930
559.548;42565.781;   -6.977;56459.641
560.132;41634.816;  -11.457;54434.543
560.716;40790.848;  -11.378;54800.617
561.300;41591.109;   -9.577;57606.945
561.884;43244.441;   -7.127;58972.445
562.467;44229.285;   -7.118;57327.570
563.051;43696.711;  -13.358;54962.434
563.635;41561.363;  -10.178;52594.473
564.219;41017.141;   -7.837;50610.410
564.802;40716.586;  -11.398;49551.180
565.386;41883.441;  -12.788;48370.953
565.969;42436.570;   -9.077;48178.871
566.553;42645.359;   -6.207;49957.305
567.136;40007.574;   -8.568;50369.594
567.720;39056.645;  -11.868;49492.004
568.303;38781.035;   -8.268;50616.352
568.887;37598.637;   -8.698;50727.148
569.470;37990.531;   -6.808;51698.379
570.053;36844.855;  -13.188;52122.078
570.637;35465.738;  -12.037;52536.438
571.220;34547.695;   -8.577;51186.098
571.803;34758.332;   -8.498;51032.762
572.386;36960.637;  -10.498;49609.887
572.969;37796.363;   -9.388;48285.926
573.552;33383.695;   -8.338;47624.285
574.135;30634.797;   -8.518;45498.641
574.718;28230.475;  -13.628;41970.434
575.301;29017.396;  -10.893;41447.137
575.884;29804.318;   -8.158;40923.836
576.467;35005.379;  -10.328;45267.723
577.050;33895.215;  -13.058;48175.543
577.633;33103.469;   -9.458;47729.328
578.216;34447.547;   -8.928;47579.793
578.799;35089.695;   -9.358;47820.996
579.381;34566.637;  -11.388;48115.551
579.964;31781.715;  -11.718;47333.766
580.547;31607.520;   -8.588;46668.969
581.129;33231.156;   -8.859;44466.141
581.712;33646.859;  -10.729;44164.922
582.294;34804.418;  -11.118;46477.855
582.877;32635.516;   -5.218;48244.254
583.459;32509.924;   -8.679;47437.895
584.042;34270.426;  -10.709;46943.219
584.624;36455.832;  -11.669;46792.227
585.206;35583.930;   -8.218;46557.250
585.789;34242.469;  -10.569;45793.773
586.371;34417.078;  -11.859;43836.391
586.953;33069.914;  -10.719;42972.492
587.536;34652.953;   -7.198;42487.211
588.118;35971.258;   -8.720;42086.414
588.700;35367.309;  -10.439;43389.930
589.282;35531.953;   -9.198;43646.039
589.864;34216.633;   -9.199;43438.109
590.446;31759.904;  -11.319;43151.926
591.028;31248.059;  -11.159;42781.867
591.610;30835.383;  -11.779;42839.098
592.192;27638.734;   -7.668;42820.402
592.774;27438.402;  -11.949;40724.277
593.356;26950.271;  -12.129;39874.789
593.937;24072.773;  -10.669;39980.648
594.519;25868.051;   -6.509;42069.633
595.101;29546.229;  -10.849;42976.031
595.683;30134.998;  -11.679;44084.441
596.264;30766.629;   -9.049;43478.797
596.846;32807.203;   -8.849;43803.672
597.427;32942.492;   -9.570;42986.934
598.009;34080.430;  -12.620;42832.219
598.591;33239.512;  -10.039;42580.086
599.172;32235.887;  -10.369;43061.805
599.753;30611.295;   -9.140;41691.469
600.335;30521.811;  -11.430;40692.520
600.916;31013.801;   -9.939;39982.422
601.498;29769.381;   -8.479;40318.617
602.079;28499.898;  -10.920;40670.609
602.660;30176.785;  -11.480;41450.898
603.241;31556.936;  -11.699;41137.738
603.823;32188.574;   -9.579;38868.797
604.404;32061.689;  -10.620;38182.785
604.985;30644.004;  -10.450;38078.047
605.566;30207.234;   -9.129;38056.633
606.147;30257.240;   -7.510;37020.418
606.728;31402.041;  -10.660;37883.359
607.309;32433.561;  -11.740;38748.273
607.890;32045.521;   -9.759;38850.230
608.471;30333.816;   -8.250;37457.918
609.051;30357.256;   -9.240;36066.457
609.632;28662.178;  -12.120;35991.074
610.213;27699.693;   -9.110;37402.641
610.794;29619.572;   -8.030;38383.363
611.374;31928.439;   -8.110;40562.387
611.955;31581.584;  -13.560;38533.727
612.536;28971.371;  -11.400;36951.789
613.116;27891.299;   -8.070;37197.891
613.697;30056.162;  -10.830;38411.125
614.277;31585.992;  -11.641;38673.938
614.858;31023.719;  -13.310;37075.863
615.438;29272.664;   -7.460;35092.906
616.019;27476.654;   -7.601;33666.301
616.599;28415.238;  -12.020;34189.023
617.179;30136.566;  -11.780;36952.047
617.760;32794.750;   -8.570;39582.574
618.340;32800.805;  -11.471;38943.977
618.920;31374.666;  -11.170;37594.156
619.500;33239.250;  -11.071;37866.938
620.080;33472.879;   -7.750;37869.043
620.660;31649.904;  -12.711;36868.617
621.241;30238.180;  -10.211;36352.309
621.821;29305.379;  -10.961;35459.520
622.401;28389.002;   -7.720;35207.414
622.980;29590.777;   -8.981;35980.422
623.560;30133.982;   -9.331;37351.328
624.140;28925.807;   -9.850;34388.582
624.720;26284.146;   -7.451;32368.764
625.300;24508.615;   -9.070;32638.629
625.880;27934.449;  -12.601;34599.035
626.459;29727.068;  -11.751;36831.738
627.039;30149.311;   -9.281;38299.098
627.619;31992.703;   -8.801;38289.574
628.198;31662.367;  -12.071;37220.695
628.778;30611.004;   -9.461;37632.563
629.357;31612.754;   -8.491;38003.012
629.937;31855.432;   -9.721;38402.039
630.516;32003.055;   -9.951;37868.801
631.096;32277.836;  -11.731;35760.410
631.675;33453.309;   -8.572;35225.219
632.254;32944.680;  -11.282;35130.289
632.834;32488.668;  -13.322;35794.570
633.413;32394.723;  -10.301;35788.922
633.992;31638.176;   -8.582;34532.863
634.571;33258.582;   -8.352;33590.113
635.151;33315.559;  -11.912;34943.863
635.730;32176.051;  -10.511;35352.523
636.309;34479.918;   -7.731;35366.605
636.888;32683.604;   -9.952;36165.637
637.467;30598.180;  -11.672;37515.902
638.046;30507.521;   -8.901;39288.695
638.625;31271.820;   -7.912;38279.699
639.204;31722.971;  -10.022;37741.598
639.782;29878.273;  -12.252;38364.551
640.361;28238.066;  -10.041;36740.621
640.940;27471.879;  -11.161;34950.082
641.519;28577.879;   -9.701;34137.398
642.097;30195.680;  -11.271;35654.258
642.676;31592.703;   -8.651;35637.957
643.255;32675.508;   -8.711;36567.074
643.833;30315.023;   -9.581;37809.434
644.412;28095.623;  -13.711;37337.293
644.990;29875.342;  -11.811;37018.531
645.569;32557.965;   -9.411;36518.469
646.147;32166.664;  -10.291;36186.430
646.726;31129.738;  -12.401;36267.688
647.304;31179.316;  -10.411;36647.625
647.882;30273.326;   -9.651;39286.742
648.461;31491.701;   -9.631;39157.703
649.039;34787.977;  -11.881;35412.883
649.617;35167.551;   -9.661;34744.918
650.195;32997.695;   -9.301;35403.098
650.773;31751.744;  -10.511;35053.797
651.352;31122.518;  -11.521;33756.816
651.930;28744.682;  -12.211;31868.773
652.508;25491.521;   -9.171;33121.551
653.086;26516.307;   -9.371;33564.793
653.663;32362.182;  -13.161;34054.668
654.241;36280.344;  -13.031;35693.309
654.819;37174.781;   -9.371;36422.906
655.397;37078.832;  -10.511;38213.484
655.975;33351.043;  -10.371;39507.625
656.553;30070.525;  -10.051;39498.223
657.130;28519.119;  -10.061;40395.480
657.708;26684.527;   -9.561;39242.020
658.286;24227.871;  -11.511;38920.020
658.863;26264.678;  -10.261;40202.898
659.441;30001.176;   -7.531;39677.938
660.018;31907.330;   -9.501;40413.355
660.596;31109.270;  -13.301;39931.414
661.173;30738.297;  -11.211;39604.531
661.750;32356.922;   -9.951;39700.070
662.328;31301.357;   -9.390;39292.809
662.905;30372.268;  -11.330;38235.648
663.482;28189.053;   -9.050;36212.305
664.060;25487.635;   -8.240;35944.945
664.637;26149.949;  -10.050;35170.785
665.214;29372.123;  -11.760;34197.523
665.791;29866.855;  -10.530;34549.520
666.368;28881.393;   -9.690;35118.578
666.945;30139.568;   -9.320;36019.418
667.522;30605.959;  -11.860;36048.438
668.099;31988.088;  -10.770;36243.914
668.676;32064.164;   -6.260;35958.875
669.253;34560.715;   -7.000;37384.730
669.830;35855.617;  -10.190;36779.629
670.407;32746.518;   -9.550;35231.289
670.984;33024.875;   -9.260;35544.270
671.560;30434.520;   -9.280;35466.867
672.137;26447.754;  -11.810;34280.863
672.714;28064.281;  -11.490;34632.863
673.290;31654.828;   -7.740;35135.422
673.867;31420.898;  -10.660;36114.480
674.443;31653.650;  -12.230;36152.859
675.020;31361.104;  -10.450;35327.238
675.596;29720.574;   -9.260;35795.176
676.173;28425.129;  -10.780;35430.355
676.749;28009.209;  -13.690;33549.516
677.326;28114.211;  -11.980;32210.012
677.902;27461.895;   -8.630;32068.871
678.478;29271.324;  -10.730;32583.891
679.054;30162.973;  -10.520;32088.928
679.631;29539.498;  -11.920;30978.848
680.207;29717.832;   -7.490;33160.887
680.783;31487.506;   -9.860;35570.363
681.359;32911.617;  -13.380;36125.184
681.935;33586.277;  -12.480;35240.922
682.511;32793.316;   -7.900;34429.961
683.087;31532.285;   -7.710;34463.680
683.663;31143.355;  -11.480;34648.898
684.239;30116.590;  -14.090;34546.457
684.815;28986.271;   -7.560;35586.375
685.390;29143.684;   -9.910;35821.895
685.966;30359.031;  -11.159;35085.871
686.542;31936.373;  -11.169;34198.230
687.118;33357.930;   -5.959;32847.707
687.693;32330.986;  -10.329;32794.027
688.269;33292.863;  -12.059;33072.367
688.844;33484.844;  -10.909;33141.664
689.420;30781.076;   -8.019;33965.742
689.995;29365.846;   -8.399;34655.523
690.571;30735.037;  -10.949;33576.742
691.146;30281.285;   -9.619;32657.219
691.722;28858.174;   -8.999;32526.979
692.297;28272.010;  -11.589;33014.617
692.872;28386.480;  -11.739;34012.254
693.448;31141.514;  -11.059;34237.434
694.023;31740.176;  -10.139;34142.672
694.598;29815.633;   -9.029;34132.031
695.173;30882.717;  -13.319;34205.250
695.748;31475.781;  -10.169;32882.488
696.323;29103.012;   -8.339;32864.906
696.898;27198.410;   -8.169;33170.004
697.473;27663.828;  -12.309;32432.984
698.048;27874.928;  -10.989;31649.303
698.623;26516.090;   -9.329;30778.141
699.198;27363.760;   -9.849;31140.119
699.773;28469.107;  -12.329;31764.299
700.348;29870.637;  -10.389;31780.816
700.922;30273.719;   -9.269;32046.375
701.497;31328.744;   -9.329;32603.574
702.072;32414.623;  -10.789;34799.871
702.646;31253.879;  -10.839;35793.172
703.221;30396.160;   -9.099;35201.590
703.795;32304.641;  -10.939;34764.527
704.370;29873.691;  -12.859;34307.367
704.944;28339.521;  -11.559;33509.887
705.519;29360.945;   -7.939;31388.584
706.093;31760.721;  -10.499;31340.104
706.668;34118.531;  -11.289;32630.281
707.242;33498.980;  -11.509;32728.779
707.816;31635.457;   -9.639;32947.238
708.390;30258.266;  -11.429;33277.855
708.965;29505.629;  -11.869;33834.336
709.539;30924.820;  -11.689;33709.273
710.113;31007.926;  -10.478;33044.313
710.687;30277.775;  -10.228;31953.992
711.261;29555.924;  -13.698;30505.949
711.835;30011.867;  -13.378;30262.369
712.409;29131.004;   -9.698;31254.447
712.983;28724.217;  -11.898;32754.986
713.557;31152.533;  -15.138;34018.824
714.131;29208.270;  -14.098;34579.625
714.704;28616.197;   -9.958;33890.262
715.278;30656.818;  -10.028;33531.102
715.852;29326.115;  -11.148;33601.660
716.425;28140.350;   -9.068;33515.117
716.999;26887.500;  -10.038;33185.555
717.573;26505.217;   -9.798;33905.996
718.146;25890.510;  -12.378;35199.293
718.720;26408.111;  -11.918;35060.551
719.293;26860.658;   -8.088;34973.230
719.867;29155.746;  -10.888;36394.449
720.440;30814.301;  -11.938;36663.008
721.013;31388.361;  -12.818;35102.426
721.587;29001.492;  -10.298;33985.266
722.160;27126.744;  -10.048;33524.965
722.733;26516.637;  -12.108;32987.043
723.306;26865.486;  -10.818;33066.301
723.880;28632.916;   -8.908;33399.500
724.453;28255.539;   -9.878;33468.297
725.026;28342.533;  -11.188;33816.637
725.599;31263.135;  -11.678;32797.996
726.172;30885.398;   -9.618;33187.434
726.745;28275.711;   -8.258;35136.613
727.318;27855.908;  -12.978;35751.730
727.891;27037.922;  -12.148;35890.430
728.463;25980.982;   -8.968;34822.090
729.036;25989.316;  -10.188;32895.086
729.609;26035.625;  -11.788;31823.225
730.182;24135.719;  -11.788;31445.283
730.754;22869.068;  -10.268;32373.223
731.327;22973.061;   -9.998;33676.820
731.900;24212.078;  -12.228;33417.000
732.472;24091.416;  -13.848;31978.498
733.045;23199.141;   -8.698;30368.777
733.617;22835.816;  -10.607;30574.215
734.190;24720.252;  -11.507;31280.975
734.762;25657.289;  -13.647;31674.412
735.334;27082.898;   -9.767;31247.291
735.907;27641.658;   -9.897;29876.211
736.479;27410.926;  -11.637;29808.488
737.051;28308.186;   -9.567;30233.547
737.623;27583.871;   -8.187;31469.086
738.195;26196.006;  -11.187;31784.225
738.768;24998.705;  -12.337;32120.523
739.340;23351.875;  -12.227;32094.342
739.912;22452.748;  -11.057;31312.680
740.484;22486.949;  -10.207;31946.238
741.056;22266.332;  -10.047;32984.059
741.628;23323.715;  -13.627;33897.715
742.199;24271.777;   -7.177;33213.016
742.771;26544.627;  -10.797;31369.113
743.343;27362.951;  -11.997;31865.473
743.915;27070.146;  -12.867;32388.631
744.487;24476.193;   -7.617;31079.568
745.058;21570.008;   -9.557;30570.107
745.630;22595.842;   -9.877;29970.127
746.201;24218.301;  -14.177;29186.766
746.773;24819.586;   -9.237;28805.723
747.344;22965.260;   -9.847;29591.223
747.916;21241.775;  -11.657;31412.201
748.487;22265.941;  -10.587;32194.898
749.059;24049.695;   -8.707;32533.719
749.630;24258.494;  -10.537;32158.518
750.201;23604.340;  -11.687;30855.395
750.773;22391.234;  -11.647;28622.555
751.344;22290.797;   -7.147;28405.732
751.915;24487.006;   -9.757;28461.551
752.486;25614.701;  -12.427;27842.850
753.057;24370.502;  -12.227;27845.008
753.628;24375.449;  -10.417;27728.107
754.199;23998.359;  -11.767;27381.086
754.770;23537.506;  -11.187;25882.203
755.341;22367.176;  -10.507;25886.184
755.912;20766.275;   -9.387;26050.861
756.483;19297.377;  -10.647;26798.779
757.054;19739.121;  -11.837;27048.238
757.625;19742.195;  -12.716;26294.838
758.195;19557.732;   -9.666;26142.076
758.766;19834.078;   -8.656;26392.234
759.337;19322.059;  -12.856;26334.594
759.907;19074.695;  -13.366;27579.652
760.478;18795.088;   -8.576;28352.770
761.048;19860.582;  -10.526;27325.088
761.619;20009.072;  -11.116;26460.428
762.189;18614.322;  -12.136;26029.826
762.760;18234.002;   -9.456;26430.145
763.330;18620.660;   -7.136;26670.902
763.900;18754.785;  -11.786;26603.021
764.471;18394.582;  -11.546;25542.740
765.041;17505.447;   -8.096;24358.459
765.611;16712.697;   -8.876;23991.297
766.181;16708.127;  -12.196;24470.236
766.751;16590.137;  -11.636;24845.975
767.321;17591.203;  -10.156;24533.633
767.891;17005.791;  -11.766;24916.492
768.461;17199.551;  -14.936;24776.771
769.031;18225.143;  -12.356;24757.988
769.601;18857.049;   -7.526;24181.088
770.171;18655.641;  -10.766;23670.387
770.741;17888.350;  -13.176;22960.045
771.311;17385.994;  -10.616;22917.523
771.880;17601.334;   -9.576;23562.941
772.450;17231.629;  -10.336;24216.500
773.020;16846.324;  -13.516;24140.398
773.589;17496.455;  -13.466;24414.857
774.159;17406.164;   -8.686;23858.717
774.729;16006.398;   -9.476;22942.135
775.298;14194.086;  -13.666;22324.033
775.867;13902.766;  -11.716;21140.313
776.437;14008.818;   -9.906;20838.092
777.006;13266.623;  -12.166;20599.510
777.576;12769.334;  -12.356;20508.809
778.145;12698.936;  -11.646;20732.947
778.714;13159.141;   -8.226;21062.465
779.283;14236.855;   -9.556;20949.664
779.853;14912.422;  -14.116;20508.623
780.422;14360.043;  -11.506;20649.082
780.991;13923.284;   -9.556;21527.520
781.560;13618.710;   -9.095;22632.658
782.129;13463.154;  -12.135;23048.277
782.698;13323.441;  -10.865;23438.555
783.267;13005.297;   -9.335;23267.734
783.836;13107.782;  -11.045;22415.133
784.404;13771.350;  -13.865;20443.152
784.973;12999.506;  -13.095;19699.150
785.542;11595.931;  -11.575;19763.828
786.111;10948.640;   -9.705;20341.408
786.679;11685.791;  -12.105;20207.967
787.248;12008.121;  -12.455;19516.465
787.817;11727.881;  -11.535;18900.363
788.385;11826.215;   -9.765;17879.121
788.954;11765.507;  -14.005;17658.301
789.522;11208.298;  -11.955;17788.879
790.090;11470.966;  -10.135;18118.277
790.659;12424.007;  -10.975;18338.736
791.227;12369.573;  -13.375;18508.615
791.795;11796.873;  -12.375;17898.254
792.364;11240.289;  -10.725;17295.133
792.932;11385.199;   -9.715;16822.051
793.500;11482.604;  -12.675;17040.148
794.068;11222.972;  -13.495;17179.787
794.636;10085.716;  -10.885;16664.246
795.204; 9090.714;  -11.045;16524.545
795.772; 9755.177;  -13.175;17274.564
796.340;10876.627;  -12.445;17891.002
796.908;10705.461;   -9.735;17648.561
797.476;11096.376;   -9.815;17064.080
798.044;11960.354;  -13.985;16672.777
798.612;11813.384;  -13.115;17023.996
799.180;10512.833;  -10.185;16561.615
799.747; 9471.934;   -9.055;15962.773
800.315; 8882.138;  -12.385;15296.992
800.883; 9172.549;  -15.035;14801.771
801.450; 9460.266;  -10.365;14534.430
802.018; 9539.664;   -9.855;14173.248
802.585; 9690.218;  -11.905;14029.547
803.153; 9225.077;  -11.585;13836.846
803.720; 8565.099;   -9.095;13567.324
804.287; 8604.988;   -9.135;13360.622
804.855; 8861.469;  -11.604;13681.981
805.422; 8902.002;  -11.794;13536.560
805.989; 8756.457;  -10.734;13355.958
806.556; 8362.383;  -10.444;13747.896
807.124; 8286.323;  -12.764;13987.376
807.691; 8909.739;  -12.964;14038.674
808.258; 9370.590;  -11.134;14120.152
808.825; 9599.735;   -9.854;13860.111
809.392; 9290.141;  -10.504;13268.790
809.959; 8822.672;  -13.054;12680.389
810.526; 8645.620;   -8.294;12427.308
811.093; 8328.769;   -8.394;12030.105
811.659; 7534.516;  -12.304;11653.664
812.226; 7290.937;  -13.944;11637.183
812.793; 7809.596;  -10.484;11611.521
813.360; 7938.098;  -10.144;11885.181
813.926; 7197.542;  -11.684;12770.539
814.493; 6591.410;  -13.644;12677.638
815.060; 6477.816;   -9.724;11974.336
815.626; 6822.842;   -9.854;11594.715
816.193; 6866.740;  -13.254;11579.474
816.759; 6872.948;  -13.204;11666.972
817.325; 6651.001;   -9.434;11325.530
817.892; 6321.001;  -10.134;11105.369
818.458; 6241.721;  -13.474;10843.928
819.024; 6247.238;  -11.854;10714.406
819.591; 6533.507;  -10.244;10469.165
820.157; 6627.276;  -10.704;10235.523
820.723; 6875.430;  -12.324;10847.563
821.289; 7305.595;   -9.444;11040.980
821.855; 7382.181;   -8.374;10357.100
822.421; 6991.803;  -10.234; 9978.918
822.987; 6728.874;  -13.294; 9754.177
823.553; 6580.942;  -10.884;10065.755
824.119; 6133.388;   -8.884;10036.294
824.685; 5950.109;   -6.784;10029.192
825.251; 5883.273;  -12.004;10199.230
825.816; 5974.498;  -11.474; 9820.189
826.382; 5733.523;   -9.174; 9297.248
826.948; 5453.272;   -9.214; 9381.347
827.513; 5225.722;  -10.774; 9450.726
828.079; 5173.851;  -11.924; 9472.444
828.645; 5292.407;  -10.543; 9292.643
829.210; 5516.145;  -10.533; 9065.341
829.776; 5536.015;  -10.753; 9132.620
830.341; 5414.150;  -10.173; 9092.878
830.906; 5490.629;  -10.743; 9078.557
831.472; 5366.651;  -11.113; 8534.535
832.037; 4875.207;  -10.603; 8677.874
832.602; 4805.864;  -13.323; 8628.692
833.167; 5163.638;  -10.823; 8879.031
833.733; 5141.468;  -10.113; 9189.790
834.298; 4879.336;  -13.583; 9052.608
834.863; 4742.901;  -12.703; 8895.087
835.428; 4623.670;  -10.523; 8824.266
835.993; 4574.898;   -6.963; 8845.385
836.558; 4669.008;  -10.763; 8888.563
837.123; 4779.455;   -9.903; 8966.582
837.688; 4614.084;   -9.913; 8617.860
838.253; 4460.033;  -10.283; 8590.699
838.817; 4587.598;  -12.963; 8443.797
839.382; 4766.660;  -14.243; 8799.356
839.947; 4669.803;  -10.733; 8810.595
840.511; 4749.209;   -9.383; 8796.394
841.076; 4766.016;  -12.563; 8347.231
841.641; 4561.454;  -12.953; 8224.330
842.205; 4279.702;   -7.043; 8223.349
842.770; 4239.467;   -8.163; 8622.107
843.334; 4283.931;  -12.503; 8410.386
843.898; 4244.973;  -11.693; 8337.465
844.463; 4132.343;  -10.203; 8506.283
845.027; 4045.611;   -9.533; 8280.962
845.591; 4095.162;  -13.443; 8231.141
846.156; 4016.351;  -13.143; 7969.179
846.720; 3828.396;   -9.433; 7768.278
847.284; 3542.362;  -11.033; 7630.957
847.848; 3385.104;  -10.403; 7472.395
848.412; 3402.784;  -11.553; 7437.394
848.976; 3592.072;   -8.393; 7674.592
849.540; 3626.524;   -8.713; 7836.011
850.104; 3602.612;  -12.463; 7913.669
850.668; 3737.797;  -12.973; 7694.508
851.232; 3775.436;  -10.793; 7756.887
851.796; 3684.038;  -10.662; 7926.545
852.359; 3704.419;  -13.082; 7827.844
852.923; 3444.260;  -12.192; 7641.163
853.487; 3353.417;  -11.912; 7342.501
854.050; 3514.510;  -10.892; 7042.820
854.614; 3508.570;  -13.992; 7151.338
855.177; 3398.515;  -11.732; 7105.077
855.741; 3328.893;   -8.962; 6989.675
856.304; 3224.599;   -9.442; 6596.634
856.868; 2974.604;  -14.192; 6356.272
857.431; 2755.348;  -12.702; 6468.571
857.995; 2789.162;   -9.942; 6373.210
858.558; 2818.139;   -9.112; 6324.448
859.121; 2632.886;  -12.932; 6408.327
859.684; 2590.852;  -13.442; 6347.886
860.247; 3021.108;  -10.632; 6321.264
860.810; 3361.370;  -11.272; 6301.903
861.374; 3384.694;   -9.832; 6607.881
861.937; 3362.845;  -11.762; 6408.200
862.500; 3207.762;   -9.722; 6572.639
863.062; 2882.369;  -10.512; 6387.297
863.625; 2762.724;  -11.232; 6190.836
864.188; 2763.973;  -14.112; 5807.254
864.751; 2764.502;  -11.302; 5682.413
865.314; 2881.223;  -10.112; 5547.492
865.876; 2912.860;  -12.182; 5500.150
866.439; 2828.551;  -10.722; 5415.909
867.002; 2669.618;   -9.252; 5501.567
867.564; 2560.073;   -9.572; 5413.946
868.127; 2425.531;  -13.142; 5160.325
868.689; 2130.207;  -12.902; 5133.183
869.252; 1987.138;   -9.732; 5252.382
869.814; 2001.260;   -9.432; 5297.141
870.377; 2104.261;  -11.552; 5390.919
870.939; 2088.585;   -9.052; 5599.898
871.501; 2019.323;  -10.982; 5248.336
872.063; 2053.175;  -12.292; 4854.235
872.626; 2064.730;  -14.912; 4817.074
873.188; 2068.565;  -13.112; 4987.732
873.750; 2016.562;  -13.442; 4868.651
874.312; 2076.455;   -9.402; 4779.330
874.874; 2219.619;  -11.062; 4866.348
875.436; 2102.120;  -13.931; 4718.887
875.998; 1807.839;   -9.561; 4660.005
876.560; 1643.729;  -11.321; 4462.964
877.122; 1632.212;  -12.221; 4145.042
877.683; 1619.415;  -12.191; 4056.481
878.245; 1713.181;  -12.101; 3950.740
878.807; 1865.192;   -8.971; 4058.958
879.369; 1905.198;  -12.071; 3954.677
879.930; 1827.635;  -14.621; 3941.495
880.492; 1650.704;  -10.311; 4067.014
881.053; 1489.773;  -10.901; 3859.633
881.615; 1470.753;  -14.411; 3776.071
882.176; 1499.994;  -13.761; 3734.750
882.738; 1516.711;   -9.181; 3678.489
883.299; 1481.413;  -11.791; 3405.407
883.860; 1406.642;  -13.121; 3351.106
884.422; 1294.513;  -11.211; 3394.044
884.983; 1210.753;  -10.091; 3166.443
885.544; 1184.722;   -8.461; 3189.802
886.105; 1126.986;  -12.361; 3160.360
886.666; 1050.166;  -14.141; 3093.059
887.227; 1016.248;  -11.361; 2941.957
887.788; 1032.460;  -11.401; 2974.836
888.349;  986.051;  -13.791; 2721.214
888.910;  889.594;  -13.191; 2696.493
889.471;  785.239;   -9.881; 2560.172
890.032;  709.887;   -9.881; 2558.190
890.593;  708.615;  -10.371; 2567.669
891.153;  712.070;  -13.301; 2460.307
891.714;  648.972;  -11.431; 2372.046
892.275;  598.860;  -11.291; 2309.505
892.835;  582.180;  -11.471; 2382.543
893.396;  569.996;  -11.541; 2295.502
893.956;  565.149;  -11.181; 2162.420
894.517;  554.074;  -11.741; 2125.439
895.077;  508.336;  -11.671; 2086.978
895.638;  458.041;  -11.311; 2126.316
896.198;  437.228;   -9.831; 1838.275
896.758;  437.770;   -8.421; 1892.813
897.319;  429.469;  -12.351; 1792.232
897.879;  410.325;  -13.511; 1762.751
898.439;  384.063;  -12.001; 1661.149
898.999;  365.042;  -10.180; 1781.468
899.559;  350.125;  -12.030; 1703.347
900.119;  340.916;  -15.710; 1537.525
900.679;  319.065;   -8.900; 1638.384
901.239;  292.191;   -8.340; 1527.902
901.799;  276.597;  -13.910; 1456.441
902.359;  267.663;  -13.460; 1357.140
902.919;  261.964;  -11.490; 1331.118
903.479;  259.078;  -12.110; 1317.257
904.038;  251.259;  -11.720; 1262.595
904.598;  234.660;  -13.610; 1152.034
905.158;  223.398;  -11.040; 1240.893
905.717;  218.358;  -10.900; 1233.691
906.277;  213.945;  -15.080; 1217.330
906.836;  209.589;  -13.380; 1222.408
907.396;  207.326;  -10.780; 1193.047
907.955;  201.233;   -8.500; 1182.526
908.515;  193.437;  -12.760; 1099.364
909.074;  188.747;  -11.900; 1092.863
909.633;  185.782;   -8.950; 1069.121
910.192;  183.960;   -8.770; 1196.460
910.752;  179.092;  -12.390; 1029.960
911.311;  175.110;  -13.680; 1009.780
911.870;  170.100;  -12.370;  971.460
912.429;  166.578;  -10.900; 1094.080
912.988;  163.872;  -11.690; 1081.060
913.547;  159.695;  -13.240;  940.380
914.106;  159.336;  -11.990;  999.420
914.665;  159.293;   -9.990;  984.020
915.224;  157.924;  -12.880; 1035.760
915.782;  156.520;  -12.350;  922.560
916.341;  156.370;   -9.110; 1049.840
916.900;  154.813;   -9.270;  925.260
917.458;  151.975;  -13.240;  884.220
918.017;  149.710;  -13.550;  942.600
918.576;  150.188;  -12.320;  904.440
919.134;  149.385;  -11.490;  837.980
919.693;  146.985;  -13.670;  893.060
920.251;  146.027;  -15.470;  876.500
920.809;  145.321;  -11.290;  839.580
921.368;  145.274;  -10.210;  885.360
921.926;  144.641;  -12.140;  842.940
922.484;  144.088;  -13.080;  903.360
923.042;  143.571;  -11.720;  880.340
923.601;  145.450;   -7.480;  998.680
924.159;  143.531;  -11.570;  935.560
924.717;  142.985;  -13.840;  841.080
925.275;  144.245;  -10.640;  903.240
925.833;  142.932;  -11.540;  779.320
926.391;  143.567;  -12.960;  938.380
926.949;  143.578;  -14.130;  857.680
927.506;  143.764;  -11.750;  903.500
928.064;  143.131;  -10.250;  877.580
928.622;  141.342;  -13.030;  880.100
929.180;  143.196;  -13.400;  814.180
929.737;  144.456;  -10.700;  808.540
930.295;  146.289;  -10.070;  928.480
930.853;  146.520;  -11.960;  849.100
931.410;  144.737;  -13.120;  821.120
931.968;  145.866;  -10.770;  940.660
932.525;  147.930;  -10.680;  909.380
933.082;  150.875;  -13.130;  811.440
933.640;  155.532;  -13.210;  925.900
934.197;  156.579;  -11.060;  886.360
934.754;  157.148;   -9.580;  897.780
935.312;  157.688;  -14.000;  863.340
935.869;  160.988;  -10.710; 1012.980
936.426;  159.340;   -9.860;  872.800
936.983;  158.499;   -9.710;  889.020
937.540;  157.014;  -13.990;  838.280
938.097;  156.498;  -14.040;  940.120
938.654;  159.057;  -10.310;  898.860
939.211;  160.072;  -10.560;  952.480
939.768;  158.819;  -13.900;  915.420
940.324;  160.711;  -14.760;  904.200
940.881;  165.069;  -10.370;  878.500
941.438;  171.661;   -8.260; 1021.200
941.995;  172.808;  -12.540;  992.560
942.551;  170.920;  -14.670;  875.620
943.108;  171.045;  -10.450;  937.920
943.664;  172.286;  -10.750;  869.340
944.221;  177.826;  -11.550; 1088.140
944.777;  179.377;  -14.770;  869.680
945.334;  179.227;  -12.820;  884.840
945.890;  177.051;  -10.130;  946.480
946.446;  174.910;  -13.470;  947.020
947.003;  175.790;  -12.120;  964.940
947.559;  175.075;   -9.980; 1063.040
948.115;  171.526;   -9.080; 1026.540
948.671;  169.181;  -10.830;  967.300
949.227;  166.114;  -12.440;  859.560
949.783;  166.677;  -12.910;  858.900
950.339;  168.895;  -10.270;  991.000
950.895;  170.287;  -13.630; 1023.840
951.451;  168.253;  -15.100;  925.280
952.007;  169.182;  -11.330;  998.540
952.563;  167.485;  -10.580;  937.780
953.118;  163.026;  -13.440;  904.940
953.674;  160.169;  -12.710;  935.780
954.230;  162.574;  -10.350;  949.640
954.785;  167.214;   -9.190;  936.640
955.341;  168.487;  -11.200;  998.160
955.897;  164.615;  -16.560;  834.660
956.452;  162.003;  -12.570;  953.840
957.008;  159.935;   -7.970; 1083.640
957.563;  158.316;  -11.940; 1009.540
958.118;  156.412;  -13.450;  877.700
958.674;  156.092;  -12.030;  946.780
959.229;  156.618;   -9.410; 1013.980
959.784;  154.537;  -12.000;  832.400
960.339;  153.221;  -14.780; 1001.280
960.894;  147.678;   -9.860;  963.760
961.449;  143.794;   -9.970;  859.960
962.004;  142.470;  -10.900; 1212.840
962.559;  137.375;  -13.150;  860.140
963.114;  133.996;  -13.740;  742.480
963.669;  130.389;   -9.820;  915.500
964.224;  122.398;  -13.890;  874.340
964.779;  114.209;  -12.600;  828.420
965.334;  107.330;  -10.950; 1017.860
965.888;   99.472;  -11.170;  875.360
966.443;   98.342;  -12.540;  972.380
966.998;   98.531;  -15.780;  819.460
967.552;  102.575;   -9.760;  908.380
968.107;  103.562;   -9.060;  868.300
968.661;  104.996;  -11.950;  922.440
969.216;  106.257;  -12.800;  856.280
969.770;  107.090;  -11.210;  917.200
970.324;  107.202;  -11.610;  923.140
970.879;  105.672;  -11.370;  947.180
971.433;  105.203;  -12.540;  952.720
971.987;  104.580;  -11.320;  895.340
972.541;  104.348;  -10.720;  917.100
973.095;  105.353;   -9.680; 1009.460
973.649;  103.540;  -11.440;  809.480
974.203;  104.928;  -11.210;  829.040
974.757;  105.640;  -10.240;  855.220
975.311;  105.307;  -13.720;  872.600
975.865;  105.846;  -13.770;  881.820
976.419;  105.552;  -11.690;  857.400
976.973;  105.508;   -9.510;  849.620
977.526;  106.528;  -12.620;  949.920
978.080;  102.251;  -12.010;  796.780
978.634;  101.800;  -10.170;  921.320
979.187;   98.680;   -9.020;  905.400
979.741;   98.616;   -9.820; 1018.380
980.294;   93.495;  -14.870;  789.160
980.848;   90.018;  -12.380;  717.220
981.401;   89.635;  -10.350;  816.540
981.955;   89.185;  -13.720;  844.300
982.508;   86.613;  -11.490;  746.340
983.061;   86.738;  -10.000;  915.260
983.615;   86.178;  -11.480;  798.800
984.168;   85.841;  -13.220;  770.080
984.721;   85.551;  -13.960;  880.760
985.274;   83.215;  -10.870;  867.500
985.827;   82.349;   -9.790;  834.220
986.380;   81.793;  -13.120;  721.340
986.933;   81.568;  -12.450;  864.800
987.486;   81.204;  -10.210;  861.920
988.039;   80.225;   -8.430;  863.100
988.591;   78.181;  -10.520;  893.260
989.144;   74.318;  -14.860;  737.260
989.697;   72.151;  -13.080;  758.740
990.250;   70.982;  -10.150;  858.100
990.802;   68.911;  -13.430;  755.860
991.355;   69.081;  -12.750;  974.880
991.907;   66.692;  -12.040;  864.320
992.460;   64.304;  -11.330;  753.760
993.012;   63.553;  -13.610;  749.540
993.565;   61.488;  -13.460;  711.360
994.117;   63.359;   -9.360;  950.780
994.669;   61.420;  -11.300;  701.320
995.221;   61.286;  -13.540;  791.920
995.774;   59.736;  -13.430;  787.580
996.326;   58.731;  -12.520;  740.220
996.878;   59.612;  -10.950;  838.420
997.430;   56.792;  -14.300;  699.860
997.982;   55.891;  -13.760;  750.140
998.534;   55.697;  -11.530;  739.060
999.086;   54.400;  -10.310;  738.220
999.638;   52.418;  -12.530;  661.380
1000.190;   51.625;  -11.840;  699.320
1000.741;   51.488;  -10.260;  742.700
1001.293;   51.637;   -8.860;  686.020
1001.845;   50.505;  -13.700;  676.640
1002.396;   50.732;  -12.100;  743.400
1002.948;   49.864;  -12.760;  737.400
1003.500;   48.311;  -10.380;  723.780
1004.051;   49.533;  -11.900;  907.580
1004.603;   47.778;  -12.250;  791.820
1005.154;   45.477;  -13.210;  608.980
1005.705;   44.653;  -10.950;  723.960
1006.257;   43.768;  -13.880;  707.220
1006.808;   42.758;  -12.840;  685.460
1007.359;   41.965;  -10.570;  763.240
1007.910;   41.144;   -9.620;  646.640
1008.461;   41.160;  -13.630;  732.940
1009.013;   39.143;  -17.200;  588.340
1009.564;   40.835;  -10.200;  793.520
1010.115;   38.103;  -12.570;  597.040
1010.665;   37.664;  -15.150;  602.160
1011.216;   38.277;  -14.480;  667.920
1011.767;   37.710;  -11.340;  697.920
1012.318;   38.709;   -9.780;  736.980
1012.869;   36.443;  -12.380;  679.000
1013.419;   36.588;  -15.560;  603.120
1013.970;   36.459;  -11.010;  666.640
1014.521;   35.385;  -11.610;  620.620
1015.071;   36.464;  -13.450;  670.380
1015.622;   35.159;  -13.870;  635.460
1016.172;   35.460;  -11.610;  596.820
1016.723;   34.649;  -12.120;  614.380
1017.273;   34.535;  -13.620;  604.160
1017.823;   33.811;  -14.140;  650.340
1018.374;   34.111;  -12.800;  611.760
1018.924;   33.908;  -12.340;  716.880
1019.474;   34.069;  -11.410;  718.880
1020.024;   32.367;  -14.770;  657.580
1020.574;   33.997;   -9.780;  726.160
1021.124;   33.953;   -8.560;  673.580
1021.674;   31.786;  -15.190;  559.120
1022.224;   33.378;  -13.530;  708.940
1022.774;   32.478;  -13.280;  668.820
1023.324;   33.191;  -10.690;  753.520
1023.874;   34.938;  -10.240;  875.760
1024.423;   31.608;  -12.540;  613.700
1024.973;   31.861;  -10.010;  610.760
1025.523;   30.407;  -10.550;  620.960
1026.072;   30.713;  -13.560;  606.420
1026.622;   30.029;  -15.120;  675.740
1027.172;   31.793;  -11.260;  715.660
1027.721;   30.073;  -11.410;  601.220
1028.270;   30.948;  -13.530;  663.400
1028.820;   30.716;  -13.680;  638.080
1029.369;   30.485;  -13.520;  612.700
1029.918;   30.556;  -10.980;  649.840
1030.468;   29.647;  -13.530;  564.780
1031.017;   29.558;  -13.170;  634.800
1031.566;   29.217;  -12.200;  608.900
1032.115;   29.677;   -9.960;  694.500
1032.664;   27.368;  -13.210;  596.480
1033.213;   28.757;  -12.500;  735.420
1033.762;   28.208;  -11.910;  635.620
1034.311;   27.684;   -9.640;  677.220
1034.860;   28.382;  -13.310;  691.000
1035.408;   28.038;  -11.830;  722.720
1035.957;   29.281;  -12.000;  719.540
1036.506;   26.483;  -11.690;  530.800
1037.055;   29.149;  -10.990;  844.320
1037.603;   26.664;  -15.120;  664.000
1038.152;   25.368;  -12.450;  534.760
1038.700;   26.423;  -10.560;  585.740
1039.249;   25.985;  -11.080;  681.220
1039.797;   26.021;  -12.540;  633.360
1040.345;   26.890;  -11.920;  705.420
1040.894;   27.100;  -11.410;  625.300
1041.442;   25.621;  -14.320;  632.200
1041.990;   24.045;  -16.240;  559.160
1042.538;   24.570;  -11.680;  536.180
1043.087;   24.924;  -10.760;  570.860
1043.635;   26.210;  -11.850;  670.500
1044.183;   25.077;  -15.480;  586.400
1044.731;   23.857;  -11.770;  576.000
1045.279;   24.489;  -13.090;  674.920
1045.827;   26.372;  -12.440;  892.400
1046.374;   23.231;  -13.840;  515.420
1046.922;   22.624;  -13.220;  590.580
1047.470;   24.367;  -10.230;  691.300
1048.018;   24.212;  -14.590;  647.960
1048.565;   23.796;  -12.050;  708.600
1049.113;   22.330;  -11.650;  557.000
1049.660;   22.810;  -10.510;  629.660
1050.208;   23.326;  -13.310;  675.640
1050.755;   21.993;  -15.900;  606.580
1051.303;   23.776;  -11.430;  686.820
1051.850;   22.976;   -8.480;  635.120
1052.397;   20.592;  -15.010;  473.960
1052.945;   20.886;  -13.960;  617.760
1053.492;   22.627;  -13.150;  741.840
1054.039;   23.478;   -9.630;  720.180
1054.586;   21.587;  -13.680;  557.240
1055.133;   21.882;  -14.570;  693.140
1055.680;   22.150;  -13.820;  646.620
1056.227;   20.972;  -11.730;  542.780
1056.774;   22.946;  -12.480;  794.980
1057.321;   20.970;  -13.930;  523.260
1057.868;   20.358;  -11.690;  651.320
1058.415;   20.701;   -9.520;  651.980
1058.961;   20.790;  -13.160;  678.940
1059.508;   20.402;  -12.920;  643.820
1060.055;   20.386;  -11.920;  581.780
1060.601;   21.179;  -11.500;  624.300
1061.148;   20.320;  -14.330;  616.820
1061.694;   19.893;  -16.870;  592.580
1062.241;   20.451;  -10.330;  596.320
1062.787;   20.432;  -10.620;  663.140
1063.334;   21.293;  -10.110;  808.560
1063.880;   18.943;  -13.400;  668.360
1064.426;   19.874;  -10.680;  706.820
1064.972;   18.833;   -9.920;  601.340
1065.518;   18.362;  -10.980;  566.640
1066.065;   19.231;  -14.890;  624.460
1066.611;   17.554;  -12.870;  598.800
1067.157;   19.174;  -12.950;  641.860
1067.703;   18.929;  -13.540;  668.480
1068.249;   17.820;  -13.540;  605.220
1068.794;   18.875;  -12.600;  626.880
1069.340;   17.693;  -10.620;  578.960
1069.886;   18.663;  -12.830;  590.700
1070.432;   16.358;  -14.870;  541.720
1070.977;   17.485;  -11.980;  601.080
1071.523;   17.285;   -8.200;  573.060
1072.068;   17.272;  -12.330;  582.000
1072.614;   16.486;  -16.370;  527.760
1073.160;   18.097;  -11.100;  687.040
1073.705;   16.854;  -10.480;  572.520
1074.250;   17.111;  -14.520;  559.900
1074.796;   17.577;  -11.460;  655.160
1075.341;   17.687;  -11.950;  664.100
1075.886;   16.791;  -11.460;  594.240
1076.431;   16.419;  -13.770;  649.880
1076.976;   16.133;  -12.680;  639.220
1077.521;   15.460;  -13.170;  583.080
1078.067;   15.736;  -10.860;  579.400
1078.612;   16.218;  -13.920;  661.620
1079.156;   15.553;  -13.880;  601.540
1079.701;   16.187;  -13.120;  693.260
1080.246;   16.443;   -9.940;  696.300
1080.791;   16.186;  -14.740;  625.020
1081.336;   15.903;  -13.750;  659.320
1081.880;   15.126;  -13.400;  649.680
1082.425;   14.940;  -12.220;  573.480
1082.970;   16.343;  -11.610;  717.040
1083.514;   14.259;  -13.580;  597.000
1084.059;   14.141;  -12.810;  586.720
1084.603;   14.126;  -12.320;  565.840
1085.147;   14.501;  -13.190;  645.220
1085.692;   14.787;  -12.480;  716.800
1086.236;   13.284;  -13.020;  503.140
1086.780;   15.877;   -9.190;  751.440
1087.325;   14.796;  -12.480;  654.620
1087.869;   14.247;  -12.450;  610.700
1088.413;   14.737;  -12.240;  705.040
1088.957;   13.233;   -9.020;  543.400
1089.501;   14.910;  -10.320;  766.640
1090.045;   14.098;  -12.720;  726.480
1090.589;   12.106;  -13.690;  569.920
1091.133;   13.258;  -10.020;  673.340
1091.676;   13.484;  -12.330;  591.940
1092.220;   12.070;  -14.970;  600.920
1092.764;   13.554;  -12.430;  706.960
1093.307;   13.101;   -9.800;  673.780
1093.851;   11.978;  -14.970;  556.540
1094.395;   12.981;  -15.310;  683.140
1094.938;   12.127;  -10.370;  632.520
1095.482;   12.002;  -11.050;  559.800
1096.025;   13.070;  -11.840;  710.880
1096.568;   13.082;  -12.840;  779.280
1097.112;   10.183;  -14.700;  508.180
1097.655;   12.255;   -8.720;  603.000
1098.198;   11.143;  -13.610;  600.180
1098.741;   11.085;  -13.350;  612.860
1099.285;   11.456;  -11.230;  657.300
1099.828;    9.472;  -11.840;  439.400
1100.371;   11.381;  -10.840;  608.160
1100.914;   10.920;  -14.190;  682.660
1101.457;   11.044;  -11.240;  679.900
1101.999;   10.082;  -11.270;  584.680
1102.542;   11.640;  -11.480;  641.440
1103.085;   10.103;  -11.750;  658.500
1103.628;   10.769;  -11.400;  762.060
1104.170;    9.909;  -10.490;  588.280
1104.713;   10.599;  -10.600;  646.700
1105.256;    9.838;  -14.360;  557.440
1105.798;    8.835;  -13.210;  499.980
1106.341;   11.842;  -10.270;  728.900
1106.883;    9.883;  -12.200;  521.340
1107.425;    9.337;  -13.110;  668.180
1107.968;    9.502;  -12.840;  612.380
1108.510;   10.156;   -6.480;  684.960
1109.052;    8.842;  -13.940;  612.620
1109.594;    9.178;  -13.690;  554.440
1110.136;    9.488;  -11.880;  643.220
1110.679;    8.391;   -9.500;  633.080
1111.221;    9.536;  -14.160;  604.460
1111.763;    8.222;  -13.980;  559.220
1112.304;    8.361;  -13.880;  547.140
1112.846;    9.229;  -12.210;  666.240
1113.388;   11.513;  -11.390;  942.180
1113.930;    9.104;  -14.540;  694.200
1114.472;    8.335;  -12.640;  606.540
1115.013;    6.950;  -11.620;  551.280
1115.555;    7.698;  -13.640;  587.100
1116.097;    6.644;  -15.380;  579.480
1116.638;    8.701;  -12.640;  684.600
1117.180;    8.244;   -9.850;  667.740
1117.721;    7.325;  -13.690;  568.580
1118.262;    7.978;  -12.680;  677.960
1118.804;    8.454;  -12.530;  637.340
1119.345;    7.257;  -11.690;  578.400
1119.886;    8.047;  -13.380;  704.040
1120.427;    7.024;  -14.070;  589.020
1120.969;    6.672;  -13.500;  597.920
1121.510;    6.543;  -11.480;  563.060
1122.051;    7.361;  -12.830;  723.580
1122.592;    5.610;  -14.290;  655.420
1123.133;    4.929;  -12.400;  547.940
1123.673;    8.089;  -10.130;  706.480
1124.214;    6.421;  -12.930;  612.460
1124.755;    7.348;  -14.380;  639.460
1125.296;    6.140;  -14.000;  627.320
1125.836;    7.412;  -10.070;  691.500
1126.377;    6.123;  -12.640;  599.660
1126.918;    6.636;  -12.960;  614.980
1127.458;    5.425;  -13.350;  622.220
1127.999;    6.820;  -10.750;  656.980
1128.539;    6.648;  -12.350;  694.240
1129.079;    5.255;  -14.860;  632.720
1129.620;    4.788;  -13.840;  558.100
1130.160;    4.842;  -12.330;  539.480
1130.700;    6.399;  -14.530;  640.840
1131.240;    5.583;  -12.530;  643.700
1131.781;    5.660;  -14.450;  619.680
1132.321;    5.163;   -9.790;  599.120
1132.861;    4.294;  -14.860;  564.200
1133.401;    3.429;  -14.290;  593.940
1133.941;    4.432;  -11.750;  626.280
1134.481;    4.515;   -9.920;  597.580
1135.020;    4.279;  -12.290;  609.160
1135.560;    4.391;  -11.650;  674.940
1136.100;    3.096;  -16.270;  501.160
1136.640;    3.794;  -10.890;  510.480
1137.179;    3.976;  -14.180;  537.960
1137.719;    4.022;  -16.250;  605.400
1138.258;    4.062;  -14.230;  587.360
1138.798;    5.343;   -9.090;  663.780
1139.337;    3.478;  -15.130;  482.840
1139.877;    4.808;  -13.680;  642.360
1140.416;    6.019;  -11.320;  878.060
1140.955;    2.957;  -10.860;  535.380
1141.494;    3.801;  -12.920;  669.280
1142.034;    3.307;  -13.930;  583.520
1142.573;    4.123;  -11.440;  646.280
1143.112;    2.618;  -12.000;  553.480
1143.651;    2.825;  -13.670;  536.480
1144.190;    4.057;  -12.730;  691.640
1144.729;    2.772;  -14.560;  607.420
1145.267;    3.580;  -11.830;  584.900
1145.806;    3.648;  -12.230;  637.040
1146.345;    2.706;  -14.130;  635.020
1146.884;    2.457;  -11.590;  622.500
1147.422;    2.228;  -12.550;  533.060
1147.961;    4.488;  -11.180;  708.460
1148.500;    3.652;  -11.510;  669.720
1149.038;    3.510;  -11.640;  632.500
1149.577;    3.493;  -10.130;  698.640
1150.115;    1.641;  -13.970;  452.280
1150.653;    2.232;  -14.520;  607.340
1151.192;    2.313;  -12.810;  552.920
1151.730;    2.747;   -9.100;  652.560
1152.268;    2.501;  -12.220;  589.520
1152.806;    1.954;  -14.140;  571.180
1153.344;   -0.010;  -12.350;  577.640
1153.882;    2.319;   -8.980;  600.060
1154.421;    0.429;  -15.190;  470.620
1154.958;    0.484;  -15.210;  595.240
1155.496;    1.809;  -12.850;  645.280
1156.034;    1.801;   -9.940;  721.880
1156.572;    2.611;  -13.570;  667.060
1157.110;    0.870;  -14.590;  473.940
1157.647;    1.770;  -13.030;  676.960
1158.185;    1.427;  -12.140;  564.320
1158.723;    0.018;  -14.390;  509.200
1159.260;    0.983;  -14.090;  701.700
1159.798;    1.463;  -11.920;  658.160
1160.335;    0.622;  -11.110;  631.820

