
Integration time [ms]:   3.276
Averaging Nr. [scans]: 1000
Smoothing Nr. [pixels]: 0
Data measured with spectrometer [name]: 7414430SP
Wave   ;Sample   ;Dark     ;Reference
[nm]   ;[counts] ;[counts] ;[counts] 

288.544;  158.867;    7.793;  793.890
289.143;  161.800;    7.462;  681.602
289.742;  163.464;    8.602;  828.814
290.341;  149.382;    1.321;  789.841
290.940;  139.644;   -0.709;  730.702
291.538;  141.494;    0.881;  881.108
292.137;  141.692;    0.122;  792.581
292.736;  144.771;   -1.929;  975.101
293.335;  139.294;   -8.229;  735.086
293.934;  141.696;   -5.279;  781.677
294.532;  142.222;   -1.369; 1031.958
295.131;  126.991;   -7.641;  834.394
295.730;  126.889;   -8.420;  809.588
296.328;  124.293;   -5.611;  783.442
296.927;  125.059;   -5.781;  779.652
297.525;  125.661;   -6.361;  781.236
298.124;  116.651;  -11.382;  654.009
298.722;  120.807;   -7.641;  761.933
299.321;  118.829;   -6.811;  708.597
299.919;  115.158;   -6.991;  751.918
300.518;  112.014;  -10.362;  689.338
301.116;  113.492;   -9.581;  691.381
301.715;  114.947;   -4.891;  730.222
302.313;  113.046;   -8.801;  704.943
302.911;  106.779;   -8.522;  733.830
303.509;  112.335;   -6.171;  925.627
304.108;  111.713;   -7.311;  760.383
304.706;  110.963;   -8.321;  801.664
305.304;  104.301;  -10.222;  796.707
305.902;  109.446;   -6.021;  784.484
306.500;  105.324;   -4.971;  728.200
307.098;  104.149;   -7.061;  746.560
307.696;  102.311;   -8.801;  780.432
308.294;  102.715;   -6.411;  731.359
308.892;  105.133;   -2.901;  759.769
309.490;  100.594;   -5.041;  712.161
310.088;   98.226;   -5.002;  788.444
310.686;  102.786;   -2.041;  821.749
311.284;   98.920;   -2.351;  766.040
311.882;   96.099;   -4.422;  731.225
312.480;   92.592;   -4.192;  697.167
313.078;   94.607;   -1.172;  808.331
313.675;   95.310;   -2.601;  691.600
314.273;   88.800;   -1.312;  797.837
314.871;   88.885;   -3.942;  589.829
315.468;   86.862;   -2.802;  652.090
316.066;   90.881;   -0.701;  694.427
316.664;   83.335;   -4.362;  656.351
317.261;   87.068;   -2.872;  910.128
317.859;   82.569;   -2.022;  768.735
318.456;   83.337;   -0.531;  830.096
319.054;   78.610;   -3.912;  787.828
319.651;   77.253;   -4.752;  759.928
320.249;   76.671;   -2.602;  810.188
320.846;   74.167;   -0.821;  714.286
321.443;   71.718;   -4.642;  832.135
322.041;   68.674;   -5.002;  812.315
322.638;   66.223;   -3.982;  701.456
323.235;   68.160;   -3.411;  665.683
323.833;   65.163;   -7.361;  740.354
324.430;   59.825;   -8.611;  615.900
325.027;   60.261;   -4.061;  876.855
325.624;   60.912;   -4.031;  644.532
326.221;   57.230;   -7.481;  689.717
326.818;   56.355;   -5.281;  818.332
327.415;   60.013;   -7.460;  748.828
328.012;   59.060;   -5.510;  690.585
328.609;   57.928;   -7.880;  731.389
329.206;   55.655;   -8.331;  778.621
329.803;   56.704;   -5.121;  737.841
330.400;   58.593;   -4.510;  704.260
330.997;   59.837;   -6.441;  817.147
331.594;   57.732;   -8.831;  788.185
332.191;   63.301;   -7.621;  728.722
332.787;   67.808;   -4.591;  844.463
333.384;   66.764;   -7.412;  763.093
333.981;   65.611;   -8.293;  815.687
334.578;   67.603;   -7.052;  708.378
335.174;   71.095;   -3.102;  731.469
335.771;   70.214;   -5.943;  836.456
336.367;   67.013;   -7.393;  710.631
336.964;   71.836;   -4.063;  793.266
337.561;   69.970;   -3.813;  731.112
338.157;   65.031;   -4.654;  911.916
338.754;   63.279;   -7.934;  796.589
339.350;   62.093;   -4.414;  722.493
339.946;   64.966;   -4.664;  773.135
340.543;   55.624;   -6.375;  846.136
341.139;   49.018;   -9.815;  720.836
341.735;   45.997;   -4.526;  772.593
342.332;   46.823;   -4.895;  691.472
342.928;   45.904;   -4.295;  795.394
343.524;   38.399;   -5.476;  761.684
344.120;   35.565;   -5.856;  738.562
344.716;   39.300;   -2.155;  723.717
345.313;   36.231;   -6.275;  795.342
345.909;   30.998;   -8.815;  627.336
346.505;   32.623;   -5.305;  740.247
347.101;   33.878;   -2.674;  827.864
347.697;   32.870;   -4.344;  785.398
348.293;   27.364;   -9.975;  627.244
348.889;   29.497;   -5.774;  745.914
349.485;   28.432;   -5.004;  688.205
350.081;   29.243;   -4.704;  772.592
350.676;   23.185;   -6.635;  691.606
351.272;   28.489;   -4.504;  809.530
351.868;   28.942;   -3.914;  780.497
352.464;   25.823;   -9.044;  723.932
353.059;   21.695;   -8.314;  646.017
353.655;   24.323;   -7.024;  777.063
354.251;   26.134;   -5.343;  759.845
354.846;   19.545;   -8.604;  740.646
355.442;   17.613;   -6.945;  753.071
356.038;   19.810;   -7.564;  751.708
356.633;   20.290;   -5.814;  728.594
357.229;   17.731;   -7.364;  724.757
357.824;   15.864;   -8.024;  703.600
358.420;   15.207;   -9.384;  679.726
359.015;   15.786;   -5.104;  695.357
359.610;   16.042;   -6.854;  763.920
360.206;   10.231;  -10.185;  603.240
360.801;   13.661;   -7.054;  646.503
361.396;   15.938;   -5.034;  725.975
361.992;   10.477;   -8.284;  668.220
362.587;    7.692;   -8.625;  670.160
363.182;   10.265;   -7.674;  689.631
363.777;   11.941;   -5.164;  738.242
364.372;   10.389;   -8.604;  737.314
364.967;    5.985;   -9.055;  680.744
365.563;   11.442;   -6.114;  815.567
366.158;    8.425;   -5.814;  685.161
366.753;    8.238;   -7.854;  649.263
367.348;    6.124;   -7.804;  746.056
367.942;    6.745;   -7.954;  697.298
368.537;    6.131;   -4.984;  754.245
369.132;    5.750;   -8.564;  703.428
369.727;    2.262;   -8.855;  638.079
370.322;    3.329;   -6.245;  580.186
370.917;    3.972;   -6.425;  710.646
371.511;    5.792;   -6.294;  861.834
372.106;    2.182;   -7.685;  776.964
372.701;   -0.297;   -7.335;  585.988
373.296;    4.912;   -4.564;  863.135
373.890;   -0.613;  -10.235;  647.840
374.485;   -2.903;   -7.885;  691.199
375.079;    1.696;   -7.324;  738.685
375.674;    3.444;   -3.494;  812.970
376.268;   -2.185;   -8.525;  691.759
376.863;   -7.507;  -10.086;  580.327
377.457;   -0.877;   -7.025;  662.490
378.052;   -2.232;   -3.585;  764.884
378.646;   -3.512;   -7.595;  741.167
379.240;   -3.849;   -8.335;  721.176
379.835;   -3.061;   -5.785;  636.978
380.429;   -5.556;   -4.335;  562.557
381.023;   -5.465;   -6.805;  779.205
381.617;   -8.336;   -9.195;  680.106
382.212;   -4.287;   -6.905;  685.303
382.806;   -2.928;   -3.745;  760.690
383.400;   -7.129;   -7.745;  672.281
383.994;   -8.845;   -9.765;  664.870
384.588;   -4.627;   -6.564;  697.701
385.182;   -3.016;   -5.344;  726.624
385.776;   -5.161;   -8.514;  706.875
386.370;   -8.740;   -9.555;  681.968
386.964;   -7.249;   -8.715;  684.155
387.558;   -5.121;   -6.174;  598.360
388.152;   -9.372;   -8.725;  681.959
388.745;   -7.611;   -7.965;  814.707
389.339;   -4.994;   -5.924;  747.642
389.933;   -4.514;   -5.524;  695.370
390.527;   -5.957;   -7.114;  859.029
391.120;  -11.533;  -10.725;  595.318
391.714;   -9.072;   -8.035;  711.633
392.308;   -4.787;   -3.574;  780.253
392.901;   -9.616;   -7.245;  642.460
393.495;  -12.102;   -9.285;  595.414
394.089;   -9.230;   -5.895;  760.452
394.682;   -8.917;   -4.295;  697.188
395.275;  -10.830;   -9.875;  719.927
395.869;  -11.713;   -8.485;  667.314
396.462;   -9.888;   -7.455;  616.609
397.056;   -5.381;   -5.424;  776.621
397.649;  -10.431;   -6.605;  731.575
398.242;   -8.710;   -8.224;  712.645
398.836;   -7.892;   -7.474;  766.408
399.429;   -8.346;   -7.094;  631.041
400.022;  -12.409;   -9.475;  665.902
400.615;  -10.361;   -7.145;  805.609
401.208;   -7.429;   -7.174;  691.451
401.802;   -9.856;   -5.515;  699.329
402.395;  -11.025;   -9.875;  683.502
402.988;  -12.031;   -8.845;  696.627
403.581;   -8.869;   -8.874;  646.878
404.174;   -5.691;   -5.324;  686.568
404.767;   -9.198;   -9.575;  638.583
405.360;  -12.458;  -10.965;  621.445
405.953;   -6.250;   -8.764;  759.034
406.545;   -5.486;   -7.514;  725.342
407.138;  -10.061;  -10.025;  618.350
407.731;   -8.995;  -10.034;  613.303
408.324;   -4.853;   -9.374;  660.554
408.917;   -5.499;   -6.534;  681.864
409.509;   -7.326;   -8.004;  740.396
410.102;   -9.728;   -9.875;  643.948
410.695;   -3.368;   -8.604;  665.758
411.287;   -4.402;   -6.794;  599.821
411.880;   -5.146;   -9.334;  585.421
412.472;   -9.038;  -10.254;  613.092
413.065;   -5.481;   -6.714;  629.408
413.657;   -3.115;   -7.234;  576.678
414.250;   -3.488;  -10.544;  646.681
414.842;   -6.208;   -9.744;  676.353
415.434;   -3.146;   -6.994;  570.463
416.027;    1.647;   -5.893;  652.196
416.619;   -0.812;   -7.264;  713.400
417.211;   -1.630;  -10.374;  599.352
417.804;    2.125;   -7.993;  628.499
418.396;   -1.409;   -7.234;  607.643
418.988;    0.323;   -9.443;  659.238
419.580;   -3.281;  -10.724;  568.276
420.172;   -1.469;  -10.323;  536.196
420.764;    4.316;   -8.793;  672.482
421.356;    2.604;  -11.143;  636.898
421.948;    0.717;   -8.293;  677.661
422.540;    6.305;   -7.893;  680.027
423.132;    6.276;   -7.082;  600.641
423.724;    3.371;   -8.653;  561.267
424.316;    4.144;  -10.213;  621.345
424.908;    8.339;   -9.762;  591.517
425.500;    9.060;   -5.572;  647.978
426.092;    9.090;   -8.422;  648.268
426.683;    7.912;   -9.283;  684.836
427.275;   10.829;   -7.852;  641.471
427.867;   13.541;   -5.272;  668.948
428.458;   13.624;   -7.682;  732.344
429.050;   10.681;  -10.612;  680.749
429.642;   13.664;   -9.882;  743.124
430.233;   14.948;   -6.962;  569.356
430.825;   15.496;   -6.842;  724.809
431.416;   12.891;   -9.672;  698.241
432.008;   16.533;   -6.552;  651.723
432.599;   18.109;   -6.891;  656.073
433.190;   14.669;  -10.912;  637.670
433.782;   13.176;  -11.172;  590.395
434.373;   20.997;   -6.061;  884.765
434.964;   20.321;   -8.251;  602.920
435.556;   17.121;   -9.722;  634.537
436.147;   19.743;   -9.082;  758.490
436.738;   20.129;   -8.041;  701.099
437.329;   26.322;   -7.341;  721.723
437.920;   19.444;   -8.162;  666.688
438.511;   18.489;  -11.802;  564.526
439.103;   25.548;  -10.191;  623.998
439.694;   27.383;   -7.601;  681.583
440.285;   27.325;   -8.541;  764.432
440.876;   25.909;   -9.751;  845.738
441.466;   25.506;   -9.401;  575.162
442.057;   31.626;   -7.760;  665.814
442.648;   29.773;   -9.971;  746.255
443.239;   27.859;  -11.001;  620.477
443.830;   32.370;   -7.990;  704.958
444.421;   36.085;   -7.910;  655.474
445.011;   31.822;   -8.131;  693.619
445.602;   30.858;   -7.111;  743.126
446.193;   32.993;  -10.920;  488.117
446.783;   37.113;   -6.500;  640.397
447.374;   33.464;   -8.671;  692.759
447.964;   32.979;  -10.781;  713.770
448.555;   41.757;   -9.650;  822.742
449.145;   39.400;   -8.660;  662.853
449.736;   39.974;   -8.990;  803.179
450.326;   38.918;   -9.500;  713.626
450.917;   44.299;   -8.680;  675.324
451.507;   45.299;   -7.520;  600.661
452.097;   44.899;   -8.590;  746.267
452.688;   45.928;  -11.340;  742.160
453.278;   45.227;  -10.100;  566.840
453.868;   50.199;   -6.019;  793.550
454.458;   47.731;   -9.440;  651.141
455.048;   47.856;  -10.560;  711.783
455.639;   50.030;  -11.799;  567.096
456.229;   53.406;   -6.899;  710.694
456.819;   55.675;   -7.389;  751.158
457.409;   55.652;  -11.119;  773.993
457.999;   58.099;   -9.289;  737.505
458.589;   59.074;   -6.139;  686.606
459.179;   58.756;   -8.729;  717.658
459.769;   55.450;   -9.789;  627.099
460.358;   60.952;  -10.259;  797.262
460.948;   62.110;   -7.299;  689.503
461.538;   63.502;  -10.289;  660.677
462.128;   61.338;  -11.269;  664.934
462.717;   67.511;   -9.368;  710.326
463.307;   71.667;   -7.908;  705.846
463.897;   66.728;   -9.599;  656.942
464.486;   66.469;   -9.769;  837.128
465.076;   70.576;   -8.048;  733.776
465.666;   74.505;   -9.358;  652.900
466.255;   72.030;   -7.919;  785.651
466.845;   70.344;  -11.689;  666.749
467.434;   73.797;   -7.818;  725.873
468.023;   75.720;   -7.678;  658.357
468.613;   73.936;  -10.939;  713.946
469.202;   77.651;  -10.118;  646.507
469.791;   81.673;   -9.108;  737.811
470.381;   84.627;   -6.058;  742.813
470.970;   83.522;  -10.428;  711.099
471.559;   83.361;  -10.268;  733.291
472.148;   86.925;   -8.448;  675.737
472.738;   89.824;   -6.917;  765.466
473.327;   89.419;  -11.978;  637.529
473.916;   87.970;  -11.888;  737.446
474.505;   93.349;   -9.437;  751.703
475.094;   96.928;   -6.747;  806.570
475.683;   96.026;   -9.367;  797.699
476.272;   96.661;  -12.637;  730.632
476.861;   99.246;  -10.027;  706.754
477.449;  106.087;   -8.716;  728.487
478.038;  100.729;   -9.577;  692.513
478.627;  101.968;   -9.718;  714.852
479.216;  108.580;   -8.947;  769.441
479.805;  111.763;   -6.256;  783.375
480.393;  111.354;   -7.937; 1008.945
480.982;  110.471;   -7.717;  874.501
481.571;  116.828;   -9.266;  858.333
482.159;  119.304;   -7.636;  705.386
482.748;  118.420;   -9.667;  821.385
483.336;  122.449;  -10.376;  858.209
483.925;  123.487;   -7.147;  774.373
484.513;  131.226;   -7.996;  758.962
485.102;  129.028;  -10.027;  810.965
485.690;  136.793;  -10.446; 1011.050
486.278;  138.843;   -8.446;  979.329
486.867;  140.243;   -6.356;  809.662
487.455;  141.796;   -9.136;  898.229
488.043;  143.608;  -10.646;  748.361
488.631;  152.555;   -7.456; 1005.079
489.220;  157.668;   -6.636;  908.626
489.808;  158.150;  -11.036;  741.415
490.396;  166.582;  -10.246;  914.645
490.984;  175.230;   -8.556;  830.161
491.572;  187.369;   -5.886;  940.315
492.160;  195.717;   -9.486;  919.081
492.748;  209.906;  -10.976;  884.341
493.336;  234.901;   -8.776; 1019.693
493.924;  268.226;   -5.465;  958.077
494.512;  305.207;   -9.986; 1066.638
495.100;  359.345;  -10.636; 1103.280
495.687;  428.827;  -10.885; 1206.373
496.275;  491.126;   -8.126; 1150.796
496.863;  565.180;  -10.586; 1281.171
497.451;  692.405;  -11.926; 1386.805
498.038;  815.595;  -10.885; 1556.729
498.626;  926.207;   -6.315; 1741.407
499.214; 1098.678;   -7.326; 2016.609
499.801; 1341.422;  -11.906; 2220.633
500.389; 1626.524;  -10.466; 2312.494
500.976; 1909.132;   -5.236; 2744.849
501.564; 2371.904;   -8.936; 3148.565
502.151; 2873.470;  -13.176; 3515.999
502.738; 3442.736;  -10.646; 3971.274
503.326; 3866.447;   -9.525; 4403.796
503.913; 4213.564;  -10.856; 5161.749
504.500; 4781.329;  -11.586; 5986.420
505.088; 5092.233;  -10.336; 6381.201
505.675; 5573.830;   -6.355; 6925.547
506.262; 6101.116;   -9.046; 7619.060
506.849; 6688.500;  -10.416; 8733.969
507.436; 7255.896;  -10.305; 9790.121
508.023; 7761.254;   -5.496; 9985.472
508.610; 8624.640;   -7.856;10434.618
509.197;10043.791;  -10.097;11198.435
509.784;11682.648;  -10.886;12391.194
510.371;13217.563;   -9.315;13603.713
510.958;14181.922;   -9.936;14426.586
511.545;14801.566;   -9.326;15243.775
512.132;15363.628;  -10.075;15945.876
512.719;15575.165;   -7.796;16340.369
513.305;16569.309;  -10.606;18011.766
513.892;17943.053;  -11.486;19754.971
514.479;19830.326;   -9.126;20967.805
515.066;21637.586;   -6.026;22299.793
515.652;21917.922;   -8.466;22908.660
516.239;23053.963;  -10.886;23798.875
516.825;25343.701;  -11.496;25567.275
517.412;27419.256;   -5.796;28154.959
517.998;29526.775;  -10.506;28344.111
518.585;29154.508;  -10.076;27134.219
519.171;27735.676;   -8.315;27268.576
519.758;28835.746;   -8.596;28964.129
520.344;30180.676;   -8.466;30664.494
520.930;32968.676;  -11.006;32550.605
521.516;33557.328;  -10.495;35422.895
522.103;31958.980;   -5.526;38280.004
522.689;32698.137;   -8.746;37835.117
523.275;34301.191;  -11.376;37288.613
523.861;36103.375;  -11.156;37281.395
524.447;39536.141;   -8.135;37846.949
525.033;40574.297;   -7.896;38321.949
525.619;40508.918;  -12.476;38579.285
526.205;40756.309;   -9.516;40622.875
526.791;40153.445;   -6.926;42258.836
527.377;41425.293;   -8.346;42966.902
527.963;43129.926;   -8.717;42018.949
528.549;41877.207;  -11.016;42476.828
529.135;42126.809;   -8.536;41854.852
529.721;41793.652;   -9.666;41237.711
530.306;40067.043;  -10.066;41259.445
530.892;39907.730;  -11.356;41506.047
531.478;39424.172;   -6.596;43559.613
532.063;40030.805;   -8.836;47695.563
532.649;44075.363;  -10.047;50808.324
533.235;45522.340;   -9.746;51787.500
533.820;44734.805;   -6.566;52145.035
534.406;43337.297;  -10.817;51133.488
534.991;46024.789;   -9.416;49996.805
535.576;47163.766;   -9.036;48882.852
536.162;47340.266;   -6.156;46942.285
536.747;48940.895;  -11.607;45711.746
537.333;49646.008;  -11.787;48510.180
537.918;49930.703;  -12.437;50439.891
538.503;51243.762;   -7.196;50863.711
539.088;48261.293;  -10.556;50906.922
539.673;46585.570;   -8.767;52621.965
540.259;47916.875;  -10.026;52368.094
540.844;49910.805;   -7.416;50879.109
541.429;48865.789;   -9.467;52077.777
542.014;48577.086;   -9.527;52716.695
542.599;50915.938;   -9.946;52363.281
543.184;53712.094;   -7.927;53187.137
543.769;52049.234;   -9.297;54697.605
544.354;48606.047;  -10.127;53913.914
544.938;46651.285;   -9.267;49680.164
545.523;49032.039;   -6.506;47386.277
546.108;53148.973;   -9.787;49151.949
546.693;52316.035;  -11.587;51384.637
547.278;51820.793;  -10.986;51853.254
547.862;48633.008;   -8.206;51173.750
548.447;45848.039;  -10.067;51691.395
549.031;46847.004;   -9.637;52456.703
549.616;47977.430;   -9.926;52714.516
550.201;46699.484;   -6.347;52414.598
550.785;46270.406;   -7.917;52355.059
551.370;47367.859;  -10.867;54589.453
551.954;48019.660;   -9.047;58267.348
552.538;49116.715;   -7.827;59062.176
553.123;49004.211;  -10.287;58115.285
553.707;44733.207;  -12.178;56556.285
554.291;45502.902;   -8.717;56201.668
554.876;48776.945;   -7.457;55335.762
555.460;50007.559;  -10.387;54155.703
556.044;51007.426;   -9.618;53721.484
556.628;50126.344;  -11.567;53731.016
557.212;48190.230;   -8.097;54312.531
557.796;49398.902;  -11.077;53797.773
558.380;47133.531;  -11.108;56145.984
558.964;45684.410;   -9.057;57277.930
559.548;45502.484;   -6.977;56459.641
560.132;44616.559;  -11.457;54434.543
560.716;43738.336;  -11.378;54800.617
561.300;44574.215;   -9.577;57606.945
561.884;46293.434;   -7.127;58972.445
562.467;47300.941;   -7.118;57327.570
563.051;46642.152;  -13.358;54962.434
563.635;44431.250;  -10.178;52594.473
564.219;43887.957;   -7.837;50610.410
564.802;43517.973;  -11.398;49551.180
565.386;44826.656;  -12.788;48370.953
565.969;45423.547;   -9.077;48178.871
566.553;45613.594;   -6.207;49957.305
567.136;42752.473;   -8.568;50369.594
567.720;41701.000;  -11.868;49492.004
568.303;41457.176;   -8.268;50616.352
568.887;40199.070;   -8.698;50727.148
569.470;40674.039;   -6.808;51698.379
570.053;39561.344;  -13.188;52122.078
570.637;38130.641;  -12.037;52536.438
571.220;37282.754;   -8.577;51186.098
571.803;37663.211;   -8.498;51032.762
572.386;40319.031;  -10.498;49609.887
572.969;41912.777;   -9.388;48285.926
573.552;38100.586;   -8.338;47624.285
574.135;35791.598;   -8.518;45498.641
574.718;32626.609;  -13.628;41970.434
575.301;32258.547;  -10.893;41447.137
575.884;31890.484;   -8.158;40923.836
576.467;37110.852;  -10.328;45267.723
577.050;35838.988;  -13.058;48175.543
577.633;34816.199;   -9.458;47729.328
578.216;36127.352;   -8.928;47579.793
578.799;36823.535;   -9.358;47820.996
579.381;36398.223;  -11.388;48115.551
579.964;33486.734;  -11.718;47333.766
580.547;33299.762;   -8.588;46668.969
581.129;34953.723;   -8.859;44466.141
581.712;35411.867;  -10.729;44164.922
582.294;36523.887;  -11.118;46477.855
582.877;34326.461;   -5.218;48244.254
583.459;34182.434;   -8.679;47437.895
584.042;35960.523;  -10.709;46943.219
584.624;38234.398;  -11.669;46792.227
585.206;37477.285;   -8.218;46557.250
585.789;36108.781;  -10.569;45793.773
586.371;36184.824;  -11.859;43836.391
586.953;34860.227;  -10.719;42972.492
587.536;36421.047;   -7.198;42487.211
588.118;37839.676;   -8.720;42086.414
588.700;37277.656;  -10.439;43389.930
589.282;37545.059;   -9.198;43646.039
589.864;36324.363;   -9.199;43438.109
590.446;33741.543;  -11.319;43151.926
591.028;33384.605;  -11.159;42781.867
591.610;33299.707;  -11.779;42839.098
592.192;30381.271;   -7.668;42820.402
592.774;31207.383;  -11.949;40724.277
593.356;32282.041;  -12.129;39874.789
593.937;30055.229;  -10.669;39980.648
594.519;31290.527;   -6.509;42069.633
595.101;33342.500;  -10.849;42976.031
595.683;32190.268;  -11.679;44084.441
596.264;31984.293;   -9.049;43478.797
596.846;33804.156;   -8.849;43803.672
597.427;33884.000;   -9.570;42986.934
598.009;35044.012;  -12.620;42832.219
598.591;34217.680;  -10.039;42580.086
599.172;33127.543;  -10.369;43061.805
599.753;31428.793;   -9.140;41691.469
600.335;31307.756;  -11.430;40692.520
600.916;31871.480;   -9.939;39982.422
601.498;30666.818;   -8.479;40318.617
602.079;29345.500;  -10.920;40670.609
602.660;30992.088;  -11.480;41450.898
603.241;32410.770;  -11.699;41137.738
603.823;33114.105;   -9.579;38868.797
604.404;32987.566;  -10.620;38182.785
604.985;31513.854;  -10.450;38078.047
605.566;30980.209;   -9.129;38056.633
606.147;31016.002;   -7.510;37020.418
606.728;32238.166;  -10.660;37883.359
607.309;33504.645;  -11.740;38748.273
607.890;33157.398;   -9.759;38850.230
608.471;31218.387;   -8.250;37457.918
609.051;31076.848;   -9.240;36066.457
609.632;29395.223;  -12.120;35991.074
610.213;28455.664;   -9.110;37402.641
610.794;30403.152;   -8.030;38383.363
611.374;32758.945;   -8.110;40562.387
611.955;32490.545;  -13.560;38533.727
612.536;29868.652;  -11.400;36951.789
613.116;28697.486;   -8.070;37197.891
613.697;30891.912;  -10.830;38411.125
614.277;32467.619;  -11.641;38673.938
614.858;31936.150;  -13.310;37075.863
615.438;30029.799;   -7.460;35092.906
616.019;28113.977;   -7.601;33666.301
616.599;29087.707;  -12.020;34189.023
617.179;30857.537;  -11.780;36952.047
617.760;33494.461;   -8.570;39582.574
618.340;33505.703;  -11.471;38943.977
618.920;32048.844;  -11.170;37594.156
619.500;33996.219;  -11.071;37866.938
620.080;34262.055;   -7.750;37869.043
620.660;32428.148;  -12.711;36868.617
621.241;30974.518;  -10.211;36352.309
621.821;29989.770;  -10.961;35459.520
622.401;28994.779;   -7.720;35207.414
622.980;30181.113;   -8.981;35980.422
623.560;30798.123;   -9.331;37351.328
624.140;29643.484;   -9.850;34388.582
624.720;26959.678;   -7.451;32368.764
625.300;25074.260;   -9.070;32638.629
625.880;28564.463;  -12.601;34599.035
626.459;30474.527;  -11.751;36831.738
627.039;30778.496;   -9.281;38299.098
627.619;32615.930;   -8.801;38289.574
628.198;32350.432;  -12.071;37220.695
628.778;31247.039;   -9.461;37632.563
629.357;32275.219;   -8.491;38003.012
629.937;32589.639;   -9.721;38402.039
630.516;32633.025;   -9.951;37868.801
631.096;32809.223;  -11.731;35760.410
631.675;33997.313;   -8.572;35225.219
632.254;33522.598;  -11.282;35130.289
632.834;33154.055;  -13.322;35794.570
633.413;33028.328;  -10.301;35788.922
633.992;32272.764;   -8.582;34532.863
634.571;33970.199;   -8.352;33590.113
635.151;34072.324;  -11.912;34943.863
635.730;32795.719;  -10.511;35352.523
636.309;35130.742;   -7.731;35366.605
636.888;33303.012;   -9.952;36165.637
637.467;31100.857;  -11.672;37515.902
638.046;30965.922;   -8.901;39288.695
638.625;31800.148;   -7.912;38279.699
639.204;32370.111;  -10.022;37741.598
639.782;30390.959;  -12.252;38364.551
640.361;28610.920;  -10.041;36740.621
640.940;27809.791;  -11.161;34950.082
641.519;28973.637;   -9.701;34137.398
642.097;30644.254;  -11.271;35654.258
642.676;32034.346;   -8.651;35637.957
643.255;33182.590;   -8.711;36567.074
643.833;30830.199;   -9.581;37809.434
644.412;28524.891;  -13.711;37337.293
644.990;30263.236;  -11.811;37018.531
645.569;32963.949;   -9.411;36518.469
646.147;32630.254;  -10.291;36186.430
646.726;31556.879;  -12.401;36267.688
647.304;31595.857;  -10.411;36647.625
647.882;30673.553;   -9.651;39286.742
648.461;31852.418;   -9.631;39157.703
649.039;35138.477;  -11.881;35412.883
649.617;35605.992;   -9.661;34744.918
650.195;33452.754;   -9.301;35403.098
650.773;32192.994;  -10.511;35053.797
651.352;31596.541;  -11.521;33756.816
651.930;29178.258;  -12.211;31868.773
652.508;25812.418;   -9.171;33121.551
653.086;26862.068;   -9.371;33564.793
653.663;32727.221;  -13.161;34054.668
654.241;36695.070;  -13.031;35693.309
654.819;37625.172;   -9.371;36422.906
655.397;37461.168;  -10.511;38213.484
655.975;33698.535;  -10.371;39507.625
656.553;30428.461;  -10.051;39498.223
657.130;28883.420;  -10.061;40395.480
657.708;26974.209;   -9.561;39242.020
658.286;24494.447;  -11.511;38920.020
658.863;26501.410;  -10.261;40202.898
659.441;30279.012;   -7.531;39677.938
660.018;32137.436;   -9.501;40413.355
660.596;31328.506;  -13.301;39931.414
661.173;30847.641;  -11.211;39604.531
661.750;32472.537;   -9.951;39700.070
662.328;31468.377;   -9.390;39292.809
662.905;30527.807;  -11.330;38235.648
663.482;28365.945;   -9.050;36212.305
664.060;25781.846;   -8.240;35944.945
664.637;26415.197;  -10.050;35170.785
665.214;29628.336;  -11.760;34197.523
665.791;30185.203;  -10.530;34549.520
666.368;29178.525;   -9.690;35118.578
666.945;30358.828;   -9.320;36019.418
667.522;30786.504;  -11.860;36048.438
668.099;32249.590;  -10.770;36243.914
668.676;32345.197;   -6.260;35958.875
669.253;34847.875;   -7.000;37384.730
669.830;36227.723;  -10.190;36779.629
670.407;33020.090;   -9.550;35231.289
670.984;33269.660;   -9.260;35544.270
671.560;30667.828;   -9.280;35466.867
672.137;26548.916;  -11.810;34280.863
672.714;28045.479;  -11.490;34632.863
673.290;31714.105;   -7.740;35135.422
673.867;31547.895;  -10.660;36114.480
674.443;31774.254;  -12.230;36152.859
675.020;31519.443;  -10.450;35327.238
675.596;29912.344;   -9.260;35795.176
676.173;28556.824;  -10.780;35430.355
676.749;28104.641;  -13.690;33549.516
677.326;28235.746;  -11.980;32210.012
677.902;27587.672;   -8.630;32068.871
678.478;29431.639;  -10.730;32583.891
679.054;30343.191;  -10.520;32088.928
679.631;29655.857;  -11.920;30978.848
680.207;29760.443;   -7.490;33160.887
680.783;31525.756;   -9.860;35570.363
681.359;32901.176;  -13.380;36125.184
681.935;33543.082;  -12.480;35240.922
682.511;32852.852;   -7.900;34429.961
683.087;31579.107;   -7.710;34463.680
683.663;31187.742;  -11.480;34648.898
684.239;30210.842;  -14.090;34546.457
684.815;29061.441;   -7.560;35586.375
685.390;29156.344;   -9.910;35821.895
685.966;30298.662;  -11.159;35085.871
686.542;31839.174;  -11.169;34198.230
687.118;33301.133;   -5.959;32847.707
687.693;32304.275;  -10.329;32794.027
688.269;33251.250;  -12.059;33072.367
688.844;33469.887;  -10.909;33141.664
689.420;30795.293;   -8.019;33965.742
689.995;29265.215;   -8.399;34655.523
690.571;30637.313;  -10.949;33576.742
691.146;30301.311;   -9.619;32657.219
691.722;28872.020;   -8.999;32526.979
692.297;28258.354;  -11.589;33014.617
692.872;28394.590;  -11.739;34012.254
693.448;31132.506;  -11.059;34237.434
694.023;31731.420;  -10.139;34142.672
694.598;29720.092;   -9.029;34132.031
695.173;30780.465;  -13.319;34205.250
695.748;31464.121;  -10.169;32882.488
696.323;29110.684;   -8.339;32864.906
696.898;27050.318;   -8.169;33170.004
697.473;27366.246;  -12.309;32432.984
698.048;27580.203;  -10.989;31649.303
698.623;26279.982;   -9.329;30778.141
699.198;27089.572;   -9.849;31140.119
699.773;28196.141;  -12.329;31764.299
700.348;29634.287;  -10.389;31780.816
700.922;30071.088;   -9.269;32046.375
701.497;31119.809;   -9.329;32603.574
702.072;32191.467;  -10.789;34799.871
702.646;31049.287;  -10.839;35793.172
703.221;30216.025;   -9.099;35201.590
703.795;32115.266;  -10.939;34764.527
704.370;29669.980;  -12.859;34307.367
704.944;28085.314;  -11.559;33509.887
705.519;29108.443;   -7.939;31388.584
706.093;31542.021;  -10.499;31340.104
706.668;33955.441;  -11.289;32630.281
707.242;33419.477;  -11.509;32728.779
707.816;31497.363;   -9.639;32947.238
708.390;30042.662;  -11.429;33277.855
708.965;29271.588;  -11.869;33834.336
709.539;30697.436;  -11.689;33709.273
710.113;30807.273;  -10.478;33044.313
710.687;30057.781;  -10.228;31953.992
711.261;29221.764;  -13.698;30505.949
711.835;29647.902;  -13.378;30262.369
712.409;28879.719;   -9.698;31254.447
712.983;28492.168;  -11.898;32754.986
713.557;30950.520;  -15.138;34018.824
714.131;29032.873;  -14.098;34579.625
714.704;28414.605;   -9.958;33890.262
715.278;30400.330;  -10.028;33531.102
715.852;29054.650;  -11.148;33601.660
716.425;27906.580;   -9.068;33515.117
716.999;26625.969;  -10.038;33185.555
717.573;26215.283;   -9.798;33905.996
718.146;25619.107;  -12.378;35199.293
718.720;26176.371;  -11.918;35060.551
719.293;26635.453;   -8.088;34973.230
719.867;28847.951;  -10.888;36394.449
720.440;30398.908;  -11.938;36663.008
721.013;30931.396;  -12.818;35102.426
721.587;28631.490;  -10.298;33985.266
722.160;26769.426;  -10.048;33524.965
722.733;26206.773;  -12.108;32987.043
723.306;26576.990;  -10.818;33066.301
723.880;28322.949;   -8.908;33399.500
724.453;27963.137;   -9.878;33468.297
725.026;27978.736;  -11.188;33816.637
725.599;30865.957;  -11.678;32797.996
726.172;30581.811;   -9.618;33187.434
726.745;28024.613;   -8.258;35136.613
727.318;27589.506;  -12.978;35751.730
727.891;26708.490;  -12.148;35890.430
728.463;25574.387;   -8.968;34822.090
729.036;25545.580;  -10.188;32895.086
729.609;25633.379;  -11.788;31823.225
730.182;23816.006;  -11.788;31445.283
730.754;22526.756;  -10.268;32373.223
731.327;22490.832;   -9.998;33676.820
731.900;23750.043;  -12.228;33417.000
732.472;23724.373;  -13.848;31978.498
733.045;22908.178;   -8.698;30368.777
733.617;22474.426;  -10.607;30574.215
734.190;24270.086;  -11.507;31280.975
734.762;25205.092;  -13.647;31674.412
735.334;26604.613;   -9.767;31247.291
735.907;27184.082;   -9.897;29876.211
736.479;27015.463;  -11.637;29808.488
737.051;27985.365;   -9.567;30233.547
737.623;27355.373;   -8.187;31469.086
738.195;25985.432;  -11.187;31784.225
738.768;24789.598;  -12.337;32120.523
739.340;23119.914;  -12.227;32094.342
739.912;22161.324;  -11.057;31312.680
740.484;22144.645;  -10.207;31946.238
741.056;21945.693;  -10.047;32984.059
741.628;22961.363;  -13.627;33897.715
742.199;23862.229;   -7.177;33213.016
742.771;26073.977;  -10.797;31369.113
743.343;26925.711;  -11.997;31865.473
743.915;26692.443;  -12.867;32388.631
744.487;24201.066;   -7.617;31079.568
745.058;21264.152;   -9.557;30570.107
745.630;22239.580;   -9.877;29970.127
746.201;23900.287;  -14.177;29186.766
746.773;24481.928;   -9.237;28805.723
747.344;22683.262;   -9.847;29591.223
747.916;20980.936;  -11.657;31412.201
748.487;21936.537;  -10.587;32194.898
749.059;23686.777;   -8.707;32533.719
749.630;23895.654;  -10.537;32158.518
750.201;23282.211;  -11.687;30855.395
750.773;22097.438;  -11.647;28622.555
751.344;21936.820;   -7.147;28405.732
751.915;24029.609;   -9.757;28461.551
752.486;25122.014;  -12.427;27842.850
753.057;23907.295;  -12.227;27845.008
753.628;23914.320;  -10.417;27728.107
754.199;23580.502;  -11.767;27381.086
754.770;23093.205;  -11.187;25882.203
755.341;21936.443;  -10.507;25886.184
755.912;20414.584;   -9.387;26050.861
756.483;18978.699;  -10.647;26798.779
757.054;19413.682;  -11.837;27048.238
757.625;19397.809;  -12.716;26294.838
758.195;19213.359;   -9.666;26142.076
758.766;19517.457;   -8.656;26392.234
759.337;19004.861;  -12.856;26334.594
759.907;18755.178;  -13.366;27579.652
760.478;18418.420;   -8.576;28352.770
761.048;19407.254;  -10.526;27325.088
761.619;19606.662;  -11.116;26460.428
762.189;18253.494;  -12.136;26029.826
762.760;17870.873;   -9.456;26430.145
763.330;18247.666;   -7.136;26670.902
763.900;18378.436;  -11.786;26603.021
764.471;18005.217;  -11.546;25542.740
765.041;17097.754;   -8.096;24358.459
765.611;16306.878;   -8.876;23991.297
766.181;16283.385;  -12.196;24470.236
766.751;16175.363;  -11.636;24845.975
767.321;17182.568;  -10.156;24533.633
767.891;16628.740;  -11.766;24916.492
768.461;16777.668;  -14.936;24776.771
769.031;17772.723;  -12.356;24757.988
769.601;18450.418;   -7.526;24181.088
770.171;18305.150;  -10.766;23670.387
770.741;17538.141;  -13.176;22960.045
771.311;17016.660;  -10.616;22917.523
771.880;17186.207;   -9.576;23562.941
772.450;16794.553;  -10.336;24216.500
773.020;16378.394;  -13.516;24140.398
773.589;17014.369;  -13.466;24414.857
774.159;16928.613;   -8.686;23858.717
774.729;15539.540;   -9.476;22942.135
775.298;13790.443;  -13.666;22324.033
775.867;13548.729;  -11.716;21140.313
776.437;13684.824;   -9.906;20838.092
777.006;12960.948;  -12.166;20599.510
777.576;12468.713;  -12.356;20508.809
778.145;12385.946;  -11.646;20732.947
778.714;12821.994;   -8.226;21062.465
779.283;13879.460;   -9.556;20949.664
779.853;14590.794;  -14.116;20508.623
780.422;14060.061;  -11.506;20649.082
780.991;13615.104;   -9.556;21527.520
781.560;13282.289;   -9.095;22632.658
782.129;13106.852;  -12.135;23048.277
782.698;12990.995;  -10.865;23438.555
783.267;12687.227;   -9.335;23267.734
783.836;12740.761;  -11.045;22415.133
784.404;13395.283;  -13.865;20443.152
784.973;12674.538;  -13.095;19699.150
785.542;11316.549;  -11.575;19763.828
786.111;10647.467;   -9.705;20341.408
786.679;11311.271;  -12.105;20207.967
787.248;11647.538;  -12.455;19516.465
787.817;11429.602;  -11.535;18900.363
788.385;11527.263;   -9.765;17879.121
788.954;11413.629;  -14.005;17658.301
789.522;10861.783;  -11.955;17788.879
790.090;11120.900;  -10.135;18118.277
790.659;12081.089;  -10.975;18338.736
791.227;12064.351;  -13.375;18508.615
791.795;11519.845;  -12.375;17898.254
792.364;10966.460;  -10.725;17295.133
792.932;11120.908;   -9.715;16822.051
793.500;11210.012;  -12.675;17040.148
794.068;10928.775;  -13.495;17179.787
794.636; 9832.096;  -10.885;16664.246
795.204; 8855.643;  -11.045;16524.545
795.772; 9455.615;  -13.175;17274.564
796.340;10551.517;  -12.445;17891.002
796.908;10405.820;   -9.735;17648.561
797.476;10765.760;   -9.815;17064.080
798.044;11602.342;  -13.985;16672.777
798.612;11493.695;  -13.115;17023.996
799.180;10258.977;  -10.185;16561.615
799.747; 9236.080;   -9.055;15962.773
800.315; 8615.769;  -12.385;15296.992
800.883; 8881.190;  -15.035;14801.771
801.450; 9172.495;  -10.365;14534.430
802.018; 9255.245;   -9.855;14173.248
802.585; 9409.813;  -11.905;14029.547
803.153; 8955.182;  -11.585;13836.846
803.720; 8325.070;   -9.095;13567.324
804.287; 8392.185;   -9.135;13360.622
804.855; 8691.147;  -11.604;13681.981
805.422; 8759.304;  -11.794;13536.560
805.989; 8614.475;  -10.734;13355.958
806.556; 8210.675;  -10.444;13747.896
807.124; 8094.568;  -12.764;13987.376
807.691; 8668.070;  -12.964;14038.674
808.258; 9098.392;  -11.134;14120.152
808.825; 9300.580;   -9.854;13860.111
809.392; 9008.592;  -10.504;13268.790
809.959; 8569.163;  -13.054;12680.389
810.526; 8392.253;   -8.294;12427.308
811.093; 8068.922;   -8.394;12030.105
811.659; 7290.146;  -12.304;11653.664
812.226; 7043.146;  -13.944;11637.183
812.793; 7550.599;  -10.484;11611.521
813.360; 7702.225;  -10.144;11885.181
813.926; 6992.909;  -11.684;12770.539
814.493; 6386.988;  -13.644;12677.638
815.060; 6264.298;   -9.724;11974.336
815.626; 6593.263;   -9.854;11594.715
816.193; 6638.772;  -13.254;11579.474
816.759; 6645.197;  -13.204;11666.972
817.325; 6425.875;   -9.434;11325.530
817.892; 6111.417;  -10.134;11105.369
818.458; 6029.813;  -13.474;10843.928
819.024; 6024.628;  -11.854;10714.406
819.591; 6301.061;  -10.244;10469.165
820.157; 6387.181;  -10.704;10235.523
820.723; 6631.552;  -12.324;10847.563
821.289; 7041.492;   -9.444;11040.980
821.855; 7111.073;   -8.374;10357.100
822.421; 6736.651;  -10.234; 9978.918
822.987; 6482.132;  -13.294; 9754.177
823.553; 6352.244;  -10.884;10065.755
824.119; 5917.595;   -8.884;10036.294
824.685; 5713.129;   -6.784;10029.192
825.251; 5654.812;  -12.004;10199.230
825.816; 5750.298;  -11.474; 9820.189
826.382; 5527.576;   -9.174; 9297.248
826.948; 5258.421;   -9.214; 9381.347
827.513; 5032.147;  -10.774; 9450.726
828.079; 4978.792;  -11.924; 9472.444
828.645; 5095.372;  -10.543; 9292.643
829.210; 5322.727;  -10.533; 9065.341
829.776; 5341.712;  -10.753; 9132.620
830.341; 5216.470;  -10.173; 9092.878
830.906; 5285.770;  -10.743; 9078.557
831.472; 5176.588;  -11.113; 8534.535
832.037; 4706.339;  -10.603; 8677.874
832.602; 4620.420;  -13.323; 8628.692
833.167; 4951.957;  -10.823; 8879.031
833.733; 4930.504;  -10.113; 9189.790
834.298; 4684.696;  -13.583; 9052.608
834.863; 4557.353;  -12.703; 8895.087
835.428; 4442.404;  -10.523; 8824.266
835.993; 4400.364;   -6.963; 8845.385
836.558; 4489.458;  -10.763; 8888.563
837.123; 4586.226;   -9.903; 8966.582
837.688; 4420.042;   -9.913; 8617.860
838.253; 4269.832;  -10.283; 8590.699
838.817; 4400.839;  -12.963; 8443.797
839.382; 4580.116;  -14.243; 8799.356
839.947; 4482.755;  -10.733; 8810.595
840.511; 4548.237;   -9.383; 8796.394
841.076; 4570.097;  -12.563; 8347.231
841.641; 4377.981;  -12.953; 8224.330
842.205; 4101.874;   -7.043; 8223.349
842.770; 4063.439;   -8.163; 8622.107
843.334; 4104.341;  -12.503; 8410.386
843.898; 4063.258;  -11.693; 8337.465
844.463; 3960.392;  -10.203; 8506.283
845.027; 3879.768;   -9.533; 8280.962
845.591; 3922.146;  -13.443; 8231.141
846.156; 3849.608;  -13.143; 7969.179
846.720; 3673.806;   -9.433; 7768.278
847.284; 3398.303;  -11.033; 7630.957
847.848; 3239.994;  -10.403; 7472.395
848.412; 3257.609;  -11.553; 7437.394
848.976; 3442.907;   -8.393; 7674.592
849.540; 3482.146;   -8.713; 7836.011
850.104; 3447.760;  -12.463; 7913.669
850.668; 3570.838;  -12.973; 7694.508
851.232; 3609.796;  -10.793; 7756.887
851.796; 3534.333;  -10.662; 7926.545
852.359; 3572.550;  -13.082; 7827.844
852.923; 3345.474;  -12.192; 7641.163
853.487; 3265.204;  -11.912; 7342.501
854.050; 3419.858;  -10.892; 7042.820
854.614; 3408.478;  -13.992; 7151.338
855.177; 3286.832;  -11.732; 7105.077
855.741; 3201.013;   -8.962; 6989.675
856.304; 3095.546;   -9.442; 6596.634
856.868; 2858.922;  -14.192; 6356.272
857.431; 2647.651;  -12.702; 6468.571
857.995; 2683.105;   -9.942; 6373.210
858.558; 2711.662;   -9.112; 6324.448
859.121; 2531.415;  -12.932; 6408.327
859.684; 2477.485;  -13.442; 6347.886
860.247; 2883.909;  -10.632; 6321.264
860.810; 3213.849;  -11.272; 6301.903
861.374; 3244.206;   -9.832; 6607.881
861.937; 3225.895;  -11.762; 6408.200
862.500; 3089.480;   -9.722; 6572.639
863.062; 2776.035;  -10.512; 6387.297
863.625; 2651.495;  -11.232; 6190.836
864.188; 2644.511;  -14.112; 5807.254
864.751; 2642.959;  -11.302; 5682.413
865.314; 2751.454;  -10.112; 5547.492
865.876; 2784.109;  -12.182; 5500.150
866.439; 2705.585;  -10.722; 5415.909
867.002; 2556.905;   -9.252; 5501.567
867.564; 2450.330;   -9.572; 5413.946
868.127; 2323.550;  -13.142; 5160.325
868.689; 2043.375;  -12.902; 5133.183
869.252; 1905.184;   -9.732; 5252.382
869.814; 1922.627;   -9.432; 5297.141
870.377; 2021.191;  -11.552; 5390.919
870.939; 2001.727;   -9.052; 5599.898
871.501; 1931.042;  -10.982; 5248.336
872.063; 1965.223;  -12.292; 4854.235
872.626; 1973.269;  -14.912; 4817.074
873.188; 1971.447;  -13.112; 4987.732
873.750; 1923.761;  -13.442; 4868.651
874.312; 1979.947;   -9.402; 4779.330
874.874; 2115.189;  -11.062; 4866.348
875.436; 2011.756;  -13.931; 4718.887
875.998; 1735.140;   -9.561; 4660.005
876.560; 1577.914;  -11.321; 4462.964
877.122; 1563.134;  -12.221; 4145.042
877.683; 1550.744;  -12.191; 4056.481
878.245; 1639.936;  -12.101; 3950.740
878.807; 1785.786;   -8.971; 4058.958
879.369; 1821.247;  -12.071; 3954.677
879.930; 1747.262;  -14.621; 3941.495
880.492; 1579.930;  -10.311; 4067.014
881.053; 1426.348;  -10.901; 3859.633
881.615; 1403.613;  -14.411; 3776.071
882.176; 1431.985;  -13.761; 3734.750
882.738; 1449.836;   -9.181; 3678.489
883.299; 1416.218;  -11.791; 3405.407
883.860; 1344.953;  -13.121; 3351.106
884.422; 1240.655;  -11.211; 3394.044
884.983; 1158.399;  -10.091; 3166.443
885.544; 1133.241;   -8.461; 3189.802
886.105; 1079.473;  -12.361; 3160.360
886.666; 1003.250;  -14.141; 3093.059
887.227;  974.401;  -11.361; 2941.957
887.788;  986.537;  -11.401; 2974.836
888.349;  942.678;  -13.791; 2721.214
888.910;  851.237;  -13.191; 2696.493
889.471;  751.479;   -9.881; 2560.172
890.032;  678.364;   -9.881; 2558.190
890.593;  677.911;  -10.371; 2567.669
891.153;  679.898;  -13.301; 2460.307
891.714;  623.002;  -11.431; 2372.046
892.275;  574.188;  -11.291; 2309.505
892.835;  557.495;  -11.471; 2382.543
893.396;  544.915;  -11.541; 2295.502
893.956;  540.936;  -11.181; 2162.420
894.517;  529.579;  -11.741; 2125.439
895.077;  485.095;  -11.671; 2086.978
895.638;  436.845;  -11.311; 2126.316
896.198;  419.427;   -9.831; 1838.275
896.758;  417.491;   -8.421; 1892.813
897.319;  409.907;  -12.351; 1792.232
897.879;  393.293;  -13.511; 1762.751
898.439;  368.224;  -12.001; 1661.149
898.999;  349.467;  -10.180; 1781.468
899.559;  335.993;  -12.030; 1703.347
900.119;  327.908;  -15.710; 1537.525
900.679;  307.421;   -8.900; 1638.384
901.239;  281.702;   -8.340; 1527.902
901.799;  267.340;  -13.910; 1456.441
902.359;  256.593;  -13.460; 1357.140
902.919;  252.450;  -11.490; 1331.118
903.479;  249.310;  -12.110; 1317.257
904.038;  242.054;  -11.720; 1262.595
904.598;  226.814;  -13.610; 1152.034
905.158;  215.563;  -11.040; 1240.893
905.717;  210.112;  -10.900; 1233.691
906.277;  205.590;  -15.080; 1217.330
906.836;  202.727;  -13.380; 1222.408
907.396;  199.960;  -10.780; 1193.047
907.955;  194.532;   -8.500; 1182.526
908.515;  185.986;  -12.760; 1099.364
909.074;  180.981;  -11.900; 1092.863
909.633;  180.082;   -8.950; 1069.121
910.192;  176.423;   -8.770; 1196.460
910.752;  172.790;  -12.390; 1029.960
911.311;  168.805;  -13.680; 1009.780
911.870;  165.017;  -12.370;  971.460
912.429;  161.727;  -10.900; 1094.080
912.988;  159.073;  -11.690; 1081.060
913.547;  155.324;  -13.240;  940.380
914.106;  154.910;  -11.990;  999.420
914.665;  155.076;   -9.990;  984.020
915.224;  153.242;  -12.880; 1035.760
915.782;  151.529;  -12.350;  922.560
916.341;  152.160;   -9.110; 1049.840
916.900;  150.671;   -9.270;  925.260
917.458;  146.638;  -13.240;  884.220
918.017;  144.995;  -13.550;  942.600
918.576;  146.065;  -12.320;  904.440
919.134;  145.407;  -11.490;  837.980
919.693;  142.873;  -13.670;  893.060
920.251;  141.683;  -15.470;  876.500
920.809;  140.700;  -11.290;  839.580
921.368;  140.788;  -10.210;  885.360
921.926;  140.279;  -12.140;  842.940
922.484;  138.814;  -13.080;  903.360
923.042;  139.015;  -11.720;  880.340
923.601;  141.386;   -7.480;  998.680
924.159;  138.906;  -11.570;  935.560
924.717;  137.493;  -13.840;  841.080
925.275;  139.544;  -10.640;  903.240
925.833;  138.799;  -11.540;  779.320
926.391;  138.827;  -12.960;  938.380
926.949;  138.291;  -14.130;  857.680
927.506;  139.236;  -11.750;  903.500
928.064;  137.643;  -10.250;  877.580
928.622;  136.128;  -13.030;  880.100
929.180;  138.265;  -13.400;  814.180
929.737;  140.105;  -10.700;  808.540
930.295;  141.821;  -10.070;  928.480
930.853;  140.608;  -11.960;  849.100
931.410;  139.809;  -13.120;  821.120
931.968;  141.542;  -10.770;  940.660
932.525;  142.546;  -10.680;  909.380
933.082;  144.685;  -13.130;  811.440
933.640;  149.959;  -13.210;  925.900
934.197;  150.946;  -11.060;  886.360
934.754;  151.962;   -9.580;  897.780
935.312;  151.631;  -14.000;  863.340
935.869;  153.727;  -10.710; 1012.980
936.426;  152.550;   -9.860;  872.800
936.983;  152.098;   -9.710;  889.020
937.540;  150.274;  -13.990;  838.280
938.097;  150.101;  -14.040;  940.120
938.654;  152.558;  -10.310;  898.860
939.211;  154.383;  -10.560;  952.480
939.768;  151.623;  -13.900;  915.420
940.324;  152.902;  -14.760;  904.200
940.881;  157.699;  -10.370;  878.500
941.438;  163.799;   -8.260; 1021.200
941.995;  163.870;  -12.540;  992.560
942.551;  162.743;  -14.670;  875.620
943.108;  163.521;  -10.450;  937.920
943.664;  164.064;  -10.750;  869.340
944.221;  169.105;  -11.550; 1088.140
944.777;  170.612;  -14.770;  869.680
945.334;  170.664;  -12.820;  884.840
945.890;  168.921;  -10.130;  946.480
946.446;  166.032;  -13.470;  947.020
947.003;  165.891;  -12.120;  964.940
947.559;  166.866;   -9.980; 1063.040
948.115;  163.531;   -9.080; 1026.540
948.671;  160.214;  -10.830;  967.300
949.227;  156.825;  -12.440;  859.560
949.783;  156.973;  -12.910;  858.900
950.339;  159.259;  -10.270;  991.000
950.895;  158.932;  -13.630; 1023.840
951.451;  158.327;  -15.100;  925.280
952.007;  159.304;  -11.330;  998.540
952.563;  157.002;  -10.580;  937.780
953.118;  152.806;  -13.440;  904.940
953.674;  149.978;  -12.710;  935.780
954.230;  152.368;  -10.350;  949.640
954.785;  155.364;   -9.190;  936.640
955.341;  156.618;  -11.200;  998.160
955.897;  152.960;  -16.560;  834.660
956.452;  151.416;  -12.570;  953.840
957.008;  149.493;   -7.970; 1083.640
957.563;  147.310;  -11.940; 1009.540
958.118;  145.506;  -13.450;  877.700
958.674;  145.024;  -12.030;  946.780
959.229;  146.273;   -9.410; 1013.980
959.784;  144.343;  -12.000;  832.400
960.339;  141.165;  -14.780; 1001.280
960.894;  136.083;   -9.860;  963.760
961.449;  131.597;   -9.970;  859.960
962.004;  129.000;  -10.900; 1212.840
962.559;  122.805;  -13.150;  860.140
963.114;  121.081;  -13.740;  742.480
963.669;  123.974;   -9.820;  915.500
964.224;  122.473;  -13.890;  874.340
964.779;  121.596;  -12.600;  828.420
965.334;  123.781;  -10.950; 1017.860
965.888;  121.528;  -11.170;  875.360
966.443;  122.130;  -12.540;  972.380
966.998;  121.916;  -15.780;  819.460
967.552;  122.016;   -9.760;  908.380
968.107;  116.678;   -9.060;  868.300
968.661;  113.914;  -11.950;  922.440
969.216;  114.281;  -12.800;  856.280
969.770;  113.766;  -11.210;  917.200
970.324;  112.312;  -11.610;  923.140
970.879;  109.193;  -11.370;  947.180
971.433;  108.503;  -12.540;  952.720
971.987;  107.107;  -11.320;  895.340
972.541;  106.767;  -10.720;  917.100
973.095;  107.506;   -9.680; 1009.460
973.649;  105.496;  -11.440;  809.480
974.203;  105.985;  -11.210;  829.040
974.757;  106.914;  -10.240;  855.220
975.311;  106.124;  -13.720;  872.600
975.865;  106.302;  -13.770;  881.820
976.419;  105.578;  -11.690;  857.400
976.973;  105.959;   -9.510;  849.620
977.526;  104.369;  -12.620;  949.920
978.080;  101.359;  -12.010;  796.780
978.634;  101.178;  -10.170;  921.320
979.187;   98.127;   -9.020;  905.400
979.741;   96.288;   -9.820; 1018.380
980.294;   92.388;  -14.870;  789.160
980.848;   89.140;  -12.380;  717.220
981.401;   88.931;  -10.350;  816.540
981.955;   88.440;  -13.720;  844.300
982.508;   85.156;  -11.490;  746.340
983.061;   85.712;  -10.000;  915.260
983.615;   84.737;  -11.480;  798.800
984.168;   83.743;  -13.220;  770.080
984.721;   84.072;  -13.960;  880.760
985.274;   82.019;  -10.870;  867.500
985.827;   80.627;   -9.790;  834.220
986.380;   79.002;  -13.120;  721.340
986.933;   79.550;  -12.450;  864.800
987.486;   79.588;  -10.210;  861.920
988.039;   78.731;   -8.430;  863.100
988.591;   75.554;  -10.520;  893.260
989.144;   72.029;  -14.860;  737.260
989.697;   71.747;  -13.080;  758.740
990.250;   69.879;  -10.150;  858.100
990.802;   67.645;  -13.430;  755.860
991.355;   66.542;  -12.750;  974.880
991.907;   64.390;  -12.040;  864.320
992.460;   62.238;  -11.330;  753.760
993.012;   61.687;  -13.610;  749.540
993.565;   59.821;  -13.460;  711.360
994.117;   62.164;   -9.360;  950.780
994.669;   59.844;  -11.300;  701.320
995.221;   58.391;  -13.540;  791.920
995.774;   57.735;  -13.430;  787.580
996.326;   57.241;  -12.520;  740.220
996.878;   58.054;  -10.950;  838.420
997.430;   55.306;  -14.300;  699.860
997.982;   53.476;  -13.760;  750.140
998.534;   54.236;  -11.530;  739.060
999.086;   52.101;  -10.310;  738.220
999.638;   51.155;  -12.530;  661.380
1000.190;   49.889;  -11.840;  699.320
1000.741;   50.268;  -10.260;  742.700
1001.293;   50.249;   -8.860;  686.020
1001.845;   48.338;  -13.700;  676.640
1002.396;   49.433;  -12.100;  743.400
1002.948;   48.670;  -12.760;  737.400
1003.500;   47.893;  -10.380;  723.780
1004.051;   47.020;  -11.900;  907.580
1004.603;   46.015;  -12.250;  791.820
1005.154;   42.625;  -13.210;  608.980
1005.705;   42.728;  -10.950;  723.960
1006.257;   41.996;  -13.880;  707.220
1006.808;   40.599;  -12.840;  685.460
1007.359;   40.944;  -10.570;  763.240
1007.910;   40.831;   -9.620;  646.640
1008.461;   39.369;  -13.630;  732.940
1009.013;   38.059;  -17.200;  588.340
1009.564;   39.937;  -10.200;  793.520
1010.115;   38.419;  -12.570;  597.040
1010.665;   37.386;  -15.150;  602.160
1011.216;   36.789;  -14.480;  667.920
1011.767;   37.611;  -11.340;  697.920
1012.318;   38.409;   -9.780;  736.980
1012.869;   36.485;  -12.380;  679.000
1013.419;   35.280;  -15.560;  603.120
1013.970;   35.601;  -11.010;  666.640
1014.521;   35.919;  -11.610;  620.620
1015.071;   35.831;  -13.450;  670.380
1015.622;   34.009;  -13.870;  635.460
1016.172;   34.621;  -11.610;  596.820
1016.723;   34.697;  -12.120;  614.380
1017.273;   34.198;  -13.620;  604.160
1017.823;   33.638;  -14.140;  650.340
1018.374;   33.595;  -12.800;  611.760
1018.924;   33.484;  -12.340;  716.880
1019.474;   33.896;  -11.410;  718.880
1020.024;   31.967;  -14.770;  657.580
1020.574;   33.116;   -9.780;  726.160
1021.124;   33.597;   -8.560;  673.580
1021.674;   31.394;  -15.190;  559.120
1022.224;   32.838;  -13.530;  708.940
1022.774;   32.345;  -13.280;  668.820
1023.324;   32.832;  -10.690;  753.520
1023.874;   34.208;  -10.240;  875.760
1024.423;   31.135;  -12.540;  613.700
1024.973;   30.542;  -10.010;  610.760
1025.523;   30.713;  -10.550;  620.960
1026.072;   29.840;  -13.560;  606.420
1026.622;   29.030;  -15.120;  675.740
1027.172;   30.593;  -11.260;  715.660
1027.721;   30.294;  -11.410;  601.220
1028.270;   29.672;  -13.530;  663.400
1028.820;   29.434;  -13.680;  638.080
1029.369;   29.523;  -13.520;  612.700
1029.918;   30.195;  -10.980;  649.840
1030.468;   28.148;  -13.530;  564.780
1031.017;   29.444;  -13.170;  634.800
1031.566;   28.218;  -12.200;  608.900
1032.115;   29.350;   -9.960;  694.500
1032.664;   27.802;  -13.210;  596.480
1033.213;   28.069;  -12.500;  735.420
1033.762;   27.413;  -11.910;  635.620
1034.311;   27.846;   -9.640;  677.220
1034.860;   27.356;  -13.310;  691.000
1035.408;   27.286;  -11.830;  722.720
1035.957;   27.994;  -12.000;  719.540
1036.506;   26.234;  -11.690;  530.800
1037.055;   28.832;  -10.990;  844.320
1037.603;   26.637;  -15.120;  664.000
1038.152;   24.871;  -12.450;  534.760
1038.700;   26.126;  -10.560;  585.740
1039.249;   25.676;  -11.080;  681.220
1039.797;   25.624;  -12.540;  633.360
1040.345;   25.698;  -11.920;  705.420
1040.894;   25.047;  -11.410;  625.300
1041.442;   24.397;  -14.320;  632.200
1041.990;   24.081;  -16.240;  559.160
1042.538;   23.836;  -11.680;  536.180
1043.087;   24.361;  -10.760;  570.860
1043.635;   25.219;  -11.850;  670.500
1044.183;   24.510;  -15.480;  586.400
1044.731;   23.646;  -11.770;  576.000
1045.279;   23.993;  -13.090;  674.920
1045.827;   25.299;  -12.440;  892.400
1046.374;   22.476;  -13.840;  515.420
1046.922;   22.431;  -13.220;  590.580
1047.470;   24.269;  -10.230;  691.300
1048.018;   23.408;  -14.590;  647.960
1048.565;   23.624;  -12.050;  708.600
1049.113;   22.648;  -11.650;  557.000
1049.660;   23.343;  -10.510;  629.660
1050.208;   23.459;  -13.310;  675.640
1050.755;   21.670;  -15.900;  606.580
1051.303;   22.849;  -11.430;  686.820
1051.850;   22.947;   -8.480;  635.120
1052.397;   20.260;  -15.010;  473.960
1052.945;   20.065;  -13.960;  617.760
1053.492;   22.303;  -13.150;  741.840
1054.039;   23.187;   -9.630;  720.180
1054.586;   21.129;  -13.680;  557.240
1055.133;   21.984;  -14.570;  693.140
1055.680;   21.548;  -13.820;  646.620
1056.227;   20.514;  -11.730;  542.780
1056.774;   22.363;  -12.480;  794.980
1057.321;   19.652;  -13.930;  523.260
1057.868;   20.623;  -11.690;  651.320
1058.415;   20.146;   -9.520;  651.980
1058.961;   21.244;  -13.160;  678.940
1059.508;   19.720;  -12.920;  643.820
1060.055;   19.848;  -11.920;  581.780
1060.601;   20.427;  -11.500;  624.300
1061.148;   20.121;  -14.330;  616.820
1061.694;   19.131;  -16.870;  592.580
1062.241;   19.799;  -10.330;  596.320
1062.787;   19.978;  -10.620;  663.140
1063.334;   21.542;  -10.110;  808.560
1063.880;   18.932;  -13.400;  668.360
1064.426;   19.624;  -10.680;  706.820
1064.972;   18.904;   -9.920;  601.340
1065.518;   17.080;  -10.980;  566.640
1066.065;   18.573;  -14.890;  624.460
1066.611;   17.358;  -12.870;  598.800
1067.157;   19.035;  -12.950;  641.860
1067.703;   18.377;  -13.540;  668.480
1068.249;   18.003;  -13.540;  605.220
1068.794;   18.059;  -12.600;  626.880
1069.340;   17.614;  -10.620;  578.960
1069.886;   17.379;  -12.830;  590.700
1070.432;   15.937;  -14.870;  541.720
1070.977;   16.550;  -11.980;  601.080
1071.523;   16.555;   -8.200;  573.060
1072.068;   17.126;  -12.330;  582.000
1072.614;   15.921;  -16.370;  527.760
1073.160;   17.791;  -11.100;  687.040
1073.705;   16.371;  -10.480;  572.520
1074.250;   15.990;  -14.520;  559.900
1074.796;   16.817;  -11.460;  655.160
1075.341;   16.877;  -11.950;  664.100
1075.886;   16.353;  -11.460;  594.240
1076.431;   15.788;  -13.770;  649.880
1076.976;   14.860;  -12.680;  639.220
1077.521;   15.376;  -13.170;  583.080
1078.067;   16.027;  -10.860;  579.400
1078.612;   16.112;  -13.920;  661.620
1079.156;   14.725;  -13.880;  601.540
1079.701;   15.656;  -13.120;  693.260
1080.246;   16.675;   -9.940;  696.300
1080.791;   15.098;  -14.740;  625.020
1081.336;   15.107;  -13.750;  659.320
1081.880;   15.390;  -13.400;  649.680
1082.425;   15.020;  -12.220;  573.480
1082.970;   16.408;  -11.610;  717.040
1083.514;   14.834;  -13.580;  597.000
1084.059;   13.689;  -12.810;  586.720
1084.603;   14.313;  -12.320;  565.840
1085.147;   13.728;  -13.190;  645.220
1085.692;   14.781;  -12.480;  716.800
1086.236;   12.959;  -13.020;  503.140
1086.780;   15.616;   -9.190;  751.440
1087.325;   14.448;  -12.480;  654.620
1087.869;   13.643;  -12.450;  610.700
1088.413;   14.335;  -12.240;  705.040
1088.957;   12.969;   -9.020;  543.400
1089.501;   14.581;  -10.320;  766.640
1090.045;   13.399;  -12.720;  726.480
1090.589;   11.642;  -13.690;  569.920
1091.133;   13.303;  -10.020;  673.340
1091.676;   13.095;  -12.330;  591.940
1092.220;   12.397;  -14.970;  600.920
1092.764;   13.091;  -12.430;  706.960
1093.307;   12.921;   -9.800;  673.780
1093.851;   11.821;  -14.970;  556.540
1094.395;   12.372;  -15.310;  683.140
1094.938;   11.997;  -10.370;  632.520
1095.482;   12.304;  -11.050;  559.800
1096.025;   13.101;  -11.840;  710.880
1096.568;   12.183;  -12.840;  779.280
1097.112;   10.268;  -14.700;  508.180
1097.655;   12.772;   -8.720;  603.000
1098.198;   10.112;  -13.610;  600.180
1098.741;   10.328;  -13.350;  612.860
1099.285;   11.927;  -11.230;  657.300
1099.828;    9.818;  -11.840;  439.400
1100.371;   11.031;  -10.840;  608.160
1100.914;   10.955;  -14.190;  682.660
1101.457;   10.778;  -11.240;  679.900
1101.999;    9.828;  -11.270;  584.680
1102.542;   10.979;  -11.480;  641.440
1103.085;   10.038;  -11.750;  658.500
1103.628;   11.690;  -11.400;  762.060
1104.170;   10.713;  -10.490;  588.280
1104.713;   10.264;  -10.600;  646.700
1105.256;    9.074;  -14.360;  557.440
1105.798;    8.988;  -13.210;  499.980
1106.341;   11.689;  -10.270;  728.900
1106.883;    9.294;  -12.200;  521.340
1107.425;    9.879;  -13.110;  668.180
1107.968;    9.513;  -12.840;  612.380
1108.510;   10.786;   -6.480;  684.960
1109.052;    8.202;  -13.940;  612.620
1109.594;    8.475;  -13.690;  554.440
1110.136;    9.635;  -11.880;  643.220
1110.679;    8.976;   -9.500;  633.080
1111.221;    9.673;  -14.160;  604.460
1111.763;    7.568;  -13.980;  559.220
1112.304;    8.097;  -13.880;  547.140
1112.846;    9.572;  -12.210;  666.240
1113.388;   11.746;  -11.390;  942.180
1113.930;    7.699;  -14.540;  694.200
1114.472;    8.468;  -12.640;  606.540
1115.013;    7.022;  -11.620;  551.280
1115.555;    7.120;  -13.640;  587.100
1116.097;    6.498;  -15.380;  579.480
1116.638;    7.786;  -12.640;  684.600
1117.180;    8.582;   -9.850;  667.740
1117.721;    7.017;  -13.690;  568.580
1118.262;    7.417;  -12.680;  677.960
1118.804;    7.648;  -12.530;  637.340
1119.345;    7.335;  -11.690;  578.400
1119.886;    8.324;  -13.380;  704.040
1120.427;    5.818;  -14.070;  589.020
1120.969;    5.821;  -13.500;  597.920
1121.510;    6.908;  -11.480;  563.060
1122.051;    7.257;  -12.830;  723.580
1122.592;    5.604;  -14.290;  655.420
1123.133;    4.928;  -12.400;  547.940
1123.673;    7.299;  -10.130;  706.480
1124.214;    5.885;  -12.930;  612.460
1124.755;    6.955;  -14.380;  639.460
1125.296;    6.028;  -14.000;  627.320
1125.836;    7.716;  -10.070;  691.500
1126.377;    6.056;  -12.640;  599.660
1126.918;    5.844;  -12.960;  614.980
1127.458;    5.579;  -13.350;  622.220
1127.999;    6.732;  -10.750;  656.980
1128.539;    6.106;  -12.350;  694.240
1129.079;    4.082;  -14.860;  632.720
1129.620;    4.707;  -13.840;  558.100
1130.160;    5.239;  -12.330;  539.480
1130.700;    5.298;  -14.530;  640.840
1131.240;    5.570;  -12.530;  643.700
1131.781;    4.981;  -14.450;  619.680
1132.321;    5.578;   -9.790;  599.120
1132.861;    4.092;  -14.860;  564.200
1133.401;    3.862;  -14.290;  593.940
1133.941;    4.975;  -11.750;  626.280
1134.481;    4.231;   -9.920;  597.580
1135.020;    3.842;  -12.290;  609.160
1135.560;    4.066;  -11.650;  674.940
1136.100;    3.621;  -16.270;  501.160
1136.640;    3.705;  -10.890;  510.480
1137.179;    3.821;  -14.180;  537.960
1137.719;    3.177;  -16.250;  605.400
1138.258;    4.017;  -14.230;  587.360
1138.798;    4.762;   -9.090;  663.780
1139.337;    2.947;  -15.130;  482.840
1139.877;    3.598;  -13.680;  642.360
1140.416;    6.000;  -11.320;  878.060
1140.955;    3.835;  -10.860;  535.380
1141.494;    3.869;  -12.920;  669.280
1142.034;    1.871;  -13.930;  583.520
1142.573;    3.696;  -11.440;  646.280
1143.112;    2.597;  -12.000;  553.480
1143.651;    3.262;  -13.670;  536.480
1144.190;    3.812;  -12.730;  691.640
1144.729;    2.984;  -14.560;  607.420
1145.267;    3.475;  -11.830;  584.900
1145.806;    3.639;  -12.230;  637.040
1146.345;    2.697;  -14.130;  635.020
1146.884;    2.236;  -11.590;  622.500
1147.422;    2.751;  -12.550;  533.060
1147.961;    4.108;  -11.180;  708.460
1148.500;    3.499;  -11.510;  669.720
1149.038;    2.877;  -11.640;  632.500
1149.577;    2.528;  -10.130;  698.640
1150.115;    1.314;  -13.970;  452.280
1150.653;    2.173;  -14.520;  607.340
1151.192;    2.596;  -12.810;  552.920
1151.730;    2.361;   -9.100;  652.560
1152.268;    1.868;  -12.220;  589.520
1152.806;    1.534;  -14.140;  571.180
1153.344;    0.561;  -12.350;  577.640
1153.882;    2.345;   -8.980;  600.060
1154.421;    0.305;  -15.190;  470.620
1154.958;    0.426;  -15.210;  595.240
1155.496;    2.565;  -12.850;  645.280
1156.034;    2.136;   -9.940;  721.880
1156.572;    2.871;  -13.570;  667.060
1157.110;   -0.251;  -14.590;  473.940
1157.647;    2.379;  -13.030;  676.960
1158.185;    1.777;  -12.140;  564.320
1158.723;    0.289;  -14.390;  509.200
1159.260;    0.672;  -14.090;  701.700
1159.798;    1.743;  -11.920;  658.160
1160.335;    1.389;  -11.110;  631.820

