gmr_left
Integration time [ms]: 412.139
Averaging Nr. [scans]: 50
Smoothing Nr. [pixels]: 0
Data measured with spectrometer [name]: 7414430SP
Wave   ;Sample   ;Dark     ;Reference
[nm]   ;[counts] ;[counts] ;[counts] 

288.544;  805.708;  556.129;  793.890
289.143;  698.328;  473.960;  681.602
289.742;  849.513;  630.955;  828.814
290.341;  805.758;  604.742;  789.841
290.940;  752.545;  520.634;  730.702
291.538;  894.417;  695.774;  881.108
292.137;  802.950;  626.824;  792.581
292.736;  992.878;  804.742;  975.101
293.335;  753.605;  547.569;  735.086
293.934;  801.010;  583.590;  781.677
294.532; 1053.896;  863.618; 1031.958
295.131;  853.963;  636.289;  834.394
295.730;  823.653;  641.311;  809.588
296.328;  798.679;  623.281;  783.442
296.927;  794.092;  603.233;  779.652
297.525;  798.068;  623.290;  781.236
298.124;  663.075;  481.013;  654.009
298.722;  775.009;  604.206;  761.933
299.321;  717.849;  559.141;  708.597
299.919;  765.582;  553.073;  751.918
300.518;  700.430;  530.992;  689.338
301.116;  702.418;  544.144;  691.381
301.715;  735.633;  611.240;  730.222
302.313;  716.449;  557.199;  704.943
302.911;  749.248;  609.932;  733.830
303.509;  941.538;  789.202;  925.627
304.108;  770.432;  611.213;  760.383
304.706;  809.954;  611.227;  801.664
305.304;  811.370;  619.998;  796.707
305.902;  796.297;  618.241;  784.484
306.500;  734.013;  594.129;  728.200
307.098;  762.250;  623.102;  746.560
307.696;  795.845;  633.042;  780.432
308.294;  737.567;  589.101;  731.359
308.892;  775.643;  600.217;  759.769
309.490;  720.006;  586.062;  712.161
310.088;  795.721;  644.982;  788.444
310.686;  832.377;  684.176;  821.749
311.284;  779.083;  668.048;  766.040
311.882;  735.863;  620.983;  731.225
312.480;  710.218;  581.903;  697.167
313.078;  823.917;  681.987;  808.331
313.675;  696.073;  565.129;  691.600
314.273;  811.235;  652.896;  797.837
314.871;  595.726;  479.945;  589.829
315.468;  661.408;  535.932;  652.090
316.066;  702.806;  572.120;  694.427
316.664;  665.084;  535.892;  656.351
317.261;  916.813;  792.012;  910.128
317.859;  782.520;  642.949;  768.735
318.456;  836.877;  727.072;  830.096
319.054;  792.329;  678.972;  787.828
319.651;  765.516;  687.026;  759.928
320.249;  820.796;  705.026;  810.188
320.846;  714.718;  625.079;  714.286
321.443;  837.649;  725.030;  832.135
322.041;  811.565;  720.990;  812.315
322.638;  710.791;  609.018;  701.456
323.235;  672.769;  590.199;  665.683
323.833;  742.842;  654.125;  740.354
324.430;  619.626;  500.075;  615.900
325.027;  885.324;  786.126;  876.855
325.624;  652.919;  552.287;  644.532
326.221;  693.381;  576.223;  689.717
326.818;  833.858;  694.137;  818.332
327.415;  756.479;  657.339;  748.828
328.012;  700.975;  552.364;  690.585
328.609;  734.655;  599.299;  731.389
329.206;  791.370;  659.239;  778.621
329.803;  749.007;  638.212;  737.841
330.400;  710.937;  574.306;  704.260
330.997;  829.181;  681.229;  817.147
331.594;  800.592;  641.038;  788.185
332.191;  740.769;  565.212;  728.722
332.787;  850.562;  722.145;  844.463
333.384;  771.375;  623.948;  763.093
333.981;  816.774;  655.739;  815.687
334.578;  718.028;  555.815;  708.378
335.174;  731.528;  561.809;  731.469
335.771;  843.502;  669.664;  836.456
336.367;  721.855;  540.538;  710.631
336.964;  806.519;  648.630;  793.266
337.561;  745.204;  610.580;  731.112
338.157;  917.022;  777.365;  911.916
338.754;  806.560;  639.292;  796.589
339.350;  726.412;  573.322;  722.493
339.946;  774.552;  597.446;  773.135
340.543;  850.654;  714.147;  846.136
341.139;  722.316;  573.024;  720.836
341.735;  779.326;  621.995;  772.593
342.332;  698.633;  559.049;  691.472
342.928;  797.061;  679.091;  795.394
343.524;  772.305;  653.975;  761.684
344.120;  748.598;  598.947;  738.562
344.716;  729.536;  620.148;  723.717
345.313;  806.265;  676.138;  795.342
345.909;  628.728;  500.106;  627.336
346.505;  750.783;  634.209;  740.247
347.101;  831.385;  710.261;  827.864
347.697;  794.763;  683.339;  785.398
348.293;  629.622;  495.247;  627.244
348.889;  747.308;  619.282;  745.914
349.485;  689.216;  606.330;  688.205
350.081;  777.573;  640.348;  772.592
350.676;  695.684;  558.222;  691.606
351.272;  816.177;  716.415;  809.530
351.868;  776.420;  650.474;  780.497
352.464;  732.679;  630.403;  723.932
353.059;  660.758;  537.311;  646.017
353.655;  785.847;  684.438;  777.063
354.251;  775.541;  661.520;  759.845
354.846;  745.139;  610.344;  740.646
355.442;  758.655;  612.226;  753.071
356.038;  761.807;  635.373;  751.708
356.633;  738.041;  601.390;  728.594
357.229;  734.201;  605.338;  724.757
357.824;  714.579;  610.286;  703.600
358.420;  682.713;  535.303;  679.726
359.015;  694.402;  602.351;  695.357
359.610;  774.114;  643.395;  763.920
360.206;  615.890;  523.217;  603.240
360.801;  650.575;  522.356;  646.503
361.396;  735.172;  656.446;  725.975
361.992;  676.659;  552.286;  668.220
362.587;  673.027;  528.190;  670.160
363.182;  692.901;  598.280;  689.631
363.777;  744.570;  656.328;  738.242
364.372;  747.491;  627.309;  737.314
364.967;  693.096;  571.193;  680.744
365.563;  822.147;  665.386;  815.567
366.158;  692.630;  616.341;  685.161
366.753;  657.201;  539.397;  649.263
367.348;  750.772;  594.283;  746.056
367.942;  698.923;  606.339;  697.298
368.537;  758.067;  641.262;  754.245
369.132;  709.098;  599.305;  703.428
369.727;  639.224;  506.177;  638.079
370.322;  592.047;  504.249;  580.186
370.917;  715.124;  616.222;  710.646
371.511;  873.808;  771.295;  861.834
372.106;  779.436;  686.193;  776.964
372.701;  593.636;  500.141;  585.988
373.296;  865.154;  781.323;  863.135
373.890;  649.227;  529.190;  647.840
374.485;  701.995;  602.108;  691.199
375.079;  747.490;  642.289;  738.685
375.674;  810.182;  691.306;  812.970
376.268;  700.305;  579.190;  691.759
376.863;  584.555;  496.991;  580.327
377.457;  665.836;  578.252;  662.490
378.052;  761.010;  716.152;  764.884
378.646;  744.437;  652.155;  741.167
379.240;  723.651;  622.133;  721.176
379.835;  651.548;  609.230;  636.978
380.429;  571.643;  498.202;  562.557
381.023;  786.646;  699.112;  779.205
381.617;  682.302;  595.072;  680.106
382.212;  686.660;  592.234;  685.303
382.806;  766.616;  677.252;  760.690
383.400;  679.320;  608.123;  672.281
383.994;  667.795;  626.102;  664.870
384.588;  704.178;  648.259;  697.701
385.182;  733.660;  635.370;  726.624
385.776;  715.871;  629.296;  706.875
386.370;  686.459;  611.168;  681.968
386.964;  686.465;  594.255;  684.155
387.558;  604.188;  527.354;  598.360
388.152;  677.267;  610.204;  681.959
388.745;  818.766;  739.223;  814.707
389.339;  754.907;  660.314;  747.642
389.933;  692.051;  614.374;  695.370
390.527;  863.197;  788.278;  859.029
391.120;  596.513;  558.108;  595.318
391.714;  712.157;  636.226;  711.633
392.308;  784.372;  705.335;  780.253
392.901;  650.493;  564.231;  642.460
393.495;  601.070;  531.159;  595.414
394.089;  766.152;  720.198;  760.452
394.682;  702.405;  639.196;  697.188
395.275;  723.683;  651.195;  719.927
395.869;  673.670;  619.146;  667.314
396.462;  624.350;  566.224;  616.609
397.056;  779.431;  727.354;  776.621
397.649;  733.672;  664.160;  731.575
398.242;  717.868;  626.275;  712.645
398.836;  764.380;  710.318;  766.408
399.429;  629.765;  586.313;  631.041
400.022;  667.865;  592.151;  665.902
400.615;  805.908;  755.210;  805.609
401.208;  687.528;  652.334;  691.451
401.802;  700.411;  640.237;  699.329
402.395;  687.265;  634.151;  683.502
402.988;  693.891;  649.114;  696.627
403.581;  642.335;  614.284;  646.878
404.174;  682.630;  635.386;  686.568
404.767;  640.157;  607.220;  638.583
405.360;  616.549;  584.139;  621.445
405.953;  754.114;  727.336;  759.034
406.545;  726.896;  670.382;  725.342
407.138;  613.612;  552.225;  618.350
407.731;  613.823;  566.261;  613.303
408.324;  660.390;  649.458;  660.554
408.917;  682.820;  662.370;  681.864
409.509;  742.530;  708.269;  740.396
410.102;  642.662;  609.182;  643.948
410.695;  667.462;  622.475;  665.758
411.287;  598.143;  565.436;  599.821
411.880;  592.479;  552.409;  585.421
412.472;  609.961;  579.266;  613.092
413.065;  631.364;  611.346;  629.408
413.657;  577.485;  536.502;  576.678
414.250;  651.169;  627.490;  646.681
414.842;  677.238;  645.376;  676.353
415.434;  575.291;  512.478;  570.463
416.027;  646.082;  616.651;  652.196
416.619;  715.730;  655.504;  713.400
417.211;  598.852;  552.498;  599.352
417.804;  620.472;  571.680;  628.499
418.396;  611.574;  599.492;  607.643
418.988;  660.634;  609.570;  659.238
419.580;  565.574;  524.446;  568.276
420.172;  539.750;  493.569;  536.196
420.764;  673.236;  660.681;  672.482
421.356;  637.063;  622.638;  636.898
421.948;  675.638;  647.558;  677.661
422.540;  676.239;  647.767;  680.027
423.132;  600.829;  569.776;  600.641
423.724;  560.818;  533.617;  561.267
424.316;  617.002;  568.670;  621.345
424.908;  593.149;  572.842;  591.517
425.500;  650.171;  620.842;  647.978
426.092;  647.311;  591.849;  648.268
426.683;  694.014;  661.746;  684.836
427.275;  647.667;  613.919;  641.471
427.867;  667.924;  647.944;  668.948
428.458;  734.937;  681.942;  732.344
429.050;  686.594;  598.850;  680.749
429.642;  745.754;  707.928;  743.124
430.233;  561.665;  513.977;  569.356
430.825;  732.089;  714.959;  724.809
431.416;  695.518;  657.844;  698.241
432.008;  654.144;  613.009;  651.723
432.599;  653.867;  627.043;  656.073
433.190;  641.799;  635.877;  637.670
433.782;  590.330;  552.881;  590.395
434.373;  883.538;  824.092;  884.765
434.964;  604.590;  520.102;  602.920
435.556;  631.865;  602.964;  634.537
436.147;  756.698;  727.013;  758.490
436.738;  700.178;  648.033;  701.099
437.329;  720.512;  683.226;  721.723
437.920;  663.340;  612.904;  666.688
438.511;  566.239;  476.929;  564.526
439.103;  617.598;  587.196;  623.998
439.694;  681.775;  625.240;  681.583
440.285;  760.766;  725.192;  764.432
440.876;  844.345;  782.101;  845.738
441.466;  576.720;  526.144;  575.162
442.057;  669.110;  583.343;  665.814
442.648;  749.713;  714.194;  746.255
443.239;  619.766;  550.127;  620.477
443.830;  707.773;  658.305;  704.958
444.421;  656.638;  628.398;  655.474
445.011;  687.297;  645.169;  693.619
445.602;  746.207;  670.147;  743.126
446.193;  488.034;  420.331;  488.117
446.783;  639.572;  594.467;  640.397
447.374;  686.240;  653.196;  692.759
447.964;  718.802;  642.191;  713.770
448.555;  817.846;  744.485;  822.742
449.145;  663.810;  605.356;  662.853
449.736;  800.655;  722.305;  803.179
450.326;  720.151;  646.311;  713.626
450.917;  674.434;  584.513;  675.324
451.507;  606.744;  555.484;  600.661
452.097;  749.626;  658.420;  746.267
452.688;  739.518;  686.456;  742.160
453.278;  563.922;  478.483;  566.840
453.868;  802.234;  743.585;  793.550
454.458;  655.361;  581.470;  651.141
455.048;  709.962;  608.444;  711.783
455.639;  572.768;  486.589;  567.096
456.229;  709.150;  634.642;  710.694
456.819;  750.799;  675.645;  751.158
457.409;  774.344;  692.614;  773.993
457.999;  740.444;  673.718;  737.505
458.589;  683.803;  614.705;  686.606
459.179;  723.142;  646.672;  717.658
459.769;  631.055;  541.591;  627.099
460.358;  793.720;  713.743;  797.262
460.948;  691.720;  616.730;  689.503
461.538;  666.332;  564.753;  660.677
462.128;  660.490;  586.642;  664.934
462.717;  707.731;  598.922;  710.326
463.307;  711.921;  600.990;  705.846
463.897;  653.383;  563.770;  656.942
464.486;  842.535;  723.611;  837.128
465.076;  735.862;  650.848;  733.776
465.666;  654.213;  545.014;  652.900
466.255;  789.447;  715.804;  785.651
466.845;  670.519;  567.775;  666.749
467.434;  730.478;  641.859;  725.873
468.023;  664.093;  540.916;  658.357
468.613;  715.843;  627.705;  713.946
469.202;  649.930;  525.896;  646.507
469.791;  737.795;  626.008;  737.811
470.381;  744.080;  661.022;  742.813
470.970;  713.848;  589.999;  711.099
471.559;  738.743;  623.926;  733.291
472.148;  674.692;  533.052;  675.737
472.738;  766.175;  651.086;  765.466
473.327;  636.137;  510.060;  637.529
473.916;  742.437;  572.950;  737.446
474.505;  755.952;  636.111;  751.703
475.094;  811.034;  694.183;  806.570
475.683;  799.263;  669.108;  797.699
476.272;  730.167;  595.090;  730.632
476.861;  711.026;  580.200;  706.754
477.449;  732.138;  596.399;  728.487
478.038;  687.649;  557.090;  692.513
478.627;  713.263;  606.063;  714.852
479.216;  773.112;  627.300;  769.441
479.805;  778.750;  620.364;  783.375
480.393; 1012.689;  828.208; 1008.945
480.982;  878.911;  686.137;  874.501
481.571;  863.328;  707.377;  858.333
482.159;  705.555;  535.385;  705.386
482.748;  829.255;  664.262;  821.385
483.336;  861.673;  674.333;  858.209
483.925;  778.694;  611.281;  774.373
484.513;  761.705;  609.518;  758.962
485.102;  812.475;  635.248;  810.965
485.690; 1017.934;  838.469; 1011.050
486.278;  985.172;  769.469;  979.329
486.867;  807.273;  615.437;  809.662
487.455;  900.759;  720.374;  898.229
488.043;  748.201;  535.368;  748.361
488.631; 1007.841;  783.530; 1005.079
489.220;  914.237;  664.562;  908.626
489.808;  745.617;  505.418;  741.415
490.396;  924.203;  674.466;  914.645
490.984;  829.056;  549.464;  830.161
491.572;  949.472;  689.527;  940.315
492.160;  924.521;  652.368;  919.081
492.748;  887.061;  574.355;  884.341
493.336; 1023.147;  697.526; 1019.693
493.924;  963.046;  614.610;  958.077
494.512; 1062.507;  664.448; 1066.638
495.100; 1097.239;  668.367; 1103.280
495.687; 1196.056;  685.594; 1206.373
496.275; 1133.857;  574.555; 1150.796
496.863; 1257.047;  607.402; 1281.171
497.451; 1369.913;  554.385; 1386.805
498.038; 1546.953;  602.632; 1556.729
498.626; 1692.986;  622.603; 1741.407
499.214; 1984.252;  631.469; 2016.609
499.801; 2189.372;  611.417; 2220.633
500.389; 2301.136;  493.581; 2312.494
500.976; 2707.624;  689.564; 2744.849
501.564; 3057.416;  635.412; 3148.565
502.151; 3353.459;  431.380; 3515.999
502.738; 3782.429;  553.526; 3971.274
503.326; 4214.469;  598.637; 4403.796
503.913; 4949.878;  610.510; 5161.749
504.500; 5752.491;  659.436; 5986.420
505.088; 6230.593;  541.450; 6381.201
505.675; 6936.349;  600.630; 6925.547
506.262; 7876.242;  615.381; 7619.060
506.849; 9128.455;  601.496; 8733.969
507.436;10434.114;  701.600; 9790.121
508.023;10709.951;  598.579; 9985.472
508.610;11213.195;  668.502;10434.618
509.197;12107.318;  657.295;11198.435
509.784;13157.105;  616.486;12391.194
510.371;14157.086;  496.662;13603.713
510.958;14878.398;  591.412;14426.586
511.545;15631.242;  714.459;15243.775
512.132;15940.626;  606.623;15945.876
512.719;16402.158;  562.510;16340.369
513.305;18344.039;  572.439;18011.766
513.892;20122.379;  693.347;19754.971
514.479;20713.377;  603.562;20967.805
515.066;21160.707;  709.539;22299.793
515.652;20813.822;  631.531;22908.660
516.239;21603.965;  654.473;23798.875
516.825;24113.029;  522.513;25567.275
517.412;27927.926;  781.571;28154.959
517.998;29534.131;  588.429;28344.111
518.585;28464.660;  565.380;27134.219
519.171;28602.666;  611.610;27268.576
519.758;30979.447;  499.565;28964.129
520.344;32423.906;  674.486;30664.494
520.930;33817.148;  526.330;32550.605
521.516;36946.141;  658.608;35422.895
522.103;40223.406;  739.518;38280.004
522.689;39785.156;  577.366;37835.117
523.275;37885.832;  707.404;37288.613
523.861;38374.172;  613.501;37281.395
524.447;39884.953;  697.606;37846.949
525.033;39789.086;  689.415;38321.949
525.619;39829.348;  550.357;38579.285
526.205;41381.734;  541.417;40622.875
526.791;42639.496;  624.554;42258.836
527.377;43565.148;  566.370;42966.902
527.963;42825.488;  642.292;42018.949
528.549;43800.891;  629.358;42476.828
529.135;44271.059;  566.445;41854.852
529.721;43650.953;  596.430;41237.711
530.306;43039.754;  869.358;41259.445
530.892;44336.680;  569.426;41506.047
531.478;46358.961;  556.485;43559.613
532.063;48179.504;  525.382;47695.563
532.649;50701.012;  756.260;50808.324
533.235;53021.926;  564.395;51787.500
533.820;53528.156;  682.568;52145.035
534.406;52669.805;  574.265;51133.488
534.991;51530.449;  534.371;49996.805
535.576;49871.695;  620.431;48882.852
536.162;48484.023;  834.453;46942.285
536.747;47439.973;  505.248;45711.746
537.333;50390.570;  547.259;48510.180
537.918;52478.434;  629.307;50439.891
538.503;52488.492;  608.469;50863.711
539.088;52003.922;  639.329;50906.922
539.673;52764.539;  590.302;52621.965
540.259;52500.348;  539.390;52368.094
540.844;51721.406;  520.415;50879.109
541.429;51703.934;  726.229;52077.777
542.014;52212.648;  511.175;52716.695
542.599;53790.039;  629.355;52363.281
543.184;54775.117;  539.243;53187.137
543.769;55401.555;  580.235;54697.605
544.354;53599.977;  583.256;53913.914
544.938;49129.602;  631.303;49680.164
545.523;46459.234;  738.379;47386.277
546.108;48609.602;  595.225;49151.949
546.693;50837.805;  596.134;51384.637
547.278;49596.559;  581.335;51853.254
547.862;47522.867;  617.442;51173.750
548.447;47968.328;  689.201;51691.395
549.031;47817.051;  571.098;52456.703
549.616;47134.926;  628.324;52714.516
550.201;45514.301;  560.283;52414.598
550.785;44411.637;  664.217;52355.059
551.370;45713.082;  518.172;54589.453
551.954;49951.055;  671.209;58267.348
552.538;53664.699;  716.282;59062.176
553.123;56786.008;  548.181;58115.285
553.707;56094.906;  580.044;56556.285
554.291;55222.941;  703.237;56201.668
554.876;53295.777;  687.191;55335.762
555.460;52277.672;  578.111;54155.703
556.044;54133.297;  569.989;53721.484
556.628;55323.480;  604.159;53731.016
557.212;54364.656;  705.320;54312.531
557.796;52930.816;  583.159;53797.773
558.380;54502.641;  629.003;56145.984
558.964;56011.766;  611.252;57277.930
559.548;57320.543;  520.244;56459.641
560.132;56040.629;  588.097;54434.543
560.716;55292.109;  513.012;54800.617
561.300;57526.797;  526.275;57606.945
561.884;58388.961;  661.139;58972.445
562.467;58206.992;  654.020;57327.570
563.051;57675.023;  618.024;54962.434
563.635;54998.563;  580.063;52594.473
564.219;52179.605;  589.142;50610.410
564.802;50662.648;  648.000;49551.180
565.386;50023.719;  619.035;48370.953
565.969;49987.426;  689.226;48178.871
566.553;50501.773;  768.086;49957.305
567.136;50378.000;  695.997;50369.594
567.720;49581.367;  619.934;49492.004
568.303;50392.176;  621.022;50616.352
568.887;51311.332;  646.059;50727.148
569.470;52067.535;  631.891;51698.379
570.053;51994.355;  659.917;52122.078
570.637;53925.563;  558.134;52536.438
571.220;54430.285;  654.148;51186.098
571.803;54744.895;  776.878;51032.762
572.386;52376.176;  555.963;49609.887
572.969;51007.750;  574.046;48285.926
573.552;50085.527;  601.005;47624.285
574.135;47889.895;  536.851;45498.641
574.718;43208.652;  541.968;41970.434
575.301;43179.254;  548.436;41447.137
575.884;43149.852;  554.903;40923.836
576.467;46498.027;  701.934;45267.723
577.050;48490.105;  603.894;48175.543
577.633;49042.355;  781.047;47729.328
578.216;49034.004;  599.913;47579.793
578.799;49871.676;  610.820;47820.996
579.381;50550.383;  766.939;48115.551
579.964;48270.406;  564.044;47333.766
580.547;47446.672;  601.896;46668.969
581.129;46469.762;  725.782;44466.141
581.712;46983.703;  648.744;44164.922
582.294;48538.758;  614.930;46477.855
582.877;49443.430;  769.954;48244.254
583.459;48271.828;  602.752;47437.895
584.042;48596.234;  576.755;46943.219
584.624;48306.270;  565.733;46792.227
585.206;47617.734;  460.910;46557.250
585.789;46402.012;  590.779;45793.773
586.371;44160.211;  626.681;43836.391
586.953;43966.926;  661.790;42972.492
587.536;43988.141;  738.913;42487.211
588.118;43304.820;  617.534;42086.414
588.700;45051.328;  760.707;43389.930
589.282;46132.645;  634.823;43646.039
589.864;45237.801;  610.776;43438.109
590.446;44849.738;  496.651;43151.926
591.028;44755.879;  620.678;42781.867
591.610;45281.355;  483.767;42839.098
592.192;45200.129;  588.824;42820.402
592.774;43027.309;  554.714;40724.277
593.356;41502.273;  581.572;39874.789
593.937;41430.801;  573.801;39980.648
594.519;44114.008;  693.777;42069.633
595.101;45673.301;  541.613;42976.031
595.683;46029.555;  574.578;44084.441
596.264;44864.375;  600.780;43478.797
596.846;44927.918;  584.709;43803.672
597.427;44478.711;  562.532;42986.934
598.009;44958.547;  556.524;42832.219
598.591;44586.582;  644.704;42580.086
599.172;44738.215;  605.676;43061.805
599.753;43915.266;  519.542;41691.469
600.335;42975.121;  678.483;40692.520
600.916;41687.961;  613.581;39982.422
601.498;42121.113;  643.630;40318.617
602.079;43235.652;  598.545;40670.609
602.660;43905.566;  557.510;41450.898
603.241;43645.801;  494.685;41137.738
603.823;42421.617;  564.645;38868.797
604.404;41619.434;  507.500;38182.785
604.985;41923.156;  558.474;38078.047
605.566;42116.379;  668.697;38056.633
606.147;40797.473;  572.428;37020.418
606.728;41052.887;  535.400;37883.359
607.309;41459.809;  545.466;38748.273
607.890;40778.617;  558.599;38850.230
608.471;39145.801;  525.510;37457.918
609.051;38712.813;  627.304;36066.457
609.632;39636.809;  551.330;35991.074
610.213;41399.301;  574.483;37402.641
610.794;41968.766;  594.459;38383.363
611.374;43620.965;  634.432;40562.387
611.955;42546.574;  501.364;38533.727
612.536;42239.602;  617.489;36951.789
613.116;42076.598;  584.462;37197.891
613.697;42357.867;  566.297;38411.125
614.277;42253.949;  554.264;38673.938
614.858;39988.348;  578.472;37075.863
615.438;37395.039;  618.488;35092.906
616.019;36660.773;  727.253;33666.301
616.599;37761.613;  472.337;34189.023
617.179;40508.824;  528.420;36952.047
617.760;43156.832;  798.506;39582.574
618.340;43421.355;  638.221;38943.977
618.920;42338.793;  753.305;37594.156
619.500;42245.039;  575.209;37866.938
620.080;41772.285;  539.308;37869.043
620.660;41503.559;  508.086;36868.617
621.241;42038.480;  556.229;36352.309
621.821;40893.551;  604.278;35459.520
622.401;39816.906;  691.302;35207.414
622.980;40145.820;  533.171;35980.422
623.560;42078.066;  559.244;37351.328
624.140;39687.898;  619.307;34388.582
624.720;37899.301;  641.281;32368.764
625.300;37825.934;  525.299;32638.629
625.880;39236.887;  584.166;34599.035
626.459;40740.066;  585.263;36831.738
627.039;42427.996;  505.195;38299.098
627.619;42616.777;  760.084;38289.574
628.198;41452.160;  678.125;37220.695
628.778;42858.121;  647.281;37632.563
629.357;43061.715;  500.272;38003.012
629.937;42320.789;  552.102;38402.039
630.516;40845.832;  723.116;37868.801
631.096;39173.730;  576.272;35760.410
631.675;38692.176;  727.033;35225.219
632.254;37099.551;  558.972;35130.289
632.834;36615.219;  579.013;35794.570
633.413;36952.883;  723.198;35788.922
633.992;36696.762;  669.022;34532.863
634.571;37032.035;  628.934;33590.113
635.151;39833.500;  536.982;34943.863
635.730;40229.805;  579.185;35352.523
636.309;40018.820;  645.119;35366.605
636.888;40183.512;  654.019;36165.637
637.467;41392.871;  489.940;37515.902
638.046;43828.402;  736.126;39288.695
638.625;43204.277;  689.019;38279.699
639.204;42527.777;  609.910;37741.598
639.782;42073.789;  581.809;38364.551
640.361;40475.027;  694.061;36740.621
640.940;38361.695;  573.067;34950.082
641.519;37821.582;  648.074;34137.398
642.097;38776.852;  614.080;35654.258
642.676;37989.242;  608.086;35637.957
643.255;37931.309;  594.092;36567.074
643.833;39499.316;  674.098;37809.434
644.412;40555.527;  553.104;37337.293
644.990;40387.195;  574.111;37018.531
645.569;39663.582;  661.117;36518.469
646.147;38979.910;  702.123;36186.430
646.726;38032.879;  600.129;36267.688
647.304;38262.230;  556.135;36647.625
647.882;41461.418;  480.142;39286.742
648.461;42193.887;  616.148;39157.703
649.039;38761.953;  654.154;35412.883
649.617;37456.305;  649.160;34744.918
650.195;38246.473;  643.167;35403.098
650.773;38608.379;  587.173;35053.797
651.352;38408.547;  469.179;33756.816
651.930;36456.078;  458.185;31868.773
652.508;37394.285;  676.191;33121.551
653.086;37570.133;  633.198;33564.793
653.663;38222.363;  549.204;34054.668
654.241;40580.430;  508.210;35693.309
654.819;42417.762;  542.216;36422.906
655.397;44064.348;  551.222;38213.484
655.975;44337.156;  596.229;39507.625
656.553;43211.645;  730.235;39498.223
657.130;43611.574;  555.241;40395.480
657.708;43954.961;  642.247;39242.020
658.286;44012.293;  585.253;38920.020
658.863;43918.602;  617.260;40202.898
659.441;42855.289;  612.266;39677.938
660.018;44474.438;  607.272;40413.355
660.596;43858.566;  504.278;39931.414
661.173;42396.574;  566.284;39604.531
661.750;42238.324;  524.291;39700.070
662.328;42191.750;  631.297;39292.809
662.905;40796.641;  561.303;38235.648
663.482;39913.707;  583.309;36212.305
664.060;39509.035;  542.315;35944.945
664.637;38353.344;  635.322;35170.785
665.214;36804.113;  617.328;34197.523
665.791;37512.344;  606.334;34549.520
666.368;37224.391;  549.340;35118.578
666.945;37210.840;  666.346;36019.418
667.522;36921.027;  545.353;36048.438
668.099;37655.258;  572.359;36243.914
668.676;39243.023;  606.365;35958.875
669.253;40810.535;  738.371;37384.730
669.830;39831.422;  714.377;36779.629
670.407;37838.352;  588.384;35231.289
670.984;38360.418;  625.390;35544.270
671.560;37536.508;  652.396;35466.867
672.137;36289.996;  576.402;34280.863
672.714;36798.844;  612.408;34632.863
673.290;37434.332;  631.415;35135.422
673.867;37354.441;  548.421;36114.480
674.443;36862.230;  509.427;36152.859
675.020;36564.320;  617.433;35327.238
675.596;38086.109;  609.439;35795.176
676.173;39225.738;  529.446;35430.355
676.749;37884.066;  443.452;33549.516
677.326;35809.992;  492.458;32210.012
677.902;35700.441;  520.464;32068.871
678.478;36244.090;  562.470;32583.891
679.054;35728.938;  888.477;32088.928
679.631;35146.727;  613.483;30978.848
680.207;37616.117;  777.489;33160.887
680.783;39187.805;  503.495;35570.363
681.359;38376.875;  594.501;36125.184
681.935;37810.461;  605.508;35240.922
682.511;37224.871;  644.514;34429.961
683.087;36609.258;  640.520;34463.680
683.663;36525.207;  533.526;34648.898
684.239;36776.957;  528.532;34546.457
684.815;38744.664;  662.539;35586.375
685.390;39001.473;  747.545;35821.895
685.966;38027.141;  601.551;35085.871
686.542;37420.148;  514.557;34198.230
687.118;36247.758;  611.563;32847.707
687.693;36107.707;  628.570;32794.027
688.269;35810.695;  575.576;33072.367
688.844;36305.766;  650.582;33141.664
689.420;37747.234;  604.588;33965.742
689.995;37994.121;  711.594;34655.523
690.571;36492.891;  699.601;33576.742
691.146;35109.840;  567.607;32657.219
691.722;34960.586;  610.613;32526.979
692.297;35474.754;  591.619;33014.617
692.872;36593.844;  533.625;34012.254
693.448;37630.871;  513.632;34237.434
694.023;37764.301;  633.638;34142.672
694.598;37836.969;  610.644;34132.031
695.173;37615.957;  545.650;34205.250
695.748;34846.426;  464.656;32882.488
696.323;33462.977;  594.663;32864.906
696.898;33797.863;  690.669;33170.004
697.473;34104.973;  476.675;32432.984
698.048;33700.422;  560.681;31649.303
698.623;33547.648;  515.687;30778.141
699.198;34639.059;  590.694;31140.119
699.773;35430.566;  522.700;31764.299
700.348;35620.195;  527.706;31780.816
700.922;36096.445;  623.712;32046.375
701.497;36704.574;  571.718;32603.574
702.072;37744.961;  638.725;34799.871
702.646;38671.250;  642.731;35793.172
703.221;38873.457;  635.737;35201.590
703.795;39099.488;  513.743;34764.527
704.370;37864.977;  403.749;34307.367
704.944;36689.605;  566.756;33509.887
705.519;34926.531;  632.762;31388.584
706.093;35403.801;  545.768;31340.104
706.668;36228.930;  664.774;32630.281
707.242;35514.938;  641.780;32728.779
707.816;35175.445;  606.787;32947.238
708.390;35174.234;  583.793;33277.855
708.965;36017.465;  606.799;33834.336
709.539;36088.113;  585.805;33709.273
710.113;35615.859;  622.811;33044.313
710.687;34657.988;  660.818;31953.992
711.261;32905.398;  503.824;30505.949
711.835;32907.168;  532.830;30262.369
712.409;33895.496;  492.836;31254.447
712.983;35144.324;  462.842;32754.986
713.557;35683.871;  495.849;34018.824
714.131;36007.359;  567.855;34579.625
714.704;34394.910;  539.861;33890.262
715.278;33933.578;  615.867;33531.102
715.852;34080.805;  646.873;33601.660
716.425;34178.195;  745.880;33515.117
716.999;33671.785;  483.886;33185.555
717.573;34379.152;  643.892;33905.996
718.146;36825.039;  735.898;35199.293
718.720;38045.250;  592.904;35060.551
719.293;37488.457;  640.911;34973.230
719.867;38314.086;  559.917;36394.449
720.440;38636.594;  701.923;36663.008
721.013;37433.004;  561.929;35102.426
721.587;37731.133;  497.935;33985.266
722.160;38416.422;  641.942;33524.965
722.733;37353.328;  595.948;32987.043
723.306;36730.020;  604.954;33066.301
723.880;37215.086;  600.960;33399.500
724.453;37942.254;  676.966;33468.297
725.026;39103.762;  562.973;33816.637
725.599;36751.492;  595.979;32797.996
726.172;36435.621;  629.985;33187.434
726.745;38337.488;  617.991;35136.613
727.318;38538.359;  671.997;35751.730
727.891;38424.105;  583.004;35890.430
728.463;37458.355;  600.010;34822.090
729.036;35658.145;  533.016;32895.086
729.609;34922.051;  503.022;31823.225
730.182;34051.059;  632.028;31445.283
730.754;34406.070;  441.035;32373.223
731.327;35541.758;  626.041;33676.820
731.900;35687.867;  498.047;33417.000
732.472;34575.953;  591.053;31978.498
733.045;33667.723;  564.059;30368.777
733.617;34038.113;  484.066;30574.215
734.190;34624.879;  613.072;31280.975
734.762;34911.527;  591.078;31674.412
735.334;33941.539;  613.084;31247.291
735.907;32715.285;  612.090;29876.211
736.479;33060.453;  640.097;29808.488
737.051;33997.305;  622.103;30233.547
737.623;35771.672;  641.109;31469.086
738.195;36278.121;  570.115;31784.225
738.768;36218.188;  432.121;32120.523
739.340;35564.059;  538.128;32094.342
739.912;34270.426;  651.134;31312.680
740.484;34387.676;  618.140;31946.238
741.056;35759.523;  561.146;32984.059
741.628;36691.910;  538.152;33897.715
742.199;35602.180;  683.159;33213.016
742.771;33259.410;  495.165;31369.113
743.343;33683.176;  523.171;31865.473
743.915;34276.906;  622.177;32388.631
744.487;32907.992;  661.183;31079.568
745.058;32623.982;  633.190;30570.107
745.630;31664.092;  653.196;29970.127
746.201;31528.160;  525.202;29186.766
746.773;31610.949;  621.208;28805.723
747.344;31475.098;  596.214;29591.223
747.916;32762.586;  614.221;31412.201
748.487;33525.754;  650.227;32194.898
749.059;33603.422;  528.233;32533.719
749.630;33229.652;  572.239;32158.518
750.201;31911.340;  606.245;30855.395
750.773;29921.088;  513.252;28622.555
751.344;30098.537;  601.258;28405.732
751.915;30086.305;  584.264;28461.551
752.486;30023.814;  538.270;27842.850
753.057;30706.742;  613.276;27845.008
753.628;30001.672;  552.283;27728.107
754.199;28187.920;  542.289;27381.086
754.770;26830.129;  614.295;25882.203
755.341;27831.977;  649.301;25886.184
755.912;27985.225;  610.307;26050.861
756.483;28199.314;  630.314;26798.779
757.054;28309.521;  549.320;27048.238
757.625;27859.531;  521.326;26294.838
758.195;27723.059;  512.332;26142.076
758.766;27686.389;  611.338;26392.234
759.337;27712.697;  511.345;26334.594
759.907;28943.965;  494.351;27579.652
760.478;29246.053;  532.357;28352.770
761.048;28075.463;  644.363;27325.088
761.619;27732.371;  619.369;26460.428
762.189;27879.979;  577.376;26029.826
762.760;28388.287;  659.382;26430.145
763.330;27710.596;  638.388;26670.902
763.900;26834.885;  594.394;26603.021
764.471;25656.434;  537.400;25542.740
765.041;24874.102;  692.407;24358.459
765.611;24499.090;  647.413;23991.297
766.181;24621.318;  563.419;24470.236
766.751;24718.568;  583.425;24845.975
767.321;24085.436;  540.431;24533.633
767.891;24785.186;  598.438;24916.492
768.461;25086.414;  579.444;24776.771
769.031;24388.563;  571.450;24757.988
769.601;24045.430;  671.456;24181.088
770.171;23763.619;  508.462;23670.387
770.741;23895.887;  585.469;22960.045
771.311;24514.957;  633.475;22917.523
771.880;24494.525;  553.481;23562.941
772.450;24755.414;  529.487;24216.500
773.020;24902.041;  492.493;24140.398
773.589;25335.891;  552.500;24414.857
774.159;24744.119;  562.506;23858.717
774.729;23378.387;  574.512;22942.135
775.298;21687.436;  544.518;22324.033
775.867;20149.584;  550.524;21140.313
776.437;19804.373;  604.531;20838.092
777.006;20156.082;  497.537;20599.510
777.576;20990.949;  637.543;20508.809
778.145;21035.238;  614.549;20732.947
778.714;20561.947;  617.555;21062.465
779.283;20583.756;  636.562;20949.664
779.853;21195.305;  572.568;20508.623
780.422;21509.773;  598.574;20649.082
780.991;22731.541;  599.580;21527.520
781.560;23505.570;  712.586;22632.658
782.129;23287.158;  614.593;23048.277
782.698;22887.668;  640.599;23438.555
783.267;22762.896;  553.605;23267.734
783.836;22372.885;  641.611;22415.133
784.404;21423.172;  506.617;20443.152
784.973;21613.742;  447.624;19699.150
785.542;21241.369;  566.630;19763.828
786.111;21369.758;  682.636;20341.408
786.679;21033.646;  600.642;20207.967
787.248;20751.676;  501.648;19516.465
787.817;20504.625;  559.655;18900.363
788.385;19852.773;  651.661;17879.121
788.954;19170.762;  469.667;17658.301
789.522;18647.650;  642.673;17788.879
790.090;18750.959;  528.679;18118.277
790.659;19288.607;  557.686;18338.736
791.227;18942.756;  575.692;18508.615
791.795;18469.004;  622.698;17898.254
792.364;17756.613;  521.704;17295.133
792.932;17175.480;  636.710;16822.051
793.500;17006.070;  536.717;17040.148
794.068;17240.299;  479.723;17179.787
794.636;17097.887;  523.729;16664.246
795.204;17004.455;  488.735;16524.545
795.772;17451.484;  522.741;17274.564
796.340;17922.672;  552.748;17891.002
796.908;18317.961;  505.754;17648.561
797.476;17625.930;  505.760;17064.080
798.044;16808.037;  480.766;16672.777
798.612;16815.447;  575.772;17023.996
799.180;16504.715;  596.779;16561.615
799.747;16138.704;  604.785;15962.773
800.315;16134.772;  510.791;15296.992
800.883;15978.341;  460.797;14801.771
801.450;15948.930;  615.803;14534.430
802.018;15844.738;  630.810;14173.248
802.585;15547.206;  548.816;14029.547
803.153;14928.095;  551.822;13836.846
803.720;14546.264;  546.828;13567.324
804.287;14071.272;  553.834;13360.622
804.855;14022.541;  659.841;13681.981
805.422;13609.369;  556.847;13536.560
805.989;13523.098;  529.853;13355.958
806.556;13902.866;  537.859;13747.896
807.124;14143.215;  632.865;13987.376
807.691;14539.983;  555.872;14038.674
808.258;15025.452;  586.878;14120.152
808.825;14459.280;  632.884;13860.111
809.392;13547.189;  706.890;13268.790
809.959;12956.277;  596.896;12680.389
810.526;12743.307;  719.903;12427.308
811.093;12420.535;  685.909;12030.105
811.659;12196.903;  550.915;11653.664
812.226;12286.972;  575.921;11637.183
812.793;12173.101;  606.927;11611.521
813.360;12325.149;  567.934;11885.181
813.926;12921.577;  604.940;12770.539
814.493;12483.586;  487.946;12677.638
815.060;11865.994;  475.952;11974.336
815.626;11823.443;  531.958;11594.715
816.193;11917.071;  595.965;11579.474
816.759;11890.400;  542.971;11666.972
817.325;11901.009;  491.977;11325.530
817.892;11567.417;  653.983;11105.369
818.458;11144.446;  619.989;10843.928
819.024;10896.614;  677.996;10714.406
819.591;10679.923;  596.002;10469.165
820.157;10843.432;  482.008;10235.523
820.723;11366.000;  629.014;10847.563
821.289;11792.068;  896.020;11040.980
821.855;11079.518;  667.027;10357.100
822.421;10321.926;  566.033; 9978.918
822.987;10001.515;  517.039; 9754.177
823.553;10249.063;  553.045;10065.755
824.119;10481.731;  674.051;10036.294
824.685;10624.800;  648.058;10029.192
825.251;10716.089;  645.064;10199.230
825.816;10478.917;  719.070; 9820.189
826.382; 9713.546;  633.076; 9297.248
826.948; 9535.975;  627.082; 9381.347
827.513; 9462.083;  568.089; 9450.726
828.079; 9554.491;  521.095; 9472.444
828.645; 9688.939;  612.101; 9292.643
829.210; 9508.809;  499.107; 9065.341
829.776; 9804.317;  624.113; 9132.620
830.341; 9755.365;  626.120; 9092.878
830.906; 9577.935;  687.126; 9078.557
831.472; 9197.402;  506.132; 8534.535
832.037; 9312.091;  650.138; 8677.874
832.602; 8999.760;  538.144; 8628.692
833.167; 9265.708;  615.151; 8879.031
833.733; 9267.017;  648.157; 9189.790
834.298; 9032.905;  509.163; 9052.608
834.863; 9068.774;  639.169; 8895.087
835.428; 9071.482;  605.175; 8824.266
835.993; 8931.131;  606.182; 8845.385
836.558; 8882.659;  632.188; 8888.563
837.123; 8987.528;  765.194; 8966.582
837.688; 8814.896;  604.200; 8617.860
838.253; 9122.846;  609.206; 8590.699
838.817; 9200.074;  573.213; 8443.797
839.382; 9258.923;  686.219; 8799.356
839.947; 8970.071;  599.225; 8810.595
840.511; 8815.920;  700.231; 8796.394
841.076; 8351.768;  463.237; 8347.231
841.641; 8465.116;  615.244; 8224.330
842.205; 8550.205;  589.250; 8223.349
842.770; 8744.033;  714.256; 8622.107
843.334; 8635.482;  588.262; 8410.386
843.898; 8744.190;  566.268; 8337.465
844.463; 8782.619;  680.275; 8506.283
845.027; 8476.988;  589.281; 8280.962
845.591; 8497.816;  649.287; 8231.141
846.156; 8250.545;  554.293; 7969.179
846.720; 8055.914;  663.299; 7768.278
847.284; 7850.622;  612.306; 7630.957
847.848; 7831.651;  621.312; 7472.395
848.412; 7791.319;  623.318; 7437.394
848.976; 7824.328;  715.324; 7674.592
849.540; 7824.796;  764.330; 7836.011
850.104; 7602.185;  682.337; 7913.669
850.668; 7439.713;  477.343; 7694.508
851.232; 7784.622;  520.349; 7756.887
851.796; 7917.650;  594.355; 7926.545
852.359; 7827.319;  658.361; 7827.844
852.923; 7677.328;  641.368; 7641.163
853.487; 7459.876;  645.374; 7342.501
854.050; 7186.865;  400.380; 7042.820
854.614; 7413.374;  541.386; 7151.338
855.177; 7429.142;  597.392; 7105.077
855.741; 7292.030;  651.399; 6989.675
856.304; 7247.479;  663.405; 6596.634
856.868; 6885.107;  522.411; 6356.272
857.431; 6748.736;  601.417; 6468.571
857.995; 6754.484;  575.423; 6373.210
858.558; 6704.973;  642.430; 6324.448
859.121; 6439.122;  634.436; 6408.327
859.684; 5897.070;  625.442; 6347.886
860.247; 5398.559;  587.448; 6321.264
860.810; 5060.967;  536.454; 6301.903
861.374; 5274.336;  731.461; 6607.881
861.937; 5303.245;  505.467; 6408.200
862.500; 5663.193;  553.473; 6572.639
863.062; 5834.381;  526.479; 6387.297
863.625; 5907.570;  604.485; 6190.836
864.188; 5664.438;  524.492; 5807.254
864.751; 5474.487;  571.498; 5682.413
865.314; 5366.656;  605.504; 5547.492
865.876; 5401.044;  667.510; 5500.150
866.439; 5480.593;  650.516; 5415.909
867.002; 5540.202;  772.523; 5501.567
867.564; 5238.010;  708.529; 5413.946
868.127; 5076.778;  595.535; 5160.325
868.689; 5063.387;  602.541; 5133.183
869.252; 5204.436;  687.547; 5252.382
869.814; 5266.444;  530.554; 5297.141
870.377; 5524.213;  632.560; 5390.919
870.939; 5591.062;  836.566; 5599.898
871.501; 5155.290;  623.572; 5248.336
872.063; 4858.479;  470.578; 4854.235
872.626; 4843.227;  501.585; 4817.074
873.188; 4944.315;  606.591; 4987.732
873.750; 4990.484;  582.597; 4868.651
874.312; 4996.212;  534.603; 4779.330
874.874; 5115.301;  733.609; 4866.348
875.436; 4959.030;  669.616; 4718.887
875.998; 4758.698;  677.622; 4660.005
876.560; 4541.727;  677.628; 4462.964
877.122; 4185.016;  529.634; 4145.042
877.683; 4056.384;  605.640; 4056.481
878.245; 3985.452;  555.647; 3950.740
878.807; 4149.541;  617.653; 4058.958
879.369; 3993.170;  513.659; 3954.677
879.930; 3938.378;  511.665; 3941.495
880.492; 4138.387;  681.671; 4067.014
881.053; 3948.535;  542.678; 3859.633
881.615; 3818.084;  535.684; 3776.071
882.176; 3671.912;  585.690; 3734.750
882.738; 3677.901;  658.696; 3678.489
883.299; 3411.969;  475.702; 3405.407
883.860; 3348.058;  493.709; 3351.106
884.422; 3384.347;  646.715; 3394.044
884.983; 3166.155;  521.721; 3166.443
885.544; 3203.364;  621.727; 3189.802
886.105; 3178.372;  592.733; 3160.360
886.666; 3055.141;  583.740; 3093.059
887.227; 2919.849;  499.746; 2941.957
887.788; 2944.198;  615.752; 2974.836
888.349; 2722.406;  499.758; 2721.214
888.910; 2765.015;  640.764; 2696.493
889.471; 2691.884;  600.771; 2560.172
890.032; 2621.612;  584.777; 2558.190
890.593; 2609.641;  638.783; 2567.669
891.153; 2485.429;  564.789; 2460.307
891.714; 2358.798;  512.795; 2372.046
892.275; 2302.086;  512.802; 2309.505
892.835; 2387.235;  664.808; 2382.543
893.396; 2354.583;  619.814; 2295.502
893.956; 2172.232;  600.820; 2162.420
894.517; 2094.561;  604.826; 2125.439
895.077; 2038.669;  624.833; 2086.978
895.638; 2088.098;  732.839; 2126.316
896.198; 1826.266;  552.845; 1838.275
896.758; 1919.235;  656.851; 1892.813
897.319; 1815.883;  562.857; 1792.232
897.879; 1785.112;  592.864; 1762.751
898.439; 1641.340;  526.870; 1661.149
898.999; 1728.369;  610.876; 1781.468
899.559; 1683.777;  618.882; 1703.347
900.119; 1530.426;  495.888; 1537.525
900.679; 1667.615;  696.895; 1638.384
901.239; 1543.223;  619.901; 1527.902
901.799; 1454.052;  623.907; 1456.441
902.359; 1351.120;  543.913; 1357.140
902.919; 1324.049;  538.919; 1331.118
903.479; 1313.477;  536.926; 1317.257
904.038; 1261.586;  524.932; 1262.595
904.598; 1165.395;  426.938; 1152.034
905.158; 1240.863;  592.944; 1240.893
905.717; 1237.312;  559.950; 1233.691
906.277; 1226.220;  588.957; 1217.330
906.836; 1230.709;  616.963; 1222.408
907.396; 1204.177;  631.969; 1193.047
907.955; 1190.426;  648.975; 1182.526
908.515; 1105.894;  556.981; 1099.364
909.074; 1093.023;  560.988; 1092.863
909.633; 1077.271;  574.994; 1069.121
910.192; 1221.680;  721.000; 1196.460
910.752; 1046.660;  559.000; 1029.960
911.311; 1024.600;  565.000; 1009.780
911.870;  986.220;  523.000;  971.460
912.429; 1109.200;  678.000; 1094.080
912.988; 1091.360;  659.000; 1081.060
913.547;  953.000;  514.000;  940.380
914.106; 1008.300;  629.000;  999.420
914.665;  992.740;  620.000;  984.020
915.224; 1050.700;  646.000; 1035.760
915.782;  939.060;  556.000;  922.560
916.341; 1057.060;  680.000; 1049.840
916.900;  933.500;  569.000;  925.260
917.458;  895.700;  549.000;  884.220
918.017;  953.880;  612.000;  942.600
918.576;  920.140;  595.000;  904.440
919.134;  847.560;  513.000;  837.980
919.693;  903.340;  561.000;  893.060
920.251;  889.000;  533.000;  876.500
920.809;  851.940;  537.000;  839.580
921.368;  893.720;  568.000;  885.360
921.926;  858.280;  507.000;  842.940
922.484;  912.700;  601.000;  903.360
923.042;  885.460;  559.000;  880.340
923.601; 1011.620;  723.000;  998.680
924.159;  947.500;  631.000;  935.560
924.717;  846.740;  528.000;  841.080
925.275;  910.760;  615.000;  903.240
925.833;  795.780;  496.000;  779.320
926.391;  942.900;  618.000;  938.380
926.949;  872.260;  542.000;  857.680
927.506;  916.540;  585.000;  903.500
928.064;  885.800;  580.000;  877.580
928.622;  888.720;  573.000;  880.100
929.180;  821.080;  486.000;  814.180
929.737;  807.760;  496.000;  808.540
930.295;  933.980;  617.000;  928.480
930.853;  853.640;  535.000;  849.100
931.410;  828.660;  525.000;  821.120
931.968;  954.460;  636.000;  940.660
932.525;  923.900;  587.000;  909.380
933.082;  822.460;  485.000;  811.440
933.640;  937.740;  600.000;  925.900
934.197;  888.480;  559.000;  886.360
934.754;  891.800;  569.000;  897.780
935.312;  860.540;  518.000;  863.340
935.869; 1013.740;  665.000; 1012.980
936.426;  864.800;  567.000;  872.800
936.983;  887.840;  566.000;  889.020
937.540;  832.660;  489.000;  838.280
938.097;  942.720;  578.000;  940.120
938.654;  897.600;  551.000;  898.860
939.211;  955.620;  604.000;  952.480
939.768;  925.680;  568.000;  915.420
940.324;  911.980;  551.000;  904.200
940.881;  883.740;  534.000;  878.500
941.438; 1029.620;  650.000; 1021.200
941.995;  998.120;  633.000;  992.560
942.551;  879.500;  493.000;  875.620
943.108;  946.320;  580.000;  937.920
943.664;  885.220;  520.000;  869.340
944.221; 1093.920;  688.000; 1088.140
944.777;  870.900;  505.000;  869.680
945.334;  892.640;  525.000;  884.840
945.890;  953.640;  585.000;  946.480
946.446;  953.180;  577.000;  947.020
947.003;  970.700;  585.000;  964.940
947.559; 1072.040;  691.000; 1063.040
948.115; 1025.140;  675.000; 1026.540
948.671;  975.880;  595.000;  967.300
949.227;  875.060;  485.000;  859.560
949.783;  867.960;  473.000;  858.900
950.339;  999.120;  604.000;  991.000
950.895; 1029.480;  604.000; 1023.840
951.451;  940.360;  532.000;  925.280
952.007; 1006.840;  615.000;  998.540
952.563;  947.660;  545.000;  937.780
953.118;  927.360;  539.000;  904.940
953.674;  957.500;  543.000;  935.780
954.230;  954.340;  531.000;  949.640
954.785;  953.080;  590.000;  936.640
955.341; 1002.020;  611.000;  998.160
955.897;  846.580;  472.000;  834.660
956.452;  967.060;  568.000;  953.840
957.008; 1097.060;  772.000; 1083.640
957.563; 1018.660;  676.000; 1009.540
958.118;  887.440;  532.000;  877.700
958.674;  954.920;  625.000;  946.780
959.229; 1017.860;  665.000; 1013.980
959.784;  845.560;  475.000;  832.400
960.339; 1012.000;  663.000; 1001.280
960.894;  979.980;  631.000;  963.760
961.449;  876.780;  543.000;  859.960
962.004; 1222.620;  863.000; 1212.840
962.559;  876.760;  550.000;  860.140
963.114;  758.060;  396.000;  742.480
963.669;  928.240;  568.000;  915.500
964.224;  896.120;  522.000;  874.340
964.779;  848.420;  460.000;  828.420
965.334; 1028.240;  714.000; 1017.860
965.888;  883.220;  509.000;  875.360
966.443;  979.680;  611.000;  972.380
966.998;  820.120;  492.000;  819.460
967.552;  903.320;  549.000;  908.380
968.107;  870.160;  518.000;  868.300
968.661;  935.580;  579.000;  922.440
969.216;  868.120;  530.000;  856.280
969.770;  931.320;  589.000;  917.200
970.324;  940.300;  581.000;  923.140
970.879;  964.460;  616.000;  947.180
971.433;  969.640;  624.000;  952.720
971.987;  912.760;  538.000;  895.340
972.541;  926.120;  603.000;  917.100
973.095; 1019.640;  667.000; 1009.460
973.649;  819.980;  493.000;  809.480
974.203;  841.780;  533.000;  829.040
974.757;  868.540;  556.000;  855.220
975.311;  894.560;  602.000;  872.600
975.865;  897.700;  582.000;  881.820
976.419;  873.720;  573.000;  857.400
976.973;  862.840;  533.000;  849.620
977.526;  966.640;  635.000;  949.920
978.080;  809.020;  494.000;  796.780
978.634;  933.380;  638.000;  921.320
979.187;  920.080;  623.000;  905.400
979.741; 1038.380;  745.000; 1018.380
980.294;  804.400;  496.000;  789.160
980.848;  727.860;  454.000;  717.220
981.401;  832.320;  542.000;  816.540
981.955;  865.000;  594.000;  844.300
982.508;  756.600;  463.000;  746.340
983.061;  930.180;  659.000;  915.260
983.615;  807.120;  524.000;  798.800
984.168;  782.420;  506.000;  770.080
984.721;  889.500;  614.000;  880.760
985.274;  868.680;  610.000;  867.500
985.827;  840.380;  574.000;  834.220
986.380;  730.700;  467.000;  721.340
986.933;  865.780;  602.000;  864.800
987.486;  860.980;  602.000;  861.920
988.039;  869.680;  630.000;  863.100
988.591;  899.700;  624.000;  893.260
989.144;  747.760;  514.000;  737.260
989.697;  765.580;  532.000;  758.740
990.250;  862.620;  634.000;  858.100
990.802;  761.300;  538.000;  755.860
991.355;  983.840;  749.000;  974.880
991.907;  870.170;  646.000;  864.320
992.460;  756.500;  543.000;  753.760
993.012;  760.820;  552.000;  749.540
993.565;  709.860;  498.000;  711.360
994.117;  950.200;  731.000;  950.780
994.669;  710.140;  508.000;  701.320
995.221;  800.660;  576.000;  791.920
995.774;  793.440;  595.000;  787.580
996.326;  750.100;  560.000;  740.220
996.878;  849.200;  676.000;  838.420
997.430;  711.240;  515.000;  699.860
997.982;  756.000;  593.000;  750.140
998.534;  749.000;  572.000;  739.060
999.086;  738.980;  561.000;  738.220
999.638;  663.120;  465.000;  661.380
1000.190;  704.020;  524.000;  699.320
1000.741;  741.280;  559.000;  742.700
1001.293;  690.860;  533.000;  686.020
1001.845;  682.700;  523.000;  676.640
1002.396;  748.480;  567.000;  743.400
1002.948;  740.820;  581.000;  737.400
1003.500;  725.140;  568.000;  723.780
1004.051;  917.020;  737.000;  907.580
1004.603;  797.040;  644.000;  791.820
1005.154;  614.740;  464.000;  608.980
1005.705;  726.220;  609.000;  723.960
1006.257;  711.340;  589.000;  707.220
1006.808;  692.120;  557.000;  685.460
1007.359;  768.880;  635.000;  763.240
1007.910;  653.120;  529.000;  646.640
1008.461;  740.920;  617.000;  732.940
1009.013;  596.500;  485.000;  588.340
1009.564;  797.880;  689.000;  793.520
1010.115;  600.260;  500.000;  597.040
1010.665;  612.680;  477.000;  602.160
1011.216;  678.140;  575.000;  667.920
1011.767;  699.680;  601.000;  697.920
1012.318;  734.940;  629.000;  736.980
1012.869;  679.100;  595.000;  679.000
1013.419;  606.300;  493.000;  603.120
1013.970;  678.160;  546.000;  666.640
1014.521;  621.800;  537.000;  620.620
1015.071;  674.520;  617.000;  670.380
1015.622;  637.120;  522.000;  635.460
1016.172;  603.220;  495.000;  596.820
1016.723;  616.420;  524.000;  614.380
1017.273;  611.120;  521.000;  604.160
1017.823;  655.000;  549.000;  650.340
1018.374;  615.420;  508.000;  611.760
1018.924;  725.620;  628.000;  716.880
1019.474;  717.340;  619.000;  718.880
1020.024;  663.420;  561.000;  657.580
1020.574;  728.000;  673.000;  726.160
1021.124;  679.780;  587.000;  673.580
1021.674;  563.520;  461.000;  559.120
1022.224;  717.260;  620.000;  708.940
1022.774;  671.740;  593.000;  668.820
1023.324;  753.380;  687.000;  753.520
1023.874;  883.260;  776.000;  875.760
1024.423;  616.460;  529.000;  613.700
1024.973;  612.760;  549.000;  610.760
1025.523;  621.500;  553.000;  620.960
1026.072;  612.940;  534.000;  606.420
1026.622;  677.620;  559.000;  675.740
1027.172;  715.900;  629.000;  715.660
1027.721;  607.320;  557.000;  601.220
1028.270;  672.140;  591.000;  663.400
1028.820;  642.620;  556.000;  638.080
1029.369;  618.360;  514.000;  612.700
1029.918;  653.460;  571.000;  649.840
1030.468;  570.200;  485.000;  564.780
1031.017;  644.700;  552.000;  634.800
1031.566;  613.380;  559.000;  608.900
1032.115;  701.920;  608.000;  694.500
1032.664;  608.260;  500.000;  596.480
1033.213;  731.040;  641.000;  735.420
1033.762;  643.380;  553.000;  635.620
1034.311;  681.820;  600.000;  677.220
1034.860;  694.040;  603.000;  691.000
1035.408;  731.020;  623.000;  722.720
1035.957;  723.040;  633.000;  719.540
1036.506;  538.800;  469.000;  530.800
1037.055;  848.260;  763.000;  844.320
1037.603;  667.400;  576.000;  664.000
1038.152;  541.520;  458.000;  534.760
1038.700;  586.340;  523.000;  585.740
1039.249;  687.960;  589.000;  681.220
1039.797;  638.260;  562.000;  633.360
1040.345;  706.720;  625.000;  705.420
1040.894;  630.240;  556.000;  625.300
1041.442;  636.160;  554.000;  632.200
1041.990;  566.000;  485.000;  559.160
1042.538;  541.420;  456.000;  536.180
1043.087;  572.620;  503.000;  570.860
1043.635;  678.800;  593.000;  670.500
1044.183;  597.480;  492.000;  586.400
1044.731;  583.040;  533.000;  576.000
1045.279;  677.180;  631.000;  674.920
1045.827;  901.460;  832.000;  892.400
1046.374;  523.120;  453.000;  515.420
1046.922;  596.200;  539.000;  590.580
1047.470;  694.800;  651.000;  691.300
1048.018;  652.380;  596.000;  647.960
1048.565;  721.240;  671.000;  708.600
1049.113;  555.800;  469.000;  557.000
1049.660;  628.440;  568.000;  629.660
1050.208;  682.000;  606.000;  675.640
1050.755;  609.480;  517.000;  606.580
1051.303;  690.360;  624.000;  686.820
1051.850;  639.540;  557.000;  635.120
1052.397;  477.380;  391.000;  473.960
1052.945;  622.280;  524.000;  617.760
1053.492;  742.340;  669.000;  741.840
1054.039;  727.720;  685.000;  720.180
1054.586;  561.620;  489.000;  557.240
1055.133;  699.500;  628.000;  693.140
1055.680;  647.480;  577.000;  646.620
1056.227;  547.540;  485.000;  542.780
1056.774;  798.340;  707.000;  794.980
1057.321;  524.700;  459.000;  523.260
1057.868;  646.020;  581.000;  651.320
1058.415;  650.760;  613.000;  651.980
1058.961;  678.420;  601.000;  678.940
1059.508;  640.180;  586.000;  643.820
1060.055;  583.980;  488.000;  581.780
1060.601;  626.920;  557.000;  624.300
1061.148;  620.520;  551.000;  616.820
1061.694;  604.540;  537.000;  592.580
1062.241;  598.280;  540.000;  596.320
1062.787;  666.760;  589.000;  663.140
1063.334;  810.160;  733.000;  808.560
1063.880;  675.380;  618.000;  668.360
1064.426;  707.660;  623.000;  706.820
1064.972;  597.720;  525.000;  601.340
1065.518;  570.200;  501.000;  566.640
1066.065;  631.260;  531.000;  624.460
1066.611;  602.940;  556.000;  598.800
1067.157;  640.600;  588.000;  641.860
1067.703;  670.600;  573.000;  668.480
1068.249;  610.080;  521.000;  605.220
1068.794;  629.560;  558.000;  626.880
1069.340;  582.140;  519.000;  578.960
1069.886;  600.920;  525.000;  590.700
1070.432;  542.340;  467.000;  541.720
1070.977;  605.200;  543.000;  601.080
1071.523;  572.440;  506.000;  573.060
1072.068;  585.860;  500.000;  582.000
1072.614;  529.540;  425.000;  527.760
1073.160;  694.580;  640.000;  687.040
1073.705;  582.120;  532.000;  572.520
1074.250;  569.560;  528.000;  559.900
1074.796;  659.640;  567.000;  655.160
1075.341;  672.380;  597.000;  664.100
1075.886;  593.980;  527.000;  594.240
1076.431;  652.500;  567.000;  649.880
1076.976;  641.400;  589.000;  639.220
1077.521;  581.660;  498.000;  583.080
1078.067;  579.000;  533.000;  579.400
1078.612;  668.060;  608.000;  661.620
1079.156;  607.040;  520.000;  601.540
1079.701;  698.140;  627.000;  693.260
1080.246;  699.900;  644.000;  696.300
1080.791;  631.680;  587.000;  625.020
1081.336;  665.940;  627.000;  659.320
1081.880;  654.920;  573.000;  649.680
1082.425;  577.100;  532.000;  573.480
1082.970;  718.780;  657.000;  717.040
1083.514;  600.720;  546.000;  597.000
1084.059;  592.160;  554.000;  586.720
1084.603;  565.540;  539.000;  565.840
1085.147;  647.860;  599.000;  645.220
1085.692;  723.580;  641.000;  716.800
1086.236;  509.500;  428.000;  503.140
1086.780;  752.780;  674.000;  751.440
1087.325;  655.940;  584.000;  654.620
1087.869;  616.580;  574.000;  610.700
1088.413;  703.100;  677.000;  705.040
1088.957;  538.860;  461.000;  543.400
1089.501;  767.840;  700.000;  766.640
1090.045;  730.900;  651.000;  726.480
1090.589;  570.780;  520.000;  569.920
1091.133;  679.180;  631.000;  673.340
1091.676;  596.780;  539.000;  591.940
1092.220;  603.480;  549.000;  600.920
1092.764;  709.360;  666.000;  706.960
1093.307;  672.600;  637.000;  673.780
1093.851;  563.580;  516.000;  556.540
1094.395;  687.340;  638.000;  683.140
1094.938;  634.480;  571.000;  632.520
1095.482;  565.320;  534.000;  559.800
1096.025;  713.220;  687.000;  710.880
1096.568;  781.160;  731.000;  779.280
1097.112;  512.180;  456.000;  508.180
1097.655;  598.740;  530.000;  603.000
1098.198;  603.240;  538.000;  600.180
1098.741;  616.960;  572.000;  612.860
1099.285;  658.160;  596.000;  657.300
1099.828;  441.120;  407.000;  439.400
1100.371;  615.080;  566.000;  608.160
1100.914;  685.920;  592.000;  682.660
1101.457;  679.020;  623.000;  679.900
1101.999;  580.160;  567.000;  584.680
1102.542;  642.360;  580.000;  641.440
1103.085;  664.220;  646.000;  658.500
1103.628;  766.280;  737.000;  762.060
1104.170;  590.380;  536.000;  588.280
1104.713;  654.660;  592.000;  646.700
1105.256;  559.900;  507.000;  557.440
1105.798;  506.260;  452.000;  499.980
1106.341;  732.060;  709.000;  728.900
1106.883;  524.560;  479.000;  521.340
1107.425;  676.140;  627.000;  668.180
1107.968;  618.920;  576.000;  612.380
1108.510;  687.360;  661.000;  684.960
1109.052;  620.220;  575.000;  612.620
1109.594;  555.040;  532.000;  554.440
1110.136;  648.880;  600.000;  643.220
1110.679;  637.940;  597.000;  633.080
1111.221;  610.460;  555.000;  604.460
1111.763;  556.520;  476.000;  559.220
1112.304;  549.120;  507.000;  547.140
1112.846;  667.840;  653.000;  666.240
1113.388;  945.500;  885.000;  942.180
1113.930;  694.360;  640.000;  694.200
1114.472;  613.880;  529.000;  606.540
1115.013;  552.520;  488.000;  551.280
1115.555;  593.760;  543.000;  587.100
1116.097;  576.060;  521.000;  579.480
1116.638;  682.480;  659.000;  684.600
1117.180;  670.860;  651.000;  667.740
1117.721;  576.560;  493.000;  568.580
1118.262;  685.400;  608.000;  677.960
1118.804;  638.340;  565.000;  637.340
1119.345;  580.200;  526.000;  578.400
1119.886;  705.460;  652.000;  704.040
1120.427;  593.720;  563.000;  589.020
1120.969;  604.240;  541.000;  597.920
1121.510;  568.320;  541.000;  563.060
1122.051;  729.240;  680.000;  723.580
1122.592;  659.520;  619.000;  655.420
1123.133;  546.620;  510.000;  547.940
1123.673;  706.280;  669.000;  706.480
1124.214;  614.300;  563.000;  612.460
1124.755;  646.420;  599.000;  639.460
1125.296;  622.540;  596.000;  627.320
1125.836;  693.600;  670.000;  691.500
1126.377;  604.120;  549.000;  599.660
1126.918;  616.100;  556.000;  614.980
1127.458;  627.520;  598.000;  622.220
1127.999;  656.180;  617.000;  656.980
1128.539;  696.040;  634.000;  694.240
1129.079;  639.700;  593.000;  632.720
1129.620;  561.020;  521.000;  558.100
1130.160;  541.840;  522.000;  539.480
1130.700;  639.280;  599.000;  640.840
1131.240;  646.040;  602.000;  643.700
1131.781;  621.540;  581.000;  619.680
1132.321;  605.460;  563.000;  599.120
1132.861;  571.040;  522.000;  564.200
1133.401;  597.300;  580.000;  593.940
1133.941;  630.280;  590.000;  626.280
1134.481;  607.560;  567.000;  597.580
1135.020;  610.500;  554.000;  609.160
1135.560;  676.840;  632.000;  674.940
1136.100;  502.140;  469.000;  501.160
1136.640;  516.320;  484.000;  510.480
1137.179;  540.900;  492.000;  537.960
1137.719;  607.260;  576.000;  605.400
1138.258;  591.820;  523.000;  587.360
1138.798;  664.360;  597.000;  663.780
1139.337;  485.600;  421.000;  482.840
1139.877;  654.340;  605.000;  642.360
1140.416;  875.220;  831.000;  878.060
1140.955;  534.740;  526.000;  535.380
1141.494;  670.000;  633.000;  669.280
1142.034;  585.640;  533.000;  583.520
1142.573;  652.260;  595.000;  646.280
1143.112;  549.820;  534.000;  553.480
1143.651;  543.420;  502.000;  536.480
1144.190;  692.940;  649.000;  691.640
1144.729;  607.040;  577.000;  607.420
1145.267;  578.360;  556.000;  584.900
1145.806;  637.980;  592.000;  637.040
1146.345;  642.400;  600.000;  635.020
1146.884;  624.880;  563.000;  622.500
1147.422;  533.920;  503.000;  533.060
1147.961;  712.300;  703.000;  708.460
1148.500;  673.660;  631.000;  669.720
1149.038;  642.860;  573.000;  632.500
1149.577;  697.160;  672.000;  698.640
1150.115;  447.860;  418.000;  452.280
1150.653;  607.940;  572.000;  607.340
1151.192;  559.660;  520.000;  552.920
1151.730;  658.160;  639.000;  652.560
1152.268;  588.220;  559.000;  589.520
1152.806;  574.300;  542.000;  571.180
1153.344;  573.180;  529.000;  577.640
1153.882;  599.700;  571.000;  600.060
1154.421;  478.640;  440.000;  470.620
1154.958;  598.580;  566.000;  595.240
1155.496;  649.820;  606.000;  645.280
1156.034;  719.640;  715.000;  721.880
1156.572;  672.700;  638.000;  667.060
1157.110;  474.100;  423.000;  473.940
1157.647;  679.160;  648.000;  676.960
1158.185;  572.920;  532.000;  564.320
1158.723;  512.080;  474.000;  509.200
1159.260;  696.980;  670.000;  701.700
1159.798;  663.300;  602.000;  658.160
1160.335;  632.620;  613.000;  631.820

