gmr_right
Integration time [ms]: 412.139
Averaging Nr. [scans]: 50
Smoothing Nr. [pixels]: 0
Data measured with spectrometer [name]: 7414430SP
Wave   ;Sample   ;Dark     ;Reference
[nm]   ;[counts] ;[counts] ;[counts] 

288.544;  809.377;  556.129;  793.890
289.143;  701.643;  473.960;  681.602
289.742;  852.601;  630.955;  828.814
290.341;  814.356;  604.742;  789.841
290.940;  758.426;  520.634;  730.702
291.538;  895.156;  695.774;  881.108
292.137;  810.012;  626.824;  792.581
292.736; 1006.096;  804.742;  975.101
293.335;  757.903;  547.569;  735.086
293.934;  800.576;  583.590;  781.677
294.532; 1051.336;  863.618; 1031.958
295.131;  858.587;  636.289;  834.394
295.730;  836.165;  641.311;  809.588
296.328;  803.952;  623.281;  783.442
296.927;  797.605;  603.233;  779.652
297.525;  799.673;  623.290;  781.236
298.124;  672.729;  481.013;  654.009
298.722;  780.108;  604.206;  761.933
299.321;  728.105;  559.141;  708.597
299.919;  768.773;  553.073;  751.918
300.518;  707.417;  530.992;  689.338
301.116;  711.238;  544.144;  691.381
301.715;  741.134;  611.240;  730.222
302.313;  723.899;  557.199;  704.943
302.911;  750.000;  609.932;  733.830
303.509;  948.552;  789.202;  925.627
304.108;  778.060;  611.213;  760.383
304.706;  818.300;  611.227;  801.664
305.304;  809.466;  619.998;  796.707
305.902;  802.940;  618.241;  784.484
306.500;  739.214;  594.129;  728.200
307.098;  768.717;  623.102;  746.560
307.696;  802.776;  633.042;  780.432
308.294;  741.393;  589.101;  731.359
308.892;  776.075;  600.217;  759.769
309.490;  725.922;  586.062;  712.161
310.088;  804.476;  644.982;  788.444
310.686;  836.297;  684.176;  821.749
311.284;  777.922;  668.048;  766.040
311.882;  741.119;  620.983;  731.225
312.480;  713.153;  581.903;  697.167
313.078;  820.458;  681.987;  808.331
313.675;  702.814;  565.129;  691.600
314.273;  817.961;  652.896;  797.837
314.871;  602.214;  479.945;  589.829
315.468;  663.020;  535.932;  652.090
316.066;  710.816;  572.120;  694.427
316.664;  666.725;  535.892;  656.351
317.261;  918.606;  792.012;  910.128
317.859;  780.973;  642.949;  768.735
318.456;  839.606;  727.072;  830.096
319.054;  794.691;  678.972;  787.828
319.651;  765.506;  687.026;  759.928
320.249;  818.486;  705.026;  810.188
320.846;  722.095;  625.079;  714.286
321.443;  842.565;  725.030;  832.135
322.041;  815.071;  720.990;  812.315
322.638;  706.191;  609.018;  701.456
323.235;  673.799;  590.199;  665.683
323.833;  747.318;  654.125;  740.354
324.430;  622.799;  500.075;  615.900
325.027;  887.441;  786.126;  876.855
325.624;  650.820;  552.287;  644.532
326.221;  699.101;  576.223;  689.717
326.818;  832.229;  694.137;  818.332
327.415;  755.006;  657.339;  748.828
328.012;  699.374;  552.364;  690.585
328.609;  743.771;  599.299;  731.389
329.206;  798.531;  659.239;  778.621
329.803;  745.033;  638.212;  737.841
330.400;  714.663;  574.306;  704.260
330.997;  836.469;  681.229;  817.147
331.594;  802.557;  641.038;  788.185
332.191;  737.596;  565.212;  728.722
332.787;  851.404;  722.145;  844.463
333.384;  773.986;  623.948;  763.093
333.981;  823.781;  655.739;  815.687
334.578;  716.131;  555.815;  708.378
335.174;  737.563;  561.809;  731.469
335.771;  847.514;  669.664;  836.456
336.367;  733.547;  540.538;  710.631
336.964;  804.388;  648.630;  793.266
337.561;  752.668;  610.580;  731.112
338.157;  923.174;  777.365;  911.916
338.754;  810.700;  639.292;  796.589
339.350;  727.370;  573.322;  722.493
339.946;  781.147;  597.446;  773.135
340.543;  855.511;  714.147;  846.136
341.139;  728.397;  573.024;  720.836
341.735;  783.130;  621.995;  772.593
342.332;  699.525;  559.049;  691.472
342.928;  804.986;  679.091;  795.394
343.524;  776.704;  653.975;  761.684
344.120;  745.980;  598.947;  738.562
344.716;  725.914;  620.148;  723.717
345.313;  810.690;  676.138;  795.342
345.909;  641.193;  500.106;  627.336
346.505;  754.678;  634.209;  740.247
347.101;  830.927;  710.261;  827.864
347.697;  796.343;  683.339;  785.398
348.293;  631.326;  495.247;  627.244
348.889;  749.675;  619.282;  745.914
349.485;  694.405;  606.330;  688.205
350.081;  778.905;  640.348;  772.592
350.676;  701.595;  558.222;  691.606
351.272;  815.734;  716.415;  809.530
351.868;  779.591;  650.474;  780.497
352.464;  741.880;  630.403;  723.932
353.059;  666.242;  537.311;  646.017
353.655;  791.812;  684.438;  777.063
354.251;  772.171;  661.520;  759.845
354.846;  755.745;  610.344;  740.646
355.442;  754.451;  612.226;  753.071
356.038;  753.709;  635.373;  751.708
356.633;  737.826;  601.390;  728.594
357.229;  739.600;  605.338;  724.757
357.824;  712.391;  610.286;  703.600
358.420;  688.388;  535.303;  679.726
359.015;  694.557;  602.351;  695.357
359.610;  778.885;  643.395;  763.920
360.206;  615.156;  523.217;  603.240
360.801;  648.036;  522.356;  646.503
361.396;  739.447;  656.446;  725.975
361.992;  674.531;  552.286;  668.220
362.587;  677.798;  528.190;  670.160
363.182;  697.826;  598.280;  689.631
363.777;  746.076;  656.328;  738.242
364.372;  749.813;  627.309;  737.314
364.967;  694.811;  571.193;  680.744
365.563;  818.687;  665.386;  815.567
366.158;  693.993;  616.341;  685.161
366.753;  661.494;  539.397;  649.263
367.348;  750.002;  594.283;  746.056
367.942;  700.423;  606.339;  697.298
368.537;  752.770;  641.262;  754.245
369.132;  711.734;  599.305;  703.428
369.727;  642.558;  506.177;  638.079
370.322;  590.573;  504.249;  580.186
370.917;  712.855;  616.222;  710.646
371.511;  875.173;  771.295;  861.834
372.106;  788.571;  686.193;  776.964
372.701;  590.346;  500.141;  585.988
373.296;  856.893;  781.323;  863.135
373.890;  651.518;  529.190;  647.840
374.485;  702.923;  602.108;  691.199
375.079;  742.927;  642.289;  738.685
375.674;  816.400;  691.306;  812.970
376.268;  698.915;  579.190;  691.759
376.863;  587.954;  496.991;  580.327
377.457;  665.025;  578.252;  662.490
378.052;  767.773;  716.152;  764.884
378.646;  745.903;  652.155;  741.167
379.240;  722.171;  622.133;  721.176
379.835;  643.190;  609.230;  636.978
380.429;  572.109;  498.202;  562.557
381.023;  786.678;  699.112;  779.205
381.617;  682.124;  595.072;  680.106
382.212;  685.726;  592.234;  685.303
382.806;  759.125;  677.252;  760.690
383.400;  683.346;  608.123;  672.281
383.994;  669.994;  626.102;  664.870
384.588;  704.497;  648.259;  697.701
385.182;  731.760;  635.370;  726.624
385.776;  716.076;  629.296;  706.875
386.370;  689.923;  611.168;  681.968
386.964;  684.378;  594.255;  684.155
387.558;  602.567;  527.354;  598.360
388.152;  686.976;  610.204;  681.959
388.745;  818.898;  739.223;  814.707
389.339;  751.035;  660.314;  747.642
389.933;  688.576;  614.374;  695.370
390.527;  864.620;  788.278;  859.029
391.120;  597.199;  558.108;  595.318
391.714;  714.094;  636.226;  711.633
392.308;  783.907;  705.335;  780.253
392.901;  646.236;  564.231;  642.460
393.495;  597.802;  531.159;  595.414
394.089;  762.653;  720.198;  760.452
394.682;  694.704;  639.196;  697.188
395.275;  722.561;  651.195;  719.927
395.869;  673.945;  619.146;  667.314
396.462;  619.084;  566.224;  616.609
397.056;  774.130;  727.354;  776.621
397.649;  735.945;  664.160;  731.575
398.242;  713.527;  626.275;  712.645
398.836;  766.614;  710.318;  766.408
399.429;  628.492;  586.313;  631.041
400.022;  675.327;  592.151;  665.902
400.615;  812.944;  755.210;  805.609
401.208;  688.981;  652.334;  691.451
401.802;  694.682;  640.237;  699.329
402.395;  689.167;  634.151;  683.502
402.988;  693.745;  649.114;  696.627
403.581;  646.585;  614.284;  646.878
404.174;  684.530;  635.386;  686.568
404.767;  641.985;  607.220;  638.583
405.360;  626.636;  584.139;  621.445
405.953;  754.631;  727.336;  759.034
406.545;  721.691;  670.382;  725.342
407.138;  615.268;  552.225;  618.350
407.731;  619.583;  566.261;  613.303
408.324;  653.781;  649.458;  660.554
408.917;  678.960;  662.370;  681.864
409.509;  739.381;  708.269;  740.396
410.102;  642.423;  609.182;  643.948
410.695;  665.474;  622.475;  665.758
411.287;  597.826;  565.436;  599.821
411.880;  581.528;  552.409;  585.421
412.472;  602.749;  579.266;  613.092
413.065;  632.592;  611.346;  629.408
413.657;  573.332;  536.502;  576.678
414.250;  651.241;  627.490;  646.681
414.842;  671.485;  645.376;  676.353
415.434;  568.907;  512.478;  570.463
416.027;  646.097;  616.651;  652.196
416.619;  709.958;  655.504;  713.400
417.211;  592.773;  552.498;  599.352
417.804;  621.604;  571.680;  628.499
418.396;  608.007;  599.492;  607.643
418.988;  652.707;  609.570;  659.238
419.580;  560.570;  524.446;  568.276
420.172;  533.121;  493.569;  536.196
420.764;  673.430;  660.681;  672.482
421.356;  634.923;  622.638;  636.898
421.948;  670.556;  647.558;  677.661
422.540;  676.042;  647.767;  680.027
423.132;  599.763;  569.776;  600.641
423.724;  563.890;  533.617;  561.267
424.316;  618.862;  568.670;  621.345
424.908;  589.766;  572.842;  591.517
425.500;  643.989;  620.842;  647.978
426.092;  647.677;  591.849;  648.268
426.683;  694.070;  661.746;  684.836
427.275;  645.782;  613.919;  641.471
427.867;  662.010;  647.944;  668.948
428.458;  733.241;  681.942;  732.344
429.050;  685.321;  598.850;  680.749
429.642;  738.421;  707.928;  743.124
430.233;  559.813;  513.977;  569.356
430.825;  730.014;  714.959;  724.809
431.416;  695.798;  657.844;  698.241
432.008;  642.713;  613.009;  651.723
432.599;  651.179;  627.043;  656.073
433.190;  641.181;  635.877;  637.670
433.782;  588.177;  552.881;  590.395
434.373;  878.612;  824.092;  884.765
434.964;  599.977;  520.102;  602.920
435.556;  637.776;  602.964;  634.537
436.147;  752.672;  727.013;  758.490
436.738;  696.758;  648.033;  701.099
437.329;  719.517;  683.226;  721.723
437.920;  662.636;  612.904;  666.688
438.511;  563.307;  476.929;  564.526
439.103;  616.943;  587.196;  623.998
439.694;  678.017;  625.240;  681.583
440.285;  761.667;  725.192;  764.432
440.876;  842.770;  782.101;  845.738
441.466;  573.441;  526.144;  575.162
442.057;  658.902;  583.343;  665.814
442.648;  748.137;  714.194;  746.255
443.239;  620.785;  550.127;  620.477
443.830;  702.277;  658.305;  704.958
444.421;  653.240;  628.398;  655.474
445.011;  685.149;  645.169;  693.619
445.602;  746.930;  670.147;  743.126
446.193;  482.731;  420.331;  488.117
446.783;  635.342;  594.467;  640.397
447.374;  688.606;  653.196;  692.759
447.964;  712.861;  642.191;  713.770
448.555;  819.038;  744.485;  822.742
449.145;  664.319;  605.356;  662.853
449.736;  801.060;  722.305;  803.179
450.326;  720.362;  646.311;  713.626
450.917;  676.442;  584.513;  675.324
451.507;  605.395;  555.484;  600.661
452.097;  745.755;  658.420;  746.267
452.688;  743.314;  686.456;  742.160
453.278;  560.932;  478.483;  566.840
453.868;  794.233;  743.585;  793.550
454.458;  647.375;  581.470;  651.141
455.048;  710.203;  608.444;  711.783
455.639;  568.892;  486.589;  567.096
456.229;  708.781;  634.642;  710.694
456.819;  752.914;  675.645;  751.158
457.409;  773.540;  692.614;  773.993
457.999;  736.712;  673.718;  737.505
458.589;  675.734;  614.705;  686.606
459.179;  715.351;  646.672;  717.658
459.769;  623.242;  541.591;  627.099
460.358;  788.340;  713.743;  797.262
460.948;  690.922;  616.730;  689.503
461.538;  659.344;  564.753;  660.677
462.128;  662.141;  586.642;  664.934
462.717;  705.798;  598.922;  710.326
463.307;  709.033;  600.990;  705.846
463.897;  658.477;  563.770;  656.942
464.486;  840.348;  723.611;  837.128
465.076;  730.934;  650.848;  733.776
465.666;  651.255;  545.014;  652.900
466.255;  789.443;  715.804;  785.651
466.845;  670.299;  567.775;  666.749
467.434;  724.785;  641.859;  725.873
468.023;  660.272;  540.916;  658.357
468.613;  713.194;  627.705;  713.946
469.202;  648.923;  525.896;  646.507
469.791;  730.830;  626.008;  737.811
470.381;  738.553;  661.022;  742.813
470.970;  710.711;  589.999;  711.099
471.559;  740.594;  623.926;  733.291
472.148;  668.943;  533.052;  675.737
472.738;  760.089;  651.086;  765.466
473.327;  633.498;  510.060;  637.529
473.916;  738.219;  572.950;  737.446
474.505;  748.757;  636.111;  751.703
475.094;  809.632;  694.183;  806.570
475.683;  799.145;  669.108;  797.699
476.272;  730.525;  595.090;  730.632
476.861;  710.165;  580.200;  706.754
477.449;  729.949;  596.399;  728.487
478.038;  690.789;  557.090;  692.513
478.627;  709.908;  606.063;  714.852
479.216;  771.317;  627.300;  769.441
479.805;  778.897;  620.364;  783.375
480.393; 1008.657;  828.208; 1008.945
480.982;  879.849;  686.137;  874.501
481.571;  859.791;  707.377;  858.333
482.159;  705.209;  535.385;  705.386
482.748;  832.172;  664.262;  821.385
483.336;  865.540;  674.333;  858.209
483.925;  780.514;  611.281;  774.373
484.513;  759.007;  609.518;  758.962
485.102;  807.975;  635.248;  810.965
485.690; 1008.714;  838.469; 1011.050
486.278;  984.911;  769.469;  979.329
486.867;  808.931;  615.437;  809.662
487.455;  898.218;  720.374;  898.229
488.043;  746.993;  535.368;  748.361
488.631; 1001.178;  783.530; 1005.079
489.220;  914.334;  664.562;  908.626
489.808;  747.952;  505.418;  741.415
490.396;  924.518;  674.466;  914.645
490.984;  827.109;  549.464;  830.161
491.572;  942.785;  689.527;  940.315
492.160;  926.233;  652.368;  919.081
492.748;  887.015;  574.355;  884.341
493.336; 1017.919;  697.526; 1019.693
493.924;  955.844;  614.610;  958.077
494.512; 1070.219;  664.448; 1066.638
495.100; 1094.449;  668.367; 1103.280
495.687; 1198.314;  685.594; 1206.373
496.275; 1132.946;  574.555; 1150.796
496.863; 1254.502;  607.402; 1281.171
497.451; 1366.866;  554.385; 1386.805
498.038; 1537.619;  602.632; 1556.729
498.626; 1695.156;  622.603; 1741.407
499.214; 1965.191;  631.469; 2016.609
499.801; 2186.305;  611.417; 2220.633
500.389; 2287.597;  493.581; 2312.494
500.976; 2701.004;  689.564; 2744.849
501.564; 3047.863;  635.412; 3148.565
502.151; 3324.307;  431.380; 3515.999
502.738; 3754.462;  553.526; 3971.274
503.326; 4191.981;  598.637; 4403.796
503.913; 4941.329;  610.510; 5161.749
504.500; 5750.128;  659.436; 5986.420
505.088; 6249.088;  541.450; 6381.201
505.675; 6970.753;  600.630; 6925.547
506.262; 7949.350;  615.381; 7619.060
506.849; 9200.549;  601.496; 8733.969
507.436;10515.520;  701.600; 9790.121
508.023;10808.131;  598.579; 9985.472
508.610;11341.757;  668.502;10434.618
509.197;12283.778;  657.295;11198.435
509.784;13367.967;  616.486;12391.194
510.371;14384.890;  496.662;13603.713
510.958;15159.246;  591.412;14426.586
511.545;15960.170;  714.459;15243.775
512.132;16298.142;  606.623;15945.876
512.719;16845.229;  562.510;16340.369
513.305;19018.000;  572.439;18011.766
513.892;21176.344;  693.347;19754.971
514.479;22352.055;  603.562;20967.805
515.066;23834.875;  709.539;22299.793
515.652;24638.361;  631.531;22908.660
516.239;25741.230;  654.473;23798.875
516.825;27553.805;  522.513;25567.275
517.412;29788.336;  781.571;28154.959
517.998;30067.020;  588.429;28344.111
518.585;28124.906;  565.380;27134.219
519.171;27863.703;  611.610;27268.576
519.758;30088.947;  499.565;28964.129
520.344;31539.967;  674.486;30664.494
520.930;33010.590;  526.330;32550.605
521.516;36148.977;  658.608;35422.895
522.103;39393.668;  739.518;38280.004
522.689;39028.023;  577.366;37835.117
523.275;37231.512;  707.404;37288.613
523.861;37722.289;  613.501;37281.395
524.447;39313.945;  697.606;37846.949
525.033;39284.180;  689.415;38321.949
525.619;39312.266;  550.357;38579.285
526.205;40830.527;  541.417;40622.875
526.791;42046.762;  624.554;42258.836
527.377;43001.203;  566.370;42966.902
527.963;42275.504;  642.292;42018.949
528.549;43156.652;  629.358;42476.828
529.135;43696.965;  566.445;41854.852
529.721;43015.984;  596.430;41237.711
530.306;42395.230;  869.358;41259.445
530.892;43802.625;  569.426;41506.047
531.478;45920.020;  556.485;43559.613
532.063;47584.734;  525.382;47695.563
532.649;50099.344;  756.260;50808.324
533.235;52364.711;  564.395;51787.500
533.820;52918.965;  682.568;52145.035
534.406;51958.547;  574.265;51133.488
534.991;50820.004;  534.371;49996.805
535.576;49191.906;  620.431;48882.852
536.162;47952.902;  834.453;46942.285
536.747;46998.891;  505.248;45711.746
537.333;49841.480;  547.259;48510.180
537.918;52010.391;  629.307;50439.891
538.503;52111.152;  608.469;50863.711
539.088;51775.305;  639.329;50906.922
539.673;52465.527;  590.302;52621.965
540.259;52288.086;  539.390;52368.094
540.844;51671.840;  520.415;50879.109
541.429;51684.527;  726.229;52077.777
542.014;52149.594;  511.175;52716.695
542.599;53889.855;  629.355;52363.281
543.184;54932.352;  539.243;53187.137
543.769;55532.117;  580.235;54697.605
544.354;53744.625;  583.256;53913.914
544.938;49330.793;  631.303;49680.164
545.523;46865.762;  738.379;47386.277
546.108;49192.492;  595.225;49151.949
546.693;51719.238;  596.134;51384.637
547.278;50676.391;  581.335;51853.254
547.862;48771.352;  617.442;51173.750
548.447;49811.688;  689.201;51691.395
549.031;50463.398;  571.098;52456.703
549.616;50905.301;  628.324;52714.516
550.201;51160.305;  560.283;52414.598
550.785;51825.379;  664.217;52355.059
551.370;53481.723;  518.172;54589.453
551.954;56650.625;  671.209;58267.348
552.538;56957.699;  716.282;59062.176
553.123;57101.664;  548.181;58115.285
553.707;54671.949;  580.044;56556.285
554.291;53270.387;  703.237;56201.668
554.876;51337.863;  687.191;55335.762
555.460;50438.199;  578.111;54155.703
556.044;52394.105;  569.989;53721.484
556.628;53683.387;  604.159;53731.016
557.212;52722.027;  705.320;54312.531
557.796;51234.145;  583.159;53797.773
558.380;52644.469;  629.003;56145.984
558.964;54134.250;  611.252;57277.930
559.548;55410.875;  520.244;56459.641
560.132;54167.676;  588.097;54434.543
560.716;53255.648;  513.012;54800.617
561.300;55225.348;  526.275;57606.945
561.884;55700.363;  661.139;58972.445
562.467;55026.105;  654.020;57327.570
563.051;53512.879;  618.024;54962.434
563.635;49853.246;  580.063;52594.473
564.219;46901.770;  589.142;50610.410
564.802;46131.676;  648.000;49551.180
565.386;47000.547;  619.035;48370.953
565.969;48472.395;  689.226;48178.871
566.553;49688.691;  768.086;49957.305
567.136;49895.223;  695.997;50369.594
567.720;49187.469;  619.934;49492.004
568.303;50074.691;  621.022;50616.352
568.887;51132.934;  646.059;50727.148
569.470;51797.465;  631.891;51698.379
570.053;51693.637;  659.917;52122.078
570.637;53670.996;  558.134;52536.438
571.220;54199.676;  654.148;51186.098
571.803;54509.309;  776.878;51032.762
572.386;52136.555;  555.963;49609.887
572.969;50809.836;  574.046;48285.926
573.552;50013.578;  601.005;47624.285
574.135;47825.809;  536.851;45498.641
574.718;43053.598;  541.968;41970.434
575.301;42995.738;  548.436;41447.137
575.884;42937.875;  554.903;40923.836
576.467;46215.809;  701.934;45267.723
577.050;48180.633;  603.894;48175.543
577.633;48844.137;  781.047;47729.328
578.216;48911.035;  599.913;47579.793
578.799;49750.992;  610.820;47820.996
579.381;50326.973;  766.939;48115.551
579.964;48036.027;  564.044;47333.766
580.547;47112.602;  601.896;46668.969
581.129;46221.973;  725.782;44466.141
581.712;46818.164;  648.744;44164.922
582.294;48363.395;  614.930;46477.855
582.877;49252.398;  769.954;48244.254
583.459;48131.656;  602.752;47437.895
584.042;48489.832;  576.755;46943.219
584.624;48194.520;  565.733;46792.227
585.206;47463.988;  460.910;46557.250
585.789;46207.957;  590.779;45793.773
586.371;43967.090;  626.681;43836.391
586.953;43750.746;  661.790;42972.492
587.536;43776.035;  738.913;42487.211
588.118;43015.152;  617.534;42086.414
588.700;44799.844;  760.707;43389.930
589.282;45887.547;  634.823;43646.039
589.864;45063.422;  610.776;43438.109
590.446;44665.719;  496.651;43151.926
591.028;44516.238;  620.678;42781.867
591.610;45045.504;  483.767;42839.098
592.192;44876.691;  588.824;42820.402
592.774;42714.813;  554.714;40724.277
593.356;41172.418;  581.572;39874.789
593.937;41128.492;  573.801;39980.648
594.519;43786.188;  693.777;42069.633
595.101;45357.879;  541.613;42976.031
595.683;45667.566;  574.578;44084.441
596.264;44435.301;  600.780;43478.797
596.846;44502.773;  584.709;43803.672
597.427;44065.805;  562.532;42986.934
598.009;44561.809;  556.524;42832.219
598.591;44043.891;  644.704;42580.086
599.172;44077.027;  605.676;43061.805
599.753;43234.051;  519.542;41691.469
600.335;42324.012;  678.483;40692.520
600.916;40934.793;  613.581;39982.422
601.498;41073.492;  643.630;40318.617
602.079;41760.000;  598.545;40670.609
602.660;41695.531;  557.510;41450.898
603.241;40277.188;  494.685;41137.738
603.823;38050.973;  564.645;38868.797
604.404;37029.586;  507.500;38182.785
604.985;38081.895;  558.474;38078.047
605.566;39878.859;  668.697;38056.633
606.147;39950.789;  572.428;37020.418
606.728;41068.809;  535.400;37883.359
607.309;41891.176;  545.466;38748.273
607.890;41321.016;  558.599;38850.230
608.471;39611.586;  525.510;37457.918
609.051;39222.875;  627.304;36066.457
609.632;40129.484;  551.330;35991.074
610.213;41893.070;  574.483;37402.641
610.794;42485.309;  594.459;38383.363
611.374;44077.711;  634.432;40562.387
611.955;42971.035;  501.364;38533.727
612.536;42792.297;  617.489;36951.789
613.116;42605.738;  584.462;37197.891
613.697;42846.441;  566.297;38411.125
614.277;42720.184;  554.264;38673.938
614.858;40391.305;  578.472;37075.863
615.438;37786.215;  618.488;35092.906
616.019;37097.375;  727.253;33666.301
616.599;38233.895;  472.337;34189.023
617.179;41005.816;  528.420;36952.047
617.760;43713.191;  798.506;39582.574
618.340;44085.914;  638.221;38943.977
618.920;43040.898;  753.305;37594.156
619.500;42782.602;  575.209;37866.938
620.080;42210.754;  539.308;37869.043
620.660;42006.746;  508.086;36868.617
621.241;42571.070;  556.229;36352.309
621.821;41428.344;  604.278;35459.520
622.401;40408.688;  691.302;35207.414
622.980;40739.754;  533.171;35980.422
623.560;42726.793;  559.244;37351.328
624.140;40354.207;  619.307;34388.582
624.720;38501.195;  641.281;32368.764
625.300;38479.172;  525.299;32638.629
625.880;39866.672;  584.166;34599.035
626.459;41361.137;  585.263;36831.738
627.039;43087.719;  505.195;38299.098
627.619;43328.539;  760.084;38289.574
628.198;42078.020;  678.125;37220.695
628.778;43602.434;  647.281;37632.563
629.357;43821.418;  500.272;38003.012
629.937;42939.676;  552.102;38402.039
630.516;41399.957;  723.116;37868.801
631.096;39849.273;  576.272;35760.410
631.675;39392.453;  727.033;35225.219
632.254;37723.109;  558.972;35130.289
632.834;37099.730;  579.013;35794.570
633.413;37448.754;  723.198;35788.922
633.992;37256.527;  669.022;34532.863
634.571;37706.848;  628.934;33590.113
635.151;40583.176;  536.982;34943.863
635.730;41036.320;  579.185;35352.523
636.309;40764.570;  645.119;35366.605
636.888;40910.594;  654.019;36165.637
637.467;42050.676;  489.940;37515.902
638.046;44418.102;  736.126;39288.695
638.625;43813.098;  689.019;38279.699
639.204;43162.320;  609.910;37741.598
639.782;42671.867;  581.809;38364.551
640.361;41107.082;  694.061;36740.621
640.940;39023.879;  573.067;34950.082
641.519;38520.734;  648.074;34137.398
642.097;39371.352;  614.080;35654.258
642.676;38543.988;  608.086;35637.957
643.255;38316.422;  594.092;36567.074
643.833;39887.059;  674.098;37809.434
644.412;41146.875;  553.104;37337.293
644.990;40895.453;  574.111;37018.531
645.569;40129.930;  661.117;36518.469
646.147;39466.145;  702.123;36186.430
646.726;38557.602;  600.129;36267.688
647.304;38767.258;  556.135;36647.625
647.882;41934.613;  480.142;39286.742
648.461;42696.152;  616.148;39157.703
649.039;39240.789;  654.154;35412.883
649.617;37853.402;  649.160;34744.918
650.195;38677.500;  643.167;35403.098
650.773;39094.957;  587.173;35053.797
651.352;38873.055;  469.179;33756.816
651.930;36839.148;  458.185;31868.773
652.508;37754.324;  676.191;33121.551
653.086;37993.262;  633.198;33564.793
653.663;38640.160;  549.204;34054.668
654.241;40998.895;  508.210;35693.309
654.819;42811.953;  542.216;36422.906
655.397;44485.707;  551.222;38213.484
655.975;44744.965;  596.229;39507.625
656.553;43572.859;  730.235;39498.223
657.130;43912.238;  555.241;40395.480
657.708;44340.012;  642.247;39242.020
658.286;44494.250;  585.253;38920.020
658.863;44362.445;  617.260;40202.898
659.441;43227.164;  612.266;39677.938
660.018;44829.418;  607.272;40413.355
660.596;44239.715;  504.278;39931.414
661.173;42710.871;  566.284;39604.531
661.750;42459.207;  524.291;39700.070
662.328;42512.703;  631.297;39292.809
662.905;41071.980;  561.303;38235.648
663.482;40298.238;  583.309;36212.305
664.060;39871.152;  542.315;35944.945
664.637;38748.391;  635.322;35170.785
665.214;37325.746;  617.328;34197.523
665.791;37985.063;  606.334;34549.520
666.368;37526.660;  549.340;35118.578
666.945;37381.375;  666.346;36019.418
667.522;37148.852;  545.353;36048.438
668.099;37978.348;  572.359;36243.914
668.676;39564.867;  606.365;35958.875
669.253;41059.621;  738.371;37384.730
669.830;40106.559;  714.377;36779.629
670.407;38122.914;  588.384;35231.289
670.984;38716.211;  625.390;35544.270
671.560;37845.906;  652.396;35466.867
672.137;36621.402;  576.402;34280.863
672.714;37226.539;  612.408;34632.863
673.290;37924.676;  631.415;35135.422
673.867;37681.871;  548.421;36114.480
674.443;37187.391;  509.427;36152.859
675.020;36945.945;  617.433;35327.238
675.596;38614.141;  609.439;35795.176
676.173;39779.898;  529.446;35430.355
676.749;38393.316;  443.452;33549.516
677.326;36318.953;  492.458;32210.012
677.902;36148.090;  520.464;32068.871
678.478;36704.523;  562.470;32583.891
679.054;36182.563;  888.477;32088.928
679.631;35605.996;  613.483;30978.848
680.207;38064.395;  777.489;33160.887
680.783;39618.250;  503.495;35570.363
681.359;38945.328;  594.501;36125.184
681.935;38452.164;  605.508;35240.922
682.511;37779.480;  644.514;34429.961
683.087;37013.277;  640.520;34463.680
683.663;36989.254;  533.526;34648.898
684.239;37270.488;  528.532;34546.457
684.815;39327.344;  662.539;35586.375
685.390;39503.383;  747.545;35821.895
685.966;38516.898;  601.551;35085.871
686.542;38015.074;  514.557;34198.230
687.118;36771.289;  611.563;32847.707
687.693;36625.387;  628.570;32794.027
688.269;36428.902;  575.576;33072.367
688.844;36982.059;  650.582;33141.664
689.420;38476.277;  604.588;33965.742
689.995;38777.594;  711.594;34655.523
690.571;37221.289;  699.601;33576.742
691.146;35927.625;  567.607;32657.219
691.722;35764.461;  610.613;32526.979
692.297;36176.879;  591.619;33014.617
692.872;37322.395;  533.625;34012.254
693.448;38403.691;  513.632;34237.434
694.023;38455.609;  633.638;34142.672
694.598;38710.563;  610.644;34132.031
695.173;38802.781;  545.650;34205.250
695.748;36325.176;  464.656;32882.488
696.323;35155.594;  594.663;32864.906
696.898;35332.871;  690.669;33170.004
697.473;35410.965;  476.675;32432.984
698.048;34740.664;  560.681;31649.303
698.623;34349.098;  515.687;30778.141
699.198;35259.934;  590.694;31140.119
699.773;36035.352;  522.700;31764.299
700.348;36287.289;  527.706;31780.816
700.922;36917.543;  623.712;32046.375
701.497;37539.922;  571.718;32603.574
702.072;38438.598;  638.725;34799.871
702.646;39277.195;  642.731;35793.172
703.221;39640.090;  635.737;35201.590
703.795;39887.488;  513.743;34764.527
704.370;38560.004;  403.749;34307.367
704.944;37298.320;  566.756;33509.887
705.519;35460.617;  632.762;31388.584
706.093;35929.633;  545.768;31340.104
706.668;36793.328;  664.774;32630.281
707.242;36181.965;  641.780;32728.779
707.816;35908.441;  606.787;32947.238
708.390;35860.398;  583.793;33277.855
708.965;36509.453;  606.799;33834.336
709.539;36516.309;  585.805;33709.273
710.113;36135.848;  622.811;33044.313
710.687;35272.324;  660.818;31953.992
711.261;33478.359;  503.824;30505.949
711.835;33509.777;  532.830;30262.369
712.409;34427.051;  492.836;31254.447
712.983;35697.867;  462.842;32754.986
713.557;36231.285;  495.849;34018.824
714.131;36440.281;  567.855;34579.625
714.704;34889.859;  539.861;33890.262
715.278;34583.793;  615.867;33531.102
715.852;34998.871;  646.873;33601.660
716.425;35268.469;  745.880;33515.117
716.999;34688.223;  483.886;33185.555
717.573;35156.602;  643.892;33905.996
718.146;37516.016;  735.898;35199.293
718.720;38791.555;  592.904;35060.551
719.293;38185.648;  640.911;34973.230
719.867;39256.707;  559.917;36394.449
720.440;39538.801;  701.923;36663.008
721.013;38429.020;  561.929;35102.426
721.587;38733.594;  497.935;33985.266
722.160;39135.691;  641.942;33524.965
722.733;38113.188;  595.948;32987.043
723.306;37520.563;  604.954;33066.301
723.880;38121.301;  600.960;33399.500
724.453;38930.617;  676.966;33468.297
725.026;39955.734;  562.973;33816.637
725.599;37697.590;  595.979;32797.996
726.172;37579.625;  629.985;33187.434
726.745;39362.941;  617.991;35136.613
727.318;39698.059;  671.997;35751.730
727.891;39677.977;  583.004;35890.430
728.463;38654.453;  600.010;34822.090
729.036;36288.789;  533.016;32895.086
729.609;35308.484;  503.022;31823.225
730.182;34610.500;  632.028;31445.283
730.754;35558.438;  441.035;32373.223
731.327;36837.813;  626.041;33676.820
731.900;36889.172;  498.047;33417.000
732.472;35508.086;  591.053;31978.498
733.045;34623.762;  564.059;30368.777
733.617;35139.762;  484.066;30574.215
734.190;35600.477;  613.072;31280.975
734.762;35991.395;  591.078;31674.412
735.334;35202.469;  613.084;31247.291
735.907;34491.945;  612.090;29876.211
736.479;34596.660;  640.097;29808.488
737.051;35388.277;  622.103;30233.547
737.623;37113.094;  641.109;31469.086
738.195;37808.691;  570.115;31784.225
738.768;37551.887;  432.121;32120.523
739.340;36976.766;  538.128;32094.342
739.912;35776.980;  651.134;31312.680
740.484;36050.016;  618.140;31946.238
741.056;37199.613;  561.146;32984.059
741.628;38155.391;  538.152;33897.715
742.199;37135.047;  683.159;33213.016
742.771;35119.582;  495.165;31369.113
743.343;35857.898;  523.171;31865.473
743.915;36109.414;  622.177;32388.631
744.487;34318.152;  661.183;31079.568
745.058;33733.008;  633.190;30570.107
745.630;33193.426;  653.196;29970.127
746.201;33206.223;  525.202;29186.766
746.773;32510.297;  621.208;28805.723
747.344;32255.094;  596.214;29591.223
747.916;33646.410;  614.221;31412.201
748.487;34336.527;  650.227;32194.898
749.059;34607.684;  528.233;32533.719
749.630;34524.180;  572.239;32158.518
750.201;33018.316;  606.245;30855.395
750.773;31221.072;  513.252;28622.555
751.344;31350.088;  601.258;28405.732
751.915;30972.465;  584.264;28461.551
752.486;30612.762;  538.270;27842.850
753.057;31131.797;  613.276;27845.008
753.628;31029.795;  552.283;27728.107
754.199;29502.230;  542.289;27381.086
754.770;28161.727;  614.295;25882.203
755.341;29286.703;  649.301;25886.184
755.912;29212.600;  610.307;26050.861
756.483;29295.416;  630.314;26798.779
757.054;29501.813;  549.320;27048.238
757.625;29379.549;  521.326;26294.838
758.195;29250.885;  512.332;26142.076
758.766;28823.902;  611.338;26392.234
759.337;29238.119;  511.345;26334.594
759.907;30837.814;  494.351;27579.652
760.478;30836.531;  532.357;28352.770
761.048;29926.408;  644.363;27325.088
761.619;29138.203;  619.369;26460.428
762.189;28947.500;  577.376;26029.826
762.760;29337.756;  659.382;26430.145
763.330;28770.473;  638.388;26670.902
763.900;28212.709;  594.394;26603.021
764.471;27462.307;  537.400;25542.740
765.041;26271.402;  692.407;24358.459
765.611;25163.059;  647.413;23991.297
766.181;26237.395;  563.419;24470.236
766.751;26395.211;  583.425;24845.975
767.321;25633.709;  540.431;24533.633
767.891;25895.125;  598.438;24916.492
768.461;25972.021;  579.444;24776.771
769.031;26129.018;  571.450;24757.988
769.601;25408.434;  671.456;24181.088
770.171;24804.189;  508.462;23670.387
770.741;24817.986;  585.469;22960.045
771.311;25371.924;  633.475;22917.523
771.880;25554.199;  553.481;23562.941
772.450;25761.436;  529.487;24216.500
773.020;25984.332;  492.493;24140.398
773.589;26118.148;  552.500;24414.857
774.159;25790.766;  562.506;23858.717
774.729;25074.021;  574.512;22942.135
775.298;22797.479;  544.518;22324.033
775.867;20767.635;  550.524;21140.313
776.437;20585.971;  604.531;20838.092
777.006;21366.547;  497.537;20599.510
777.576;21961.164;  637.543;20508.809
778.145;21784.221;  614.549;20732.947
778.714;21052.996;  617.555;21062.465
779.283;21675.072;  636.562;20949.664
779.853;22312.549;  572.568;20508.623
780.422;22792.906;  598.574;20649.082
780.991;23891.781;  599.580;21527.520
781.560;24324.959;  712.586;22632.658
782.129;24008.635;  614.593;23048.277
782.698;24000.410;  640.599;23438.555
783.267;23755.568;  553.605;23267.734
783.836;23366.965;  641.611;22415.133
784.404;22212.320;  506.617;20443.152
784.973;21476.756;  447.624;19699.150
785.542;21567.553;  566.630;19763.828
786.111;22113.529;  682.636;20341.408
786.679;21768.586;  600.642;20207.967
787.248;21813.223;  501.648;19516.465
787.817;21322.180;  559.655;18900.363
788.385;20707.756;  651.661;17879.121
788.954;19700.512;  469.667;17658.301
789.522;19228.268;  642.673;17788.879
790.090;19370.764;  528.679;18118.277
790.659;19940.721;  557.686;18338.736
791.227;20069.357;  575.692;18508.615
791.795;19666.613;  622.698;17898.254
792.364;18528.109;  521.704;17295.133
792.932;17714.967;  636.710;16822.051
793.500;18092.723;  536.717;17040.148
794.068;18328.539;  479.723;17179.787
794.636;17974.775;  523.729;16664.246
795.204;18020.393;  488.735;16524.545
795.772;18413.008;  522.741;17274.564
796.340;18977.926;  552.748;17891.002
796.908;18605.021;  505.754;17648.561
797.476;17880.979;  505.760;17064.080
798.044;17476.814;  480.766;16672.777
798.612;17870.230;  575.772;17023.996
799.180;17562.168;  596.779;16561.615
799.747;16863.844;  604.785;15962.773
800.315;16420.779;  510.791;15296.992
800.883;16506.016;  460.797;14801.771
801.450;16705.732;  615.803;14534.430
802.018;16727.090;  630.810;14173.248
802.585;16599.725;  548.816;14029.547
803.153;15853.682;  551.822;13836.846
803.720;15340.958;  546.828;13567.324
804.287;15250.274;  553.834;13360.622
804.855;15354.771;  659.841;13681.981
805.422;14850.987;  556.847;13536.560
805.989;14843.444;  529.853;13355.958
806.556;14979.080;  537.859;13747.896
807.124;15097.497;  632.865;13987.376
807.691;15535.073;  555.872;14038.674
808.258;15708.470;  586.878;14120.152
808.825;15418.946;  632.884;13860.111
809.392;14446.423;  706.890;13268.790
809.959;13383.559;  596.896;12680.389
810.526;13038.195;  719.903;12427.308
811.093;12734.151;  685.909;12030.105
811.659;12534.808;  550.915;11653.664
812.226;12563.045;  575.921;11637.183
812.793;12453.961;  606.927;11611.521
813.360;12778.257;  567.934;11885.181
813.926;13529.214;  604.940;12770.539
814.493;13380.430;  487.946;12677.638
815.060;13021.066;  475.952;11974.336
815.626;13051.543;  531.958;11594.715
816.193;13063.899;  595.965;11579.474
816.759;13289.296;  542.971;11666.972
817.325;12934.393;  491.977;11325.530
817.892;12460.169;  653.983;11105.369
818.458;11874.705;  619.989;10843.928
819.024;11711.722;  677.996;10714.406
819.591;11572.038;  596.002;10469.165
820.157;11310.154;  482.008;10235.523
820.723;11597.070;  629.014;10847.563
821.289;11888.167;  896.020;11040.980
821.855;11478.424;  667.027;10357.100
822.421;11186.080;  566.033; 9978.918
822.987;11199.836;  517.039; 9754.177
823.553;11124.232;  553.045;10065.755
824.119;11039.669;  674.051;10036.294
824.685;10972.546;  648.058;10029.192
825.251;11061.822;  645.064;10199.230
825.816;10905.979;  719.070; 9820.189
826.382;10246.055;  633.076; 9297.248
826.948;10073.432;  627.082; 9381.347
827.513;10004.048;  568.089; 9450.726
828.079;10003.724;  521.095; 9472.444
828.645;10101.061;  612.101; 9292.643
829.210;10176.977;  499.107; 9065.341
829.776;10503.033;  624.113; 9132.620
830.341;10329.689;  626.120; 9092.878
830.906;10146.066;  687.126; 9078.557
831.472; 9658.463;  506.132; 8534.535
832.037; 9616.999;  650.138; 8677.874
832.602; 9695.415;  538.144; 8628.692
833.167; 9691.472;  615.151; 8879.031
833.733; 9750.688;  648.157; 9189.790
834.298; 9684.704;  509.163; 9052.608
834.863; 9612.561;  639.169; 8895.087
835.428; 9534.098;  605.175; 8824.266
835.993; 9424.193;  606.182; 8845.385
836.558; 9339.210;  632.188; 8888.563
837.123; 9260.127;  765.194; 8966.582
837.688; 9206.123;  604.200; 8617.860
838.253; 9257.239;  609.206; 8590.699
838.817; 9042.235;  573.213; 8443.797
839.382; 9138.132;  686.219; 8799.356
839.947; 9062.349;  599.225; 8810.595
840.511; 9146.305;  700.231; 8796.394
841.076; 8841.262;  463.237; 8347.231
841.641; 8889.158;  615.244; 8224.330
842.205; 8758.935;  589.250; 8223.349
842.770; 9032.610;  714.256; 8622.107
843.334; 9019.787;  588.262; 8410.386
843.898; 9050.323;  566.268; 8337.465
844.463; 9161.400;  680.275; 8506.283
845.027; 8983.196;  589.281; 8280.962
845.591; 8844.133;  649.287; 8231.141
846.156; 8564.169;  554.293; 7969.179
846.720; 8624.886;  663.299; 7768.278
847.284; 8242.762;  612.306; 7630.957
847.848; 8014.238;  621.312; 7472.395
848.412; 7920.915;  623.318; 7437.394
848.976; 8094.831;  715.324; 7674.592
849.540; 8076.968;  764.330; 7836.011
850.104; 8019.464;  682.337; 7913.669
850.668; 7943.681;  477.343; 7694.508
851.232; 8142.877;  520.349; 7756.887
851.796; 8231.133;  594.355; 7926.545
852.359; 7998.990;  658.361; 7827.844
852.923; 7777.706;  641.368; 7641.163
853.487; 7661.723;  645.374; 7342.501
854.050; 7364.159;  400.380; 7042.820
854.614; 7648.015;  541.386; 7151.338
855.177; 7841.332;  597.392; 7105.077
855.741; 7695.408;  651.399; 6989.675
856.304; 7429.845;  663.405; 6596.634
856.868; 7007.401;  522.411; 6356.272
857.431; 6959.337;  601.417; 6468.571
857.995; 6940.294;  575.423; 6373.210
858.558; 6907.650;  642.430; 6324.448
859.121; 6977.367;  634.436; 6408.327
859.684; 6869.343;  625.442; 6347.886
860.247; 6823.540;  587.448; 6321.264
860.810; 6669.216;  536.454; 6301.903
861.374; 7023.372;  731.461; 6607.881
861.937; 6959.869;  505.467; 6408.200
862.500; 7110.485;  553.473; 6572.639
863.062; 6956.102;  526.479; 6387.297
863.625; 6819.998;  604.485; 6190.836
864.188; 6640.994;  524.492; 5807.254
864.751; 6392.551;  571.498; 5682.413
865.314; 6151.947;  605.504; 5547.492
865.876; 6160.903;  667.510; 5500.150
866.439; 6118.000;  650.516; 5415.909
867.002; 6013.856;  772.523; 5501.567
867.564; 5884.673;  708.529; 5413.946
868.127; 5745.869;  595.535; 5160.325
868.689; 5715.766;  602.541; 5133.183
869.252; 5764.362;  687.547; 5252.382
869.814; 5624.658;  530.554; 5297.141
870.377; 5780.135;  632.560; 5390.919
870.939; 6037.691;  836.566; 5599.898
871.501; 5556.708;  623.572; 5248.336
872.063; 5234.484;  470.578; 4854.235
872.626; 5261.000;  501.585; 4817.074
873.188; 5218.277;  606.591; 4987.732
873.750; 5181.053;  582.597; 4868.651
874.312; 5266.350;  534.603; 4779.330
874.874; 5543.566;  733.609; 4866.348
875.436; 5333.862;  669.616; 4718.887
875.998; 5234.339;  677.622; 4660.005
876.560; 4965.916;  677.628; 4462.964
877.122; 4706.852;  529.634; 4145.042
877.683; 4672.788;  605.640; 4056.481
878.245; 4583.745;  555.647; 3950.740
878.807; 4557.841;  617.653; 4058.958
879.369; 4330.897;  513.659; 3954.677
879.930; 4328.834;  511.665; 3941.495
880.492; 4486.730;  681.671; 4067.014
881.053; 4327.247;  542.678; 3859.633
881.615; 4116.903;  535.684; 3776.071
882.176; 3968.240;  585.690; 3734.750
882.738; 3959.456;  658.696; 3678.489
883.299; 3656.892;  475.702; 3405.407
883.860; 3565.369;  493.709; 3351.106
884.422; 3676.065;  646.715; 3394.044
884.983; 3524.902;  521.721; 3166.443
885.544; 3480.278;  621.727; 3189.802
886.105; 3378.594;  592.733; 3160.360
886.666; 3296.451;  583.740; 3093.059
887.227; 3167.387;  499.746; 2941.957
887.788; 3175.783;  615.752; 2974.836
888.349; 2915.560;  499.758; 2721.214
888.910; 2895.917;  640.764; 2696.493
889.471; 2792.233;  600.771; 2560.172
890.032; 2697.049;  584.777; 2558.190
890.593; 2741.226;  638.783; 2567.669
891.153; 2676.662;  564.789; 2460.307
891.714; 2587.778;  512.795; 2372.046
892.275; 2567.515;  512.802; 2309.505
892.835; 2590.351;  664.808; 2382.543
893.396; 2448.128;  619.814; 2295.502
893.956; 2307.004;  600.820; 2162.420
894.517; 2250.720;  604.826; 2125.439
895.077; 2157.937;  624.833; 2086.978
895.638; 2184.273;  732.839; 2126.316
896.198; 1915.930;  552.845; 1838.275
896.758; 1966.366;  656.851; 1892.813
897.319; 1860.243;  562.857; 1792.232
897.879; 1852.939;  592.864; 1762.751
898.439; 1708.395;  526.870; 1661.149
898.999; 1813.692;  610.876; 1781.468
899.559; 1791.928;  618.882; 1703.347
900.119; 1630.485;  495.888; 1537.525
900.679; 1735.121;  696.895; 1638.384
901.239; 1626.617;  619.901; 1527.902
901.799; 1552.614;  623.907; 1456.441
902.359; 1437.170;  543.913; 1357.140
902.919; 1381.987;  538.919; 1331.118
903.479; 1357.503;  536.926; 1317.257
904.038; 1325.839;  524.932; 1262.595
904.598; 1233.156;  426.938; 1152.034
905.158; 1312.552;  592.944; 1240.893
905.717; 1297.049;  559.950; 1233.691
906.277; 1283.425;  588.957; 1217.330
906.836; 1283.822;  616.963; 1222.408
907.396; 1256.338;  631.969; 1193.047
907.955; 1243.354;  648.975; 1182.526
908.515; 1161.331;  556.981; 1099.364
909.074; 1132.107;  560.988; 1092.863
909.633; 1099.124;  574.994; 1069.121
910.192; 1237.720;  721.000; 1196.460
910.752; 1077.300;  559.000; 1029.960
911.311; 1051.480;  565.000; 1009.780
911.870; 1019.020;  523.000;  971.460
912.429; 1129.080;  678.000; 1094.080
912.988; 1117.540;  659.000; 1081.060
913.547;  974.000;  514.000;  940.380
914.106; 1033.680;  629.000;  999.420
914.665; 1016.800;  620.000;  984.020
915.224; 1072.800;  646.000; 1035.760
915.782;  955.840;  556.000;  922.560
916.341; 1075.420;  680.000; 1049.840
916.900;  955.960;  569.000;  925.260
917.458;  916.160;  549.000;  884.220
918.017;  970.880;  612.000;  942.600
918.576;  936.180;  595.000;  904.440
919.134;  863.780;  513.000;  837.980
919.693;  922.440;  561.000;  893.060
920.251;  899.840;  533.000;  876.500
920.809;  863.820;  537.000;  839.580
921.368;  911.240;  568.000;  885.360
921.926;  878.320;  507.000;  842.940
922.484;  932.020;  601.000;  903.360
923.042;  906.500;  559.000;  880.340
923.601; 1021.900;  723.000;  998.680
924.159;  971.680;  631.000;  935.560
924.717;  872.160;  528.000;  841.080
925.275;  923.040;  615.000;  903.240
925.833;  799.880;  496.000;  779.320
926.391;  962.580;  618.000;  938.380
926.949;  885.560;  542.000;  857.680
927.506;  930.820;  585.000;  903.500
928.064;  903.140;  580.000;  877.580
928.622;  907.440;  573.000;  880.100
929.180;  847.540;  486.000;  814.180
929.737;  827.380;  496.000;  808.540
930.295;  951.240;  617.000;  928.480
930.853;  866.680;  535.000;  849.100
931.410;  844.160;  525.000;  821.120
931.968;  968.300;  636.000;  940.660
932.525;  932.640;  587.000;  909.380
933.082;  835.340;  485.000;  811.440
933.640;  959.580;  600.000;  925.900
934.197;  905.420;  559.000;  886.360
934.754;  914.620;  569.000;  897.780
935.312;  886.520;  518.000;  863.340
935.869; 1041.880;  665.000; 1012.980
936.426;  894.880;  567.000;  872.800
936.983;  907.440;  566.000;  889.020
937.540;  861.600;  489.000;  838.280
938.097;  975.300;  578.000;  940.120
938.654;  926.240;  551.000;  898.860
939.211;  980.820;  604.000;  952.480
939.768;  945.000;  568.000;  915.420
940.324;  932.980;  551.000;  904.200
940.881;  914.140;  534.000;  878.500
941.438; 1049.620;  650.000; 1021.200
941.995; 1030.420;  633.000;  992.560
942.551;  905.700;  493.000;  875.620
943.108;  967.200;  580.000;  937.920
943.664;  886.160;  520.000;  869.340
944.221; 1100.960;  688.000; 1088.140
944.777;  868.780;  505.000;  869.680
945.334;  874.000;  525.000;  884.840
945.890;  940.060;  585.000;  946.480
946.446;  942.640;  577.000;  947.020
947.003;  968.020;  585.000;  964.940
947.559; 1072.160;  691.000; 1063.040
948.115; 1037.520;  675.000; 1026.540
948.671;  983.760;  595.000;  967.300
949.227;  888.820;  485.000;  859.560
949.783;  878.380;  473.000;  858.900
950.339; 1004.600;  604.000;  991.000
950.895; 1045.220;  604.000; 1023.840
951.451;  947.400;  532.000;  925.280
952.007; 1014.400;  615.000;  998.540
952.563;  965.240;  545.000;  937.780
953.118;  936.260;  539.000;  904.940
953.674;  968.040;  543.000;  935.780
954.230;  973.580;  531.000;  949.640
954.785;  975.660;  590.000;  936.640
955.341; 1028.600;  611.000;  998.160
955.897;  862.680;  472.000;  834.660
956.452;  980.000;  568.000;  953.840
957.008; 1111.680;  772.000; 1083.640
957.563; 1041.740;  676.000; 1009.540
958.118;  905.040;  532.000;  877.700
958.674;  969.160;  625.000;  946.780
959.229; 1039.240;  665.000; 1013.980
959.784;  866.600;  475.000;  832.400
960.339; 1041.500;  663.000; 1001.280
960.894;  994.440;  631.000;  963.760
961.449;  890.440;  543.000;  859.960
962.004; 1246.040;  863.000; 1212.840
962.559;  895.180;  550.000;  860.140
963.114;  770.020;  396.000;  742.480
963.669;  946.960;  568.000;  915.500
964.224;  910.180;  522.000;  874.340
964.779;  859.800;  460.000;  828.420
965.334; 1041.880;  714.000; 1017.860
965.888;  899.780;  509.000;  875.360
966.443; 1001.920;  611.000;  972.380
966.998;  838.300;  492.000;  819.460
967.552;  927.940;  549.000;  908.380
968.107;  893.800;  518.000;  868.300
968.661;  954.400;  579.000;  922.440
969.216;  880.900;  530.000;  856.280
969.770;  942.280;  589.000;  917.200
970.324;  947.900;  581.000;  923.140
970.879;  976.420;  616.000;  947.180
971.433;  987.680;  624.000;  952.720
971.987;  927.460;  538.000;  895.340
972.541;  946.000;  603.000;  917.100
973.095; 1047.420;  667.000; 1009.460
973.649;  834.700;  493.000;  809.480
974.203;  854.120;  533.000;  829.040
974.757;  886.120;  556.000;  855.220
975.311;  903.800;  602.000;  872.600
975.865;  914.540;  582.000;  881.820
976.419;  883.340;  573.000;  857.400
976.973;  875.880;  533.000;  849.620
977.526;  972.580;  635.000;  949.920
978.080;  831.220;  494.000;  796.780
978.634;  950.380;  638.000;  921.320
979.187;  934.400;  623.000;  905.400
979.741; 1048.340;  745.000; 1018.380
980.294;  817.420;  496.000;  789.160
980.848;  743.080;  454.000;  717.220
981.401;  842.900;  542.000;  816.540
981.955;  882.740;  594.000;  844.300
982.508;  777.760;  463.000;  746.340
983.061;  946.580;  659.000;  915.260
983.615;  828.620;  524.000;  798.800
984.168;  800.980;  506.000;  770.080
984.721;  901.560;  614.000;  880.760
985.274;  886.720;  610.000;  867.500
985.827;  850.540;  574.000;  834.220
986.380;  749.020;  467.000;  721.340
986.933;  894.200;  602.000;  864.800
987.486;  883.400;  602.000;  861.920
988.039;  876.640;  630.000;  863.100
988.591;  912.720;  624.000;  893.260
989.144;  752.860;  514.000;  737.260
989.697;  771.900;  532.000;  758.740
990.250;  877.580;  634.000;  858.100
990.802;  774.160;  538.000;  755.860
991.355;  996.160;  749.000;  974.880
991.907;  882.710;  646.000;  864.320
992.460;  769.260;  543.000;  753.760
993.012;  768.740;  552.000;  749.540
993.565;  728.380;  498.000;  711.360
994.117;  967.540;  731.000;  950.780
994.669;  718.220;  508.000;  701.320
995.221;  809.700;  576.000;  791.920
995.774;  805.380;  595.000;  787.580
996.326;  754.120;  560.000;  740.220
996.878;  846.240;  676.000;  838.420
997.430;  711.600;  515.000;  699.860
997.982;  761.660;  593.000;  750.140
998.534;  752.440;  572.000;  739.060
999.086;  748.260;  561.000;  738.220
999.638;  672.240;  465.000;  661.380
1000.190;  713.040;  524.000;  699.320
1000.741;  753.380;  559.000;  742.700
1001.293;  697.520;  533.000;  686.020
1001.845;  696.440;  523.000;  676.640
1002.396;  759.280;  567.000;  743.400
1002.948;  752.640;  581.000;  737.400
1003.500;  727.560;  568.000;  723.780
1004.051;  921.820;  737.000;  907.580
1004.603;  800.680;  644.000;  791.820
1005.154;  616.560;  464.000;  608.980
1005.705;  726.140;  609.000;  723.960
1006.257;  721.980;  589.000;  707.220
1006.808;  697.460;  557.000;  685.460
1007.359;  774.340;  635.000;  763.240
1007.910;  654.740;  529.000;  646.640
1008.461;  747.200;  617.000;  732.940
1009.013;  601.280;  485.000;  588.340
1009.564;  803.920;  689.000;  793.520
1010.115;  600.760;  500.000;  597.040
1010.665;  617.540;  477.000;  602.160
1011.216;  681.440;  575.000;  667.920
1011.767;  705.800;  601.000;  697.920
1012.318;  742.900;  629.000;  736.980
1012.869;  684.420;  595.000;  679.000
1013.419;  611.060;  493.000;  603.120
1013.970;  675.100;  546.000;  666.640
1014.521;  619.920;  537.000;  620.620
1015.071;  685.500;  617.000;  670.380
1015.622;  645.980;  522.000;  635.460
1016.172;  601.240;  495.000;  596.820
1016.723;  621.260;  524.000;  614.380
1017.273;  612.140;  521.000;  604.160
1017.823;  655.140;  549.000;  650.340
1018.374;  617.520;  508.000;  611.760
1018.924;  717.240;  628.000;  716.880
1019.474;  715.820;  619.000;  718.880
1020.024;  664.180;  561.000;  657.580
1020.574;  729.800;  673.000;  726.160
1021.124;  678.800;  587.000;  673.580
1021.674;  570.880;  461.000;  559.120
1022.224;  717.500;  620.000;  708.940
1022.774;  675.800;  593.000;  668.820
1023.324;  762.260;  687.000;  753.520
1023.874;  889.060;  776.000;  875.760
1024.423;  622.380;  529.000;  613.700
1024.973;  613.840;  549.000;  610.760
1025.523;  626.640;  553.000;  620.960
1026.072;  617.780;  534.000;  606.420
1026.622;  680.880;  559.000;  675.740
1027.172;  722.100;  629.000;  715.660
1027.721;  603.020;  557.000;  601.220
1028.270;  678.860;  591.000;  663.400
1028.820;  648.580;  556.000;  638.080
1029.369;  617.420;  514.000;  612.700
1029.918;  651.880;  571.000;  649.840
1030.468;  568.000;  485.000;  564.780
1031.017;  647.160;  552.000;  634.800
1031.566;  616.580;  559.000;  608.900
1032.115;  701.280;  608.000;  694.500
1032.664;  610.020;  500.000;  596.480
1033.213;  738.680;  641.000;  735.420
1033.762;  640.040;  553.000;  635.620
1034.311;  678.200;  600.000;  677.220
1034.860;  701.500;  603.000;  691.000
1035.408;  732.400;  623.000;  722.720
1035.957;  722.500;  633.000;  719.540
1036.506;  539.320;  469.000;  530.800
1037.055;  856.040;  763.000;  844.320
1037.603;  673.000;  576.000;  664.000
1038.152;  539.980;  458.000;  534.760
1038.700;  584.100;  523.000;  585.740
1039.249;  685.040;  589.000;  681.220
1039.797;  644.180;  562.000;  633.360
1040.345;  703.520;  625.000;  705.420
1040.894;  637.380;  556.000;  625.300
1041.442;  639.660;  554.000;  632.200
1041.990;  569.120;  485.000;  559.160
1042.538;  544.480;  456.000;  536.180
1043.087;  573.840;  503.000;  570.860
1043.635;  678.680;  593.000;  670.500
1044.183;  601.060;  492.000;  586.400
1044.731;  581.520;  533.000;  576.000
1045.279;  678.120;  631.000;  674.920
1045.827;  902.820;  832.000;  892.400
1046.374;  521.480;  453.000;  515.420
1046.922;  594.840;  539.000;  590.580
1047.470;  695.060;  651.000;  691.300
1048.018;  657.720;  596.000;  647.960
1048.565;  720.840;  671.000;  708.600
1049.113;  558.860;  469.000;  557.000
1049.660;  625.920;  568.000;  629.660
1050.208;  679.520;  606.000;  675.640
1050.755;  609.320;  517.000;  606.580
1051.303;  692.540;  624.000;  686.820
1051.850;  645.140;  557.000;  635.120
1052.397;  484.360;  391.000;  473.960
1052.945;  624.240;  524.000;  617.760
1053.492;  747.660;  669.000;  741.840
1054.039;  721.100;  685.000;  720.180
1054.586;  566.160;  489.000;  557.240
1055.133;  700.840;  628.000;  693.140
1055.680;  654.500;  577.000;  646.620
1056.227;  544.600;  485.000;  542.780
1056.774;  803.020;  707.000;  794.980
1057.321;  528.460;  459.000;  523.260
1057.868;  647.060;  581.000;  651.320
1058.415;  652.940;  613.000;  651.980
1058.961;  684.020;  601.000;  678.940
1059.508;  645.540;  586.000;  643.820
1060.055;  588.220;  488.000;  581.780
1060.601;  632.940;  557.000;  624.300
1061.148;  623.300;  551.000;  616.820
1061.694;  602.860;  537.000;  592.580
1062.241;  600.460;  540.000;  596.320
1062.787;  669.640;  589.000;  663.140
1063.334;  812.920;  733.000;  808.560
1063.880;  677.120;  618.000;  668.360
1064.426;  708.540;  623.000;  706.820
1064.972;  595.920;  525.000;  601.340
1065.518;  575.300;  501.000;  566.640
1066.065;  633.880;  531.000;  624.460
1066.611;  608.820;  556.000;  598.800
1067.157;  639.760;  588.000;  641.860
1067.703;  678.420;  573.000;  668.480
1068.249;  609.660;  521.000;  605.220
1068.794;  632.160;  558.000;  626.880
1069.340;  579.420;  519.000;  578.960
1069.886;  601.240;  525.000;  590.700
1070.432;  545.380;  467.000;  541.720
1070.977;  603.460;  543.000;  601.080
1071.523;  570.340;  506.000;  573.060
1072.068;  583.780;  500.000;  582.000
1072.614;  528.540;  425.000;  527.760
1073.160;  695.180;  640.000;  687.040
1073.705;  574.580;  532.000;  572.520
1074.250;  565.140;  528.000;  559.900
1074.796;  662.720;  567.000;  655.160
1075.341;  673.360;  597.000;  664.100
1075.886;  603.000;  527.000;  594.240
1076.431;  657.080;  567.000;  649.880
1076.976;  647.540;  589.000;  639.220
1077.521;  583.400;  498.000;  583.080
1078.067;  582.200;  533.000;  579.400
1078.612;  667.680;  608.000;  661.620
1079.156;  609.800;  520.000;  601.540
1079.701;  697.520;  627.000;  693.260
1080.246;  699.220;  644.000;  696.300
1080.791;  633.900;  587.000;  625.020
1081.336;  666.660;  627.000;  659.320
1081.880;  653.040;  573.000;  649.680
1082.425;  573.360;  532.000;  573.480
1082.970;  722.300;  657.000;  717.040
1083.514;  603.920;  546.000;  597.000
1084.059;  587.460;  554.000;  586.720
1084.603;  567.580;  539.000;  565.840
1085.147;  653.860;  599.000;  645.220
1085.692;  722.540;  641.000;  716.800
1086.236;  509.220;  428.000;  503.140
1086.780;  755.080;  674.000;  751.440
1087.325;  662.080;  584.000;  654.620
1087.869;  618.960;  574.000;  610.700
1088.413;  706.380;  677.000;  705.040
1088.957;  543.440;  461.000;  543.400
1089.501;  772.260;  700.000;  766.640
1090.045;  732.540;  651.000;  726.480
1090.589;  570.960;  520.000;  569.920
1091.133;  679.140;  631.000;  673.340
1091.676;  595.580;  539.000;  591.940
1092.220;  608.640;  549.000;  600.920
1092.764;  707.400;  666.000;  706.960
1093.307;  673.240;  637.000;  673.780
1093.851;  558.480;  516.000;  556.540
1094.395;  687.160;  638.000;  683.140
1094.938;  637.900;  571.000;  632.520
1095.482;  562.740;  534.000;  559.800
1096.025;  717.840;  687.000;  710.880
1096.568;  785.500;  731.000;  779.280
1097.112;  514.840;  456.000;  508.180
1097.655;  601.060;  530.000;  603.000
1098.198;  602.500;  538.000;  600.180
1098.741;  617.760;  572.000;  612.860
1099.285;  660.960;  596.000;  657.300
1099.828;  442.880;  407.000;  439.400
1100.371;  611.200;  566.000;  608.160
1100.914;  685.420;  592.000;  682.660
1101.457;  682.040;  623.000;  679.900
1101.999;  580.260;  567.000;  584.680
1102.542;  650.300;  580.000;  641.440
1103.085;  665.060;  646.000;  658.500
1103.628;  766.620;  737.000;  762.060
1104.170;  586.740;  536.000;  588.280
1104.713;  655.080;  592.000;  646.700
1105.256;  561.960;  507.000;  557.440
1105.798;  506.220;  452.000;  499.980
1106.341;  732.020;  709.000;  728.900
1106.883;  529.200;  479.000;  521.340
1107.425;  674.560;  627.000;  668.180
1107.968;  617.580;  576.000;  612.380
1108.510;  684.700;  661.000;  684.960
1109.052;  620.680;  575.000;  612.620
1109.594;  563.840;  532.000;  554.440
1110.136;  649.220;  600.000;  643.220
1110.679;  636.180;  597.000;  633.080
1111.221;  614.640;  555.000;  604.460
1111.763;  557.720;  476.000;  559.220
1112.304;  552.260;  507.000;  547.140
1112.846;  664.720;  653.000;  666.240
1113.388;  951.660;  885.000;  942.180
1113.930;  699.440;  640.000;  694.200
1114.472;  611.220;  529.000;  606.540
1115.013;  549.480;  488.000;  551.280
1115.555;  595.340;  543.000;  587.100
1116.097;  579.940;  521.000;  579.480
1116.638;  687.840;  659.000;  684.600
1117.180;  670.000;  651.000;  667.740
1117.721;  572.700;  493.000;  568.580
1118.262;  685.280;  608.000;  677.960
1118.804;  637.340;  565.000;  637.340
1119.345;  581.360;  526.000;  578.400
1119.886;  711.260;  652.000;  704.040
1120.427;  590.720;  563.000;  589.020
1120.969;  605.380;  541.000;  597.920
1121.510;  567.680;  541.000;  563.060
1122.051;  726.380;  680.000;  723.580
1122.592;  661.600;  619.000;  655.420
1123.133;  545.980;  510.000;  547.940
1123.673;  705.320;  669.000;  706.480
1124.214;  616.100;  563.000;  612.460
1124.755;  646.180;  599.000;  639.460
1125.296;  625.880;  596.000;  627.320
1125.836;  689.160;  670.000;  691.500
1126.377;  604.480;  549.000;  599.660
1126.918;  619.400;  556.000;  614.980
1127.458;  621.640;  598.000;  622.220
1127.999;  658.620;  617.000;  656.980
1128.539;  695.060;  634.000;  694.240
1129.079;  640.320;  593.000;  632.720
1129.620;  558.900;  521.000;  558.100
1130.160;  542.460;  522.000;  539.480
1130.700;  644.360;  599.000;  640.840
1131.240;  646.960;  602.000;  643.700
1131.781;  627.120;  581.000;  619.680
1132.321;  601.080;  563.000;  599.120
1132.861;  569.160;  522.000;  564.200
1133.401;  599.840;  580.000;  593.940
1133.941;  631.800;  590.000;  626.280
1134.481;  604.600;  567.000;  597.580
1135.020;  616.560;  554.000;  609.160
1135.560;  678.880;  632.000;  674.940
1136.100;  500.240;  469.000;  501.160
1136.640;  509.700;  484.000;  510.480
1137.179;  540.580;  492.000;  537.960
1137.719;  607.840;  576.000;  605.400
1138.258;  590.000;  523.000;  587.360
1138.798;  664.300;  597.000;  663.780
1139.337;  485.060;  421.000;  482.840
1139.877;  647.520;  605.000;  642.360
1140.416;  882.120;  831.000;  878.060
1140.955;  535.860;  526.000;  535.380
1141.494;  671.580;  633.000;  669.280
1142.034;  585.460;  533.000;  583.520
1142.573;  655.140;  595.000;  646.280
1143.112;  554.240;  534.000;  553.480
1143.651;  543.520;  502.000;  536.480
1144.190;  693.300;  649.000;  691.640
1144.729;  606.940;  577.000;  607.420
1145.267;  577.780;  556.000;  584.900
1145.806;  640.100;  592.000;  637.040
1146.345;  645.900;  600.000;  635.020
1146.884;  626.220;  563.000;  622.500
1147.422;  528.260;  503.000;  533.060
1147.961;  709.660;  703.000;  708.460
1148.500;  675.360;  631.000;  669.720
1149.038;  637.560;  573.000;  632.500
1149.577;  703.620;  672.000;  698.640
1150.115;  454.080;  418.000;  452.280
1150.653;  606.180;  572.000;  607.340
1151.192;  554.760;  520.000;  552.920
1151.730;  657.180;  639.000;  652.560
1152.268;  589.600;  559.000;  589.520
1152.806;  575.580;  542.000;  571.180
1153.344;  579.320;  529.000;  577.640
1153.882;  594.440;  571.000;  600.060
1154.421;  476.260;  440.000;  470.620
1154.958;  597.160;  566.000;  595.240
1155.496;  647.360;  606.000;  645.280
1156.034;  712.620;  715.000;  721.880
1156.572;  678.200;  638.000;  667.060
1157.110;  470.600;  423.000;  473.940
1157.647;  679.020;  648.000;  676.960
1158.185;  569.460;  532.000;  564.320
1158.723;  511.780;  474.000;  509.200
1159.260;  695.260;  670.000;  701.700
1159.798;  662.500;  602.000;  658.160
1160.335;  625.080;  613.000;  631.820

