
Integration time [ms]:   3.882
Averaging Nr. [scans]: 1000
Smoothing Nr. [pixels]: 0
Data measured with spectrometer [name]: 7414430SP
Wave   ;Sample   ;Dark     ;Reference
[nm]   ;[counts] ;[counts] ;[counts] 

288.544;  136.773;    7.153;  793.890
289.143;  141.332;    8.402;  681.602
289.742;  143.474;    7.062;  828.814
290.341;  130.353;    0.191;  789.841
290.940;  120.499;    0.321;  730.702
291.538;  121.503;    3.811;  881.108
292.137;  119.991;   -3.438;  792.581
292.736;  123.603;   -2.809;  975.101
293.335;  119.905;   -5.239;  735.086
293.934;  121.796;   -4.939;  781.677
294.532;  122.335;   -2.199; 1031.958
295.131;  108.116;   -6.831;  834.394
295.730;  107.156;   -6.620;  809.588
296.328;  105.458;   -6.471;  783.442
296.927;  104.754;   -6.571;  779.652
297.525;  106.185;   -7.391;  781.236
298.124;   97.163;   -9.402;  654.009
298.722;  102.528;   -5.781;  761.933
299.321;  100.381;   -6.351;  708.597
299.919;   97.356;   -8.661;  751.918
300.518;   93.155;  -11.922;  689.338
301.116;   95.418;   -6.941;  691.381
301.715;   96.079;   -5.471;  730.222
302.313;   94.764;   -8.361;  704.943
302.911;   90.132;   -9.082;  733.830
303.509;   95.392;   -4.571;  925.627
304.108;   93.274;   -7.111;  760.383
304.706;   92.340;   -7.681;  801.664
305.304;   87.707;   -9.162;  796.707
305.902;   92.783;   -6.761;  784.484
306.500;   89.165;   -6.921;  728.200
307.098;   86.720;   -6.491;  746.560
307.696;   85.061;   -6.941;  780.432
308.294;   85.240;   -6.301;  731.359
308.892;   88.137;   -4.771;  759.769
309.490;   83.384;   -5.141;  712.161
310.088;   82.455;   -2.912;  788.444
310.686;   86.216;   -0.421;  821.749
311.284;   83.020;   -3.461;  766.040
311.882;   80.187;   -6.282;  731.225
312.480;   77.429;   -3.632;  697.167
313.078;   79.590;   -2.112;  808.331
313.675;   80.070;   -1.931;  691.600
314.273;   74.770;   -1.442;  797.837
314.871;   73.944;   -3.002;  589.829
315.468;   72.390;   -2.252;  652.090
316.066;   75.761;   -1.091;  694.427
316.664;   67.838;   -4.512;  656.351
317.261;   72.771;   -0.062;  910.128
317.859;   68.293;   -0.952;  768.735
318.456;   69.822;    0.719;  830.096
319.054;   65.044;   -4.002;  787.828
319.651;   63.722;   -4.972;  759.928
320.249;   63.912;   -1.162;  810.188
320.846;   60.703;   -2.651;  714.286
321.443;   59.328;   -3.832;  832.135
322.041;   56.274;   -4.312;  812.315
322.638;   54.190;   -3.872;  701.456
323.235;   55.554;   -4.361;  665.683
323.833;   52.804;   -4.821;  740.354
324.430;   47.911;   -6.971;  615.900
325.027;   50.623;   -4.361;  876.855
325.624;   50.002;   -5.581;  644.532
326.221;   47.043;   -6.601;  689.717
326.818;   46.388;   -7.301;  818.332
327.415;   48.968;   -6.180;  748.828
328.012;   48.521;   -5.920;  690.585
328.609;   46.339;   -8.390;  731.389
329.206;   44.434;   -6.121;  778.621
329.803;   44.905;   -5.241;  737.841
330.400;   47.176;   -7.420;  704.260
330.997;   47.273;   -5.931;  817.147
331.594;   44.393;   -5.641;  788.185
332.191;   50.654;   -6.451;  728.722
332.787;   53.986;   -4.651;  844.463
333.384;   51.543;   -5.472;  763.093
333.981;   48.046;   -6.303;  815.687
334.578;   51.363;   -5.892;  708.378
335.174;   54.473;   -4.102;  731.469
335.771;   54.136;   -8.053;  836.456
336.367;   51.070;   -7.363;  710.631
336.964;   54.613;   -6.243;  793.266
337.561;   53.865;   -5.653;  731.112
338.157;   49.649;   -7.074;  911.916
338.754;   46.650;   -5.474;  796.589
339.350;   46.588;   -5.624;  722.493
339.946;   48.663;   -5.054;  773.135
340.543;   40.078;   -6.695;  846.136
341.139;   34.886;   -6.215;  720.836
341.735;   34.431;   -5.746;  772.593
342.332;   32.782;   -7.335;  691.472
342.928;   32.308;   -4.835;  795.394
343.524;   25.955;   -4.586;  761.684
344.120;   23.577;   -3.946;  738.562
344.716;   27.234;   -4.835;  723.717
345.313;   24.038;   -5.325;  795.342
345.909;   18.967;   -6.535;  627.336
346.505;   21.746;   -4.725;  740.247
347.101;   22.170;   -4.164;  827.864
347.697;   22.009;   -5.274;  785.398
348.293;   17.148;   -7.145;  627.244
348.889;   17.842;   -4.364;  745.914
349.485;   17.676;   -6.404;  688.205
350.081;   17.300;   -7.534;  772.592
350.676;   12.736;   -6.995;  691.606
351.272;   17.485;   -3.544;  809.530
351.868;   18.154;   -5.324;  780.497
352.464;   14.933;   -7.204;  723.932
353.059;   10.886;   -6.894;  646.017
353.655;   14.682;   -3.754;  777.063
354.251;   14.928;   -6.143;  759.845
354.846;   10.280;   -9.464;  740.646
355.442;    7.704;   -7.555;  753.071
356.038;    9.446;   -5.474;  751.708
356.633;   10.154;   -5.914;  728.594
357.229;    7.595;   -8.944;  724.757
357.824;    6.390;   -6.794;  703.600
358.420;    6.109;   -5.754;  679.726
359.015;    6.502;   -5.664;  695.357
359.610;    6.768;   -8.004;  763.920
360.206;    0.826;   -8.815;  603.240
360.801;    3.518;   -8.834;  646.503
361.396;    6.740;   -6.274;  725.975
361.992;    1.312;   -8.574;  668.220
362.587;   -0.913;   -9.265;  670.160
363.182;    1.134;   -5.484;  689.631
363.777;    2.352;   -5.164;  738.242
364.372;    2.081;   -6.954;  737.314
364.967;   -1.858;   -7.065;  680.744
365.563;    2.813;   -5.684;  815.567
366.158;    0.011;   -6.484;  685.161
366.753;   -0.166;   -8.004;  649.263
367.348;   -1.255;  -10.114;  746.056
367.942;   -2.194;   -7.764;  697.298
368.537;   -2.050;   -4.554;  754.245
369.132;   -2.752;   -7.664;  703.428
369.727;   -5.406;   -8.905;  638.079
370.322;   -5.383;   -4.945;  580.186
370.917;   -5.434;   -7.095;  710.646
371.511;   -2.369;   -6.574;  861.834
372.106;   -6.353;   -6.515;  776.964
372.701;   -9.354;   -8.225;  585.988
373.296;   -2.917;   -4.494;  863.135
373.890;   -8.162;   -7.965;  647.840
374.485;  -10.544;   -9.745;  691.199
375.079;   -6.028;   -5.554;  738.685
375.674;   -4.743;   -4.724;  812.970
376.268;   -9.244;   -8.365;  691.759
376.863;  -14.912;   -8.126;  580.327
377.457;   -8.636;   -6.045;  662.490
378.052;  -10.334;   -6.835;  764.884
378.646;  -11.139;   -9.375;  741.167
379.240;  -11.296;   -6.185;  721.176
379.835;  -10.674;   -6.135;  636.978
380.429;  -12.574;   -8.365;  562.557
381.023;  -12.369;   -7.935;  779.205
381.617;  -15.532;   -8.325;  680.106
382.212;  -11.635;   -7.405;  685.303
382.806;  -10.332;   -4.155;  760.690
383.400;  -15.145;   -8.945;  672.281
383.994;  -15.722;   -8.365;  664.870
384.588;  -10.593;   -7.824;  697.701
385.182;   -9.964;   -7.984;  726.624
385.776;  -12.534;  -10.404;  706.875
386.370;  -15.644;   -7.335;  681.968
386.964;  -13.561;   -7.485;  684.155
387.558;  -11.666;   -8.174;  598.360
388.152;  -15.955;  -10.415;  681.959
388.745;  -13.587;   -9.595;  814.707
389.339;  -11.562;   -6.454;  747.642
389.933;  -11.444;   -5.804;  695.370
390.527;  -12.647;   -6.854;  859.029
391.120;  -18.638;   -7.665;  595.318
391.714;  -15.219;   -7.245;  711.633
392.308;  -11.842;   -4.514;  780.253
392.901;  -16.262;   -7.935;  642.460
393.495;  -18.129;   -8.585;  595.414
394.089;  -15.697;   -5.245;  760.452
394.682;  -16.250;   -6.305;  697.188
395.275;  -16.577;   -9.335;  719.927
395.869;  -18.125;   -7.375;  667.314
396.462;  -15.707;   -7.055;  616.609
397.056;  -11.127;   -5.434;  776.621
397.649;  -16.677;   -9.525;  731.575
398.242;  -14.953;   -7.574;  712.645
398.836;  -13.914;   -5.134;  766.408
399.429;  -14.571;   -6.544;  631.041
400.022;  -17.993;   -9.215;  665.902
400.615;  -15.570;   -8.105;  805.609
401.208;  -14.097;   -7.614;  691.451
401.802;  -15.324;   -8.085;  699.329
402.395;  -17.468;   -9.575;  683.502
402.988;  -18.319;   -9.285;  696.627
403.581;  -15.166;   -7.514;  646.878
404.174;  -11.992;   -6.404;  686.568
404.767;  -15.493;   -8.775;  638.583
405.360;  -18.715;   -7.415;  621.445
405.953;  -12.798;   -5.624;  759.034
406.545;  -12.176;   -6.474;  725.342
407.138;  -16.933;   -8.445;  618.350
407.731;  -15.944;  -10.044;  613.303
408.324;  -11.044;   -8.484;  660.554
408.917;  -11.658;   -7.624;  681.864
409.509;  -14.789;   -8.304;  740.396
410.102;  -16.720;   -8.495;  643.948
410.695;  -10.488;   -7.824;  665.758
411.287;  -10.738;   -7.754;  599.821
411.880;  -12.473;   -9.294;  585.421
412.472;  -15.384;   -8.814;  613.092
413.065;  -12.350;   -6.674;  629.408
413.657;   -9.862;   -9.664;  576.678
414.250;   -9.780;  -10.264;  646.681
414.842;  -12.295;   -8.664;  676.353
415.434;   -9.262;   -8.584;  570.463
416.027;   -5.709;   -9.423;  652.196
416.619;   -7.420;  -10.764;  713.400
417.211;   -8.654;   -7.404;  599.352
417.804;   -4.409;   -7.383;  628.499
418.396;   -8.297;   -8.334;  607.643
418.988;   -6.024;   -9.633;  659.238
419.580;   -9.791;  -10.554;  568.276
420.172;   -7.998;   -8.683;  536.196
420.764;   -3.049;   -9.713;  672.482
421.356;   -4.367;  -11.303;  636.898
421.948;   -5.957;   -8.453;  677.661
422.540;   -0.532;   -5.793;  680.027
423.132;   -0.785;   -7.162;  600.641
423.724;   -4.690;   -7.933;  561.267
424.316;   -3.154;   -9.083;  621.345
424.908;    1.540;   -8.392;  591.517
425.500;    2.507;   -8.062;  647.978
426.092;    2.297;   -9.692;  648.268
426.683;    1.080;   -8.223;  684.836
427.275;    4.227;   -8.602;  641.471
427.867;    5.506;   -8.382;  668.948
428.458;    5.913;  -10.472;  732.344
429.050;    4.463;   -9.112;  680.749
429.642;    6.522;   -7.752;  743.124
430.233;    6.733;   -8.832;  569.356
430.825;    8.043;   -8.292;  724.809
431.416;    5.840;   -7.522;  698.241
432.008;    9.411;   -9.262;  651.723
432.599;   10.454;   -6.441;  656.073
433.190;    6.884;   -9.222;  637.670
433.782;    5.889;  -11.832;  590.395
434.373;   14.320;   -7.121;  884.765
434.964;   12.588;   -9.141;  602.920
435.556;   10.058;   -9.332;  634.537
436.147;   12.659;   -8.892;  758.490
436.738;   12.492;   -8.151;  701.099
437.329;   18.409;   -8.281;  721.723
437.920;   10.826;   -9.062;  666.688
438.511;   10.561;  -11.182;  564.526
439.103;   17.258;   -7.461;  623.998
439.694;   19.181;   -8.541;  681.583
440.285;   20.525;   -7.351;  764.432
440.876;   18.050;   -8.201;  845.738
441.466;   17.840;  -10.381;  575.162
442.057;   23.241;   -7.620;  665.814
442.648;   21.659;   -8.461;  746.255
443.239;   19.619;   -8.991;  620.477
443.830;   24.843;   -7.910;  704.958
444.421;   26.735;   -7.340;  655.474
445.011;   22.701;   -8.981;  693.619
445.602;   23.150;   -9.341;  743.126
446.193;   24.181;  -11.390;  488.117
446.783;   28.985;  -11.240;  640.397
447.374;   24.133;   -8.471;  692.759
447.964;   25.069;   -8.471;  713.770
448.555;   33.522;   -6.590;  822.742
449.145;   30.298;   -8.200;  662.853
449.736;   31.209;  -11.040;  803.179
450.326;   30.332;   -9.640;  713.626
450.917;   35.534;   -9.480;  675.324
451.507;   34.758;   -8.020;  600.661
452.097;   35.620;  -10.210;  746.267
452.688;   35.782;   -7.810;  742.160
453.278;   36.655;   -9.360;  566.840
453.868;   41.437;   -8.669;  793.550
454.458;   38.278;  -10.950;  651.141
455.048;   38.903;  -10.200;  711.783
455.639;   40.718;   -9.369;  567.096
456.229;   44.590;   -7.739;  710.694
456.819;   45.429;   -8.939;  751.158
457.409;   45.283;   -7.169;  773.993
457.999;   48.789;   -7.779;  737.505
458.589;   49.044;   -7.039;  686.606
459.179;   47.779;   -9.019;  717.658
459.769;   44.893;   -8.909;  627.099
460.358;   51.674;   -8.659;  797.262
460.948;   51.231;   -8.209;  689.503
461.538;   52.642;   -9.879;  660.677
462.128;   49.944;   -9.379;  664.934
462.717;   56.961;   -9.158;  710.326
463.307;   60.508;   -8.638;  705.846
463.897;   55.897;   -8.869;  656.942
464.486;   55.586;   -7.409;  837.128
465.076;   60.127;   -9.618;  733.776
465.666;   63.680;   -7.578;  652.900
466.255;   60.860;   -9.369;  785.651
466.845;   59.892;  -10.049;  666.749
467.434;   63.143;   -8.168;  725.873
468.023;   64.217;   -9.188;  658.357
468.613;   61.660;   -9.849;  713.946
469.202;   65.679;  -12.958;  646.507
469.791;   70.484;   -9.488;  737.811
470.381;   72.411;   -6.468;  742.813
470.970;   71.777;  -10.248;  711.099
471.559;   71.536;  -11.428;  733.291
472.148;   74.294;   -9.738;  675.737
472.738;   77.064;   -7.877;  765.466
473.327;   75.984;  -11.868;  637.529
473.916;   74.845;   -8.578;  737.446
474.505;   79.127;  -11.137;  751.703
475.094;   83.110;   -9.407;  806.570
475.683;   82.320;   -9.977;  797.699
476.272;   83.043;  -10.807;  730.632
476.861;   86.071;  -11.017;  706.754
477.449;   92.383;  -10.316;  728.487
478.038;   86.554;  -10.187;  692.513
478.627;   87.328;  -12.458;  714.852
479.216;   94.418;  -10.127;  769.441
479.805;   97.427;   -6.256;  783.375
480.393;   96.926;   -8.737; 1008.945
480.982;   95.105;   -9.087;  874.501
481.571;  102.324;   -7.806;  858.333
482.159;  102.696;  -10.596;  705.386
482.748;  101.480;  -11.507;  821.385
483.336;  106.096;   -8.366;  858.209
483.925;  107.123;   -7.497;  774.373
484.513;  113.249;   -8.326;  758.962
485.102;  110.267;  -10.277;  810.965
485.690;  118.343;   -8.256; 1011.050
486.278;  120.451;   -7.146;  979.329
486.867;  121.028;   -7.986;  809.662
487.455;  121.891;   -9.926;  898.229
488.043;  123.520;  -10.026;  748.361
488.631;  133.320;   -7.226; 1005.079
489.220;  136.176;   -8.696;  908.626
489.808;  136.123;  -12.276;  741.415
490.396;  143.659;   -9.386;  914.645
490.984;  148.367;   -8.506;  830.161
491.572;  158.841;   -8.226;  940.315
492.160;  163.609;   -9.836;  919.081
492.748;  172.619;  -10.316;  884.341
493.336;  191.718;   -7.146; 1019.693
493.924;  214.843;   -7.965;  958.077
494.512;  242.207;  -10.316; 1066.638
495.100;  273.778;  -10.186; 1103.280
495.687;  328.619;   -7.805; 1206.373
496.275;  386.940;   -9.686; 1150.796
496.863;  467.127;  -11.566; 1281.171
497.451;  548.069;  -11.406; 1386.805
498.038;  647.399;   -8.235; 1556.729
498.626;  765.828;   -7.485; 1741.407
499.214;  920.296;   -8.646; 2016.609
499.801; 1160.029;   -9.936; 2220.633
500.389; 1371.846;   -8.056; 2312.494
500.976; 1516.665;   -6.166; 2744.849
501.564; 1695.494;   -9.126; 3148.565
502.151; 1967.281;  -12.456; 3515.999
502.738; 2337.423;  -10.056; 3971.274
503.326; 2736.685;  -10.605; 4403.796
503.913; 3107.745;  -10.576; 5161.749
504.500; 3566.402;   -9.056; 5986.420
505.088; 4066.600;  -10.136; 6381.201
505.675; 4710.092;   -9.075; 6925.547
506.262; 5150.531;  -11.346; 7619.060
506.849; 5993.470;   -9.376; 8733.969
507.436; 6718.924;   -7.365; 9790.121
508.023; 6688.406;   -8.686; 9985.472
508.610; 6878.066;   -8.846;10434.618
509.197; 7622.155;   -9.077;11198.435
509.784; 8992.085;  -10.246;12391.194
510.371;10202.016;   -9.825;13603.713
510.958;11246.963;  -10.896;14426.586
511.545;11911.625;   -9.006;15243.775
512.132;11717.811;   -8.765;15945.876
512.719;12138.900;   -8.286;16340.369
513.305;14049.066;   -9.256;18011.766
513.892;16098.229;  -11.106;19754.971
514.479;18998.557;   -8.576;20967.805
515.066;21822.285;   -9.046;22299.793
515.652;22658.223;  -10.676;22908.660
516.239;23198.619;  -10.166;23798.875
516.825;22650.494;  -11.266;25567.275
517.412;21979.074;   -7.446;28154.959
517.998;21515.896;  -10.916;28344.111
518.585;21109.068;   -9.166;27134.219
519.171;20410.148;  -10.135;27268.576
519.758;21411.129;   -8.806;28964.129
520.344;24106.563;   -6.716;30664.494
520.930;26601.436;  -10.166;32550.605
521.516;26756.672;   -9.615;35422.895
522.103;28926.543;   -8.656;38280.004
522.689;29605.209;   -9.646;37835.117
523.275;28513.463;  -10.786;37288.613
523.861;30165.285;   -9.266;37281.395
524.447;30060.529;   -8.285;37846.949
525.033;27818.439;   -9.426;38321.949
525.619;27209.604;   -9.836;38579.285
526.205;31340.385;   -8.136;40622.875
526.791;34953.395;   -9.986;42258.836
527.377;36465.883;   -8.236;42966.902
527.963;36315.551;  -12.117;42018.949
528.549;34885.563;   -8.376;42476.828
529.135;35917.707;   -8.696;41854.852
529.721;38066.297;   -9.686;41237.711
530.306;40222.980;   -8.616;41259.445
530.892;42716.484;   -9.396;41506.047
531.478;43728.461;   -9.926;43559.613
532.063;44149.488;  -10.236;47695.563
532.649;45070.227;   -8.257;50808.324
533.235;45860.879;  -11.476;51787.500
533.820;45810.445;   -8.156;52145.035
534.406;46785.043;  -12.257;51133.488
534.991;43816.461;   -8.686;49996.805
535.576;41035.625;   -9.426;48882.852
536.162;40748.176;   -8.436;46942.285
536.747;41224.867;  -10.957;45711.746
537.333;40608.742;  -13.147;48510.180
537.918;42019.379;   -9.027;50439.891
538.503;44005.996;   -8.256;50863.711
539.088;44829.297;  -10.576;50906.922
539.673;45477.879;  -10.907;52621.965
540.259;45713.727;   -9.126;52368.094
540.844;43330.770;   -9.026;50879.109
541.429;41090.504;   -9.597;52077.777
542.014;42112.715;  -11.447;52716.695
542.599;44302.113;   -9.236;52363.281
543.184;47181.047;  -12.267;53187.137
543.769;51073.938;  -10.367;54697.605
544.354;52841.523;  -10.887;53913.914
544.938;47694.914;  -11.687;49680.164
545.523;43728.527;   -8.286;47386.277
546.108;44703.176;   -9.317;49151.949
546.693;45692.434;  -10.187;51384.637
547.278;43434.355;   -9.926;51853.254
547.862;42529.738;   -9.196;51173.750
548.447;41941.742;   -9.657;51691.395
549.031;43506.934;   -9.127;52456.703
549.616;46238.031;  -10.836;52714.516
550.201;47222.395;   -8.507;52414.598
550.785;47808.266;  -10.537;52355.059
551.370;51132.301;  -11.727;54589.453
551.954;50278.027;   -9.457;58267.348
552.538;48505.008;   -8.147;59062.176
553.123;48145.008;   -9.397;58115.285
553.707;49578.758;   -9.558;56556.285
554.291;49161.020;   -9.417;56201.668
554.876;51088.391;   -7.627;55335.762
555.460;49397.559;  -10.457;54155.703
556.044;44759.430;  -10.078;53721.484
556.628;44015.078;   -9.407;53731.016
557.212;43060.230;   -7.957;54312.531
557.796;42212.527;  -11.327;53797.773
558.380;46214.086;  -10.868;56145.984
558.964;46507.211;   -9.637;57277.930
559.548;44686.500;   -8.807;56459.641
560.132;46959.781;  -10.187;54434.543
560.716;47813.379;   -9.868;54800.617
561.300;49313.172;  -10.217;57606.945
561.884;49492.613;   -4.947;58972.445
562.467;46552.809;   -9.588;57327.570
563.051;42208.199;  -11.138;54962.434
563.635;42688.969;   -9.358;52594.473
564.219;43559.137;   -9.797;50610.410
564.802;42146.137;   -9.918;49551.180
565.386;41138.461;  -10.838;48370.953
565.969;40574.742;   -8.037;48178.871
566.553;39370.980;   -5.667;49957.305
567.136;39260.574;   -8.258;50369.594
567.720;39752.121;  -11.278;49492.004
568.303;37815.613;   -9.028;50616.352
568.887;36267.918;   -7.508;50727.148
569.470;35258.301;  -11.068;51698.379
570.053;37326.434;  -10.028;52122.078
570.637;37473.809;  -11.077;52536.438
571.220;38923.660;   -8.747;51186.098
571.803;41315.230;   -8.868;51032.762
572.386;42642.008;  -10.608;49609.887
572.969;41989.680;  -10.548;48285.926
573.552;39496.574;   -7.898;47624.285
574.135;38759.273;   -9.918;45498.641
574.718;34376.055;  -10.328;41970.434
575.301;31829.102;   -9.548;41447.137
575.884;29282.150;   -8.768;40923.836
576.467;34506.539;   -9.858;45267.723
577.050;35172.961;  -11.018;48175.543
577.633;36644.324;  -10.048;47729.328
578.216;35742.965;  -10.268;47579.793
578.799;33679.203;  -11.808;47820.996
579.381;32800.605;   -7.338;48115.551
579.964;34524.020;   -9.728;47333.766
580.547;34896.359;   -8.928;46668.969
581.129;34693.984;   -9.149;44466.141
581.712;36231.625;  -11.359;44164.922
582.294;36213.883;  -10.738;46477.855
582.877;34281.402;   -8.788;48244.254
583.459;33176.824;   -9.859;47437.895
584.042;34219.625;   -9.649;46943.219
584.624;34802.391;  -10.529;46792.227
585.206;33358.531;  -10.298;46557.250
585.789;31439.863;  -11.029;45793.773
586.371;31455.854;   -9.359;43836.391
586.953;32167.014;   -8.799;42972.492
587.536;32309.947;   -8.928;42487.211
588.118;31685.250;   -9.180;42086.414
588.700;30142.135;  -10.519;43389.930
589.282;29273.656;   -8.098;43646.039
589.864;29383.207;   -8.139;43438.109
590.446;30867.455;  -10.509;43151.926
591.028;33652.953;  -11.119;42781.867
591.610;34607.430;  -10.019;42839.098
592.192;32965.344;   -8.838;42820.402
592.774;30552.906;  -11.549;40724.277
593.356;28195.814;  -11.609;39874.789
593.937;28713.137;  -10.019;39980.648
594.519;31449.518;   -7.839;42069.633
595.101;32677.508;  -10.779;42976.031
595.683;33837.293;  -10.049;44084.441
596.264;33984.379;   -9.969;43478.797
596.846;32620.178;   -9.699;43803.672
597.427;31823.439;  -10.970;42986.934
598.009;32894.203;  -13.090;42832.219
598.591;33220.668;   -9.509;42580.086
599.172;31497.465;   -9.019;43061.805
599.753;29064.408;  -13.310;41691.469
600.335;29326.145;  -11.010;40692.520
600.916;30115.146;  -10.309;39982.422
601.498;30232.033;   -8.209;40318.617
602.079;30273.900;  -11.440;40670.609
602.660;31686.178;   -8.690;41450.898
603.241;33179.359;  -12.759;41137.738
603.823;31501.711;  -10.409;38868.797
604.404;31416.170;  -11.790;38182.785
604.985;29879.455;  -10.280;38078.047
605.566;30492.871;   -8.059;38056.633
606.147;30966.527;   -8.960;37020.418
606.728;30707.225;  -10.710;37883.359
607.309;29935.240;  -12.760;38748.273
607.890;27855.531;   -9.959;38850.230
608.471;26198.896;   -9.780;37457.918
609.051;27955.520;   -8.940;36066.457
609.632;30791.504;  -12.070;35991.074
610.213;32769.742;   -9.610;37402.641
610.794;33000.465;   -8.750;38383.363
611.374;31900.041;  -11.100;40562.387
611.955;32242.320;  -12.200;38533.727
612.536;32046.684;  -10.410;36951.789
613.116;32233.639;  -10.010;37197.891
613.697;31446.414;  -10.480;38411.125
614.277;29889.072;  -12.751;38673.938
614.858;29802.152;  -11.600;37075.863
615.438;29272.305;   -8.190;35092.906
616.019;27800.543;   -8.941;33666.301
616.599;28913.260;  -13.540;34189.023
617.179;29444.033;  -10.890;36952.047
617.760;30028.846;   -7.610;39582.574
618.340;29446.170;  -14.441;38943.977
618.920;28799.490;   -9.180;37594.156
619.500;28751.391;  -11.881;37866.938
620.080;30674.738;   -9.870;37869.043
620.660;30786.398;  -13.211;36868.617
621.241;29609.525;  -11.921;36352.309
621.821;28469.162;  -10.271;35459.520
622.401;28233.102;   -8.200;35207.414
622.980;29238.650;  -11.141;35980.422
623.560;30666.936;  -14.321;37351.328
624.140;30320.701;   -9.360;34388.582
624.720;26937.533;   -7.481;32368.764
625.300;23744.311;  -12.730;32638.629
625.880;28510.928;  -11.441;34599.035
626.459;32251.992;  -10.971;36831.738
627.039;33829.043;   -9.011;38299.098
627.619;33669.145;   -8.521;38289.574
628.198;34714.184;   -9.861;37220.695
628.778;34343.902;   -8.841;37632.563
629.357;32866.422;   -9.891;38003.012
629.937;30600.738;  -11.871;38402.039
630.516;29471.527;  -10.641;37868.801
631.096;31636.781;  -11.391;35760.410
631.675;33230.047;   -6.622;35225.219
632.254;31063.592;  -13.002;35130.289
632.834;29405.809;  -11.622;35794.570
633.413;31300.131;   -8.321;35788.922
633.992;29641.895;   -7.732;34532.863
634.571;29213.814;  -10.992;33590.113
635.151;30714.660;  -10.422;34943.863
635.730;31101.590;  -11.511;35352.523
636.309;30301.307;   -7.901;35366.605
636.888;29395.734;  -11.452;36165.637
637.467;28978.105;  -10.672;37515.902
638.046;29023.201;   -9.301;39288.695
638.625;30106.957;  -11.452;38279.699
639.204;31640.252;  -12.262;37741.598
639.782;31123.746;  -11.892;38364.551
640.361;29789.328;  -11.411;36740.621
640.940;26714.809;  -11.501;34950.082
641.519;26945.867;  -10.921;34137.398
642.097;30198.109;  -10.101;35654.258
642.676;30760.986;  -10.821;35637.957
643.255;33154.707;   -8.631;36567.074
643.833;35234.977;  -11.411;37809.434
644.412;36181.852;  -12.021;37337.293
644.990;35944.008;  -12.271;37018.531
645.569;35058.930;   -9.741;36518.469
646.147;33768.051;   -9.051;36186.430
646.726;31945.906;  -13.861;36267.688
647.304;32095.805;   -9.461;36647.625
647.882;31177.924;  -13.171;39286.742
648.461;31192.176;  -11.911;39157.703
649.039;31494.498;   -9.541;35412.883
649.617;33192.027;   -8.901;34744.918
650.195;31304.906;   -8.591;35403.098
650.773;29834.029;  -13.031;35053.797
651.352;28359.758;  -12.211;33756.816
651.930;25359.551;  -11.361;31868.773
652.508;22773.172;   -8.601;33121.551
653.086;26366.074;   -9.991;33564.793
653.663;30642.105;  -11.931;34054.668
654.241;32322.586;  -10.821;35693.309
654.819;32870.066;   -9.341;36422.906
655.397;30842.787;  -10.851;38213.484
655.975;29166.191;  -11.461;39507.625
656.553;29687.961;   -8.841;39498.223
657.130;29231.900;  -10.371;40395.480
657.708;28313.184;  -11.071;39242.020
658.286;28302.102;  -11.141;38920.020
658.863;30814.977;  -10.861;40202.898
659.441;36396.316;  -11.181;39677.938
660.018;37835.230;  -10.851;40413.355
660.596;36660.461;  -12.571;39931.414
661.173;37177.688;  -12.141;39604.531
661.750;33867.043;  -11.571;39700.070
662.328;30680.504;  -10.780;39292.809
662.905;29629.762;  -10.750;38235.648
663.482;26826.293;  -11.320;36212.305
664.060;25803.641;  -10.160;35944.945
664.637;31374.867;  -13.120;35170.785
665.214;33967.727;  -11.500;34197.523
665.791;31914.818;  -12.430;34549.520
666.368;29481.684;   -9.840;35118.578
666.945;28388.600;  -11.290;36019.418
667.522;28776.900;  -13.540;36048.438
668.099;29568.811;  -10.250;36243.914
668.676;28524.736;  -11.270;35958.875
669.253;27884.705;   -8.210;37384.730
669.830;26614.096;   -9.710;36779.629
670.407;26055.789;   -9.700;35231.289
670.984;25764.121;   -9.190;35544.270
671.560;24522.346;   -9.560;35466.867
672.137;24388.998;  -11.820;34280.863
672.714;27393.283;  -12.460;34632.863
673.290;31598.865;  -10.940;35135.422
673.867;32863.957;  -10.510;36114.480
674.443;30991.928;  -12.110;36152.859
675.020;30827.795;  -11.760;35327.238
675.596;31369.313;   -9.380;35795.176
676.173;30738.967;  -11.120;35430.355
676.749;29946.850;  -13.390;33549.516
677.326;28905.963;  -12.600;32210.012
677.902;27974.740;  -10.830;32068.871
678.478;27355.117;  -12.400;32583.891
679.054;28735.086;   -8.610;32088.928
679.631;30163.678;  -11.640;30978.848
680.207;30881.434;   -8.140;33160.887
680.783;30541.748;  -12.300;35570.363
681.359;29122.322;  -10.910;36125.184
681.935;28360.598;  -11.040;35240.922
682.511;28788.039;  -11.130;34429.961
683.087;28988.895;  -11.080;34463.680
683.663;30741.842;  -10.530;34648.898
684.239;31147.998;  -12.120;34546.457
684.815;30035.896;   -8.870;35586.375
685.390;28706.359;   -8.940;35821.895
685.966;27669.271;  -12.109;35085.871
686.542;26351.248;  -13.539;34198.230
687.118;25613.354;  -10.379;32847.707
687.693;26536.457;  -10.189;32794.027
688.269;25944.680;  -12.939;33072.367
688.844;24840.555;   -8.679;33141.664
689.420;25669.148;  -10.919;33965.742
689.995;26209.254;   -7.489;34655.523
690.571;25652.070;  -12.199;33576.742
691.146;25896.543;   -8.979;32657.219
691.722;27414.893;   -9.119;32526.979
692.297;27512.410;  -10.519;33014.617
692.872;27560.105;  -10.629;34012.254
693.448;27852.885;  -12.119;34237.434
694.023;27157.934;   -8.219;34142.672
694.598;25359.730;  -13.209;34132.031
695.173;24041.498;  -11.879;34205.250
695.748;24535.439;  -12.039;32882.488
696.323;25533.109;  -11.779;32864.906
696.898;26098.277;  -10.219;33170.004
697.473;27614.725;  -13.639;32432.984
698.048;28396.141;  -11.239;31649.303
698.623;30359.709;  -10.859;30778.141
699.198;32291.186;  -13.379;31140.119
699.773;32614.178;  -13.409;31764.299
700.348;31573.203;  -12.329;31780.816
700.922;31455.055;   -8.749;32046.375
701.497;31437.297;  -12.449;32603.574
702.072;29889.844;   -8.879;34799.871
702.646;27981.336;  -10.719;35793.172
703.221;27406.857;   -8.469;35201.590
703.795;28188.254;  -11.389;34764.527
704.370;27128.965;  -12.499;34307.367
704.944;25697.490;  -11.449;33509.887
705.519;25575.830;  -10.659;31388.584
706.093;24881.900;  -12.909;31340.104
706.668;25303.809;  -13.509;32630.281
707.242;26348.115;  -10.049;32728.779
707.816;26274.793;  -10.629;32947.238
708.390;25474.301;  -11.829;33277.855
708.965;24113.160;  -11.159;33834.336
709.539;24391.977;  -11.069;33709.273
710.113;24085.498;  -10.908;33044.313
710.687;22303.000;   -9.488;31953.992
711.261;22561.895;  -13.068;30505.949
711.835;25145.936;  -12.748;30262.369
712.409;27424.758;  -10.678;31254.447
712.983;27046.865;  -11.658;32754.986
713.557;26532.574;  -13.718;34018.824
714.131;27245.820;  -13.388;34579.625
714.704;29742.816;   -9.818;33890.262
715.278;31655.770;  -11.818;33531.102
715.852;31817.838;  -11.328;33601.660
716.425;32262.842;   -9.118;33515.117
716.999;32234.053;  -10.188;33185.555
717.573;30958.738;   -9.808;33905.996
718.146;29654.186;  -11.478;35199.293
718.720;28436.713;  -10.998;35060.551
719.293;27723.014;   -9.508;34973.230
719.867;28952.736;  -12.138;36394.449
720.440;28772.234;  -11.288;36663.008
721.013;30999.506;  -11.428;35102.426
721.587;32565.180;  -11.698;33985.266
722.160;33911.266;  -11.608;33524.965
722.733;34107.172;  -11.428;32987.043
723.306;30904.994;  -12.518;33066.301
723.880;29430.689;   -7.408;33399.500
724.453;29277.453;  -11.048;33468.297
725.026;28204.848;  -11.678;33816.637
725.599;26753.676;  -10.978;32797.996
726.172;24976.279;   -8.838;33187.434
726.745;24692.209;  -11.438;35136.613
727.318;26126.779;   -9.828;35751.730
727.891;26888.703;  -10.868;35890.430
728.463;26878.271;  -11.348;34822.090
729.036;25781.158;  -11.608;32895.086
729.609;25434.402;  -14.738;31823.225
730.182;25742.699;   -8.448;31445.283
730.754;26594.934;  -11.228;32373.223
731.327;26852.311;  -12.018;33676.820
731.900;28678.865;  -13.748;33417.000
732.472;29772.223;  -10.928;31978.498
733.045;29282.033;   -9.478;30368.777
733.617;27418.432;  -12.967;30574.215
734.190;26758.498;  -11.707;31280.975
734.762;26162.359;  -11.067;31674.412
735.334;25123.342;  -10.587;31247.291
735.907;24005.332;  -11.947;29876.211
736.479;24444.273;  -11.667;29808.488
737.051;26118.811;  -10.187;30233.547
737.623;26864.365;   -6.887;31469.086
738.195;28227.580;  -12.117;31784.225
738.768;30317.814;  -14.077;32120.523
739.340;29762.621;  -12.207;32094.342
739.912;27296.613;   -8.977;31312.680
740.484;25714.342;  -11.017;31946.238
741.056;27608.693;  -13.517;32984.059
741.628;30234.695;  -11.507;33897.715
742.199;30820.314;   -7.597;33213.016
742.771;30264.756;  -12.227;31369.113
743.343;28778.604;  -12.427;31865.473
743.915;26891.139;   -9.827;32388.631
744.487;25734.412;  -10.007;31079.568
745.058;24843.803;  -11.887;30570.107
745.630;23805.840;  -10.787;29970.127
746.201;23317.947;  -10.887;29186.766
746.773;24846.975;   -9.707;28805.723
747.344;25938.398;  -11.137;29591.223
747.916;25356.551;  -11.887;31412.201
748.487;24683.420;   -9.707;32194.898
749.059;24205.803;  -10.027;32533.719
749.630;23495.010;  -11.787;32158.518
750.201;22191.176;  -12.767;30855.395
750.773;20346.992;  -11.497;28622.555
751.344;21212.650;   -9.937;28405.732
751.915;21209.660;  -11.567;28461.551
752.486;19191.975;  -13.267;27842.850
753.057;18169.873;  -10.627;27845.008
753.628;18203.174;  -11.657;27728.107
754.199;20497.893;  -12.097;27381.086
754.770;21992.953;  -11.447;25882.203
755.341;22317.227;  -11.997;25886.184
755.912;20741.408;  -10.207;26050.861
756.483;18978.371;  -10.937;26798.779
757.054;19351.025;  -11.527;27048.238
757.625;19521.178;  -12.886;26294.838
758.195;18999.127;  -11.226;26142.076
758.766;19352.174;  -12.366;26392.234
759.337;18236.453;  -11.946;26334.594
759.907;17853.074;  -13.856;27579.652
760.478;19172.859;   -9.606;28352.770
761.048;20687.902;  -11.606;27325.088
761.619;21256.090;  -11.036;26460.428
762.189;19632.783;  -12.206;26029.826
762.760;18792.270;   -9.666;26430.145
763.330;19795.760;   -9.796;26670.902
763.900;19674.441;  -10.896;26603.021
764.471;19159.447;  -11.726;25542.740
765.041;19835.014;   -9.656;24358.459
765.611;20263.633;  -11.276;23991.297
766.181;19776.135;  -12.116;24470.236
766.751;19597.256;  -12.376;24845.975
767.321;19933.762;  -11.626;24533.633
767.891;19723.043;  -10.426;24916.492
768.461;18067.385;  -13.456;24776.771
769.031;15664.750;  -11.616;24757.988
769.601;14681.870;  -11.356;24181.088
770.171;14698.837;  -11.586;23670.387
770.741;15379.061;  -12.696;22960.045
771.311;17054.887;  -10.226;22917.523
771.880;17648.191;  -11.146;23562.941
772.450;17999.813;  -11.716;24216.500
773.020;18005.994;  -13.226;24140.398
773.589;17051.871;  -12.586;24414.857
774.159;16617.529;  -10.246;23858.717
774.729;15978.884;  -11.586;22942.135
775.298;15791.354;  -15.926;22324.033
775.867;15709.375;  -10.426;21140.313
776.437;15286.568;  -11.416;20838.092
777.006;13538.855;  -12.766;20599.510
777.576;13525.859;  -13.666;20508.809
778.145;14859.881;  -10.066;20732.947
778.714;15105.042;  -10.276;21062.465
779.283;14562.423;  -12.086;20949.664
779.853;14280.765;  -14.016;20508.623
780.422;14081.950;  -12.376;20649.082
780.991;13433.881;   -9.246;21527.520
781.560;13162.003;   -9.775;22632.658
782.129;13485.725;  -12.495;23048.277
782.698;13584.375;  -11.775;23438.555
783.267;13507.843;  -10.065;23267.734
783.836;14419.059;  -12.455;22415.133
784.404;14918.365;  -13.385;20443.152
784.973;14761.643;  -11.045;19699.150
785.542;14287.641;   -9.505;19763.828
786.111;13598.913;   -9.385;20341.408
786.679;13375.471;  -13.475;20207.967
787.248;13342.552;  -11.245;19516.465
787.817;11896.652;  -12.485;18900.363
788.385;10435.994;  -11.165;17879.121
788.954;10995.650;  -11.755;17658.301
789.522;12015.091;   -9.625;17788.879
790.090;12383.230;   -9.665;18118.277
790.659;11742.047;   -9.295;18338.736
791.227;11690.395;  -12.175;18508.615
791.795;12463.081;  -12.145;17898.254
792.364;12449.051;  -11.575;17295.133
792.932;11852.594;  -11.085;16822.051
793.500;11454.504;  -11.345;17040.148
794.068;11093.032;  -12.565;17179.787
794.636;11680.407;  -12.105;16664.246
795.204;12730.594;  -11.995;16524.545
795.772;12668.006;  -12.615;17274.564
796.340;12114.104;  -12.425;17891.002
796.908;11675.815;  -11.455;17648.561
797.476;10825.969;  -12.165;17064.080
798.044; 9730.685;  -15.795;16672.777
798.612; 9259.802;  -10.985;17023.996
799.180; 9854.941;  -12.055;16561.615
799.747;10406.565;  -12.525;15962.773
800.315; 9650.772;  -14.765;15296.992
800.883; 8507.024;  -12.435;14801.771
801.450; 8387.528;  -11.295;14534.430
802.018; 8799.835;  -11.185;14173.248
802.585; 8955.867;  -11.625;14029.547
803.153; 8291.744;  -10.665;13836.846
803.720; 7794.444;  -10.275;13567.324
804.287; 7945.483;  -12.865;13360.622
804.855; 8208.865;  -12.324;13681.981
805.422; 8176.033;  -11.574;13536.560
805.989; 7834.569;  -11.004;13355.958
806.556; 8063.094;  -12.214;13747.896
807.124; 8448.025;  -13.304;13987.376
807.691; 8363.867;  -12.034;14038.674
808.258; 8186.329;  -11.014;14120.152
808.825; 8073.814;  -11.804;13860.111
809.392; 7820.694;  -11.544;13268.790
809.959; 7635.736;  -14.954;12680.389
810.526; 7916.942;  -10.214;12427.308
811.093; 7935.678;  -10.754;12030.105
811.659; 7511.365;  -12.194;11653.664
812.226; 6803.415;   -9.194;11637.183
812.793; 6675.488;   -9.644;11611.521
813.360; 7347.680;  -11.544;11885.181
813.926; 8323.271;  -12.814;12770.539
814.493; 8384.976;  -11.524;12677.638
815.060; 8159.133;  -12.254;11974.336
815.626; 7966.051;  -12.114;11594.715
816.193; 7412.198;  -11.994;11579.474
816.759; 6846.033;  -11.464;11666.972
817.325; 6397.501;  -10.444;11325.530
817.892; 6121.967;  -11.124;11105.369
818.458; 6136.200;  -11.864;10843.928
819.024; 6647.072;  -10.634;10714.406
819.591; 6859.083;  -10.554;10469.165
820.157; 6913.478;  -13.334;10235.523
820.723; 6932.145;  -13.044;10847.563
821.289; 6802.762;   -9.664;11040.980
821.855; 6890.282;  -10.994;10357.100
822.421; 7159.145;  -11.784; 9978.918
822.987; 7337.730;  -12.554; 9754.177
823.553; 7349.426;  -12.554;10065.755
824.119; 6974.940;   -8.544;10036.294
824.685; 6179.836;  -12.144;10029.192
825.251; 5821.051;  -12.754;10199.230
825.816; 5510.327;  -11.354; 9820.189
826.382; 5142.304;  -11.004; 9297.248
826.948; 5128.398;  -11.004; 9381.347
827.513; 5331.956;  -12.474; 9450.726
828.079; 5416.279;  -13.084; 9472.444
828.645; 5555.735;  -10.813; 9292.643
829.210; 5405.363;  -11.593; 9065.341
829.776; 5414.037;  -12.633; 9132.620
830.341; 5685.882;  -10.473; 9092.878
830.906; 5581.632;   -8.763; 9078.557
831.472; 4905.555;  -13.453; 8534.535
832.037; 3983.269;  -12.173; 8677.874
832.602; 3695.631;  -14.093; 8628.692
833.167; 4039.814;  -13.593; 8879.031
833.733; 4611.415;  -10.793; 9189.790
834.298; 4980.970;  -14.783; 9052.608
834.863; 4655.973;  -11.023; 8895.087
835.428; 4343.835;  -11.113; 8824.266
835.993; 4656.239;   -9.983; 8845.385
836.558; 4898.930;  -13.003; 8888.563
837.123; 4800.010;  -10.733; 8966.582
837.688; 4451.292;   -9.683; 8617.860
838.253; 4220.908;  -12.253; 8590.699
838.817; 4388.612;  -11.643; 8443.797
839.382; 4587.759;  -11.953; 8799.356
839.947; 4561.319;  -11.443; 8810.595
840.511; 4423.867;  -10.843; 8796.394
841.076; 4415.434;  -13.533; 8347.231
841.641; 4529.772;  -11.743; 8224.330
842.205; 4375.058;  -10.013; 8223.349
842.770; 4228.542;  -11.023; 8622.107
843.334; 4225.568;  -14.273; 8410.386
843.898; 4386.095;  -11.323; 8337.465
844.463; 4760.651;  -10.263; 8506.283
845.027; 4939.691;  -10.353; 8280.962
845.591; 4855.238;  -12.163; 8231.141
846.156; 4651.792;  -12.263; 7969.179
846.720; 4635.396;  -11.553; 7768.278
847.284; 4534.417;  -12.393; 7630.957
847.848; 3933.874;  -12.623; 7472.395
848.412; 3389.316;  -11.863; 7437.394
848.976; 3296.504;  -10.203; 7674.592
849.540; 3379.066;  -10.603; 7836.011
850.104; 3495.219;  -12.423; 7913.669
850.668; 3557.690;  -14.613; 7694.508
851.232; 3505.754;  -12.873; 7756.887
851.796; 3531.843;  -14.192; 7926.545
852.359; 3667.654;  -13.652; 7827.844
852.923; 3635.209;  -11.402; 7641.163
853.487; 3513.411;  -12.022; 7342.501
854.050; 3390.725;  -15.202; 7042.820
854.614; 3394.124;  -14.592; 7151.338
855.177; 3361.736;  -12.572; 7105.077
855.741; 3375.290;   -9.932; 6989.675
856.304; 3529.431;  -12.192; 6596.634
856.868; 3567.328;  -13.462; 6356.272
857.431; 3521.278;  -11.542; 6468.571
857.995; 3546.720;  -12.062; 6373.210
858.558; 3321.439;  -11.142; 6324.448
859.121; 3026.727;  -11.742; 6408.327
859.684; 2850.819;  -10.332; 6347.886
860.247; 2823.889;  -11.962; 6321.264
860.810; 2952.593;  -12.332; 6301.903
861.374; 3002.168;  -10.292; 6607.881
861.937; 2937.696;  -12.062; 6408.200
862.500; 3019.950;  -11.702; 6572.639
863.062; 3195.141;  -13.852; 6387.297
863.625; 3293.565;  -12.972; 6190.836
864.188; 3209.894;  -10.292; 5807.254
864.751; 3086.968;  -12.382; 5682.413
865.314; 2915.668;  -13.232; 5547.492
865.876; 2699.303;  -12.772; 5500.150
866.439; 2526.576;  -11.952; 5415.909
867.002; 2501.411;   -9.332; 5501.567
867.564; 2719.258;  -11.712; 5413.946
868.127; 2910.342;  -12.012; 5160.325
868.689; 2709.476;  -11.882; 5133.183
869.252; 2390.195;  -11.572; 5252.382
869.814; 2257.258;  -10.692; 5297.141
870.377; 2348.173;  -12.392; 5390.919
870.939; 2482.556;  -10.582; 5599.898
871.501; 2516.048;  -12.782; 5248.336
872.063; 2473.969;  -15.612; 4854.235
872.626; 2467.894;  -13.922; 4817.074
873.188; 2355.884;  -13.832; 4987.732
873.750; 2199.820;  -10.962; 4868.651
874.312; 2219.397;  -11.022; 4779.330
874.874; 2292.337;  -13.152; 4866.348
875.436; 2409.895;  -13.401; 4718.887
875.998; 2576.309;   -8.891; 4660.005
876.560; 2619.947;  -12.591; 4462.964
877.122; 2403.201;  -14.531; 4145.042
877.683; 1961.439;  -10.781; 4056.481
878.245; 1442.958;  -14.281; 3950.740
878.807; 1134.994;  -10.311; 4058.958
879.369; 1060.648;  -13.201; 3954.677
879.930; 1121.906;  -12.061; 3941.495
880.492; 1243.640;   -9.181; 4067.014
881.053; 1368.018;  -12.051; 3859.633
881.615; 1435.650;  -11.501; 3776.071
882.176; 1422.311;  -12.221; 3734.750
882.738; 1352.776;   -8.931; 3678.489
883.299; 1277.605;  -13.571; 3405.407
883.860; 1293.765;  -12.331; 3351.106
884.422; 1264.357;  -10.201; 3394.044
884.983; 1143.859;  -12.521; 3166.443
885.544; 1047.787;  -12.291; 3189.802
886.105; 1027.529;  -12.991; 3160.360
886.666; 1036.733;  -12.901; 3093.059
887.227; 1019.436;  -12.061; 2941.957
887.788;  976.418;  -11.641; 2974.836
888.349;  933.028;  -14.691; 2721.214
888.910;  889.106;   -9.681; 2696.493
889.471;  864.182;   -9.971; 2560.172
890.032;  847.693;  -13.151; 2558.190
890.593;  826.158;  -12.051; 2567.669
891.153;  796.575;  -12.841; 2460.307
891.714;  775.251;  -13.561; 2372.046
892.275;  759.741;  -12.401; 2309.505
892.835;  727.677;  -13.191; 2382.543
893.396;  683.685;  -12.551; 2295.502
893.956;  669.838;  -11.981; 2162.420
894.517;  675.323;  -12.221; 2125.439
895.077;  648.213;  -12.021; 2086.978
895.638;  580.492;  -10.891; 2126.316
896.198;  520.599;  -13.171; 1838.275
896.758;  480.807;  -11.891; 1892.813
897.319;  439.803;  -12.491; 1792.232
897.879;  418.755;  -12.401; 1762.751
898.439;  391.709;  -13.431; 1661.149
898.999;  373.945;  -11.340; 1781.468
899.559;  365.705;  -13.930; 1703.347
900.119;  350.814;  -13.730; 1537.525
900.679;  333.834;   -9.210; 1638.384
901.239;  320.873;  -10.860; 1527.902
901.799;  302.465;  -11.450; 1456.441
902.359;  280.551;  -13.800; 1357.140
902.919;  270.834;  -12.130; 1331.118
903.479;  267.342;  -12.650; 1317.257
904.038;  257.843;  -16.110; 1262.595
904.598;  240.015;  -13.690; 1152.034
905.158;  227.034;  -10.290; 1240.893
905.717;  219.192;  -10.670; 1233.691
906.277;  217.456;  -14.040; 1217.330
906.836;  216.122;  -13.510; 1222.408
907.396;  211.718;  -11.530; 1193.047
907.955;  201.090;  -13.190; 1182.526
908.515;  190.122;  -12.950; 1099.364
909.074;  180.417;  -12.390; 1092.863
909.633;  176.438;  -10.340; 1069.121
910.192;  175.408;  -11.170; 1196.460
910.752;  171.242;  -14.200; 1029.960
911.311;  167.088;  -13.810; 1009.780
911.870;  165.040;  -12.750;  971.460
912.429;  164.430;  -12.380; 1094.080
912.988;  162.609;  -11.930; 1081.060
913.547;  156.380;  -10.990;  940.380
914.106;  154.847;  -11.200;  999.420
914.665;  151.993;  -13.150;  984.020
915.224;  148.882;  -13.310; 1035.760
915.782;  145.337;  -13.340;  922.560
916.341;  144.788;  -10.710; 1049.840
916.900;  141.727;  -12.980;  925.260
917.458;  139.618;  -13.060;  884.220
918.017;  139.148;  -10.900;  942.600
918.576;  138.893;  -11.630;  904.440
919.134;  139.081;  -12.860;  837.980
919.693;  138.506;  -15.160;  893.060
920.251;  138.254;  -13.470;  876.500
920.809;  136.716;  -13.700;  839.580
921.368;  137.935;  -13.420;  885.360
921.926;  138.047;  -14.710;  842.940
922.484;  138.880;  -12.560;  903.360
923.042;  139.523;  -11.930;  880.340
923.601;  140.545;  -10.270;  998.680
924.159;  138.743;  -12.960;  935.560
924.717;  136.207;  -13.040;  841.080
925.275;  136.946;  -12.560;  903.240
925.833;  139.211;  -13.040;  779.320
926.391;  141.986;  -13.360;  938.380
926.949;  140.011;  -13.940;  857.680
927.506;  141.503;   -9.400;  903.500
928.064;  140.741;  -10.940;  877.580
928.622;  140.392;  -13.180;  880.100
929.180;  140.590;  -12.730;  814.180
929.737;  140.832;  -12.840;  808.540
930.295;  144.675;  -11.810;  928.480
930.853;  149.987;  -13.650;  849.100
931.410;  153.068;  -13.580;  821.120
931.968;  155.533;  -12.020;  940.660
932.525;  155.750;  -13.320;  909.380
933.082;  155.120;  -13.800;  811.440
933.640;  157.576;  -11.380;  925.900
934.197;  160.832;  -11.480;  886.360
934.754;  162.993;  -13.220;  897.780
935.312;  162.011;  -14.950;  863.340
935.869;  159.499;  -10.940; 1012.980
936.426;  154.664;  -12.100;  872.800
936.983;  155.107;  -12.930;  889.020
937.540;  155.606;  -14.250;  838.280
938.097;  161.181;  -12.600;  940.120
938.654;  166.648;  -11.260;  898.860
939.211;  170.752;  -13.020;  952.480
939.768;  171.857;  -15.760;  915.420
940.324;  175.786;  -13.920;  904.200
940.881;  175.038;  -11.620;  878.500
941.438;  172.690;   -9.870; 1021.200
941.995;  167.302;  -13.920;  992.560
942.551;  164.840;  -12.830;  875.620
943.108;  165.796;  -11.980;  937.920
943.664;  169.467;  -13.740;  869.340
944.221;  177.265;  -12.670; 1088.140
944.777;  176.728;  -13.250;  869.680
945.334;  172.457;  -13.000;  884.840
945.890;  170.830;  -13.020;  946.480
946.446;  169.407;  -13.880;  947.020
947.003;  170.286;  -12.660;  964.940
947.559;  172.216;   -8.730; 1063.040
948.115;  170.156;  -11.960; 1026.540
948.671;  166.010;  -12.360;  967.300
949.227;  161.051;  -12.700;  859.560
949.783;  158.530;  -13.450;  858.900
950.339;  157.752;  -10.620;  991.000
950.895;  153.956;  -14.770; 1023.840
951.451;  151.691;  -13.650;  925.280
952.007;  152.891;  -11.180;  998.540
952.563;  153.011;  -11.680;  937.780
953.118;  151.367;  -13.280;  904.940
953.674;  151.610;  -12.510;  935.780
954.230;  152.753;  -12.220;  949.640
954.785;  150.057;  -12.190;  936.640
955.341;  146.253;  -12.270;  998.160
955.897;  142.594;  -14.900;  834.660
956.452;  144.666;  -12.520;  953.840
957.008;  143.677;   -9.410; 1083.640
957.563;  141.329;  -11.280; 1009.540
958.118;  137.230;  -13.470;  877.700
958.674;  138.496;  -12.190;  946.780
959.229;  139.942;  -12.760; 1013.980
959.784;  143.473;  -15.710;  832.400
960.339;  148.488;  -12.540; 1001.280
960.894;  147.715;  -11.680;  963.760
961.449;  143.240;  -11.410;  859.960
962.004;  142.955;  -10.430; 1212.840
962.559;  134.259;  -14.040;  860.140
963.114;  130.762;  -14.270;  742.480
963.669;  130.920;  -11.320;  915.500
964.224;  131.664;  -14.620;  874.340
964.779;  128.924;  -14.150;  828.420
965.334;  129.817;  -10.850; 1017.860
965.888;  130.020;  -14.530;  875.360
966.443;  132.051;  -13.520;  972.380
966.998;  128.611;  -13.370;  819.460
967.552;  126.032;   -9.960;  908.380
968.107;  122.504;  -12.360;  868.300
968.661;  122.634;  -12.270;  922.440
969.216;  121.193;  -12.140;  856.280
969.770;  121.032;  -11.860;  917.200
970.324;  122.257;  -12.170;  923.140
970.879;  120.366;  -14.160;  947.180
971.433;  118.808;  -12.940;  952.720
971.987;  114.984;  -10.180;  895.340
972.541;  114.777;  -12.130;  917.100
973.095;  114.408;  -14.980; 1009.460
973.649;  111.842;  -14.480;  809.480
974.203;  114.508;  -13.530;  829.040
974.757;  116.925;  -12.060;  855.220
975.311;  114.525;  -13.240;  872.600
975.865;  112.088;  -12.550;  881.820
976.419;  110.918;  -13.180;  857.400
976.973;  111.689;  -14.100;  849.620
977.526;  109.910;  -13.330;  949.920
978.080;  105.433;  -15.390;  796.780
978.634;  105.490;  -11.670;  921.320
979.187;  101.633;  -10.640;  905.400
979.741;  101.669;  -13.330; 1018.380
980.294;   99.180;  -14.480;  789.160
980.848;   98.024;  -13.420;  717.220
981.401;   97.398;  -12.360;  816.540
981.955;   93.997;  -12.480;  844.300
982.508;   89.792;  -14.000;  746.340
983.061;   89.982;  -10.440;  915.260
983.615;   86.627;  -14.340;  798.800
984.168;   84.216;  -14.950;  770.080
984.721;   83.834;  -13.270;  880.760
985.274;   82.141;  -12.240;  867.500
985.827;   80.051;  -12.720;  834.220
986.380;   77.022;  -14.920;  721.340
986.933;   76.606;  -12.860;  864.800
987.486;   75.170;  -10.440;  861.920
988.039;   74.169;  -11.820;  863.100
988.591;   72.784;  -13.760;  893.260
989.144;   71.411;  -14.080;  737.260
989.697;   71.261;  -13.440;  758.740
990.250;   72.084;  -12.050;  858.100
990.802;   70.272;  -14.550;  755.860
991.355;   70.308;  -10.770;  974.880
991.907;   68.772;  -11.710;  864.320
992.460;   67.237;  -12.650;  753.760
993.012;   66.486;  -13.860;  749.540
993.565;   63.448;  -14.310;  711.360
994.117;   63.834;   -9.920;  950.780
994.669;   59.913;  -13.420;  701.320
995.221;   59.659;  -14.200;  791.920
995.774;   58.509;  -13.400;  787.580
996.326;   58.055;  -11.850;  740.220
996.878;   57.853;  -12.230;  838.420
997.430;   55.577;  -14.260;  699.860
997.982;   55.074;  -11.430;  750.140
998.534;   55.635;  -11.590;  739.060
999.086;   55.042;  -11.960;  738.220
999.638;   54.184;  -13.640;  661.380
1000.190;   52.592;  -13.660;  699.320
1000.741;   52.573;   -9.980;  742.700
1001.293;   51.680;  -11.860;  686.020
1001.845;   50.549;  -14.280;  676.640
1002.396;   50.271;  -12.270;  743.400
1002.948;   49.898;  -13.670;  737.400
1003.500;   49.024;  -12.010;  723.780
1004.051;   49.690;  -11.890;  907.580
1004.603;   47.778;  -11.220;  791.820
1005.154;   44.669;  -13.210;  608.980
1005.705;   44.702;  -11.850;  723.960
1006.257;   43.844;  -13.670;  707.220
1006.808;   42.224;  -12.060;  685.460
1007.359;   42.906;  -10.250;  763.240
1007.910;   41.252;  -13.440;  646.640
1008.461;   41.303;  -13.170;  732.940
1009.013;   39.471;  -14.590;  588.340
1009.564;   41.109;  -12.100;  793.520
1010.115;   38.014;  -14.000;  597.040
1010.665;   38.505;  -15.020;  602.160
1011.216;   38.036;  -12.560;  667.920
1011.767;   38.215;  -11.330;  697.920
1012.318;   39.210;  -11.450;  736.980
1012.869;   38.344;  -11.000;  679.000
1013.419;   37.077;  -11.760;  603.120
1013.970;   37.192;  -11.800;  666.640
1014.521;   36.189;  -14.750;  620.620
1015.071;   36.781;  -14.430;  670.380
1015.622;   35.876;  -14.170;  635.460
1016.172;   35.506;  -11.700;  596.820
1016.723;   35.331;  -13.230;  614.380
1017.273;   35.584;  -16.120;  604.160
1017.823;   34.209;  -13.360;  650.340
1018.374;   34.399;  -13.710;  611.760
1018.924;   34.904;  -11.050;  716.880
1019.474;   34.965;  -14.120;  718.880
1020.024;   33.409;  -12.990;  657.580
1020.574;   34.868;  -12.010;  726.160
1021.124;   34.372;  -12.080;  673.580
1021.674;   32.978;  -15.860;  559.120
1022.224;   34.066;  -11.710;  708.940
1022.774;   33.181;  -13.030;  668.820
1023.324;   33.698;  -11.000;  753.520
1023.874;   35.502;  -13.270;  875.760
1024.423;   31.676;  -14.570;  613.700
1024.973;   31.579;  -12.620;  610.760
1025.523;   31.501;  -12.630;  620.960
1026.072;   30.715;  -14.110;  606.420
1026.622;   30.274;  -15.390;  675.740
1027.172;   31.791;   -9.090;  715.660
1027.721;   29.841;  -12.250;  601.220
1028.270;   30.730;  -15.590;  663.400
1028.820;   29.503;  -13.840;  638.080
1029.369;   29.723;  -13.170;  612.700
1029.918;   30.414;  -14.080;  649.840
1030.468;   29.461;  -13.860;  564.780
1031.017;   29.911;  -12.970;  634.800
1031.566;   28.339;  -12.320;  608.900
1032.115;   29.427;  -13.140;  694.500
1032.664;   28.395;  -14.560;  596.480
1033.213;   29.334;  -11.620;  735.420
1033.762;   28.850;  -13.190;  635.620
1034.311;   28.131;  -13.460;  677.220
1034.860;   28.786;  -15.770;  691.000
1035.408;   28.145;  -13.100;  722.720
1035.957;   29.229;  -12.880;  719.540
1036.506;   26.358;  -13.640;  530.800
1037.055;   29.582;  -12.420;  844.320
1037.603;   27.328;  -13.740;  664.000
1038.152;   26.518;  -13.840;  534.760
1038.700;   26.204;  -10.770;  585.740
1039.249;   26.909;  -13.520;  681.220
1039.797;   27.093;  -13.060;  633.360
1040.345;   25.601;  -11.760;  705.420
1040.894;   25.799;  -10.790;  625.300
1041.442;   25.767;  -15.420;  632.200
1041.990;   24.375;  -14.550;  559.160
1042.538;   24.117;  -15.620;  536.180
1043.087;   24.643;  -14.940;  570.860
1043.635;   26.208;  -12.100;  670.500
1044.183;   23.699;  -13.200;  586.400
1044.731;   25.047;  -11.630;  576.000
1045.279;   24.364;  -14.200;  674.920
1045.827;   26.518;  -12.510;  892.400
1046.374;   22.883;  -14.960;  515.420
1046.922;   22.927;  -11.850;  590.580
1047.470;   25.068;  -13.770;  691.300
1048.018;   23.499;  -15.380;  647.960
1048.565;   24.425;  -14.010;  708.600
1049.113;   22.824;  -14.620;  557.000
1049.660;   23.542;  -14.940;  629.660
1050.208;   23.317;  -14.540;  675.640
1050.755;   22.229;  -13.710;  606.580
1051.303;   23.270;  -11.880;  686.820
1051.850;   22.916;  -12.160;  635.120
1052.397;   20.688;  -15.110;  473.960
1052.945;   21.319;  -14.770;  617.760
1053.492;   23.535;  -12.320;  741.840
1054.039;   22.663;  -13.290;  720.180
1054.586;   20.899;  -15.210;  557.240
1055.133;   21.811;  -12.920;  693.140
1055.680;   22.196;  -12.610;  646.620
1056.227;   21.371;  -12.620;  542.780
1056.774;   23.745;  -13.010;  794.980
1057.321;   20.049;  -16.180;  523.260
1057.868;   20.644;  -11.230;  651.320
1058.415;   21.003;  -10.890;  651.980
1058.961;   21.244;  -12.530;  678.940
1059.508;   20.711;  -14.120;  643.820
1060.055;   19.645;  -13.340;  581.780
1060.601;   21.009;  -12.920;  624.300
1061.148;   20.171;  -14.430;  616.820
1061.694;   19.232;  -14.140;  592.580
1062.241;   20.113;  -12.550;  596.320
1062.787;   20.572;  -13.370;  663.140
1063.334;   21.777;  -12.260;  808.560
1063.880;   19.746;  -10.800;  668.360
1064.426;   20.176;   -9.920;  706.820
1064.972;   19.438;  -12.970;  601.340
1065.518;   18.116;  -14.440;  566.640
1066.065;   18.936;  -12.680;  624.460
1066.611;   18.013;  -13.520;  598.800
1067.157;   19.255;  -11.100;  641.860
1067.703;   18.910;  -14.100;  668.480
1068.249;   18.449;  -13.750;  605.220
1068.794;   18.073;  -11.070;  626.880
1069.340;   17.358;  -13.210;  578.960
1069.886;   18.290;  -14.850;  590.700
1070.432;   16.737;  -14.580;  541.720
1070.977;   16.820;  -12.930;  601.080
1071.523;   17.490;  -11.970;  573.060
1072.068;   17.027;  -13.730;  582.000
1072.614;   15.718;  -14.550;  527.760
1073.160;   17.933;  -13.690;  687.040
1073.705;   16.554;  -14.780;  572.520
1074.250;   16.799;  -15.430;  559.900
1074.796;   17.212;  -11.620;  655.160
1075.341;   17.314;  -11.580;  664.100
1075.886;   17.150;  -13.190;  594.240
1076.431;   17.117;  -13.630;  649.880
1076.976;   15.854;  -11.670;  639.220
1077.521;   14.955;  -11.600;  583.080
1078.067;   15.385;  -13.920;  579.400
1078.612;   15.774;  -12.910;  661.620
1079.156;   15.780;  -15.340;  601.540
1079.701;   15.279;  -12.560;  693.260
1080.246;   16.767;  -12.490;  696.300
1080.791;   15.861;  -14.550;  625.020
1081.336;   14.951;  -15.210;  659.320
1081.880;   15.880;  -11.280;  649.680
1082.425;   14.847;  -12.830;  573.480
1082.970;   16.243;  -11.680;  717.040
1083.514;   14.051;  -15.500;  597.000
1084.059;   13.485;  -11.770;  586.720
1084.603;   13.803;  -13.480;  565.840
1085.147;   15.144;  -13.940;  645.220
1085.692;   14.352;  -13.170;  716.800
1086.236;   12.344;  -15.740;  503.140
1086.780;   15.912;  -10.750;  751.440
1087.325;   14.191;  -14.900;  654.620
1087.869;   13.448;  -15.160;  610.700
1088.413;   14.650;  -11.030;  705.040
1088.957;   12.719;  -15.210;  543.400
1089.501;   15.038;  -12.310;  766.640
1090.045;   14.305;  -12.790;  726.480
1090.589;   11.569;  -14.040;  569.920
1091.133;   13.490;  -12.800;  673.340
1091.676;   13.079;  -13.600;  591.940
1092.220;   12.486;  -12.960;  600.920
1092.764;   13.792;  -10.830;  706.960
1093.307;   13.097;  -12.390;  673.780
1093.851;   12.370;  -15.850;  556.540
1094.395;   12.305;  -12.980;  683.140
1094.938;   11.993;  -13.670;  632.520
1095.482;   12.306;  -12.740;  559.800
1096.025;   13.375;  -13.340;  710.880
1096.568;   12.989;  -10.500;  779.280
1097.112;    9.962;  -13.500;  508.180
1097.655;   12.008;  -13.060;  603.000
1098.198;   10.182;  -13.240;  600.180
1098.741;   10.797;  -15.490;  612.860
1099.285;   12.092;  -13.410;  657.300
1099.828;    9.405;  -15.640;  439.400
1100.371;   10.605;  -13.980;  608.160
1100.914;   10.879;  -13.990;  682.660
1101.457;   10.815;  -15.030;  679.900
1101.999;    9.862;  -12.480;  584.680
1102.542;   10.981;  -12.410;  641.440
1103.085;   10.093;  -14.730;  658.500
1103.628;   11.353;  -12.190;  762.060
1104.170;    9.360;  -12.360;  588.280
1104.713;   10.367;  -13.350;  646.700
1105.256;    9.189;  -14.930;  557.440
1105.798;    8.297;  -15.150;  499.980
1106.341;   10.846;  -13.230;  728.900
1106.883;    9.487;  -14.680;  521.340
1107.425;   10.041;  -14.810;  668.180
1107.968;    8.861;  -12.940;  612.380
1108.510;   11.065;  -10.550;  684.960
1109.052;    8.659;  -15.640;  612.620
1109.594;    8.350;  -14.440;  554.440
1110.136;    9.428;  -11.380;  643.220
1110.679;    8.982;  -13.090;  633.080
1111.221;    9.559;  -14.230;  604.460
1111.763;    7.104;  -14.260;  559.220
1112.304;    7.563;  -14.510;  547.140
1112.846;    9.090;  -14.700;  666.240
1113.388;   11.727;  -12.270;  942.180
1113.930;    8.542;  -13.340;  694.200
1114.472;    7.781;  -12.560;  606.540
1115.013;    7.183;  -14.280;  551.280
1115.555;    6.602;  -14.010;  587.100
1116.097;    6.636;  -14.730;  579.480
1116.638;    7.547;  -12.160;  684.600
1117.180;    8.047;  -14.320;  667.740
1117.721;    7.082;  -15.730;  568.580
1118.262;    7.810;  -13.480;  677.960
1118.804;    7.323;  -11.530;  637.340
1119.345;    7.159;  -13.540;  578.400
1119.886;    8.618;  -14.470;  704.040
1120.427;    6.567;  -13.030;  589.020
1120.969;    6.253;  -13.150;  597.920
1121.510;    6.166;  -13.940;  563.060
1122.051;    7.308;  -12.310;  723.580
1122.592;    5.548;  -13.870;  655.420
1123.133;    5.342;  -12.890;  547.940
1123.673;    6.841;  -13.300;  706.480
1124.214;    6.110;  -14.000;  612.460
1124.755;    7.216;  -13.210;  639.460
1125.296;    5.858;  -13.450;  627.320
1125.836;    7.120;  -12.610;  691.500
1126.377;    5.380;  -15.840;  599.660
1126.918;    6.669;  -11.830;  614.980
1127.458;    5.617;  -11.830;  622.220
1127.999;    6.562;  -11.490;  656.980
1128.539;    6.389;  -12.900;  694.240
1129.079;    5.166;  -14.910;  632.720
1129.620;    4.155;  -12.920;  558.100
1130.160;    4.812;  -14.640;  539.480
1130.700;    5.393;  -13.270;  640.840
1131.240;    5.468;  -14.110;  643.700
1131.781;    4.339;  -13.130;  619.680
1132.321;    4.903;  -15.220;  599.120
1132.861;    4.415;  -15.670;  564.200
1133.401;    3.427;  -13.970;  593.940
1133.941;    4.510;  -13.740;  626.280
1134.481;    4.320;  -13.200;  597.580
1135.020;    4.339;  -14.830;  609.160
1135.560;    4.400;  -14.590;  674.940
1136.100;    3.457;  -13.730;  501.160
1136.640;    3.255;  -15.240;  510.480
1137.179;    3.158;  -14.710;  537.960
1137.719;    2.955;  -14.090;  605.400
1138.258;    3.535;  -12.470;  587.360
1138.798;    4.140;  -12.580;  663.780
1139.337;    3.006;  -16.480;  482.840
1139.877;    3.989;  -13.970;  642.360
1140.416;    6.039;   -9.870;  878.060
1140.955;    3.408;  -14.860;  535.380
1141.494;    3.530;  -14.530;  669.280
1142.034;    3.028;  -13.940;  583.520
1142.573;    3.476;  -11.160;  646.280
1143.112;    2.630;  -15.050;  553.480
1143.651;    3.230;  -15.390;  536.480
1144.190;    3.913;  -12.990;  691.640
1144.729;    2.756;  -12.220;  607.420
1145.267;    3.005;  -14.020;  584.900
1145.806;    3.094;  -12.740;  637.040
1146.345;    2.590;  -14.810;  635.020
1146.884;    2.025;  -12.920;  622.500
1147.422;    2.145;  -13.930;  533.060
1147.961;    4.612;  -11.830;  708.460
1148.500;    3.209;  -12.710;  669.720
1149.038;    3.137;  -14.420;  632.500
1149.577;    2.643;  -13.920;  698.640
1150.115;    0.585;  -17.050;  452.280
1150.653;    1.999;  -14.890;  607.340
1151.192;    1.746;  -15.270;  552.920
1151.730;    1.933;  -13.160;  652.560
1152.268;    1.532;  -15.430;  589.520
1152.806;    1.363;  -15.880;  571.180
1153.344;    0.098;  -13.240;  577.640
1153.882;    1.968;  -13.010;  600.060
1154.421;    0.377;  -16.180;  470.620
1154.958;    1.359;  -13.880;  595.240
1155.496;    1.801;  -13.590;  645.280
1156.034;    1.782;  -11.910;  721.880
1156.572;    2.799;  -12.010;  667.060
1157.110;    0.670;  -16.250;  473.940
1157.647;    0.808;  -15.230;  676.960
1158.185;    0.115;  -13.770;  564.320
1158.723;    0.261;  -15.300;  509.200
1159.260;    1.580;  -13.130;  701.700
1159.798;    1.841;  -11.300;  658.160
1160.335;    0.763;  -13.210;  631.820

