
Integration time [ms]:   3.276
Averaging Nr. [scans]: 1000
Smoothing Nr. [pixels]: 0
Data measured with spectrometer [name]: 7414430SP
Wave   ;Sample   ;Dark     ;Reference
[nm]   ;[counts] ;[counts] ;[counts] 

288.544;  156.727;    7.793;  793.890
289.143;  160.451;    7.462;  681.602
289.742;  160.975;    8.602;  828.814
290.341;  148.566;    1.321;  789.841
290.940;  138.457;   -0.709;  730.702
291.538;  138.965;    0.881;  881.108
292.137;  137.316;    0.122;  792.581
292.736;  141.659;   -1.929;  975.101
293.335;  137.555;   -8.229;  735.086
293.934;  137.830;   -5.279;  781.677
294.532;  137.815;   -1.369; 1031.958
295.131;  124.792;   -7.641;  834.394
295.730;  123.333;   -8.420;  809.588
296.328;  122.081;   -5.611;  783.442
296.927;  122.192;   -5.781;  779.652
297.525;  123.163;   -6.361;  781.236
298.124;  113.250;  -11.382;  654.009
298.722;  117.367;   -7.641;  761.933
299.321;  116.007;   -6.811;  708.597
299.919;  112.837;   -6.991;  751.918
300.518;  109.190;  -10.362;  689.338
301.116;  110.383;   -9.581;  691.381
301.715;  110.812;   -4.891;  730.222
302.313;  110.334;   -8.801;  704.943
302.911;  105.751;   -8.522;  733.830
303.509;  110.435;   -6.171;  925.627
304.108;  108.091;   -7.311;  760.383
304.706;  107.355;   -8.321;  801.664
305.304;  101.459;  -10.222;  796.707
305.902;  106.051;   -6.021;  784.484
306.500;  103.041;   -4.971;  728.200
307.098;  100.786;   -7.061;  746.560
307.696;   98.907;   -8.801;  780.432
308.294;   99.409;   -6.411;  731.359
308.892;  101.861;   -2.901;  759.769
309.490;   97.501;   -5.041;  712.161
310.088;   95.094;   -5.002;  788.444
310.686;   99.802;   -2.041;  821.749
311.284;   94.963;   -2.351;  766.040
311.882;   93.205;   -4.422;  731.225
312.480;   89.762;   -4.192;  697.167
313.078;   91.296;   -1.172;  808.331
313.675;   91.666;   -2.601;  691.600
314.273;   86.622;   -1.312;  797.837
314.871;   86.125;   -3.942;  589.829
315.468;   83.937;   -2.802;  652.090
316.066;   86.941;   -0.701;  694.427
316.664;   80.169;   -4.362;  656.351
317.261;   83.708;   -2.872;  910.128
317.859;   79.355;   -2.022;  768.735
318.456;   79.901;   -0.531;  830.096
319.054;   75.925;   -3.912;  787.828
319.651;   74.532;   -4.752;  759.928
320.249;   72.683;   -2.602;  810.188
320.846;   71.523;   -0.821;  714.286
321.443;   68.482;   -4.642;  832.135
322.041;   65.283;   -5.002;  812.315
322.638;   63.043;   -3.982;  701.456
323.235;   64.967;   -3.411;  665.683
323.833;   61.116;   -7.361;  740.354
324.430;   56.522;   -8.611;  615.900
325.027;   56.799;   -4.061;  876.855
325.624;   56.721;   -4.031;  644.532
326.221;   54.108;   -7.481;  689.717
326.818;   52.878;   -5.281;  818.332
327.415;   55.108;   -7.460;  748.828
328.012;   55.353;   -5.510;  690.585
328.609;   53.984;   -7.880;  731.389
329.206;   51.376;   -8.331;  778.621
329.803;   51.060;   -5.121;  737.841
330.400;   54.720;   -4.510;  704.260
330.997;   56.319;   -6.441;  817.147
331.594;   54.665;   -8.831;  788.185
332.191;   59.414;   -7.621;  728.722
332.787;   62.663;   -4.591;  844.463
333.384;   63.094;   -7.412;  763.093
333.981;   60.936;   -8.293;  815.687
334.578;   64.051;   -7.052;  708.378
335.174;   66.800;   -3.102;  731.469
335.771;   66.716;   -5.943;  836.456
336.367;   63.121;   -7.393;  710.631
336.964;   66.563;   -4.063;  793.266
337.561;   65.625;   -3.813;  731.112
338.157;   61.269;   -4.654;  911.916
338.754;   58.738;   -7.934;  796.589
339.350;   57.331;   -4.414;  722.493
339.946;   59.567;   -4.664;  773.135
340.543;   51.499;   -6.375;  846.136
341.139;   45.828;   -9.815;  720.836
341.735;   42.544;   -4.526;  772.593
342.332;   41.404;   -4.895;  691.472
342.928;   41.879;   -4.295;  795.394
343.524;   35.029;   -5.476;  761.684
344.120;   31.215;   -5.856;  738.562
344.716;   35.306;   -2.155;  723.717
345.313;   31.880;   -6.275;  795.342
345.909;   26.584;   -8.815;  627.336
346.505;   28.794;   -5.305;  740.247
347.101;   28.992;   -2.674;  827.864
347.697;   29.293;   -4.344;  785.398
348.293;   23.563;   -9.975;  627.244
348.889;   24.459;   -5.774;  745.914
349.485;   24.016;   -5.004;  688.205
350.081;   24.275;   -4.704;  772.592
350.676;   18.986;   -6.635;  691.606
351.272;   23.994;   -4.504;  809.530
351.868;   23.088;   -3.914;  780.497
352.464;   22.099;   -9.044;  723.932
353.059;   16.466;   -8.314;  646.017
353.655;   20.263;   -7.024;  777.063
354.251;   21.747;   -5.343;  759.845
354.846;   16.607;   -8.604;  740.646
355.442;   13.793;   -6.945;  753.071
356.038;   15.654;   -7.564;  751.708
356.633;   15.596;   -5.814;  728.594
357.229;   13.637;   -7.364;  724.757
357.824;   11.410;   -8.024;  703.600
358.420;   11.219;   -9.384;  679.726
359.015;   11.648;   -5.104;  695.357
359.610;   13.092;   -6.854;  763.920
360.206;    6.659;  -10.185;  603.240
360.801;    9.635;   -7.054;  646.503
361.396;   10.496;   -5.034;  725.975
361.992;    6.939;   -8.284;  668.220
362.587;    3.683;   -8.625;  670.160
363.182;    5.384;   -7.674;  689.631
363.777;    6.658;   -5.164;  738.242
364.372;    7.067;   -8.604;  737.314
364.967;    2.317;   -9.055;  680.744
365.563;    6.297;   -6.114;  815.567
366.158;    3.946;   -5.814;  685.161
366.753;    4.279;   -7.854;  649.263
367.348;    2.299;   -7.804;  746.056
367.942;    2.118;   -7.954;  697.298
368.537;    1.645;   -4.984;  754.245
369.132;    2.118;   -8.564;  703.428
369.727;   -2.446;   -8.855;  638.079
370.322;   -1.410;   -6.245;  580.186
370.917;   -1.412;   -6.425;  710.646
371.511;    1.611;   -6.294;  861.834
372.106;   -3.062;   -7.685;  776.964
372.701;   -5.512;   -7.335;  585.988
373.296;    0.671;   -4.564;  863.135
373.890;   -4.713;  -10.235;  647.840
374.485;   -6.813;   -7.885;  691.199
375.079;   -3.062;   -7.324;  738.685
375.674;   -1.670;   -3.494;  812.970
376.268;   -6.208;   -8.525;  691.759
376.863;  -11.708;  -10.086;  580.327
377.457;   -5.584;   -7.025;  662.490
378.052;   -6.932;   -3.585;  764.884
378.646;   -8.303;   -7.595;  741.167
379.240;   -9.290;   -8.335;  721.176
379.835;   -7.632;   -5.785;  636.978
380.429;   -9.701;   -4.335;  562.557
381.023;   -9.917;   -6.805;  779.205
381.617;  -11.924;   -9.195;  680.106
382.212;   -9.260;   -6.905;  685.303
382.806;   -8.642;   -3.745;  760.690
383.400;  -11.890;   -7.745;  672.281
383.994;  -13.274;   -9.765;  664.870
384.588;   -9.187;   -6.564;  697.701
385.182;   -8.150;   -5.344;  726.624
385.776;   -9.522;   -8.514;  706.875
386.370;  -13.238;   -9.555;  681.968
386.964;  -12.156;   -8.715;  684.155
387.558;   -9.608;   -6.174;  598.360
388.152;  -13.274;   -8.725;  681.959
388.745;  -12.044;   -7.965;  814.707
389.339;  -10.324;   -5.924;  747.642
389.933;   -9.167;   -5.524;  695.370
390.527;  -10.034;   -7.114;  859.029
391.120;  -16.897;  -10.725;  595.318
391.714;  -14.621;   -8.035;  711.633
392.308;  -10.539;   -3.574;  780.253
392.901;  -13.988;   -7.245;  642.460
393.495;  -16.566;   -9.285;  595.414
394.089;  -14.121;   -5.895;  760.452
394.682;  -14.346;   -4.295;  697.188
395.275;  -14.668;   -9.875;  719.927
395.869;  -17.060;   -8.485;  667.314
396.462;  -14.683;   -7.455;  616.609
397.056;  -10.818;   -5.424;  776.621
397.649;  -15.294;   -6.605;  731.575
398.242;  -13.383;   -8.224;  712.645
398.836;  -12.393;   -7.474;  766.408
399.429;  -13.466;   -7.094;  631.041
400.022;  -16.401;   -9.475;  665.902
400.615;  -15.079;   -7.145;  805.609
401.208;  -12.662;   -7.174;  691.451
401.802;  -14.949;   -5.515;  699.329
402.395;  -15.628;   -9.875;  683.502
402.988;  -17.067;   -8.845;  696.627
403.581;  -14.026;   -8.874;  646.878
404.174;  -11.134;   -5.324;  686.568
404.767;  -14.365;   -9.575;  638.583
405.360;  -17.473;  -10.965;  621.445
405.953;  -12.562;   -8.764;  759.034
406.545;  -10.671;   -7.514;  725.342
407.138;  -15.114;  -10.025;  618.350
407.731;  -14.407;  -10.034;  613.303
408.324;  -10.308;   -9.374;  660.554
408.917;  -11.421;   -6.534;  681.864
409.509;  -12.950;   -8.004;  740.396
410.102;  -15.512;   -9.875;  643.948
410.695;   -9.285;   -8.604;  665.758
411.287;  -10.410;   -6.794;  599.821
411.880;  -11.302;   -9.334;  585.421
412.472;  -14.776;  -10.254;  613.092
413.065;  -11.918;   -6.714;  629.408
413.657;   -9.197;   -7.234;  576.678
414.250;   -8.875;  -10.544;  646.681
414.842;  -10.987;   -9.744;  676.353
415.434;   -9.011;   -6.994;  570.463
416.027;   -4.754;   -5.893;  652.196
416.619;   -7.097;   -7.264;  713.400
417.211;   -7.643;  -10.374;  599.352
417.804;   -3.576;   -7.993;  628.499
418.396;   -8.304;   -7.234;  607.643
418.988;   -5.093;   -9.443;  659.238
419.580;   -9.505;  -10.724;  568.276
420.172;   -7.616;  -10.323;  536.196
420.764;   -2.168;   -8.793;  672.482
421.356;   -3.576;  -11.143;  636.898
421.948;   -5.245;   -8.293;  677.661
422.540;   -0.065;   -7.893;  680.027
423.132;   -0.342;   -7.082;  600.641
423.724;   -3.464;   -8.653;  561.267
424.316;   -2.241;  -10.213;  621.345
424.908;    0.967;   -9.762;  591.517
425.500;    2.735;   -5.572;  647.978
426.092;    3.223;   -8.422;  648.268
426.683;    1.399;   -9.283;  684.836
427.275;    4.176;   -7.852;  641.471
427.867;    5.564;   -5.272;  668.948
428.458;    7.392;   -7.682;  732.344
429.050;    4.454;  -10.612;  680.749
429.642;    6.361;   -9.882;  743.124
430.233;    7.417;   -6.962;  569.356
430.825;    8.485;   -6.842;  724.809
431.416;    6.120;   -9.672;  698.241
432.008;    9.900;   -6.552;  651.723
432.599;   10.094;   -6.891;  656.073
433.190;    7.544;  -10.912;  637.670
433.782;    7.228;  -11.172;  590.395
434.373;   14.454;   -6.061;  884.765
434.964;   13.021;   -8.251;  602.920
435.556;   10.912;   -9.722;  634.537
436.147;   12.385;   -9.082;  758.490
436.738;   12.942;   -8.041;  701.099
437.329;   18.595;   -7.341;  721.723
437.920;   11.147;   -8.162;  666.688
438.511;   11.841;  -11.802;  564.526
439.103;   18.410;  -10.191;  623.998
439.694;   20.271;   -7.601;  681.583
440.285;   20.758;   -8.541;  764.432
440.876;   19.122;   -9.751;  845.738
441.466;   18.165;   -9.401;  575.162
442.057;   23.162;   -7.760;  665.814
442.648;   21.931;   -9.971;  746.255
443.239;   19.845;  -11.001;  620.477
443.830;   25.304;   -7.990;  704.958
444.421;   26.879;   -7.910;  655.474
445.011;   23.117;   -8.131;  693.619
445.602;   23.639;   -7.111;  743.126
446.193;   24.502;  -10.920;  488.117
446.783;   29.828;   -6.500;  640.397
447.374;   24.831;   -8.671;  692.759
447.964;   25.377;  -10.781;  713.770
448.555;   33.525;   -9.650;  822.742
449.145;   31.182;   -8.660;  662.853
449.736;   30.911;   -8.990;  803.179
450.326;   31.166;   -9.500;  713.626
450.917;   35.214;   -8.680;  675.324
451.507;   35.164;   -7.520;  600.661
452.097;   35.189;   -8.590;  746.267
452.688;   36.401;  -11.340;  742.160
453.278;   36.041;  -10.100;  566.840
453.868;   41.759;   -6.019;  793.550
454.458;   39.156;   -9.440;  651.141
455.048;   39.590;  -10.560;  711.783
455.639;   40.615;  -11.799;  567.096
456.229;   44.503;   -6.899;  710.694
456.819;   46.427;   -7.389;  751.158
457.409;   45.778;  -11.119;  773.993
457.999;   49.075;   -9.289;  737.505
458.589;   48.432;   -6.139;  686.606
459.179;   48.626;   -8.729;  717.658
459.769;   45.955;   -9.789;  627.099
460.358;   51.153;  -10.259;  797.262
460.948;   51.389;   -7.299;  689.503
461.538;   53.339;  -10.289;  660.677
462.128;   50.567;  -11.269;  664.934
462.717;   57.164;   -9.368;  710.326
463.307;   60.776;   -7.908;  705.846
463.897;   56.455;   -9.599;  656.942
464.486;   55.423;   -9.769;  837.128
465.076;   59.567;   -8.048;  733.776
465.666;   64.036;   -9.358;  652.900
466.255;   61.175;   -7.919;  785.651
466.845;   60.818;  -11.689;  666.749
467.434;   63.245;   -7.818;  725.873
468.023;   64.534;   -7.678;  658.357
468.613;   63.171;  -10.939;  713.946
469.202;   66.845;  -10.118;  646.507
469.791;   70.585;   -9.108;  737.811
470.381;   72.904;   -6.058;  742.813
470.970;   71.645;  -10.428;  711.099
471.559;   72.104;  -10.268;  733.291
472.148;   74.996;   -8.448;  675.737
472.738;   77.521;   -6.917;  765.466
473.327;   77.031;  -11.978;  637.529
473.916;   76.620;  -11.888;  737.446
474.505;   80.446;   -9.437;  751.703
475.094;   83.794;   -6.747;  806.570
475.683;   83.055;   -9.367;  797.699
476.272;   83.469;  -12.637;  730.632
476.861;   86.723;  -10.027;  706.754
477.449;   92.590;   -8.716;  728.487
478.038;   87.668;   -9.577;  692.513
478.627;   88.573;   -9.718;  714.852
479.216;   95.537;   -8.947;  769.441
479.805;   98.381;   -6.256;  783.375
480.393;   98.357;   -7.937; 1008.945
480.982;   97.007;   -7.717;  874.501
481.571;  103.520;   -9.266;  858.333
482.159;  103.883;   -7.636;  705.386
482.748;  104.229;   -9.667;  821.385
483.336;  108.489;  -10.376;  858.209
483.925;  109.398;   -7.147;  774.373
484.513;  115.536;   -7.996;  758.962
485.102;  111.495;  -10.027;  810.965
485.690;  120.987;  -10.446; 1011.050
486.278;  122.066;   -8.446;  979.329
486.867;  123.691;   -6.356;  809.662
487.455;  125.364;   -9.136;  898.229
488.043;  126.855;  -10.646;  748.361
488.631;  136.018;   -7.456; 1005.079
489.220;  139.278;   -6.636;  908.626
489.808;  139.621;  -11.036;  741.415
490.396;  148.021;  -10.246;  914.645
490.984;  153.521;   -8.556;  830.161
491.572;  165.270;   -5.886;  940.315
492.160;  171.144;   -9.486;  919.081
492.748;  181.028;  -10.976;  884.341
493.336;  202.046;   -8.776; 1019.693
493.924;  231.560;   -5.465;  958.077
494.512;  264.604;   -9.986; 1066.638
495.100;  306.071;  -10.636; 1103.280
495.687;  368.481;  -10.885; 1206.373
496.275;  446.562;   -8.126; 1150.796
496.863;  522.805;  -10.586; 1281.171
497.451;  626.066;  -11.926; 1386.805
498.038;  728.759;  -10.885; 1556.729
498.626;  851.265;   -6.315; 1741.407
499.214; 1048.007;   -7.326; 2016.609
499.801; 1277.073;  -11.906; 2220.633
500.389; 1577.811;  -10.466; 2312.494
500.976; 1858.471;   -5.236; 2744.849
501.564; 2302.660;   -8.936; 3148.565
502.151; 2923.088;  -13.176; 3515.999
502.738; 3303.263;  -10.646; 3971.274
503.326; 3715.947;   -9.525; 4403.796
503.913; 4137.279;  -10.856; 5161.749
504.500; 4544.835;  -11.586; 5986.420
505.088; 5112.372;  -10.336; 6381.201
505.675; 5958.368;   -6.355; 6925.547
506.262; 6527.181;   -9.046; 7619.060
506.849; 6886.897;  -10.416; 8733.969
507.436; 7388.741;  -10.305; 9790.121
508.023; 7797.185;   -5.496; 9985.472
508.610; 7886.516;   -7.856;10434.618
509.197; 8799.687;  -10.097;11198.435
509.784;10097.789;  -10.886;12391.194
510.371;11525.617;   -9.315;13603.713
510.958;12604.778;   -9.936;14426.586
511.545;13039.342;   -9.326;15243.775
512.132;13203.004;  -10.075;15945.876
512.719;13743.519;   -7.796;16340.369
513.305;14920.858;  -10.606;18011.766
513.892;16428.459;  -11.486;19754.971
514.479;17710.336;   -9.126;20967.805
515.066;19070.342;   -6.026;22299.793
515.652;19277.678;   -8.466;22908.660
516.239;19731.953;  -10.886;23798.875
516.825;21067.191;  -11.496;25567.275
517.412;22576.602;   -5.796;28154.959
517.998;23764.559;  -10.506;28344.111
518.585;24635.922;  -10.076;27134.219
519.171;24254.014;   -8.315;27268.576
519.758;24891.996;   -8.596;28964.129
520.344;27292.527;   -8.466;30664.494
520.930;26271.805;  -11.006;32550.605
521.516;24752.293;  -10.495;35422.895
522.103;26360.617;   -5.526;38280.004
522.689;28303.646;   -8.746;37835.117
523.275;29252.031;  -11.376;37288.613
523.861;30907.354;  -11.156;37281.395
524.447;30260.066;   -8.135;37846.949
525.033;29955.422;   -7.896;38321.949
525.619;29602.715;  -12.476;38579.285
526.205;28228.709;   -9.516;40622.875
526.791;27644.090;   -6.926;42258.836
527.377;29371.650;   -8.346;42966.902
527.963;33438.695;   -8.717;42018.949
528.549;36482.332;  -11.016;42476.828
529.135;35559.074;   -8.536;41854.852
529.721;35620.430;   -9.666;41237.711
530.306;34560.727;  -10.066;41259.445
530.892;35237.473;  -11.356;41506.047
531.478;37328.238;   -6.596;43559.613
532.063;39414.477;   -8.836;47695.563
532.649;37490.414;  -10.047;50808.324
533.235;37022.383;   -9.746;51787.500
533.820;39490.715;   -6.566;52145.035
534.406;41043.477;  -10.817;51133.488
534.991;42728.027;   -9.416;49996.805
535.576;41385.895;   -9.036;48882.852
536.162;38799.270;   -6.156;46942.285
536.747;38937.613;  -11.607;45711.746
537.333;41341.523;  -11.787;48510.180
537.918;41852.770;  -12.437;50439.891
538.503;40840.984;   -7.196;50863.711
539.088;39979.203;  -10.556;50906.922
539.673;38846.680;   -8.767;52621.965
540.259;34320.523;  -10.026;52368.094
540.844;33369.445;   -7.416;50879.109
541.429;34869.203;   -9.467;52077.777
542.014;36972.461;   -9.527;52716.695
542.599;42295.133;   -9.946;52363.281
543.184;45311.324;   -7.927;53187.137
543.769;46011.094;   -9.297;54697.605
544.354;46337.809;  -10.127;53913.914
544.938;44211.805;   -9.267;49680.164
545.523;42440.402;   -6.506;47386.277
546.108;44298.859;   -9.787;49151.949
546.693;45191.184;  -11.587;51384.637
547.278;45374.609;  -10.986;51853.254
547.862;45563.508;   -8.206;51173.750
548.447;43548.590;  -10.067;51691.395
549.031;43542.160;   -9.637;52456.703
549.616;44168.441;   -9.926;52714.516
550.201;43292.223;   -6.347;52414.598
550.785;44237.914;   -7.917;52355.059
551.370;45295.477;  -10.867;54589.453
551.954;47532.203;   -9.047;58267.348
552.538;46817.910;   -7.827;59062.176
553.123;44969.820;  -10.287;58115.285
553.707;44321.398;  -12.178;56556.285
554.291;41800.473;   -8.717;56201.668
554.876;42788.324;   -7.457;55335.762
555.460;44811.203;  -10.387;54155.703
556.044;46278.391;   -9.618;53721.484
556.628;47237.504;  -11.567;53731.016
557.212;47972.695;   -8.097;54312.531
557.796;49143.629;  -11.077;53797.773
558.380;46879.016;  -11.108;56145.984
558.964;45269.250;   -9.057;57277.930
559.548;43106.008;   -6.977;56459.641
560.132;40044.688;  -11.457;54434.543
560.716;41297.359;  -11.378;54800.617
561.300;43492.930;   -9.577;57606.945
561.884;42252.094;   -7.127;58972.445
562.467;40532.164;   -7.118;57327.570
563.051;39207.285;  -13.358;54962.434
563.635;37492.598;  -10.178;52594.473
564.219;39278.391;   -7.837;50610.410
564.802;42865.754;  -11.398;49551.180
565.386;43115.117;  -12.788;48370.953
565.969;44113.430;   -9.077;48178.871
566.553;43010.699;   -6.207;49957.305
567.136;41308.820;   -8.568;50369.594
567.720;42427.770;  -11.868;49492.004
568.303;43776.926;   -8.268;50616.352
568.887;43100.637;   -8.698;50727.148
569.470;41051.500;   -6.808;51698.379
570.053;39008.719;  -13.188;52122.078
570.637;36633.563;  -12.037;52536.438
571.220;36380.945;   -8.577;51186.098
571.803;36447.738;   -8.498;51032.762
572.386;38368.637;  -10.498;49609.887
572.969;39302.027;   -9.388;48285.926
573.552;39664.527;   -8.338;47624.285
574.135;38967.988;   -8.518;45498.641
574.718;36260.980;  -13.628;41970.434
575.301;36477.559;  -10.893;41447.137
575.884;36694.137;   -8.158;40923.836
576.467;40623.492;  -10.328;45267.723
577.050;40490.699;  -13.058;48175.543
577.633;39343.656;   -9.458;47729.328
578.216;35852.340;   -8.928;47579.793
578.799;33216.465;   -9.358;47820.996
579.381;34511.785;  -11.388;48115.551
579.964;35134.941;  -11.718;47333.766
580.547;33962.535;   -8.588;46668.969
581.129;34262.289;   -8.859;44466.141
581.712;35859.965;  -10.729;44164.922
582.294;35720.695;  -11.118;46477.855
582.877;36462.285;   -5.218;48244.254
583.459;36644.957;   -8.679;47437.895
584.042;37912.180;  -10.709;46943.219
584.624;35725.836;  -11.669;46792.227
585.206;34615.414;   -8.218;46557.250
585.789;36018.125;  -10.569;45793.773
586.371;36594.332;  -11.859;43836.391
586.953;37195.637;  -10.719;42972.492
587.536;38593.449;   -7.198;42487.211
588.118;37855.340;   -8.720;42086.414
588.700;36816.266;  -10.439;43389.930
589.282;34239.988;   -9.198;43646.039
589.864;32135.879;   -9.199;43438.109
590.446;31947.480;  -11.319;43151.926
591.028;31617.131;  -11.159;42781.867
591.610;32076.211;  -11.779;42839.098
592.192;33118.039;   -7.668;42820.402
592.774;32177.240;  -11.949;40724.277
593.356;30185.406;  -12.129;39874.789
593.937;29915.307;  -10.669;39980.648
594.519;32481.602;   -6.509;42069.633
595.101;32553.035;  -10.849;42976.031
595.683;31457.332;  -11.679;44084.441
596.264;30740.600;   -9.049;43478.797
596.846;30293.338;   -8.849;43803.672
597.427;30324.594;   -9.570;42986.934
598.009;32044.063;  -12.620;42832.219
598.591;32172.148;  -10.039;42580.086
599.172;34094.898;  -10.369;43061.805
599.753;36141.566;   -9.140;41691.469
600.335;35532.438;  -11.430;40692.520
600.916;33094.402;   -9.939;39982.422
601.498;29961.465;   -8.479;40318.617
602.079;29554.393;  -10.920;40670.609
602.660;29252.742;  -11.480;41450.898
603.241;29941.725;  -11.699;41137.738
603.823;30210.693;   -9.579;38868.797
604.404;29801.469;  -10.620;38182.785
604.985;32781.918;  -10.450;38078.047
605.566;33769.680;   -9.129;38056.633
606.147;34679.750;   -7.510;37020.418
606.728;33549.230;  -10.660;37883.359
607.309;31750.006;  -11.740;38748.273
607.890;31754.277;   -9.759;38850.230
608.471;30262.541;   -8.250;37457.918
609.051;30152.191;   -9.240;36066.457
609.632;30314.100;  -12.120;35991.074
610.213;29925.279;   -9.110;37402.641
610.794;30977.174;   -8.030;38383.363
611.374;29781.465;   -8.110;40562.387
611.955;29544.000;  -13.560;38533.727
612.536;30543.795;  -11.400;36951.789
613.116;30003.012;   -8.070;37197.891
613.697;30758.861;  -10.830;38411.125
614.277;30492.633;  -11.641;38673.938
614.858;29915.697;  -13.310;37075.863
615.438;30037.850;   -7.460;35092.906
616.019;28059.949;   -7.601;33666.301
616.599;28696.506;  -12.020;34189.023
617.179;28534.039;  -11.780;36952.047
617.760;27525.801;   -8.570;39582.574
618.340;28136.346;  -11.471;38943.977
618.920;28743.309;  -11.170;37594.156
619.500;29519.225;  -11.071;37866.938
620.080;29903.928;   -7.750;37869.043
620.660;30048.377;  -12.711;36868.617
621.241;30815.414;  -10.211;36352.309
621.821;30543.645;  -10.961;35459.520
622.401;30725.293;   -7.720;35207.414
622.980;32535.264;   -8.981;35980.422
623.560;31286.945;   -9.331;37351.328
624.140;27045.727;   -9.850;34388.582
624.720;23123.672;   -7.451;32368.764
625.300;22595.133;   -9.070;32638.629
625.880;26819.768;  -12.601;34599.035
626.459;29910.027;  -11.751;36831.738
627.039;29738.254;   -9.281;38299.098
627.619;29106.354;   -8.801;38289.574
628.198;29380.324;  -12.071;37220.695
628.778;30138.703;   -9.461;37632.563
629.357;30895.314;   -8.491;38003.012
629.937;30482.703;   -9.721;38402.039
630.516;31026.578;   -9.951;37868.801
631.096;32045.381;  -11.731;35760.410
631.675;34348.625;   -8.572;35225.219
632.254;34318.941;  -11.282;35130.289
632.834;33203.145;  -13.322;35794.570
633.413;33954.332;  -10.301;35788.922
633.992;33899.008;   -8.582;34532.863
634.571;34845.434;   -8.352;33590.113
635.151;34143.508;  -11.912;34943.863
635.730;31964.555;  -10.511;35352.523
636.309;31665.814;   -7.731;35366.605
636.888;31135.311;   -9.952;36165.637
637.467;30523.588;  -11.672;37515.902
638.046;29209.896;   -8.901;39288.695
638.625;28552.279;   -7.912;38279.699
639.204;27839.633;  -10.022;37741.598
639.782;29007.172;  -12.252;38364.551
640.361;30981.643;  -10.041;36740.621
640.940;30834.186;  -11.161;34950.082
641.519;30210.326;   -9.701;34137.398
642.097;31302.297;  -11.271;35654.258
642.676;31415.789;   -8.651;35637.957
643.255;30661.605;   -8.711;36567.074
643.833;30259.564;   -9.581;37809.434
644.412;30870.691;  -13.711;37337.293
644.990;32116.588;  -11.811;37018.531
645.569;34923.719;   -9.411;36518.469
646.147;35465.914;  -10.291;36186.430
646.726;33610.531;  -12.401;36267.688
647.304;32034.340;  -10.411;36647.625
647.882;32563.088;   -9.651;39286.742
648.461;32520.686;   -9.631;39157.703
649.039;30184.512;  -11.881;35412.883
649.617;29920.594;   -9.661;34744.918
650.195;30603.455;   -9.301;35403.098
650.773;29965.342;  -10.511;35053.797
651.352;29690.102;  -11.521;33756.816
651.930;28383.994;  -12.211;31868.773
652.508;27442.693;   -9.171;33121.551
653.086;28717.725;   -9.371;33564.793
653.663;31044.818;  -13.161;34054.668
654.241;30122.307;  -13.031;35693.309
654.819;28362.338;   -9.371;36422.906
655.397;29010.838;  -10.511;38213.484
655.975;29074.406;  -10.371;39507.625
656.553;29724.070;  -10.051;39498.223
657.130;30542.348;  -10.061;40395.480
657.708;27514.111;   -9.561;39242.020
658.286;24754.568;  -11.511;38920.020
658.863;25094.320;  -10.261;40202.898
659.441;27945.395;   -7.531;39677.938
660.018;30722.666;   -9.501;40413.355
660.596;31344.852;  -13.301;39931.414
661.173;34059.578;  -11.211;39604.531
661.750;33440.609;   -9.951;39700.070
662.328;30570.148;   -9.390;39292.809
662.905;29201.156;  -11.330;38235.648
663.482;26639.711;   -9.050;36212.305
664.060;24266.244;   -8.240;35944.945
664.637;27999.055;  -10.050;35170.785
665.214;32656.955;  -11.760;34197.523
665.791;31839.869;  -10.530;34549.520
666.368;31641.664;   -9.690;35118.578
666.945;31920.330;   -9.320;36019.418
667.522;32771.727;  -11.860;36048.438
668.099;31842.939;  -10.770;36243.914
668.676;31803.387;   -6.260;35958.875
669.253;34143.492;   -7.000;37384.730
669.830;34476.336;  -10.190;36779.629
670.407;33109.750;   -9.550;35231.289
670.984;32558.516;   -9.260;35544.270
671.560;31032.832;   -9.280;35466.867
672.137;29322.129;  -11.810;34280.863
672.714;29356.453;  -11.490;34632.863
673.290;30045.010;   -7.740;35135.422
673.867;30628.393;  -10.660;36114.480
674.443;30055.441;  -12.230;36152.859
675.020;28428.117;  -10.450;35327.238
675.596;26838.789;   -9.260;35795.176
676.173;27735.811;  -10.780;35430.355
676.749;28581.854;  -13.690;33549.516
677.326;29723.811;  -11.980;32210.012
677.902;27938.764;   -8.630;32068.871
678.478;26151.980;  -10.730;32583.891
679.054;27750.740;  -10.520;32088.928
679.631;29067.563;  -11.920;30978.848
680.207;30104.719;   -7.490;33160.887
680.783;31383.023;   -9.860;35570.363
681.359;32049.543;  -13.380;36125.184
681.935;30753.121;  -12.480;35240.922
682.511;31220.596;   -7.900;34429.961
683.087;31816.570;   -7.710;34463.680
683.663;32653.031;  -11.480;34648.898
684.239;32205.914;  -14.090;34546.457
684.815;33207.031;   -7.560;35586.375
685.390;33410.684;   -9.910;35821.895
685.966;33062.547;  -11.159;35085.871
686.542;33598.020;  -11.169;34198.230
687.118;32101.580;   -5.959;32847.707
687.693;32058.129;  -10.329;32794.027
688.269;31751.291;  -12.059;33072.367
688.844;32275.643;  -10.909;33141.664
689.420;33439.355;   -8.019;33965.742
689.995;30394.646;   -8.399;34655.523
690.571;29784.025;  -10.949;33576.742
691.146;29024.389;   -9.619;32657.219
691.722;26850.078;   -8.999;32526.979
692.297;25815.600;  -11.589;33014.617
692.872;26512.063;  -11.739;34012.254
693.448;26709.928;  -11.059;34237.434
694.023;28576.350;  -10.139;34142.672
694.598;30773.236;   -9.029;34132.031
695.173;30651.207;  -13.319;34205.250
695.748;28199.111;  -10.169;32882.488
696.323;25693.932;   -8.339;32864.906
696.898;25121.502;   -8.169;33170.004
697.473;28324.482;  -12.309;32432.984
698.048;28310.951;  -10.989;31649.303
698.623;27273.662;   -9.329;30778.141
699.198;28913.260;   -9.849;31140.119
699.773;30397.332;  -12.329;31764.299
700.348;30272.994;  -10.389;31780.816
700.922;28352.586;   -9.269;32046.375
701.497;26467.969;   -9.329;32603.574
702.072;27946.426;  -10.789;34799.871
702.646;27724.406;  -10.839;35793.172
703.221;28320.348;   -9.099;35201.590
703.795;29097.516;  -10.939;34764.527
704.370;27762.859;  -12.859;34307.367
704.944;29189.168;  -11.559;33509.887
705.519;30191.797;   -7.939;31388.584
706.093;32037.299;  -10.499;31340.104
706.668;33092.148;  -11.289;32630.281
707.242;32317.160;  -11.509;32728.779
707.816;30972.143;   -9.639;32947.238
708.390;30231.660;  -11.429;33277.855
708.965;31165.590;  -11.869;33834.336
709.539;31291.088;  -11.689;33709.273
710.113;30971.227;  -10.478;33044.313
710.687;28388.520;  -10.228;31953.992
711.261;27448.289;  -13.698;30505.949
711.835;27205.240;  -13.378;30262.369
712.409;26805.496;   -9.698;31254.447
712.983;26337.414;  -11.898;32754.986
713.557;25138.400;  -15.138;34018.824
714.131;26534.248;  -14.098;34579.625
714.704;26740.225;   -9.958;33890.262
715.278;25902.445;  -10.028;33531.102
715.852;24925.021;  -11.148;33601.660
716.425;24399.813;   -9.068;33515.117
716.999;25985.928;  -10.038;33185.555
717.573;26582.330;   -9.798;33905.996
718.146;27535.537;  -12.378;35199.293
718.720;28252.002;  -11.918;35060.551
719.293;27470.965;   -8.088;34973.230
719.867;26460.908;  -10.888;36394.449
720.440;26879.252;  -11.938;36663.008
721.013;28588.520;  -12.818;35102.426
721.587;29969.604;  -10.298;33985.266
722.160;29789.852;  -10.048;33524.965
722.733;27968.303;  -12.108;32987.043
723.306;25962.881;  -10.818;33066.301
723.880;26539.674;   -8.908;33399.500
724.453;25621.547;   -9.878;33468.297
725.026;25188.473;  -11.188;33816.637
725.599;25536.137;  -11.678;32797.996
726.172;25284.326;   -9.618;33187.434
726.745;26265.082;   -8.258;35136.613
727.318;28783.539;  -12.978;35751.730
727.891;30573.789;  -12.148;35890.430
728.463;31816.523;   -8.968;34822.090
729.036;32145.732;  -10.188;32895.086
729.609;29978.021;  -11.788;31823.225
730.182;28217.330;  -11.788;31445.283
730.754;27428.209;  -10.268;32373.223
731.327;27011.592;   -9.998;33676.820
731.900;25963.660;  -12.228;33417.000
732.472;25109.197;  -13.848;31978.498
733.045;25065.256;   -8.698;30368.777
733.617;24510.363;  -10.607;30574.215
734.190;23124.924;  -11.507;31280.975
734.762;23562.473;  -13.647;31674.412
735.334;25092.145;   -9.767;31247.291
735.907;25531.152;   -9.897;29876.211
736.479;23421.447;  -11.637;29808.488
737.051;22468.008;   -9.567;30233.547
737.623;23252.430;   -8.187;31469.086
738.195;25162.004;  -11.187;31784.225
738.768;25646.082;  -12.337;32120.523
739.340;25100.658;  -12.227;32094.342
739.912;24604.902;  -11.057;31312.680
740.484;25363.012;  -10.207;31946.238
741.056;26617.145;  -10.047;32984.059
741.628;26339.877;  -13.627;33897.715
742.199;26709.932;   -7.177;33213.016
742.771;24999.746;  -10.797;31369.113
743.343;23519.762;  -11.997;31865.473
743.915;23684.412;  -12.867;32388.631
744.487;24170.645;   -7.617;31079.568
745.058;25459.619;   -9.557;30570.107
745.630;25455.875;   -9.877;29970.127
746.201;24410.865;  -14.177;29186.766
746.773;24060.479;   -9.237;28805.723
747.344;24086.623;   -9.847;29591.223
747.916;24128.045;  -11.657;31412.201
748.487;23836.629;  -10.587;32194.898
749.059;23772.059;   -8.707;32533.719
749.630;22924.457;  -10.537;32158.518
750.201;23093.676;  -11.687;30855.395
750.773;23187.518;  -11.647;28622.555
751.344;24432.588;   -7.147;28405.732
751.915;24342.398;   -9.757;28461.551
752.486;24034.188;  -12.427;27842.850
753.057;22551.816;  -12.227;27845.008
753.628;22122.363;  -10.417;27728.107
754.199;22185.275;  -11.767;27381.086
754.770;21468.375;  -11.187;25882.203
755.341;20816.299;  -10.507;25886.184
755.912;21104.912;   -9.387;26050.861
756.483;21604.396;  -10.647;26798.779
757.054;21441.652;  -11.837;27048.238
757.625;19820.732;  -12.716;26294.838
758.195;19139.369;   -9.666;26142.076
758.766;20032.422;   -8.656;26392.234
759.337;19861.088;  -12.856;26334.594
759.907;19100.680;  -13.366;27579.652
760.478;18216.449;   -8.576;28352.770
761.048;18906.234;  -10.526;27325.088
761.619;19607.771;  -11.116;26460.428
762.189;19208.299;  -12.136;26029.826
762.760;19263.879;   -9.456;26430.145
763.330;19555.514;   -7.136;26670.902
763.900;19606.773;  -11.786;26603.021
764.471;18881.633;  -11.546;25542.740
765.041;18533.674;   -8.096;24358.459
765.611;18530.184;   -8.876;23991.297
766.181;18535.098;  -12.196;24470.236
766.751;19318.012;  -11.636;24845.975
767.321;19486.162;  -10.156;24533.633
767.891;19237.186;  -11.766;24916.492
768.461;18953.805;  -14.936;24776.771
769.031;18190.297;  -12.356;24757.988
769.601;17991.439;   -7.526;24181.088
770.171;18297.541;  -10.766;23670.387
770.741;18818.277;  -13.176;22960.045
771.311;18448.338;  -10.616;22917.523
771.880;17142.641;   -9.576;23562.941
772.450;16593.525;  -10.336;24216.500
773.020;16803.215;  -13.516;24140.398
773.589;16746.795;  -13.466;24414.857
774.159;16267.974;   -8.686;23858.717
774.729;15648.632;   -9.476;22942.135
775.298;15572.317;  -13.666;22324.033
775.867;15511.585;  -11.716;21140.313
776.437;14936.712;   -9.906;20838.092
777.006;14783.924;  -12.166;20599.510
777.576;16136.972;  -12.356;20508.809
778.145;15610.108;  -11.646;20732.947
778.714;14212.962;   -8.226;21062.465
779.283;13709.287;   -9.556;20949.664
779.853;13476.685;  -14.116;20508.623
780.422;13716.485;  -11.506;20649.082
780.991;14133.566;   -9.556;21527.520
781.560;14836.782;   -9.095;22632.658
782.129;13833.938;  -12.135;23048.277
782.698;12580.212;  -10.865;23438.555
783.267;11979.339;   -9.335;23267.734
783.836;12321.136;  -11.045;22415.133
784.404;13037.174;  -13.865;20443.152
784.973;13268.742;  -13.095;19699.150
785.542;13158.454;  -11.575;19763.828
786.111;12971.013;   -9.705;20341.408
786.679;12841.909;  -12.105;20207.967
787.248;12618.021;  -12.455;19516.465
787.817;12523.418;  -11.535;18900.363
788.385;12350.012;   -9.765;17879.121
788.954;12130.494;  -14.005;17658.301
789.522;11942.168;  -11.955;17788.879
790.090;11098.428;  -10.135;18118.277
790.659;10172.151;  -10.975;18338.736
791.227;10180.523;  -13.375;18508.615
791.795;10590.742;  -12.375;17898.254
792.364;10838.193;  -10.725;17295.133
792.932;11197.511;   -9.715;16822.051
793.500;10958.878;  -12.675;17040.148
794.068;11185.969;  -13.495;17179.787
794.636;11240.979;  -10.885;16664.246
795.204;10891.841;  -11.045;16524.545
795.772;10893.778;  -13.175;17274.564
796.340;10656.523;  -12.445;17891.002
796.908;10828.088;   -9.735;17648.561
797.476;11279.663;   -9.815;17064.080
798.044;11026.964;  -13.985;16672.777
798.612;10541.030;  -13.115;17023.996
799.180; 9710.556;  -10.185;16561.615
799.747; 9299.476;   -9.055;15962.773
800.315; 9508.859;  -12.385;15296.992
800.883; 8936.960;  -15.035;14801.771
801.450; 8239.847;  -10.365;14534.430
802.018; 7942.127;   -9.855;14173.248
802.585; 7835.588;  -11.905;14029.547
803.153; 7961.083;  -11.585;13836.846
803.720; 7735.137;   -9.095;13567.324
804.287; 7632.789;   -9.135;13360.622
804.855; 7827.268;  -11.604;13681.981
805.422; 8161.190;  -11.794;13536.560
805.989; 8361.676;  -10.734;13355.958
806.556; 8286.617;  -10.444;13747.896
807.124; 8532.558;  -12.764;13987.376
807.691; 8967.477;  -12.964;14038.674
808.258; 8993.501;  -11.134;14120.152
808.825; 9006.740;   -9.854;13860.111
809.392; 8680.299;  -10.504;13268.790
809.959; 7988.954;  -13.054;12680.389
810.526; 7203.668;   -8.294;12427.308
811.093; 6496.137;   -8.394;12030.105
811.659; 6233.364;  -12.304;11653.664
812.226; 6379.197;  -13.944;11637.183
812.793; 6747.502;  -10.484;11611.521
813.360; 6880.802;  -10.144;11885.181
813.926; 6909.559;  -11.684;12770.539
814.493; 6804.012;  -13.644;12677.638
815.060; 6650.161;   -9.724;11974.336
815.626; 6819.939;   -9.854;11594.715
816.193; 6911.798;  -13.254;11579.474
816.759; 6326.425;  -13.204;11666.972
817.325; 5890.005;   -9.434;11325.530
817.892; 5763.611;  -10.134;11105.369
818.458; 5881.741;  -13.474;10843.928
819.024; 6305.361;  -11.854;10714.406
819.591; 6444.067;  -10.244;10469.165
820.157; 6241.754;  -10.704;10235.523
820.723; 6216.333;  -12.324;10847.563
821.289; 6121.252;   -9.444;11040.980
821.855; 6160.402;   -8.374;10357.100
822.421; 6473.306;  -10.234; 9978.918
822.987; 6456.829;  -13.294; 9754.177
823.553; 6138.195;  -10.884;10065.755
824.119; 5894.042;   -8.884;10036.294
824.685; 5432.576;   -6.784;10029.192
825.251; 5332.960;  -12.004;10199.230
825.816; 5133.315;  -11.474; 9820.189
826.382; 4946.261;   -9.174; 9297.248
826.948; 5210.748;   -9.214; 9381.347
827.513; 5614.685;  -10.774; 9450.726
828.079; 5732.920;  -11.924; 9472.444
828.645; 5586.898;  -10.543; 9292.643
829.210; 5472.968;  -10.533; 9065.341
829.776; 5360.822;  -10.753; 9132.620
830.341; 5492.163;  -10.173; 9092.878
830.906; 5535.445;  -10.743; 9078.557
831.472; 5328.674;  -11.113; 8534.535
832.037; 4990.858;  -10.603; 8677.874
832.602; 4881.753;  -13.323; 8628.692
833.167; 4684.409;  -10.823; 8879.031
833.733; 4576.850;  -10.113; 9189.790
834.298; 4457.235;  -13.583; 9052.608
834.863; 4644.824;  -12.703; 8895.087
835.428; 4886.604;  -10.523; 8824.266
835.993; 4854.656;   -6.963; 8845.385
836.558; 4825.726;  -10.763; 8888.563
837.123; 4959.877;   -9.903; 8966.582
837.688; 5333.076;   -9.913; 8617.860
838.253; 5395.191;  -10.283; 8590.699
838.817; 5054.302;  -12.963; 8443.797
839.382; 4946.054;  -14.243; 8799.356
839.947; 5103.498;  -10.733; 8810.595
840.511; 5131.751;   -9.383; 8796.394
841.076; 4994.096;  -12.563; 8347.231
841.641; 4836.918;  -12.953; 8224.330
842.205; 4713.815;   -7.043; 8223.349
842.770; 4495.918;   -8.163; 8622.107
843.334; 4624.290;  -12.503; 8410.386
843.898; 4798.968;  -11.693; 8337.465
844.463; 4385.533;  -10.203; 8506.283
845.027; 4044.793;   -9.533; 8280.962
845.591; 4066.468;  -13.443; 8231.141
846.156; 4164.511;  -13.143; 7969.179
846.720; 4008.659;   -9.433; 7768.278
847.284; 3897.184;  -11.033; 7630.957
847.848; 3891.159;  -10.403; 7472.395
848.412; 3758.003;  -11.553; 7437.394
848.976; 3689.248;   -8.393; 7674.592
849.540; 3658.060;   -8.713; 7836.011
850.104; 3634.925;  -12.463; 7913.669
850.668; 3700.072;  -12.973; 7694.508
851.232; 3655.623;  -10.793; 7756.887
851.796; 3661.418;  -10.662; 7926.545
852.359; 3749.737;  -13.082; 7827.844
852.923; 3712.265;  -12.192; 7641.163
853.487; 3713.890;  -11.912; 7342.501
854.050; 3556.791;  -10.892; 7042.820
854.614; 3580.749;  -13.992; 7151.338
855.177; 3646.156;  -11.732; 7105.077
855.741; 3520.850;   -8.962; 6989.675
856.304; 3376.880;   -9.442; 6596.634
856.868; 3244.886;  -14.192; 6356.272
857.431; 3186.879;  -12.702; 6468.571
857.995; 3189.483;   -9.942; 6373.210
858.558; 3278.041;   -9.112; 6324.448
859.121; 3184.793;  -12.932; 6408.327
859.684; 3056.039;  -13.442; 6347.886
860.247; 3012.539;  -10.632; 6321.264
860.810; 2958.208;  -11.272; 6301.903
861.374; 2865.317;   -9.832; 6607.881
861.937; 2763.866;  -11.762; 6408.200
862.500; 2755.252;   -9.722; 6572.639
863.062; 2736.818;  -10.512; 6387.297
863.625; 2724.749;  -11.232; 6190.836
864.188; 2763.723;  -14.112; 5807.254
864.751; 2781.373;  -11.302; 5682.413
865.314; 2668.914;  -10.112; 5547.492
865.876; 2485.434;  -12.182; 5500.150
866.439; 2322.384;  -10.722; 5415.909
867.002; 2208.323;   -9.252; 5501.567
867.564; 2252.192;   -9.572; 5413.946
868.127; 2295.299;  -13.142; 5160.325
868.689; 2381.497;  -12.902; 5133.183
869.252; 2498.197;   -9.732; 5252.382
869.814; 2434.148;   -9.432; 5297.141
870.377; 2321.708;  -11.552; 5390.919
870.939; 2306.006;   -9.052; 5599.898
871.501; 2260.267;  -10.982; 5248.336
872.063; 2157.962;  -12.292; 4854.235
872.626; 2091.974;  -14.912; 4817.074
873.188; 1992.343;  -13.112; 4987.732
873.750; 1966.911;  -13.442; 4868.651
874.312; 1956.580;   -9.402; 4779.330
874.874; 1919.635;  -11.062; 4866.348
875.436; 1795.075;  -13.931; 4718.887
875.998; 1650.381;   -9.561; 4660.005
876.560; 1615.459;  -11.321; 4462.964
877.122; 1688.949;  -12.221; 4145.042
877.683; 1881.653;  -12.191; 4056.481
878.245; 2060.863;  -12.101; 3950.740
878.807; 2183.172;   -8.971; 4058.958
879.369; 2028.705;  -12.071; 3954.677
879.930; 1566.634;  -14.621; 3941.495
880.492; 1131.779;  -10.311; 4067.014
881.053;  952.165;  -10.901; 3859.633
881.615;  950.374;  -14.411; 3776.071
882.176;  989.558;  -13.761; 3734.750
882.738; 1024.426;   -9.181; 3678.489
883.299; 1083.524;  -11.791; 3405.407
883.860; 1157.166;  -13.121; 3351.106
884.422; 1163.623;  -11.211; 3394.044
884.983; 1126.661;  -10.091; 3166.443
885.544; 1110.427;   -8.461; 3189.802
886.105; 1072.767;  -12.361; 3160.360
886.666; 1027.076;  -14.141; 3093.059
887.227; 1007.820;  -11.361; 2941.957
887.788;  973.182;  -11.401; 2974.836
888.349;  893.295;  -13.791; 2721.214
888.910;  860.318;  -13.191; 2696.493
889.471;  831.494;   -9.881; 2560.172
890.032;  839.457;   -9.881; 2558.190
890.593;  837.861;  -10.371; 2567.669
891.153;  759.947;  -13.301; 2460.307
891.714;  662.024;  -11.431; 2372.046
892.275;  618.089;  -11.291; 2309.505
892.835;  629.926;  -11.471; 2382.543
893.396;  626.661;  -11.541; 2295.502
893.956;  604.931;  -11.181; 2162.420
894.517;  570.946;  -11.741; 2125.439
895.077;  522.300;  -11.671; 2086.978
895.638;  485.778;  -11.311; 2126.316
896.198;  474.694;   -9.831; 1838.275
896.758;  463.262;   -8.421; 1892.813
897.319;  441.548;  -12.351; 1792.232
897.879;  423.032;  -13.511; 1762.751
898.439;  392.864;  -12.001; 1661.149
898.999;  374.357;  -10.180; 1781.468
899.559;  368.695;  -12.030; 1703.347
900.119;  359.463;  -15.710; 1537.525
900.679;  344.671;   -8.900; 1638.384
901.239;  325.610;   -8.340; 1527.902
901.799;  298.857;  -13.910; 1456.441
902.359;  277.018;  -13.460; 1357.140
902.919;  269.479;  -11.490; 1331.118
903.479;  270.187;  -12.110; 1317.257
904.038;  266.364;  -11.720; 1262.595
904.598;  257.655;  -13.610; 1152.034
905.158;  246.842;  -11.040; 1240.893
905.717;  232.902;  -10.900; 1233.691
906.277;  222.699;  -15.080; 1217.330
906.836;  220.473;  -13.380; 1222.408
907.396;  216.841;  -10.780; 1193.047
907.955;  211.584;   -8.500; 1182.526
908.515;  206.891;  -12.760; 1099.364
909.074;  205.843;  -11.900; 1092.863
909.633;  205.358;   -8.950; 1069.121
910.192;  203.752;   -8.770; 1196.460
910.752;  192.776;  -12.390; 1029.960
911.311;  183.561;  -13.680; 1009.780
911.870;  172.683;  -12.370;  971.460
912.429;  167.515;  -10.900; 1094.080
912.988;  163.428;  -11.690; 1081.060
913.547;  159.055;  -13.240;  940.380
914.106;  155.475;  -11.990;  999.420
914.665;  153.804;   -9.990;  984.020
915.224;  151.592;  -12.880; 1035.760
915.782;  149.966;  -12.350;  922.560
916.341;  150.812;   -9.110; 1049.840
916.900;  149.802;   -9.270;  925.260
917.458;  149.015;  -13.240;  884.220
918.017;  146.192;  -13.550;  942.600
918.576;  145.028;  -12.320;  904.440
919.134;  143.819;  -11.490;  837.980
919.693;  142.426;  -13.670;  893.060
920.251;  141.156;  -15.470;  876.500
920.809;  140.945;  -11.290;  839.580
921.368;  140.768;  -10.210;  885.360
921.926;  138.796;  -12.140;  842.940
922.484;  136.403;  -13.080;  903.360
923.042;  135.181;  -11.720;  880.340
923.601;  136.119;   -7.480;  998.680
924.159;  133.149;  -11.570;  935.560
924.717;  130.919;  -13.840;  841.080
925.275;  132.775;  -10.640;  903.240
925.833;  131.332;  -11.540;  779.320
926.391;  132.788;  -12.960;  938.380
926.949;  131.422;  -14.130;  857.680
927.506;  132.165;  -11.750;  903.500
928.064;  131.925;  -10.250;  877.580
928.622;  132.922;  -13.030;  880.100
929.180;  134.370;  -13.400;  814.180
929.737;  135.617;  -10.700;  808.540
930.295;  139.440;  -10.070;  928.480
930.853;  138.578;  -11.960;  849.100
931.410;  138.412;  -13.120;  821.120
931.968;  141.084;  -10.770;  940.660
932.525;  141.336;  -10.680;  909.380
933.082;  141.034;  -13.130;  811.440
933.640;  141.884;  -13.210;  925.900
934.197;  140.804;  -11.060;  886.360
934.754;  141.170;   -9.580;  897.780
935.312;  142.503;  -14.000;  863.340
935.869;  143.829;  -10.710; 1012.980
936.426;  142.506;   -9.860;  872.800
936.983;  142.506;   -9.710;  889.020
937.540;  144.260;  -13.990;  838.280
938.097;  149.047;  -14.040;  940.120
938.654;  151.963;  -10.310;  898.860
939.211;  152.393;  -10.560;  952.480
939.768;  152.207;  -13.900;  915.420
940.324;  154.447;  -14.760;  904.200
940.881;  158.386;  -10.370;  878.500
941.438;  162.141;   -8.260; 1021.200
941.995;  161.902;  -12.540;  992.560
942.551;  160.810;  -14.670;  875.620
943.108;  161.904;  -10.450;  937.920
943.664;  162.421;  -10.750;  869.340
944.221;  166.214;  -11.550; 1088.140
944.777;  165.386;  -14.770;  869.680
945.334;  163.754;  -12.820;  884.840
945.890;  158.780;  -10.130;  946.480
946.446;  154.958;  -13.470;  947.020
947.003;  157.102;  -12.120;  964.940
947.559;  157.321;   -9.980; 1063.040
948.115;  154.411;   -9.080; 1026.540
948.671;  150.908;  -10.830;  967.300
949.227;  151.443;  -12.440;  859.560
949.783;  150.179;  -12.910;  858.900
950.339;  154.305;  -10.270;  991.000
950.895;  155.877;  -13.630; 1023.840
951.451;  154.423;  -15.100;  925.280
952.007;  153.196;  -11.330;  998.540
952.563;  149.922;  -10.580;  937.780
953.118;  147.341;  -13.440;  904.940
953.674;  146.072;  -12.710;  935.780
954.230;  148.267;  -10.350;  949.640
954.785;  151.756;   -9.190;  936.640
955.341;  154.301;  -11.200;  998.160
955.897;  148.017;  -16.560;  834.660
956.452;  147.050;  -12.570;  953.840
957.008;  144.576;   -7.970; 1083.640
957.563;  141.789;  -11.940; 1009.540
958.118;  136.324;  -13.450;  877.700
958.674;  135.228;  -12.030;  946.780
959.229;  136.120;   -9.410; 1013.980
959.784;  137.187;  -12.000;  832.400
960.339;  137.135;  -14.780; 1001.280
960.894;  134.588;   -9.860;  963.760
961.449;  130.488;   -9.970;  859.960
962.004;  130.768;  -10.900; 1212.840
962.559;  128.331;  -13.150;  860.140
963.114;  126.490;  -13.740;  742.480
963.669;  126.618;   -9.820;  915.500
964.224;  124.761;  -13.890;  874.340
964.779;  124.477;  -12.600;  828.420
965.334;  125.654;  -10.950; 1017.860
965.888;  124.776;  -11.170;  875.360
966.443;  124.909;  -12.540;  972.380
966.998;  121.701;  -15.780;  819.460
967.552;  119.761;   -9.760;  908.380
968.107;  117.528;   -9.060;  868.300
968.661;  118.380;  -11.950;  922.440
969.216;  114.723;  -12.800;  856.280
969.770;  114.202;  -11.210;  917.200
970.324;  113.542;  -11.610;  923.140
970.879;  113.990;  -11.370;  947.180
971.433;  115.489;  -12.540;  952.720
971.987;  115.029;  -11.320;  895.340
972.541;  112.981;  -10.720;  917.100
973.095;  112.744;   -9.680; 1009.460
973.649;  108.297;  -11.440;  809.480
974.203;  106.573;  -11.210;  829.040
974.757;  106.647;  -10.240;  855.220
975.311;  106.784;  -13.720;  872.600
975.865;  104.882;  -13.770;  881.820
976.419;  102.610;  -11.690;  857.400
976.973;  100.621;   -9.510;  849.620
977.526;   99.266;  -12.620;  949.920
978.080;   97.721;  -12.010;  796.780
978.634;   96.840;  -10.170;  921.320
979.187;   96.099;   -9.020;  905.400
979.741;   98.337;   -9.820; 1018.380
980.294;   95.327;  -14.870;  789.160
980.848;   93.837;  -12.380;  717.220
981.401;   94.714;  -10.350;  816.540
981.955;   93.302;  -13.720;  844.300
982.508;   89.106;  -11.490;  746.340
983.061;   88.907;  -10.000;  915.260
983.615;   87.371;  -11.480;  798.800
984.168;   85.785;  -13.220;  770.080
984.721;   84.523;  -13.960;  880.760
985.274;   82.357;  -10.870;  867.500
985.827;   81.428;   -9.790;  834.220
986.380;   78.548;  -13.120;  721.340
986.933;   78.649;  -12.450;  864.800
987.486;   76.749;  -10.210;  861.920
988.039;   78.507;   -8.430;  863.100
988.591;   77.073;  -10.520;  893.260
989.144;   74.127;  -14.860;  737.260
989.697;   72.242;  -13.080;  758.740
990.250;   73.735;  -10.150;  858.100
990.802;   70.893;  -13.430;  755.860
991.355;   70.107;  -12.750;  974.880
991.907;   68.563;  -12.040;  864.320
992.460;   67.019;  -11.330;  753.760
993.012;   66.224;  -13.610;  749.540
993.565;   63.439;  -13.460;  711.360
994.117;   64.405;   -9.360;  950.780
994.669;   62.209;  -11.300;  701.320
995.221;   61.763;  -13.540;  791.920
995.774;   59.855;  -13.430;  787.580
996.326;   58.495;  -12.520;  740.220
996.878;   58.764;  -10.950;  838.420
997.430;   55.810;  -14.300;  699.860
997.982;   54.435;  -13.760;  750.140
998.534;   54.111;  -11.530;  739.060
999.086;   53.308;  -10.310;  738.220
999.638;   52.173;  -12.530;  661.380
1000.190;   51.377;  -11.840;  699.320
1000.741;   51.014;  -10.260;  742.700
1001.293;   50.846;   -8.860;  686.020
1001.845;   50.215;  -13.700;  676.640
1002.396;   48.948;  -12.100;  743.400
1002.948;   48.024;  -12.760;  737.400
1003.500;   47.569;  -10.380;  723.780
1004.051;   47.791;  -11.900;  907.580
1004.603;   45.718;  -12.250;  791.820
1005.154;   42.601;  -13.210;  608.980
1005.705;   42.259;  -10.950;  723.960
1006.257;   42.146;  -13.880;  707.220
1006.808;   41.447;  -12.840;  685.460
1007.359;   40.704;  -10.570;  763.240
1007.910;   40.460;   -9.620;  646.640
1008.461;   39.662;  -13.630;  732.940
1009.013;   38.457;  -17.200;  588.340
1009.564;   39.473;  -10.200;  793.520
1010.115;   37.836;  -12.570;  597.040
1010.665;   37.255;  -15.150;  602.160
1011.216;   37.058;  -14.480;  667.920
1011.767;   36.992;  -11.340;  697.920
1012.318;   37.366;   -9.780;  736.980
1012.869;   35.966;  -12.380;  679.000
1013.419;   35.565;  -15.560;  603.120
1013.970;   36.142;  -11.010;  666.640
1014.521;   34.914;  -11.610;  620.620
1015.071;   35.500;  -13.450;  670.380
1015.622;   35.062;  -13.870;  635.460
1016.172;   33.625;  -11.610;  596.820
1016.723;   33.998;  -12.120;  614.380
1017.273;   33.562;  -13.620;  604.160
1017.823;   34.478;  -14.140;  650.340
1018.374;   33.248;  -12.800;  611.760
1018.924;   33.264;  -12.340;  716.880
1019.474;   33.155;  -11.410;  718.880
1020.024;   31.696;  -14.770;  657.580
1020.574;   32.971;   -9.780;  726.160
1021.124;   32.887;   -8.560;  673.580
1021.674;   32.573;  -15.190;  559.120
1022.224;   32.706;  -13.530;  708.940
1022.774;   31.806;  -13.280;  668.820
1023.324;   32.311;  -10.690;  753.520
1023.874;   33.882;  -10.240;  875.760
1024.423;   30.891;  -12.540;  613.700
1024.973;   30.310;  -10.010;  610.760
1025.523;   30.441;  -10.550;  620.960
1026.072;   29.866;  -13.560;  606.420
1026.622;   29.962;  -15.120;  675.740
1027.172;   30.697;  -11.260;  715.660
1027.721;   29.800;  -11.410;  601.220
1028.270;   29.885;  -13.530;  663.400
1028.820;   29.546;  -13.680;  638.080
1029.369;   28.752;  -13.520;  612.700
1029.918;   29.493;  -10.980;  649.840
1030.468;   29.682;  -13.530;  564.780
1031.017;   28.672;  -13.170;  634.800
1031.566;   27.693;  -12.200;  608.900
1032.115;   29.002;   -9.960;  694.500
1032.664;   27.331;  -13.210;  596.480
1033.213;   28.868;  -12.500;  735.420
1033.762;   27.283;  -11.910;  635.620
1034.311;   27.337;   -9.640;  677.220
1034.860;   28.207;  -13.310;  691.000
1035.408;   27.440;  -11.830;  722.720
1035.957;   27.148;  -12.000;  719.540
1036.506;   25.825;  -11.690;  530.800
1037.055;   28.195;  -10.990;  844.320
1037.603;   26.493;  -15.120;  664.000
1038.152;   24.779;  -12.450;  534.760
1038.700;   24.908;  -10.560;  585.740
1039.249;   25.960;  -11.080;  681.220
1039.797;   25.522;  -12.540;  633.360
1040.345;   25.535;  -11.920;  705.420
1040.894;   24.705;  -11.410;  625.300
1041.442;   25.392;  -14.320;  632.200
1041.990;   24.032;  -16.240;  559.160
1042.538;   23.086;  -11.680;  536.180
1043.087;   24.618;  -10.760;  570.860
1043.635;   25.428;  -11.850;  670.500
1044.183;   23.962;  -15.480;  586.400
1044.731;   23.435;  -11.770;  576.000
1045.279;   23.421;  -13.090;  674.920
1045.827;   25.655;  -12.440;  892.400
1046.374;   23.136;  -13.840;  515.420
1046.922;   21.419;  -13.220;  590.580
1047.470;   23.785;  -10.230;  691.300
1048.018;   23.569;  -14.590;  647.960
1048.565;   23.928;  -12.050;  708.600
1049.113;   21.591;  -11.650;  557.000
1049.660;   22.171;  -10.510;  629.660
1050.208;   23.306;  -13.310;  675.640
1050.755;   21.119;  -15.900;  606.580
1051.303;   22.461;  -11.430;  686.820
1051.850;   21.421;   -8.480;  635.120
1052.397;   20.567;  -15.010;  473.960
1052.945;   21.315;  -13.960;  617.760
1053.492;   21.870;  -13.150;  741.840
1054.039;   22.439;   -9.630;  720.180
1054.586;   21.151;  -13.680;  557.240
1055.133;   21.816;  -14.570;  693.140
1055.680;   20.868;  -13.820;  646.620
1056.227;   19.996;  -11.730;  542.780
1056.774;   21.915;  -12.480;  794.980
1057.321;   19.319;  -13.930;  523.260
1057.868;   19.737;  -11.690;  651.320
1058.415;   20.253;   -9.520;  651.980
1058.961;   21.008;  -13.160;  678.940
1059.508;   19.780;  -12.920;  643.820
1060.055;   19.835;  -11.920;  581.780
1060.601;   20.267;  -11.500;  624.300
1061.148;   19.740;  -14.330;  616.820
1061.694;   18.152;  -16.870;  592.580
1062.241;   18.846;  -10.330;  596.320
1062.787;   19.772;  -10.620;  663.140
1063.334;   20.972;  -10.110;  808.560
1063.880;   19.133;  -13.400;  668.360
1064.426;   18.770;  -10.680;  706.820
1064.972;   18.496;   -9.920;  601.340
1065.518;   16.955;  -10.980;  566.640
1066.065;   18.202;  -14.890;  624.460
1066.611;   17.558;  -12.870;  598.800
1067.157;   18.448;  -12.950;  641.860
1067.703;   17.629;  -13.540;  668.480
1068.249;   17.313;  -13.540;  605.220
1068.794;   17.303;  -12.600;  626.880
1069.340;   16.925;  -10.620;  578.960
1069.886;   17.273;  -12.830;  590.700
1070.432;   15.636;  -14.870;  541.720
1070.977;   16.131;  -11.980;  601.080
1071.523;   16.993;   -8.200;  573.060
1072.068;   16.272;  -12.330;  582.000
1072.614;   16.543;  -16.370;  527.760
1073.160;   16.138;  -11.100;  687.040
1073.705;   15.235;  -10.480;  572.520
1074.250;   15.813;  -14.520;  559.900
1074.796;   16.182;  -11.460;  655.160
1075.341;   16.332;  -11.950;  664.100
1075.886;   15.765;  -11.460;  594.240
1076.431;   15.582;  -13.770;  649.880
1076.976;   15.310;  -12.680;  639.220
1077.521;   14.556;  -13.170;  583.080
1078.067;   14.600;  -10.860;  579.400
1078.612;   15.600;  -13.920;  661.620
1079.156;   13.967;  -13.880;  601.540
1079.701;   14.063;  -13.120;  693.260
1080.246;   15.295;   -9.940;  696.300
1080.791;   15.449;  -14.740;  625.020
1081.336;   14.778;  -13.750;  659.320
1081.880;   13.972;  -13.400;  649.680
1082.425;   13.799;  -12.220;  573.480
1082.970;   15.164;  -11.610;  717.040
1083.514;   13.780;  -13.580;  597.000
1084.059;   13.034;  -12.810;  586.720
1084.603;   13.912;  -12.320;  565.840
1085.147;   13.497;  -13.190;  645.220
1085.692;   14.691;  -12.480;  716.800
1086.236;   11.906;  -13.020;  503.140
1086.780;   14.172;   -9.190;  751.440
1087.325;   14.213;  -12.480;  654.620
1087.869;   13.360;  -12.450;  610.700
1088.413;   12.916;  -12.240;  705.040
1088.957;   11.620;   -9.020;  543.400
1089.501;   13.511;  -10.320;  766.640
1090.045;   13.144;  -12.720;  726.480
1090.589;   11.146;  -13.690;  569.920
1091.133;   12.345;  -10.020;  673.340
1091.676;   12.457;  -12.330;  591.940
1092.220;   12.483;  -14.970;  600.920
1092.764;   12.376;  -12.430;  706.960
1093.307;   12.413;   -9.800;  673.780
1093.851;   10.271;  -14.970;  556.540
1094.395;   12.040;  -15.310;  683.140
1094.938;   11.006;  -10.370;  632.520
1095.482;   11.490;  -11.050;  559.800
1096.025;   11.877;  -11.840;  710.880
1096.568;   11.564;  -12.840;  779.280
1097.112;    9.595;  -14.700;  508.180
1097.655;   11.301;   -8.720;  603.000
1098.198;   10.064;  -13.610;  600.180
1098.741;    9.789;  -13.350;  612.860
1099.285;   10.614;  -11.230;  657.300
1099.828;    9.250;  -11.840;  439.400
1100.371;   10.580;  -10.840;  608.160
1100.914;   10.089;  -14.190;  682.660
1101.457;    9.753;  -11.240;  679.900
1101.999;    8.816;  -11.270;  584.680
1102.542;   10.338;  -11.480;  641.440
1103.085;    9.310;  -11.750;  658.500
1103.628;    9.917;  -11.400;  762.060
1104.170;    9.041;  -10.490;  588.280
1104.713;    9.371;  -10.600;  646.700
1105.256;    8.698;  -14.360;  557.440
1105.798;    7.504;  -13.210;  499.980
1106.341;    9.750;  -10.270;  728.900
1106.883;    9.141;  -12.200;  521.340
1107.425;    8.511;  -13.110;  668.180
1107.968;    7.667;  -12.840;  612.380
1108.510;    9.336;   -6.480;  684.960
1109.052;    8.163;  -13.940;  612.620
1109.594;    7.928;  -13.690;  554.440
1110.136;    8.228;  -11.880;  643.220
1110.679;    7.922;   -9.500;  633.080
1111.221;    8.383;  -14.160;  604.460
1111.763;    7.838;  -13.980;  559.220
1112.304;    6.793;  -13.880;  547.140
1112.846;    8.321;  -12.210;  666.240
1113.388;   10.661;  -11.390;  942.180
1113.930;    7.622;  -14.540;  694.200
1114.472;    6.767;  -12.640;  606.540
1115.013;    6.187;  -11.620;  551.280
1115.555;    6.619;  -13.640;  587.100
1116.097;    6.063;  -15.380;  579.480
1116.638;    7.155;  -12.640;  684.600
1117.180;    7.957;   -9.850;  667.740
1117.721;    7.373;  -13.690;  568.580
1118.262;    6.363;  -12.680;  677.960
1118.804;    7.185;  -12.530;  637.340
1119.345;    6.195;  -11.690;  578.400
1119.886;    6.771;  -13.380;  704.040
1120.427;    5.969;  -14.070;  589.020
1120.969;    5.104;  -13.500;  597.920
1121.510;    5.703;  -11.480;  563.060
1122.051;    5.996;  -12.830;  723.580
1122.592;    5.279;  -14.290;  655.420
1123.133;    3.751;  -12.400;  547.940
1123.673;    6.060;  -10.130;  706.480
1124.214;    4.897;  -12.930;  612.460
1124.755;    6.060;  -14.380;  639.460
1125.296;    4.957;  -14.000;  627.320
1125.836;    6.049;  -10.070;  691.500
1126.377;    4.916;  -12.640;  599.660
1126.918;    5.652;  -12.960;  614.980
1127.458;    3.981;  -13.350;  622.220
1127.999;    5.274;  -10.750;  656.980
1128.539;    5.408;  -12.350;  694.240
1129.079;    4.522;  -14.860;  632.720
1129.620;    2.814;  -13.840;  558.100
1130.160;    4.504;  -12.330;  539.480
1130.700;    4.722;  -14.530;  640.840
1131.240;    4.852;  -12.530;  643.700
1131.781;    3.408;  -14.450;  619.680
1132.321;    4.298;   -9.790;  599.120
1132.861;    3.923;  -14.860;  564.200
1133.401;    2.882;  -14.290;  593.940
1133.941;    4.241;  -11.750;  626.280
1134.481;    3.959;   -9.920;  597.580
1135.020;    3.438;  -12.290;  609.160
1135.560;    4.238;  -11.650;  674.940
1136.100;    2.450;  -16.270;  501.160
1136.640;    2.715;  -10.890;  510.480
1137.179;    3.131;  -14.180;  537.960
1137.719;    3.354;  -16.250;  605.400
1138.258;    2.480;  -14.230;  587.360
1138.798;    3.401;   -9.090;  663.780
1139.337;    1.728;  -15.130;  482.840
1139.877;    3.198;  -13.680;  642.360
1140.416;    4.672;  -11.320;  878.060
1140.955;    2.173;  -10.860;  535.380
1141.494;    3.032;  -12.920;  669.280
1142.034;    1.922;  -13.930;  583.520
1142.573;    3.618;  -11.440;  646.280
1143.112;    1.840;  -12.000;  553.480
1143.651;    2.426;  -13.670;  536.480
1144.190;    3.366;  -12.730;  691.640
1144.729;    1.447;  -14.560;  607.420
1145.267;    2.166;  -11.830;  584.900
1145.806;    2.737;  -12.230;  637.040
1146.345;    1.174;  -14.130;  635.020
1146.884;    0.880;  -11.590;  622.500
1147.422;    1.205;  -12.550;  533.060
1147.961;    2.937;  -11.180;  708.460
1148.500;    2.765;  -11.510;  669.720
1149.038;    1.713;  -11.640;  632.500
1149.577;    2.312;  -10.130;  698.640
1150.115;    0.009;  -13.970;  452.280
1150.653;    1.544;  -14.520;  607.340
1151.192;    1.312;  -12.810;  552.920
1151.730;    1.084;   -9.100;  652.560
1152.268;    0.463;  -12.220;  589.520
1152.806;    0.201;  -14.140;  571.180
1153.344;   -0.818;  -12.350;  577.640
1153.882;    0.660;   -8.980;  600.060
1154.421;    0.467;  -15.190;  470.620
1154.958;    0.634;  -15.210;  595.240
1155.496;    1.496;  -12.850;  645.280
1156.034;    1.246;   -9.940;  721.880
1156.572;    1.341;  -13.570;  667.060
1157.110;    0.000;  -14.590;  473.940
1157.647;    0.459;  -13.030;  676.960
1158.185;   -0.169;  -12.140;  564.320
1158.723;   -0.844;  -14.390;  509.200
1159.260;    0.608;  -14.090;  701.700
1159.798;    0.791;  -11.920;  658.160
1160.335;   -0.635;  -11.110;  631.820

