
Integration time [ms]:   3.276
Averaging Nr. [scans]: 1000
Smoothing Nr. [pixels]: 0
Data measured with spectrometer [name]: 7414430SP
Wave   ;Sample   ;Dark     ;Reference
[nm]   ;[counts] ;[counts] ;[counts] 

288.544;  151.497;    7.793;  793.890
289.143;  154.267;    7.462;  681.602
289.742;  155.116;    8.602;  828.814
290.341;  141.420;    1.321;  789.841
290.940;  129.588;   -0.709;  730.702
291.538;  130.266;    0.881;  881.108
292.137;  130.326;    0.122;  792.581
292.736;  136.559;   -1.929;  975.101
293.335;  131.595;   -8.229;  735.086
293.934;  131.624;   -5.279;  781.677
294.532;  130.472;   -1.369; 1031.958
295.131;  116.415;   -7.641;  834.394
295.730;  116.344;   -8.420;  809.588
296.328;  115.054;   -5.611;  783.442
296.927;  116.521;   -5.781;  779.652
297.525;  117.204;   -6.361;  781.236
298.124;  107.876;  -11.382;  654.009
298.722;  111.479;   -7.641;  761.933
299.321;  108.895;   -6.811;  708.597
299.919;  107.478;   -6.991;  751.918
300.518;  105.225;  -10.362;  689.338
301.116;  105.588;   -9.581;  691.381
301.715;  104.848;   -4.891;  730.222
302.313;  104.839;   -8.801;  704.943
302.911;  100.613;   -8.522;  733.830
303.509;  105.513;   -6.171;  925.627
304.108;  103.373;   -7.311;  760.383
304.706;  102.390;   -8.321;  801.664
305.304;   96.844;  -10.222;  796.707
305.902;  101.617;   -6.021;  784.484
306.500;   97.585;   -4.971;  728.200
307.098;   97.030;   -7.061;  746.560
307.696;   93.954;   -8.801;  780.432
308.294;   95.056;   -6.411;  731.359
308.892;   96.240;   -2.901;  759.769
309.490;   93.639;   -5.041;  712.161
310.088;   91.288;   -5.002;  788.444
310.686;   95.404;   -2.041;  821.749
311.284;   90.774;   -2.351;  766.040
311.882;   88.833;   -4.422;  731.225
312.480;   86.100;   -4.192;  697.167
313.078;   86.682;   -1.172;  808.331
313.675;   88.888;   -2.601;  691.600
314.273;   83.256;   -1.312;  797.837
314.871;   82.850;   -3.942;  589.829
315.468;   80.068;   -2.802;  652.090
316.066;   82.995;   -0.701;  694.427
316.664;   76.182;   -4.362;  656.351
317.261;   80.545;   -2.872;  910.128
317.859;   75.813;   -2.022;  768.735
318.456;   76.132;   -0.531;  830.096
319.054;   71.873;   -3.912;  787.828
319.651;   71.522;   -4.752;  759.928
320.249;   70.044;   -2.602;  810.188
320.846;   67.339;   -0.821;  714.286
321.443;   65.921;   -4.642;  832.135
322.041;   62.250;   -5.002;  812.315
322.638;   59.178;   -3.982;  701.456
323.235;   60.861;   -3.411;  665.683
323.833;   58.843;   -7.361;  740.354
324.430;   53.557;   -8.611;  615.900
325.027;   54.361;   -4.061;  876.855
325.624;   54.162;   -4.031;  644.532
326.221;   51.547;   -7.481;  689.717
326.818;   51.253;   -5.281;  818.332
327.415;   53.771;   -7.460;  748.828
328.012;   53.724;   -5.510;  690.585
328.609;   53.092;   -7.880;  731.389
329.206;   50.622;   -8.331;  778.621
329.803;   50.827;   -5.121;  737.841
330.400;   52.657;   -4.510;  704.260
330.997;   55.599;   -6.441;  817.147
331.594;   53.378;   -8.831;  788.185
332.191;   58.766;   -7.621;  728.722
332.787;   61.045;   -4.591;  844.463
333.384;   60.236;   -7.412;  763.093
333.981;   59.317;   -8.293;  815.687
334.578;   61.417;   -7.052;  708.378
335.174;   64.280;   -3.102;  731.469
335.771;   63.820;   -5.943;  836.456
336.367;   61.332;   -7.393;  710.631
336.964;   64.302;   -4.063;  793.266
337.561;   61.588;   -3.813;  731.112
338.157;   58.476;   -4.654;  911.916
338.754;   55.857;   -7.934;  796.589
339.350;   53.061;   -4.414;  722.493
339.946;   54.555;   -4.664;  773.135
340.543;   47.256;   -6.375;  846.136
341.139;   42.468;   -9.815;  720.836
341.735;   40.714;   -4.526;  772.593
342.332;   37.924;   -4.895;  691.472
342.928;   39.133;   -4.295;  795.394
343.524;   33.285;   -5.476;  761.684
344.120;   28.653;   -5.856;  738.562
344.716;   32.591;   -2.155;  723.717
345.313;   30.964;   -6.275;  795.342
345.909;   25.730;   -8.815;  627.336
346.505;   26.870;   -5.305;  740.247
347.101;   27.109;   -2.674;  827.864
347.697;   27.806;   -4.344;  785.398
348.293;   22.423;   -9.975;  627.244
348.889;   22.229;   -5.774;  745.914
349.485;   21.821;   -5.004;  688.205
350.081;   22.906;   -4.704;  772.592
350.676;   17.885;   -6.635;  691.606
351.272;   22.296;   -4.504;  809.530
351.868;   21.512;   -3.914;  780.497
352.464;   20.000;   -9.044;  723.932
353.059;   16.778;   -8.314;  646.017
353.655;   19.155;   -7.024;  777.063
354.251;   19.714;   -5.343;  759.845
354.846;   14.835;   -8.604;  740.646
355.442;   12.290;   -6.945;  753.071
356.038;   14.675;   -7.564;  751.708
356.633;   13.892;   -5.814;  728.594
357.229;   12.606;   -7.364;  724.757
357.824;   10.748;   -8.024;  703.600
358.420;    9.835;   -9.384;  679.726
359.015;    9.957;   -5.104;  695.357
359.610;   11.098;   -6.854;  763.920
360.206;    6.184;  -10.185;  603.240
360.801;    7.771;   -7.054;  646.503
361.396;    9.938;   -5.034;  725.975
361.992;    5.992;   -8.284;  668.220
362.587;    2.788;   -8.625;  670.160
363.182;    4.558;   -7.674;  689.631
363.777;    5.959;   -5.164;  738.242
364.372;    5.788;   -8.604;  737.314
364.967;    1.478;   -9.055;  680.744
365.563;    5.357;   -6.114;  815.567
366.158;    2.138;   -5.814;  685.161
366.753;    3.928;   -7.854;  649.263
367.348;    2.286;   -7.804;  746.056
367.942;    1.249;   -7.954;  697.298
368.537;    0.402;   -4.984;  754.245
369.132;    1.595;   -8.564;  703.428
369.727;   -3.080;   -8.855;  638.079
370.322;   -1.630;   -6.245;  580.186
370.917;   -2.291;   -6.425;  710.646
371.511;    1.010;   -6.294;  861.834
372.106;   -2.619;   -7.685;  776.964
372.701;   -6.582;   -7.335;  585.988
373.296;   -0.407;   -4.564;  863.135
373.890;   -4.677;  -10.235;  647.840
374.485;   -7.697;   -7.885;  691.199
375.079;   -3.398;   -7.324;  738.685
375.674;   -2.126;   -3.494;  812.970
376.268;   -6.330;   -8.525;  691.759
376.863;  -11.990;  -10.086;  580.327
377.457;   -5.608;   -7.025;  662.490
378.052;   -8.338;   -3.585;  764.884
378.646;   -8.630;   -7.595;  741.167
379.240;   -8.902;   -8.335;  721.176
379.835;   -7.721;   -5.785;  636.978
380.429;  -10.169;   -4.335;  562.557
381.023;  -10.111;   -6.805;  779.205
381.617;  -11.782;   -9.195;  680.106
382.212;   -9.055;   -6.905;  685.303
382.806;   -7.861;   -3.745;  760.690
383.400;  -11.653;   -7.745;  672.281
383.994;  -13.304;   -9.765;  664.870
384.588;   -9.372;   -6.564;  697.701
385.182;   -7.839;   -5.344;  726.624
385.776;   -9.032;   -8.514;  706.875
386.370;  -12.290;   -9.555;  681.968
386.964;  -12.267;   -8.715;  684.155
387.558;   -9.305;   -6.174;  598.360
388.152;  -13.257;   -8.725;  681.959
388.745;  -11.540;   -7.965;  814.707
389.339;  -10.440;   -5.924;  747.642
389.933;   -9.504;   -5.524;  695.370
390.527;   -9.959;   -7.114;  859.029
391.120;  -16.218;  -10.725;  595.318
391.714;  -13.717;   -8.035;  711.633
392.308;  -10.501;   -3.574;  780.253
392.901;  -14.104;   -7.245;  642.460
393.495;  -15.953;   -9.285;  595.414
394.089;  -14.331;   -5.895;  760.452
394.682;  -15.178;   -4.295;  697.188
395.275;  -14.836;   -9.875;  719.927
395.869;  -15.728;   -8.485;  667.314
396.462;  -14.832;   -7.455;  616.609
397.056;  -10.675;   -5.424;  776.621
397.649;  -14.544;   -6.605;  731.575
398.242;  -12.775;   -8.224;  712.645
398.836;  -12.727;   -7.474;  766.408
399.429;  -13.599;   -7.094;  631.041
400.022;  -15.864;   -9.475;  665.902
400.615;  -13.990;   -7.145;  805.609
401.208;  -12.247;   -7.174;  691.451
401.802;  -14.879;   -5.515;  699.329
402.395;  -14.907;   -9.875;  683.502
402.988;  -16.309;   -8.845;  696.627
403.581;  -13.528;   -8.874;  646.878
404.174;  -10.957;   -5.324;  686.568
404.767;  -13.817;   -9.575;  638.583
405.360;  -16.124;  -10.965;  621.445
405.953;  -11.368;   -8.764;  759.034
406.545;  -10.752;   -7.514;  725.342
407.138;  -14.331;  -10.025;  618.350
407.731;  -13.869;  -10.034;  613.303
408.324;  -10.013;   -9.374;  660.554
408.917;  -10.687;   -6.534;  681.864
409.509;  -12.630;   -8.004;  740.396
410.102;  -14.457;   -9.875;  643.948
410.695;   -8.352;   -8.604;  665.758
411.287;   -9.625;   -6.794;  599.821
411.880;  -10.690;   -9.334;  585.421
412.472;  -13.525;  -10.254;  613.092
413.065;  -11.386;   -6.714;  629.408
413.657;   -8.945;   -7.234;  576.678
414.250;   -8.434;  -10.544;  646.681
414.842;  -10.422;   -9.744;  676.353
415.434;   -8.362;   -6.994;  570.463
416.027;   -4.197;   -5.893;  652.196
416.619;   -6.056;   -7.264;  713.400
417.211;   -6.496;  -10.374;  599.352
417.804;   -2.688;   -7.993;  628.499
418.396;   -7.027;   -7.234;  607.643
418.988;   -4.578;   -9.443;  659.238
419.580;   -7.612;  -10.724;  568.276
420.172;   -6.410;  -10.323;  536.196
420.764;   -1.433;   -8.793;  672.482
421.356;   -2.167;  -11.143;  636.898
421.948;   -3.861;   -8.293;  677.661
422.540;    0.817;   -7.893;  680.027
423.132;    0.638;   -7.082;  600.641
423.724;   -2.457;   -8.653;  561.267
424.316;   -0.793;  -10.213;  621.345
424.908;    2.604;   -9.762;  591.517
425.500;    3.132;   -5.572;  647.978
426.092;    4.093;   -8.422;  648.268
426.683;    2.896;   -9.283;  684.836
427.275;    5.612;   -7.852;  641.471
427.867;    7.642;   -5.272;  668.948
428.458;    7.873;   -7.682;  732.344
429.050;    6.339;  -10.612;  680.749
429.642;    8.248;   -9.882;  743.124
430.233;    8.517;   -6.962;  569.356
430.825;   10.771;   -6.842;  724.809
431.416;    7.904;   -9.672;  698.241
432.008;   11.110;   -6.552;  651.723
432.599;   12.042;   -6.891;  656.073
433.190;    9.013;  -10.912;  637.670
433.782;    8.283;  -11.172;  590.395
434.373;   15.493;   -6.061;  884.765
434.964;   14.415;   -8.251;  602.920
435.556;   12.461;   -9.722;  634.537
436.147;   15.061;   -9.082;  758.490
436.738;   14.624;   -8.041;  701.099
437.329;   19.611;   -7.341;  721.723
437.920;   13.428;   -8.162;  666.688
438.511;   13.846;  -11.802;  564.526
439.103;   19.682;  -10.191;  623.998
439.694;   20.537;   -7.601;  681.583
440.285;   23.115;   -8.541;  764.432
440.876;   20.079;   -9.751;  845.738
441.466;   19.654;   -9.401;  575.162
442.057;   25.002;   -7.760;  665.814
442.648;   24.128;   -9.971;  746.255
443.239;   21.454;  -11.001;  620.477
443.830;   27.161;   -7.990;  704.958
444.421;   28.646;   -7.910;  655.474
445.011;   25.432;   -8.131;  693.619
445.602;   25.692;   -7.111;  743.126
446.193;   27.137;  -10.920;  488.117
446.783;   31.721;   -6.500;  640.397
447.374;   26.514;   -8.671;  692.759
447.964;   27.390;  -10.781;  713.770
448.555;   36.216;   -9.650;  822.742
449.145;   31.799;   -8.660;  662.853
449.736;   32.481;   -8.990;  803.179
450.326;   33.030;   -9.500;  713.626
450.917;   37.656;   -8.680;  675.324
451.507;   37.253;   -7.520;  600.661
452.097;   37.711;   -8.590;  746.267
452.688;   38.704;  -11.340;  742.160
453.278;   38.146;  -10.100;  566.840
453.868;   43.156;   -6.019;  793.550
454.458;   41.136;   -9.440;  651.141
455.048;   42.111;  -10.560;  711.783
455.639;   42.455;  -11.799;  567.096
456.229;   46.345;   -6.899;  710.694
456.819;   48.595;   -7.389;  751.158
457.409;   48.669;  -11.119;  773.993
457.999;   51.167;   -9.289;  737.505
458.589;   50.864;   -6.139;  686.606
459.179;   51.606;   -8.729;  717.658
459.769;   49.289;   -9.789;  627.099
460.358;   53.827;  -10.259;  797.262
460.948;   54.069;   -7.299;  689.503
461.538;   55.835;  -10.289;  660.677
462.128;   54.003;  -11.269;  664.934
462.717;   59.832;   -9.368;  710.326
463.307;   63.416;   -7.908;  705.846
463.897;   59.425;   -9.599;  656.942
464.486;   58.796;   -9.769;  837.128
465.076;   62.168;   -8.048;  733.776
465.666;   66.253;   -9.358;  652.900
466.255;   64.450;   -7.919;  785.651
466.845;   63.256;  -11.689;  666.749
467.434;   66.186;   -7.818;  725.873
468.023;   66.740;   -7.678;  658.357
468.613;   65.164;  -10.939;  713.946
469.202;   69.070;  -10.118;  646.507
469.791;   72.964;   -9.108;  737.811
470.381;   74.518;   -6.058;  742.813
470.970;   75.098;  -10.428;  711.099
471.559;   75.189;  -10.268;  733.291
472.148;   78.085;   -8.448;  675.737
472.738;   80.112;   -6.917;  765.466
473.327;   80.283;  -11.978;  637.529
473.916;   79.638;  -11.888;  737.446
474.505;   84.285;   -9.437;  751.703
475.094;   86.396;   -6.747;  806.570
475.683;   86.101;   -9.367;  797.699
476.272;   87.846;  -12.637;  730.632
476.861;   89.800;  -10.027;  706.754
477.449;   96.007;   -8.716;  728.487
478.038;   90.665;   -9.577;  692.513
478.627;   92.325;   -9.718;  714.852
479.216;   98.999;   -8.947;  769.441
479.805;  101.300;   -6.256;  783.375
480.393;  101.524;   -7.937; 1008.945
480.982;  100.352;   -7.717;  874.501
481.571;  106.158;   -9.266;  858.333
482.159;  107.081;   -7.636;  705.386
482.748;  107.350;   -9.667;  821.385
483.336;  112.114;  -10.376;  858.209
483.925;  112.246;   -7.147;  774.373
484.513;  118.611;   -7.996;  758.962
485.102;  116.262;  -10.027;  810.965
485.690;  124.739;  -10.446; 1011.050
486.278;  126.007;   -8.446;  979.329
486.867;  126.884;   -6.356;  809.662
487.455;  128.742;   -9.136;  898.229
488.043;  130.422;  -10.646;  748.361
488.631;  138.764;   -7.456; 1005.079
489.220;  142.725;   -6.636;  908.626
489.808;  143.561;  -11.036;  741.415
490.396;  151.638;  -10.246;  914.645
490.984;  156.680;   -8.556;  830.161
491.572;  166.218;   -5.886;  940.315
492.160;  171.894;   -9.486;  919.081
492.748;  184.244;  -10.976;  884.341
493.336;  206.171;   -8.776; 1019.693
493.924;  233.531;   -5.465;  958.077
494.512;  260.388;   -9.986; 1066.638
495.100;  296.582;  -10.636; 1103.280
495.687;  352.427;  -10.885; 1206.373
496.275;  414.472;   -8.126; 1150.796
496.863;  485.459;  -10.586; 1281.171
497.451;  585.549;  -11.926; 1386.805
498.038;  714.824;  -10.885; 1556.729
498.626;  821.503;   -6.315; 1741.407
499.214;  975.660;   -7.326; 2016.609
499.801; 1173.252;  -11.906; 2220.633
500.389; 1415.265;  -10.466; 2312.494
500.976; 1714.123;   -5.236; 2744.849
501.564; 2149.026;   -8.936; 3148.565
502.151; 2510.585;  -13.176; 3515.999
502.738; 2916.401;  -10.646; 3971.274
503.326; 3308.748;   -9.525; 4403.796
503.913; 3722.250;  -10.856; 5161.749
504.500; 4105.298;  -11.586; 5986.420
505.088; 4497.560;  -10.336; 6381.201
505.675; 5029.597;   -6.355; 6925.547
506.262; 5724.948;   -9.046; 7619.060
506.849; 6446.165;  -10.416; 8733.969
507.436; 6975.445;  -10.305; 9790.121
508.023; 7550.542;   -5.496; 9985.472
508.610; 7801.238;   -7.856;10434.618
509.197; 8399.845;  -10.097;11198.435
509.784; 9720.111;  -10.886;12391.194
510.371;10925.676;   -9.315;13603.713
510.958;11712.904;   -9.936;14426.586
511.545;12413.996;   -9.326;15243.775
512.132;13169.925;  -10.075;15945.876
512.719;13691.335;   -7.796;16340.369
513.305;14859.419;  -10.606;18011.766
513.892;15607.129;  -11.486;19754.971
514.479;16798.924;   -9.126;20967.805
515.066;18232.502;   -6.026;22299.793
515.652;19738.602;   -8.466;22908.660
516.239;21035.982;  -10.886;23798.875
516.825;21919.227;  -11.496;25567.275
517.412;22936.326;   -5.796;28154.959
517.998;23674.539;  -10.506;28344.111
518.585;23712.855;  -10.076;27134.219
519.171;24272.857;   -8.315;27268.576
519.758;25993.682;   -8.596;28964.129
520.344;27947.023;   -8.466;30664.494
520.930;27685.738;  -11.006;32550.605
521.516;28654.025;  -10.495;35422.895
522.103;30524.691;   -5.526;38280.004
522.689;31077.441;   -8.746;37835.117
523.275;30605.123;  -11.376;37288.613
523.861;32104.125;  -11.156;37281.395
524.447;33794.262;   -8.135;37846.949
525.033;33772.598;   -7.896;38321.949
525.619;33859.465;  -12.476;38579.285
526.205;35002.672;   -9.516;40622.875
526.791;37663.836;   -6.926;42258.836
527.377;37671.172;   -8.346;42966.902
527.963;38649.012;   -8.717;42018.949
528.549;37629.453;  -11.016;42476.828
529.135;35873.180;   -8.536;41854.852
529.721;33867.891;   -9.666;41237.711
530.306;31562.156;  -10.066;41259.445
530.892;29933.684;  -11.356;41506.047
531.478;31761.928;   -6.596;43559.613
532.063;36930.113;   -8.836;47695.563
532.649;39543.406;  -10.047;50808.324
533.235;40283.992;   -9.746;51787.500
533.820;39874.383;   -6.566;52145.035
534.406;39992.418;  -10.817;51133.488
534.991;38078.156;   -9.416;49996.805
535.576;34025.445;   -9.036;48882.852
536.162;32051.756;   -6.156;46942.285
536.747;33265.402;  -11.607;45711.746
537.333;40076.598;  -11.787;48510.180
537.918;47871.770;  -12.437;50439.891
538.503;50114.348;   -7.196;50863.711
539.088;47516.395;  -10.556;50906.922
539.673;47240.035;   -8.767;52621.965
540.259;47544.121;  -10.026;52368.094
540.844;45052.063;   -7.416;50879.109
541.429;46956.633;   -9.467;52077.777
542.014;49061.172;   -9.527;52716.695
542.599;47782.875;   -9.946;52363.281
543.184;44777.570;   -7.927;53187.137
543.769;46067.691;   -9.297;54697.605
544.354;46070.633;  -10.127;53913.914
544.938;44581.586;   -9.267;49680.164
545.523;46410.145;   -6.506;47386.277
546.108;49443.633;   -9.787;49151.949
546.693;51467.637;  -11.587;51384.637
547.278;51458.230;  -10.986;51853.254
547.862;48588.844;   -8.206;51173.750
548.447;44003.645;  -10.067;51691.395
549.031;42904.074;   -9.637;52456.703
549.616;47638.867;   -9.926;52714.516
550.201;47473.652;   -6.347;52414.598
550.785;48874.758;   -7.917;52355.059
551.370;47934.016;  -10.867;54589.453
551.954;47127.953;   -9.047;58267.348
552.538;47820.992;   -7.827;59062.176
553.123;46043.656;  -10.287;58115.285
553.707;43759.094;  -12.178;56556.285
554.291;45272.160;   -8.717;56201.668
554.876;48408.090;   -7.457;55335.762
555.460;48567.418;  -10.387;54155.703
556.044;48807.156;   -9.618;53721.484
556.628;46972.613;  -11.567;53731.016
557.212;45944.723;   -8.097;54312.531
557.796;44529.781;  -11.077;53797.773
558.380;44589.410;  -11.108;56145.984
558.964;44937.883;   -9.057;57277.930
559.548;45987.617;   -6.977;56459.641
560.132;44046.141;  -11.457;54434.543
560.716;42374.773;  -11.378;54800.617
561.300;43607.422;   -9.577;57606.945
561.884;44918.672;   -7.127;58972.445
562.467;42929.578;   -7.118;57327.570
563.051;42103.949;  -13.358;54962.434
563.635;43599.164;  -10.178;52594.473
564.219;44177.426;   -7.837;50610.410
564.802;44885.488;  -11.398;49551.180
565.386;44520.090;  -12.788;48370.953
565.969;43844.488;   -9.077;48178.871
566.553;42407.609;   -6.207;49957.305
567.136;43243.254;   -8.568;50369.594
567.720;40106.383;  -11.868;49492.004
568.303;37874.305;   -8.268;50616.352
568.887;37746.578;   -8.698;50727.148
569.470;38375.684;   -6.808;51698.379
570.053;37515.551;  -13.188;52122.078
570.637;35228.504;  -12.037;52536.438
571.220;34952.906;   -8.577;51186.098
571.803;35963.941;   -8.498;51032.762
572.386;38164.832;  -10.498;49609.887
572.969;40671.234;   -9.388;48285.926
573.552;39067.340;   -8.338;47624.285
574.135;37465.594;   -8.518;45498.641
574.718;35062.570;  -13.628;41970.434
575.301;34360.258;  -10.893;41447.137
575.884;33657.945;   -8.158;40923.836
576.467;34661.301;  -10.328;45267.723
577.050;35967.211;  -13.058;48175.543
577.633;37192.824;   -9.458;47729.328
578.216;36603.285;   -8.928;47579.793
578.799;35918.281;   -9.358;47820.996
579.381;35056.602;  -11.388;48115.551
579.964;32953.395;  -11.718;47333.766
580.547;34723.754;   -8.588;46668.969
581.129;35512.988;   -8.859;44466.141
581.712;36346.840;  -10.729;44164.922
582.294;36829.879;  -11.118;46477.855
582.877;36932.926;   -5.218;48244.254
583.459;35198.750;   -8.679;47437.895
584.042;33028.566;  -10.709;46943.219
584.624;32883.555;  -11.669;46792.227
585.206;32643.344;   -8.218;46557.250
585.789;32982.055;  -10.569;45793.773
586.371;35497.918;  -11.859;43836.391
586.953;36122.742;  -10.719;42972.492
587.536;37000.285;   -7.198;42487.211
588.118;37583.410;   -8.720;42086.414
588.700;33820.508;  -10.439;43389.930
589.282;32820.883;   -9.198;43646.039
589.864;33782.906;   -9.199;43438.109
590.446;34922.258;  -11.319;43151.926
591.028;34745.621;  -11.159;42781.867
591.610;33510.574;  -11.779;42839.098
592.192;30827.307;   -7.668;42820.402
592.774;29435.830;  -11.949;40724.277
593.356;28400.730;  -12.129;39874.789
593.937;27538.922;  -10.669;39980.648
594.519;29778.906;   -6.509;42069.633
595.101;31649.605;  -10.849;42976.031
595.683;31657.303;  -11.679;44084.441
596.264;32622.012;   -9.049;43478.797
596.846;32447.006;   -8.849;43803.672
597.427;32333.545;   -9.570;42986.934
598.009;33572.551;  -12.620;42832.219
598.591;34009.953;  -10.039;42580.086
599.172;33640.262;  -10.369;43061.805
599.753;33899.492;   -9.140;41691.469
600.335;35138.035;  -11.430;40692.520
600.916;33130.297;   -9.939;39982.422
601.498;30865.223;   -8.479;40318.617
602.079;29382.787;  -10.920;40670.609
602.660;29074.613;  -11.480;41450.898
603.241;30860.807;  -11.699;41137.738
603.823;29629.342;   -9.579;38868.797
604.404;28786.510;  -10.620;38182.785
604.985;30586.795;  -10.450;38078.047
605.566;30752.195;   -9.129;38056.633
606.147;30856.932;   -7.510;37020.418
606.728;32334.268;  -10.660;37883.359
607.309;30889.891;  -11.740;38748.273
607.890;30591.887;   -9.759;38850.230
608.471;30157.846;   -8.250;37457.918
609.051;29504.615;   -9.240;36066.457
609.632;28226.695;  -12.120;35991.074
610.213;28380.520;   -9.110;37402.641
610.794;29302.213;   -8.030;38383.363
611.374;29202.648;   -8.110;40562.387
611.955;30038.146;  -13.560;38533.727
612.536;31520.846;  -11.400;36951.789
613.116;31234.311;   -8.070;37197.891
613.697;31515.303;  -10.830;38411.125
614.277;29566.920;  -11.641;38673.938
614.858;30287.660;  -13.310;37075.863
615.438;29890.049;   -7.460;35092.906
616.019;27572.854;   -7.601;33666.301
616.599;27860.406;  -12.020;34189.023
617.179;29507.463;  -11.780;36952.047
617.760;30658.654;   -8.570;39582.574
618.340;31571.152;  -11.471;38943.977
618.920;32523.711;  -11.170;37594.156
619.500;32473.510;  -11.071;37866.938
620.080;31537.908;   -7.750;37869.043
620.660;32607.252;  -12.711;36868.617
621.241;34268.699;  -10.211;36352.309
621.821;34719.730;  -10.961;35459.520
622.401;33637.648;   -7.720;35207.414
622.980;32718.766;   -8.981;35980.422
623.560;31247.271;   -9.331;37351.328
624.140;29839.400;   -9.850;34388.582
624.720;25067.451;   -7.451;32368.764
625.300;21706.994;   -9.070;32638.629
625.880;25090.162;  -12.601;34599.035
626.459;29153.113;  -11.751;36831.738
627.039;32037.758;   -9.281;38299.098
627.619;32010.404;   -8.801;38289.574
628.198;30481.900;  -12.071;37220.695
628.778;29394.385;   -9.461;37632.563
629.357;29996.799;   -8.491;38003.012
629.937;29990.711;   -9.721;38402.039
630.516;29498.889;   -9.951;37868.801
631.096;29328.172;  -11.731;35760.410
631.675;31524.428;   -8.572;35225.219
632.254;36615.430;  -11.282;35130.289
632.834;36110.559;  -13.322;35794.570
633.413;34378.480;  -10.301;35788.922
633.992;32067.568;   -8.582;34532.863
634.571;32736.217;   -8.352;33590.113
635.151;35434.391;  -11.912;34943.863
635.730;33926.379;  -10.511;35352.523
636.309;30570.893;   -7.731;35366.605
636.888;28034.121;   -9.952;36165.637
637.467;28517.439;  -11.672;37515.902
638.046;30005.137;   -8.901;39288.695
638.625;32963.973;   -7.912;38279.699
639.204;32835.055;  -10.022;37741.598
639.782;31632.621;  -12.252;38364.551
640.361;27824.607;  -10.041;36740.621
640.940;25147.947;  -11.161;34950.082
641.519;25985.969;   -9.701;34137.398
642.097;28764.578;  -11.271;35654.258
642.676;31590.879;   -8.651;35637.957
643.255;32720.607;   -8.711;36567.074
643.833;32008.840;   -9.581;37809.434
644.412;31957.549;  -13.711;37337.293
644.990;30920.598;  -11.811;37018.531
645.569;30803.340;   -9.411;36518.469
646.147;30457.342;  -10.291;36186.430
646.726;30504.291;  -12.401;36267.688
647.304;31451.559;  -10.411;36647.625
647.882;32888.355;   -9.651;39286.742
648.461;34524.371;   -9.631;39157.703
649.039;32953.328;  -11.881;35412.883
649.617;31921.564;   -9.661;34744.918
650.195;31101.359;   -9.301;35403.098
650.773;29799.088;  -10.511;35053.797
651.352;27505.631;  -11.521;33756.816
651.930;25204.959;  -12.211;31868.773
652.508;23602.715;   -9.171;33121.551
653.086;27416.178;   -9.371;33564.793
653.663;30447.951;  -13.161;34054.668
654.241;29245.670;  -13.031;35693.309
654.819;30803.527;   -9.371;36422.906
655.397;30710.697;  -10.511;38213.484
655.975;30091.641;  -10.371;39507.625
656.553;29782.078;  -10.051;39498.223
657.130;28375.678;  -10.061;40395.480
657.708;27668.941;   -9.561;39242.020
658.286;27805.236;  -11.511;38920.020
658.863;29008.531;  -10.261;40202.898
659.441;32367.174;   -7.531;39677.938
660.018;32411.047;   -9.501;40413.355
660.596;31004.912;  -13.301;39931.414
661.173;32499.889;  -11.211;39604.531
661.750;32804.000;   -9.951;39700.070
662.328;31656.549;   -9.390;39292.809
662.905;30817.305;  -11.330;38235.648
663.482;26712.268;   -9.050;36212.305
664.060;24708.580;   -8.240;35944.945
664.637;27449.570;  -10.050;35170.785
665.214;29007.352;  -11.760;34197.523
665.791;30687.875;  -10.530;34549.520
666.368;29845.852;   -9.690;35118.578
666.945;30151.363;   -9.320;36019.418
667.522;31688.250;  -11.860;36048.438
668.099;31478.928;  -10.770;36243.914
668.676;30132.082;   -6.260;35958.875
669.253;28863.967;   -7.000;37384.730
669.830;29366.797;  -10.190;36779.629
670.407;29338.205;   -9.550;35231.289
670.984;29050.336;   -9.260;35544.270
671.560;29840.375;   -9.280;35466.867
672.137;29178.939;  -11.810;34280.863
672.714;30122.705;  -11.490;34632.863
673.290;31335.277;   -7.740;35135.422
673.867;31319.250;  -10.660;36114.480
674.443;31164.309;  -12.230;36152.859
675.020;29107.338;  -10.450;35327.238
675.596;30069.041;   -9.260;35795.176
676.173;30798.566;  -10.780;35430.355
676.749;30455.658;  -13.690;33549.516
677.326;30210.416;  -11.980;32210.012
677.902;30170.027;   -8.630;32068.871
678.478;29471.957;  -10.730;32583.891
679.054;28452.824;  -10.520;32088.928
679.631;28854.318;  -11.920;30978.848
680.207;30365.240;   -7.490;33160.887
680.783;31853.721;   -9.860;35570.363
681.359;31007.008;  -13.380;36125.184
681.935;30757.246;  -12.480;35240.922
682.511;30645.051;   -7.900;34429.961
683.087;30947.656;   -7.710;34463.680
683.663;30118.963;  -11.480;34648.898
684.239;28618.893;  -14.090;34546.457
684.815;28002.520;   -7.560;35586.375
685.390;28278.393;   -9.910;35821.895
685.966;28831.160;  -11.159;35085.871
686.542;31321.193;  -11.169;34198.230
687.118;33788.238;   -5.959;32847.707
687.693;34200.250;  -10.329;32794.027
688.269;33806.328;  -12.059;33072.367
688.844;32002.182;  -10.909;33141.664
689.420;30046.275;   -8.019;33965.742
689.995;28137.055;   -8.399;34655.523
690.571;26717.434;  -10.949;33576.742
691.146;26737.182;   -9.619;32657.219
691.722;26510.414;   -8.999;32526.979
692.297;26206.805;  -11.589;33014.617
692.872;27588.906;  -11.739;34012.254
693.448;27374.162;  -11.059;34237.434
694.023;26394.719;  -10.139;34142.672
694.598;28289.816;   -9.029;34132.031
695.173;29020.816;  -13.319;34205.250
695.748;28119.955;  -10.169;32882.488
696.323;28109.525;   -8.339;32864.906
696.898;28313.195;   -8.169;33170.004
697.473;28506.850;  -12.309;32432.984
698.048;27793.744;  -10.989;31649.303
698.623;27358.285;   -9.329;30778.141
699.198;28870.033;   -9.849;31140.119
699.773;30293.836;  -12.329;31764.299
700.348;29077.184;  -10.389;31780.816
700.922;29017.361;   -9.269;32046.375
701.497;29995.332;   -9.329;32603.574
702.072;30137.986;  -10.789;34799.871
702.646;28774.441;  -10.839;35793.172
703.221;26651.945;   -9.099;35201.590
703.795;28561.318;  -10.939;34764.527
704.370;29070.861;  -12.859;34307.367
704.944;29293.768;  -11.559;33509.887
705.519;29905.463;   -7.939;31388.584
706.093;31108.059;  -10.499;31340.104
706.668;31677.338;  -11.289;32630.281
707.242;30580.990;  -11.509;32728.779
707.816;29224.689;   -9.639;32947.238
708.390;27773.164;  -11.429;33277.855
708.965;28145.969;  -11.869;33834.336
709.539;27965.934;  -11.689;33709.273
710.113;28107.680;  -10.478;33044.313
710.687;27775.330;  -10.228;31953.992
711.261;26312.273;  -13.698;30505.949
711.835;26200.283;  -13.378;30262.369
712.409;26687.119;   -9.698;31254.447
712.983;28723.217;  -11.898;32754.986
713.557;30002.238;  -15.138;34018.824
714.131;29708.803;  -14.098;34579.625
714.704;28591.916;   -9.958;33890.262
715.278;26117.465;  -10.028;33531.102
715.852;24874.838;  -11.148;33601.660
716.425;25798.229;   -9.068;33515.117
716.999;27031.961;  -10.038;33185.555
717.573;28018.854;   -9.798;33905.996
718.146;28965.377;  -12.378;35199.293
718.720;28978.756;  -11.918;35060.551
719.293;28754.090;   -8.088;34973.230
719.867;31724.963;  -10.888;36394.449
720.440;31576.963;  -11.938;36663.008
721.013;29880.322;  -12.818;35102.426
721.587;28231.969;  -10.298;33985.266
722.160;26952.004;  -10.048;33524.965
722.733;26001.727;  -12.108;32987.043
723.306;26303.609;  -10.818;33066.301
723.880;28456.873;   -8.908;33399.500
724.453;30769.947;   -9.878;33468.297
725.026;30048.283;  -11.188;33816.637
725.599;27208.781;  -11.678;32797.996
726.172;27080.324;   -9.618;33187.434
726.745;28036.408;   -8.258;35136.613
727.318;29368.508;  -12.978;35751.730
727.891;30166.234;  -12.148;35890.430
728.463;29763.371;   -8.968;34822.090
729.036;28412.520;  -10.188;32895.086
729.609;28853.941;  -11.788;31823.225
730.182;26050.619;  -11.788;31445.283
730.754;23595.594;  -10.268;32373.223
731.327;23768.523;   -9.998;33676.820
731.900;23982.943;  -12.228;33417.000
732.472;24945.283;  -13.848;31978.498
733.045;26840.090;   -8.698;30368.777
733.617;26953.176;  -10.607;30574.215
734.190;27165.801;  -11.507;31280.975
734.762;24788.352;  -13.647;31674.412
735.334;22774.363;   -9.767;31247.291
735.907;23136.500;   -9.897;29876.211
736.479;23520.869;  -11.637;29808.488
737.051;23276.590;   -9.567;30233.547
737.623;23853.512;   -8.187;31469.086
738.195;24141.066;  -11.187;31784.225
738.768;26171.885;  -12.337;32120.523
739.340;27038.381;  -12.227;32094.342
739.912;26181.836;  -11.057;31312.680
740.484;24753.191;  -10.207;31946.238
741.056;23106.742;  -10.047;32984.059
741.628;24376.363;  -13.627;33897.715
742.199;26614.684;   -7.177;33213.016
742.771;25138.451;  -10.797;31369.113
743.343;22973.873;  -11.997;31865.473
743.915;21966.646;  -12.867;32388.631
744.487;21887.439;   -7.617;31079.568
745.058;21948.641;   -9.557;30570.107
745.630;22578.137;   -9.877;29970.127
746.201;23842.135;  -14.177;29186.766
746.773;24740.713;   -9.237;28805.723
747.344;24607.893;   -9.847;29591.223
747.916;22783.586;  -11.657;31412.201
748.487;22685.734;  -10.587;32194.898
749.059;23869.252;   -8.707;32533.719
749.630;24610.283;  -10.537;32158.518
750.201;23628.705;  -11.687;30855.395
750.773;21893.523;  -11.647;28622.555
751.344;21725.076;   -7.147;28405.732
751.915;22748.348;   -9.757;28461.551
752.486;22944.406;  -12.427;27842.850
753.057;20893.988;  -12.227;27845.008
753.628;19618.928;  -10.417;27728.107
754.199;20551.607;  -11.767;27381.086
754.770;21649.123;  -11.187;25882.203
755.341;21834.738;  -10.507;25886.184
755.912;22009.609;   -9.387;26050.861
756.483;21645.949;  -10.647;26798.779
757.054;19853.789;  -11.837;27048.238
757.625;18357.834;  -12.716;26294.838
758.195;18058.867;   -9.666;26142.076
758.766;17762.053;   -8.656;26392.234
759.337;18397.887;  -12.856;26334.594
759.907;19861.094;  -13.366;27579.652
760.478;20793.334;   -8.576;28352.770
761.048;20346.488;  -10.526;27325.088
761.619;19372.152;  -11.116;26460.428
762.189;19344.891;  -12.136;26029.826
762.760;20226.543;   -9.456;26430.145
763.330;21462.629;   -7.136;26670.902
763.900;21156.369;  -11.786;26603.021
764.471;18784.539;  -11.546;25542.740
765.041;17381.148;   -8.096;24358.459
765.611;17187.576;   -8.876;23991.297
766.181;17527.295;  -12.196;24470.236
766.751;18693.064;  -11.636;24845.975
767.321;18511.781;  -10.156;24533.633
767.891;16516.914;  -11.766;24916.492
768.461;15945.605;  -14.936;24776.771
769.031;16474.588;  -12.356;24757.988
769.601;18173.488;   -7.526;24181.088
770.171;18207.111;  -10.766;23670.387
770.741;17239.020;  -13.176;22960.045
771.311;17239.457;  -10.616;22917.523
771.880;17806.414;   -9.576;23562.941
772.450;17678.555;  -10.336;24216.500
773.020;17561.990;  -13.516;24140.398
773.589;16741.363;  -13.466;24414.857
774.159;16075.419;   -8.686;23858.717
774.729;15723.434;   -9.476;22942.135
775.298;15360.497;  -13.666;22324.033
775.867;14950.585;  -11.716;21140.313
776.437;15125.449;   -9.906;20838.092
777.006;14920.520;  -12.166;20599.510
777.576;14595.590;  -12.356;20508.809
778.145;14529.567;  -11.646;20732.947
778.714;14534.093;   -8.226;21062.465
779.283;14015.832;   -9.556;20949.664
779.853;13459.742;  -14.116;20508.623
780.422;13893.437;  -11.506;20649.082
780.991;13506.282;   -9.556;21527.520
781.560;12218.596;   -9.095;22632.658
782.129;11950.311;  -12.135;23048.277
782.698;11973.577;  -10.865;23438.555
783.267;11599.170;   -9.335;23267.734
783.836;11491.567;  -11.045;22415.133
784.404;12470.620;  -13.865;20443.152
784.973;13128.679;  -13.095;19699.150
785.542;13192.030;  -11.575;19763.828
786.111;13071.770;   -9.705;20341.408
786.679;12569.368;  -12.105;20207.967
787.248;12255.128;  -12.455;19516.465
787.817;12078.550;  -11.535;18900.363
788.385;11718.434;   -9.765;17879.121
788.954;11179.291;  -14.005;17658.301
789.522;10598.221;  -11.955;17788.879
790.090;11067.304;  -10.135;18118.277
790.659;11650.108;  -10.975;18338.736
791.227;11193.788;  -13.375;18508.615
791.795;11505.130;  -12.375;17898.254
792.364;11824.828;  -10.725;17295.133
792.932;12245.632;   -9.715;16822.051
793.500;12542.995;  -12.675;17040.148
794.068;12799.791;  -13.495;17179.787
794.636;12964.138;  -10.885;16664.246
795.204;12279.616;  -11.045;16524.545
795.772;12299.059;  -13.175;17274.564
796.340;11812.887;  -12.445;17891.002
796.908;11545.460;   -9.735;17648.561
797.476;11423.516;   -9.815;17064.080
798.044;11016.008;  -13.985;16672.777
798.612;10278.862;  -13.115;17023.996
799.180; 9890.986;  -10.185;16561.615
799.747; 9749.187;   -9.055;15962.773
800.315; 9457.815;  -12.385;15296.992
800.883; 9212.884;  -15.035;14801.771
801.450; 9379.478;  -10.365;14534.430
802.018; 9511.591;   -9.855;14173.248
802.585; 9553.368;  -11.905;14029.547
803.153; 9516.271;  -11.585;13836.846
803.720; 9265.098;   -9.095;13567.324
804.287; 8752.288;   -9.135;13360.622
804.855; 8262.481;  -11.604;13681.981
805.422; 8158.713;  -11.794;13536.560
805.989; 8249.477;  -10.734;13355.958
806.556; 8421.120;  -10.444;13747.896
807.124; 8653.965;  -12.764;13987.376
807.691; 8613.856;  -12.964;14038.674
808.258; 8440.041;  -11.134;14120.152
808.825; 8105.834;   -9.854;13860.111
809.392; 8203.551;  -10.504;13268.790
809.959; 7737.667;  -13.054;12680.389
810.526; 7229.627;   -8.294;12427.308
811.093; 7207.865;   -8.394;12030.105
811.659; 7849.153;  -12.304;11653.664
812.226; 8432.068;  -13.944;11637.183
812.793; 8172.637;  -10.484;11611.521
813.360; 7521.938;  -10.144;11885.181
813.926; 7195.420;  -11.684;12770.539
814.493; 7006.593;  -13.644;12677.638
815.060; 6613.631;   -9.724;11974.336
815.626; 6561.728;   -9.854;11594.715
816.193; 6934.686;  -13.254;11579.474
816.759; 6955.766;  -13.204;11666.972
817.325; 6978.125;   -9.434;11325.530
817.892; 7327.683;  -10.134;11105.369
818.458; 7746.783;  -13.474;10843.928
819.024; 7375.142;  -11.854;10714.406
819.591; 7087.364;  -10.244;10469.165
820.157; 6891.995;  -10.704;10235.523
820.723; 6363.915;  -12.324;10847.563
821.289; 6057.830;   -9.444;11040.980
821.855; 6013.144;   -8.374;10357.100
822.421; 6013.028;  -10.234; 9978.918
822.987; 5984.995;  -13.294; 9754.177
823.553; 5596.276;  -10.884;10065.755
824.119; 5375.202;   -8.884;10036.294
824.685; 5515.725;   -6.784;10029.192
825.251; 5648.389;  -12.004;10199.230
825.816; 5602.284;  -11.474; 9820.189
826.382; 5323.929;   -9.174; 9297.248
826.948; 5462.256;   -9.214; 9381.347
827.513; 5882.143;  -10.774; 9450.726
828.079; 5761.661;  -11.924; 9472.444
828.645; 5151.189;  -10.543; 9292.643
829.210; 4954.437;  -10.533; 9065.341
829.776; 4921.673;  -10.753; 9132.620
830.341; 4811.769;  -10.173; 9092.878
830.906; 4978.883;  -10.743; 9078.557
831.472; 5336.271;  -11.113; 8534.535
832.037; 5154.104;  -10.603; 8677.874
832.602; 4632.322;  -13.323; 8628.692
833.167; 4349.053;  -10.823; 8879.031
833.733; 4287.431;  -10.113; 9189.790
834.298; 4435.462;  -13.583; 9052.608
834.863; 4580.210;  -12.703; 8895.087
835.428; 4596.308;  -10.523; 8824.266
835.993; 4426.734;   -6.963; 8845.385
836.558; 4222.388;  -10.763; 8888.563
837.123; 4288.003;   -9.903; 8966.582
837.688; 4546.825;   -9.913; 8617.860
838.253; 4816.168;  -10.283; 8590.699
838.817; 5005.082;  -12.963; 8443.797
839.382; 4929.599;  -14.243; 8799.356
839.947; 4622.097;  -10.733; 8810.595
840.511; 4323.056;   -9.383; 8796.394
841.076; 3949.660;  -12.563; 8347.231
841.641; 4000.000;  -12.953; 8224.330
842.205; 4097.513;   -7.043; 8223.349
842.770; 4126.881;   -8.163; 8622.107
843.334; 4253.445;  -12.503; 8410.386
843.898; 4200.161;  -11.693; 8337.465
844.463; 4200.720;  -10.203; 8506.283
845.027; 4001.917;   -9.533; 8280.962
845.591; 3822.630;  -13.443; 8231.141
846.156; 3833.743;  -13.143; 7969.179
846.720; 3745.616;   -9.433; 7768.278
847.284; 3637.835;  -11.033; 7630.957
847.848; 3508.683;  -10.403; 7472.395
848.412; 3411.316;  -11.553; 7437.394
848.976; 3445.254;   -8.393; 7674.592
849.540; 3369.836;   -8.713; 7836.011
850.104; 3434.510;  -12.463; 7913.669
850.668; 3802.993;  -12.973; 7694.508
851.232; 3968.178;  -10.793; 7756.887
851.796; 3833.315;  -10.662; 7926.545
852.359; 3514.724;  -13.082; 7827.844
852.923; 3318.313;  -12.192; 7641.163
853.487; 3157.008;  -11.912; 7342.501
854.050; 3141.705;  -10.892; 7042.820
854.614; 3298.916;  -13.992; 7151.338
855.177; 3412.719;  -11.732; 7105.077
855.741; 3454.200;   -8.962; 6989.675
856.304; 3349.562;   -9.442; 6596.634
856.868; 3315.755;  -14.192; 6356.272
857.431; 3423.452;  -12.702; 6468.571
857.995; 3552.901;   -9.942; 6373.210
858.558; 3582.463;   -9.112; 6324.448
859.121; 3317.680;  -12.932; 6408.327
859.684; 3149.492;  -13.442; 6347.886
860.247; 3250.019;  -10.632; 6321.264
860.810; 3281.563;  -11.272; 6301.903
861.374; 3036.640;   -9.832; 6607.881
861.937; 2771.118;  -11.762; 6408.200
862.500; 2770.083;   -9.722; 6572.639
863.062; 2937.298;  -10.512; 6387.297
863.625; 3090.058;  -11.232; 6190.836
864.188; 3253.723;  -14.112; 5807.254
864.751; 3332.345;  -11.302; 5682.413
865.314; 3240.150;  -10.112; 5547.492
865.876; 3010.547;  -12.182; 5500.150
866.439; 2974.009;  -10.722; 5415.909
867.002; 2935.357;   -9.252; 5501.567
867.564; 2746.173;   -9.572; 5413.946
868.127; 2528.979;  -13.142; 5160.325
868.689; 2406.940;  -12.902; 5133.183
869.252; 2300.737;   -9.732; 5252.382
869.814; 2197.619;   -9.432; 5297.141
870.377; 2202.688;  -11.552; 5390.919
870.939; 2276.075;   -9.052; 5599.898
871.501; 2354.743;  -10.982; 5248.336
872.063; 2360.436;  -12.292; 4854.235
872.626; 2298.623;  -14.912; 4817.074
873.188; 2297.929;  -13.112; 4987.732
873.750; 2270.124;  -13.442; 4868.651
874.312; 2184.537;   -9.402; 4779.330
874.874; 2100.104;  -11.062; 4866.348
875.436; 2021.266;  -13.931; 4718.887
875.998; 2021.090;   -9.561; 4660.005
876.560; 2054.170;  -11.321; 4462.964
877.122; 1997.487;  -12.221; 4145.042
877.683; 1893.490;  -12.191; 4056.481
878.245; 1815.183;  -12.101; 3950.740
878.807; 1861.135;   -8.971; 4058.958
879.369; 1896.134;  -12.071; 3954.677
879.930; 1805.949;  -14.621; 3941.495
880.492; 1740.203;  -10.311; 4067.014
881.053; 1712.418;  -10.901; 3859.633
881.615; 1606.611;  -14.411; 3776.071
882.176; 1494.671;  -13.761; 3734.750
882.738; 1435.747;   -9.181; 3678.489
883.299; 1420.358;  -11.791; 3405.407
883.860; 1445.110;  -13.121; 3351.106
884.422; 1499.877;  -11.211; 3394.044
884.983; 1540.000;  -10.091; 3166.443
885.544; 1482.328;   -8.461; 3189.802
886.105; 1276.888;  -12.361; 3160.360
886.666;  967.544;  -14.141; 3093.059
887.227;  700.488;  -11.361; 2941.957
887.788;  569.783;  -11.401; 2974.836
888.349;  540.462;  -13.791; 2721.214
888.910;  571.684;  -13.191; 2696.493
889.471;  610.360;   -9.881; 2560.172
890.032;  631.757;   -9.881; 2558.190
890.593;  639.222;  -10.371; 2567.669
891.153;  642.045;  -13.301; 2460.307
891.714;  623.653;  -11.431; 2372.046
892.275;  610.752;  -11.291; 2309.505
892.835;  595.150;  -11.471; 2382.543
893.396;  559.982;  -11.541; 2295.502
893.956;  514.002;  -11.181; 2162.420
894.517;  482.060;  -11.741; 2125.439
895.077;  477.551;  -11.671; 2086.978
895.638;  482.275;  -11.311; 2126.316
896.198;  458.583;   -9.831; 1838.275
896.758;  421.865;   -8.421; 1892.813
897.319;  395.815;  -12.351; 1792.232
897.879;  382.153;  -13.511; 1762.751
898.439;  360.503;  -12.001; 1661.149
898.999;  337.761;  -10.180; 1781.468
899.559;  329.231;  -12.030; 1703.347
900.119;  324.808;  -15.710; 1537.525
900.679;  321.793;   -8.900; 1638.384
901.239;  308.451;   -8.340; 1527.902
901.799;  299.087;  -13.910; 1456.441
902.359;  293.873;  -13.460; 1357.140
902.919;  287.956;  -11.490; 1331.118
903.479;  276.601;  -12.110; 1317.257
904.038;  258.360;  -11.720; 1262.595
904.598;  242.566;  -13.610; 1152.034
905.158;  238.867;  -11.040; 1240.893
905.717;  233.127;  -10.900; 1233.691
906.277;  222.855;  -15.080; 1217.330
906.836;  211.977;  -13.380; 1222.408
907.396;  201.082;  -10.780; 1193.047
907.955;  193.338;   -8.500; 1182.526
908.515;  188.420;  -12.760; 1099.364
909.074;  183.229;  -11.900; 1092.863
909.633;  178.019;   -8.950; 1069.121
910.192;  175.267;   -8.770; 1196.460
910.752;  170.487;  -12.390; 1029.960
911.311;  166.734;  -13.680; 1009.780
911.870;  164.338;  -12.370;  971.460
912.429;  164.893;  -10.900; 1094.080
912.988;  164.533;  -11.690; 1081.060
913.547;  160.213;  -13.240;  940.380
914.106;  155.612;  -11.990;  999.420
914.665;  152.423;   -9.990;  984.020
915.224;  152.268;  -12.880; 1035.760
915.782;  151.472;  -12.350;  922.560
916.341;  151.017;   -9.110; 1049.840
916.900;  146.932;   -9.270;  925.260
917.458;  145.857;  -13.240;  884.220
918.017;  145.430;  -13.550;  942.600
918.576;  145.288;  -12.320;  904.440
919.134;  143.551;  -11.490;  837.980
919.693;  141.032;  -13.670;  893.060
920.251;  139.299;  -15.470;  876.500
920.809;  138.211;  -11.290;  839.580
921.368;  138.253;  -10.210;  885.360
921.926;  137.986;  -12.140;  842.940
922.484;  136.368;  -13.080;  903.360
923.042;  135.497;  -11.720;  880.340
923.601;  138.782;   -7.480;  998.680
924.159;  137.996;  -11.570;  935.560
924.717;  133.931;  -13.840;  841.080
925.275;  132.942;  -10.640;  903.240
925.833;  132.896;  -11.540;  779.320
926.391;  133.874;  -12.960;  938.380
926.949;  131.857;  -14.130;  857.680
927.506;  132.486;  -11.750;  903.500
928.064;  132.213;  -10.250;  877.580
928.622;  132.871;  -13.030;  880.100
929.180;  131.961;  -13.400;  814.180
929.737;  132.710;  -10.700;  808.540
930.295;  136.390;  -10.070;  928.480
930.853;  138.175;  -11.960;  849.100
931.410;  138.167;  -13.120;  821.120
931.968;  137.295;  -10.770;  940.660
932.525;  137.034;  -10.680;  909.380
933.082;  138.067;  -13.130;  811.440
933.640;  138.802;  -13.210;  925.900
934.197;  136.994;  -11.060;  886.360
934.754;  138.072;   -9.580;  897.780
935.312;  141.971;  -14.000;  863.340
935.869;  145.267;  -10.710; 1012.980
936.426;  145.307;   -9.860;  872.800
936.983;  146.961;   -9.710;  889.020
937.540;  146.767;  -13.990;  838.280
938.097;  145.609;  -14.040;  940.120
938.654;  144.842;  -10.310;  898.860
939.211;  147.900;  -10.560;  952.480
939.768;  151.511;  -13.900;  915.420
940.324;  154.904;  -14.760;  904.200
940.881;  155.837;  -10.370;  878.500
941.438;  157.020;   -8.260; 1021.200
941.995;  153.942;  -12.540;  992.560
942.551;  151.034;  -14.670;  875.620
943.108;  150.039;  -10.450;  937.920
943.664;  152.460;  -10.750;  869.340
944.221;  156.588;  -11.550; 1088.140
944.777;  153.418;  -14.770;  869.680
945.334;  153.179;  -12.820;  884.840
945.890;  155.332;  -10.130;  946.480
946.446;  156.317;  -13.470;  947.020
947.003;  158.012;  -12.120;  964.940
947.559;  160.024;   -9.980; 1063.040
948.115;  160.058;   -9.080; 1026.540
948.671;  157.858;  -10.830;  967.300
949.227;  154.467;  -12.440;  859.560
949.783;  152.555;  -12.910;  858.900
950.339;  154.375;  -10.270;  991.000
950.895;  154.668;  -13.630; 1023.840
951.451;  153.986;  -15.100;  925.280
952.007;  153.015;  -11.330;  998.540
952.563;  153.293;  -10.580;  937.780
953.118;  153.026;  -13.440;  904.940
953.674;  151.544;  -12.710;  935.780
954.230;  151.489;  -10.350;  949.640
954.785;  147.722;   -9.190;  936.640
955.341;  147.258;  -11.200;  998.160
955.897;  145.643;  -16.560;  834.660
956.452;  146.625;  -12.570;  953.840
957.008;  146.438;   -7.970; 1083.640
957.563;  143.868;  -11.940; 1009.540
958.118;  138.229;  -13.450;  877.700
958.674;  138.556;  -12.030;  946.780
959.229;  139.552;   -9.410; 1013.980
959.784;  138.155;  -12.000;  832.400
960.339;  137.996;  -14.780; 1001.280
960.894;  133.565;   -9.860;  963.760
961.449;  130.126;   -9.970;  859.960
962.004;  130.782;  -10.900; 1212.840
962.559;  124.684;  -13.150;  860.140
963.114;  121.544;  -13.740;  742.480
963.669;  121.584;   -9.820;  915.500
964.224;  120.459;  -13.890;  874.340
964.779;  118.964;  -12.600;  828.420
965.334;  119.317;  -10.950; 1017.860
965.888;  119.626;  -11.170;  875.360
966.443;  122.681;  -12.540;  972.380
966.998;  121.923;  -15.780;  819.460
967.552;  120.261;   -9.760;  908.380
968.107;  116.939;   -9.060;  868.300
968.661;  118.880;  -11.950;  922.440
969.216;  118.995;  -12.800;  856.280
969.770;  118.426;  -11.210;  917.200
970.324;  118.163;  -11.610;  923.140
970.879;  115.067;  -11.370;  947.180
971.433;  111.877;  -12.540;  952.720
971.987;  106.441;  -11.320;  895.340
972.541;  103.545;  -10.720;  917.100
973.095;  103.328;   -9.680; 1009.460
973.649;  101.860;  -11.440;  809.480
974.203;  100.447;  -11.210;  829.040
974.757;  100.416;  -10.240;  855.220
975.311;  101.955;  -13.720;  872.600
975.865;  100.047;  -13.770;  881.820
976.419;   98.372;  -11.690;  857.400
976.973;   97.821;   -9.510;  849.620
977.526;  100.018;  -12.620;  949.920
978.080;   99.308;  -12.010;  796.780
978.634;  100.476;  -10.170;  921.320
979.187;   98.139;   -9.020;  905.400
979.741;   95.596;   -9.820; 1018.380
980.294;   91.031;  -14.870;  789.160
980.848;   88.886;  -12.380;  717.220
981.401;   90.765;  -10.350;  816.540
981.955;   93.724;  -13.720;  844.300
982.508;   92.282;  -11.490;  746.340
983.061;   92.005;  -10.000;  915.260
983.615;   88.482;  -11.480;  798.800
984.168;   85.997;  -13.220;  770.080
984.721;   84.693;  -13.960;  880.760
985.274;   83.658;  -10.870;  867.500
985.827;   83.110;   -9.790;  834.220
986.380;   80.593;  -13.120;  721.340
986.933;   79.685;  -12.450;  864.800
987.486;   78.078;  -10.210;  861.920
988.039;   76.079;   -8.430;  863.100
988.591;   75.587;  -10.520;  893.260
989.144;   73.077;  -14.860;  737.260
989.697;   70.856;  -13.080;  758.740
990.250;   72.385;  -10.150;  858.100
990.802;   71.254;  -13.430;  755.860
991.355;   72.842;  -12.750;  974.880
991.907;   70.174;  -12.040;  864.320
992.460;   67.506;  -11.330;  753.760
993.012;   67.004;  -13.610;  749.540
993.565;   65.840;  -13.460;  711.360
994.117;   67.106;   -9.360;  950.780
994.669;   63.013;  -11.300;  701.320
995.221;   62.335;  -13.540;  791.920
995.774;   60.377;  -13.430;  787.580
996.326;   58.598;  -12.520;  740.220
996.878;   58.151;  -10.950;  838.420
997.430;   56.837;  -14.300;  699.860
997.982;   55.754;  -13.760;  750.140
998.534;   54.983;  -11.530;  739.060
999.086;   53.804;  -10.310;  738.220
999.638;   53.221;  -12.530;  661.380
1000.190;   51.533;  -11.840;  699.320
1000.741;   51.263;  -10.260;  742.700
1001.293;   51.192;   -8.860;  686.020
1001.845;   49.730;  -13.700;  676.640
1002.396;   50.293;  -12.100;  743.400
1002.948;   49.014;  -12.760;  737.400
1003.500;   47.283;  -10.380;  723.780
1004.051;   49.183;  -11.900;  907.580
1004.603;   46.615;  -12.250;  791.820
1005.154;   42.119;  -13.210;  608.980
1005.705;   42.186;  -10.950;  723.960
1006.257;   42.225;  -13.880;  707.220
1006.808;   41.740;  -12.840;  685.460
1007.359;   40.858;  -10.570;  763.240
1007.910;   40.096;   -9.620;  646.640
1008.461;   39.924;  -13.630;  732.940
1009.013;   38.691;  -17.200;  588.340
1009.564;   39.455;  -10.200;  793.520
1010.115;   37.341;  -12.570;  597.040
1010.665;   37.027;  -15.150;  602.160
1011.216;   37.152;  -14.480;  667.920
1011.767;   36.264;  -11.340;  697.920
1012.318;   36.249;   -9.780;  736.980
1012.869;   35.636;  -12.380;  679.000
1013.419;   34.910;  -15.560;  603.120
1013.970;   34.612;  -11.010;  666.640
1014.521;   34.799;  -11.610;  620.620
1015.071;   35.249;  -13.450;  670.380
1015.622;   34.896;  -13.870;  635.460
1016.172;   33.159;  -11.610;  596.820
1016.723;   33.716;  -12.120;  614.380
1017.273;   33.453;  -13.620;  604.160
1017.823;   33.316;  -14.140;  650.340
1018.374;   32.849;  -12.800;  611.760
1018.924;   32.402;  -12.340;  716.880
1019.474;   32.885;  -11.410;  718.880
1020.024;   32.482;  -14.770;  657.580
1020.574;   32.503;   -9.780;  726.160
1021.124;   32.464;   -8.560;  673.580
1021.674;   31.806;  -15.190;  559.120
1022.224;   32.888;  -13.530;  708.940
1022.774;   31.333;  -13.280;  668.820
1023.324;   31.144;  -10.690;  753.520
1023.874;   33.746;  -10.240;  875.760
1024.423;   30.083;  -12.540;  613.700
1024.973;   30.245;  -10.010;  610.760
1025.523;   30.031;  -10.550;  620.960
1026.072;   30.046;  -13.560;  606.420
1026.622;   29.006;  -15.120;  675.740
1027.172;   30.006;  -11.260;  715.660
1027.721;   29.187;  -11.410;  601.220
1028.270;   29.443;  -13.530;  663.400
1028.820;   29.340;  -13.680;  638.080
1029.369;   28.582;  -13.520;  612.700
1029.918;   28.986;  -10.980;  649.840
1030.468;   28.338;  -13.530;  564.780
1031.017;   28.288;  -13.170;  634.800
1031.566;   27.962;  -12.200;  608.900
1032.115;   28.250;   -9.960;  694.500
1032.664;   26.996;  -13.210;  596.480
1033.213;   28.330;  -12.500;  735.420
1033.762;   27.213;  -11.910;  635.620
1034.311;   26.422;   -9.640;  677.220
1034.860;   27.986;  -13.310;  691.000
1035.408;   27.703;  -11.830;  722.720
1035.957;   27.143;  -12.000;  719.540
1036.506;   24.641;  -11.690;  530.800
1037.055;   28.496;  -10.990;  844.320
1037.603;   25.828;  -15.120;  664.000
1038.152;   24.492;  -12.450;  534.760
1038.700;   24.536;  -10.560;  585.740
1039.249;   25.024;  -11.080;  681.220
1039.797;   25.570;  -12.540;  633.360
1040.345;   24.672;  -11.920;  705.420
1040.894;   25.289;  -11.410;  625.300
1041.442;   24.716;  -14.320;  632.200
1041.990;   23.816;  -16.240;  559.160
1042.538;   23.085;  -11.680;  536.180
1043.087;   23.287;  -10.760;  570.860
1043.635;   25.315;  -11.850;  670.500
1044.183;   23.947;  -15.480;  586.400
1044.731;   23.047;  -11.770;  576.000
1045.279;   22.213;  -13.090;  674.920
1045.827;   25.860;  -12.440;  892.400
1046.374;   22.175;  -13.840;  515.420
1046.922;   21.701;  -13.220;  590.580
1047.470;   23.791;  -10.230;  691.300
1048.018;   23.122;  -14.590;  647.960
1048.565;   23.610;  -12.050;  708.600
1049.113;   21.800;  -11.650;  557.000
1049.660;   21.608;  -10.510;  629.660
1050.208;   22.520;  -13.310;  675.640
1050.755;   21.375;  -15.900;  606.580
1051.303;   21.789;  -11.430;  686.820
1051.850;   20.965;   -8.480;  635.120
1052.397;   19.983;  -15.010;  473.960
1052.945;   20.818;  -13.960;  617.760
1053.492;   22.157;  -13.150;  741.840
1054.039;   21.305;   -9.630;  720.180
1054.586;   20.169;  -13.680;  557.240
1055.133;   21.180;  -14.570;  693.140
1055.680;   21.146;  -13.820;  646.620
1056.227;   20.431;  -11.730;  542.780
1056.774;   21.405;  -12.480;  794.980
1057.321;   19.819;  -13.930;  523.260
1057.868;   19.528;  -11.690;  651.320
1058.415;   19.259;   -9.520;  651.980
1058.961;   20.259;  -13.160;  678.940
1059.508;   19.410;  -12.920;  643.820
1060.055;   19.608;  -11.920;  581.780
1060.601;   19.206;  -11.500;  624.300
1061.148;   19.690;  -14.330;  616.820
1061.694;   18.681;  -16.870;  592.580
1062.241;   18.923;  -10.330;  596.320
1062.787;   18.486;  -10.620;  663.140
1063.334;   21.090;  -10.110;  808.560
1063.880;   18.264;  -13.400;  668.360
1064.426;   18.503;  -10.680;  706.820
1064.972;   17.556;   -9.920;  601.340
1065.518;   16.255;  -10.980;  566.640
1066.065;   18.463;  -14.890;  624.460
1066.611;   17.442;  -12.870;  598.800
1067.157;   17.942;  -12.950;  641.860
1067.703;   18.126;  -13.540;  668.480
1068.249;   17.425;  -13.540;  605.220
1068.794;   16.704;  -12.600;  626.880
1069.340;   16.342;  -10.620;  578.960
1069.886;   16.648;  -12.830;  590.700
1070.432;   16.411;  -14.870;  541.720
1070.977;   16.099;  -11.980;  601.080
1071.523;   16.603;   -8.200;  573.060
1072.068;   16.368;  -12.330;  582.000
1072.614;   16.078;  -16.370;  527.760
1073.160;   16.771;  -11.100;  687.040
1073.705;   14.764;  -10.480;  572.520
1074.250;   15.954;  -14.520;  559.900
1074.796;   17.139;  -11.460;  655.160
1075.341;   16.666;  -11.950;  664.100
1075.886;   16.236;  -11.460;  594.240
1076.431;   15.276;  -13.770;  649.880
1076.976;   15.171;  -12.680;  639.220
1077.521;   14.134;  -13.170;  583.080
1078.067;   13.895;  -10.860;  579.400
1078.612;   15.495;  -13.920;  661.620
1079.156;   15.328;  -13.880;  601.540
1079.701;   15.132;  -13.120;  693.260
1080.246;   14.996;   -9.940;  696.300
1080.791;   15.059;  -14.740;  625.020
1081.336;   14.739;  -13.750;  659.320
1081.880;   14.256;  -13.400;  649.680
1082.425;   13.558;  -12.220;  573.480
1082.970;   15.272;  -11.610;  717.040
1083.514;   14.056;  -13.580;  597.000
1084.059;   12.990;  -12.810;  586.720
1084.603;   13.520;  -12.320;  565.840
1085.147;   13.629;  -13.190;  645.220
1085.692;   14.623;  -12.480;  716.800
1086.236;   12.379;  -13.020;  503.140
1086.780;   14.753;   -9.190;  751.440
1087.325;   13.963;  -12.480;  654.620
1087.869;   12.909;  -12.450;  610.700
1088.413;   13.516;  -12.240;  705.040
1088.957;   11.140;   -9.020;  543.400
1089.501;   14.345;  -10.320;  766.640
1090.045;   13.838;  -12.720;  726.480
1090.589;   11.087;  -13.690;  569.920
1091.133;   12.407;  -10.020;  673.340
1091.676;   12.590;  -12.330;  591.940
1092.220;   12.100;  -14.970;  600.920
1092.764;   12.540;  -12.430;  706.960
1093.307;   11.870;   -9.800;  673.780
1093.851;   11.343;  -14.970;  556.540
1094.395;   11.918;  -15.310;  683.140
1094.938;   10.694;  -10.370;  632.520
1095.482;   10.739;  -11.050;  559.800
1096.025;   11.867;  -11.840;  710.880
1096.568;   11.839;  -12.840;  779.280
1097.112;    9.124;  -14.700;  508.180
1097.655;   10.650;   -8.720;  603.000
1098.198;   10.268;  -13.610;  600.180
1098.741;   10.671;  -13.350;  612.860
1099.285;   10.993;  -11.230;  657.300
1099.828;    8.973;  -11.840;  439.400
1100.371;   10.262;  -10.840;  608.160
1100.914;   10.448;  -14.190;  682.660
1101.457;    9.733;  -11.240;  679.900
1101.999;    9.053;  -11.270;  584.680
1102.542;   10.070;  -11.480;  641.440
1103.085;    9.665;  -11.750;  658.500
1103.628;   10.387;  -11.400;  762.060
1104.170;    9.034;  -10.490;  588.280
1104.713;   10.132;  -10.600;  646.700
1105.256;    8.679;  -14.360;  557.440
1105.798;    7.686;  -13.210;  499.980
1106.341;   10.183;  -10.270;  728.900
1106.883;    9.039;  -12.200;  521.340
1107.425;    8.781;  -13.110;  668.180
1107.968;    8.452;  -12.840;  612.380
1108.510;    8.724;   -6.480;  684.960
1109.052;    7.950;  -13.940;  612.620
1109.594;    8.034;  -13.690;  554.440
1110.136;    8.432;  -11.880;  643.220
1110.679;    7.992;   -9.500;  633.080
1111.221;    8.290;  -14.160;  604.460
1111.763;    7.258;  -13.980;  559.220
1112.304;    7.232;  -13.880;  547.140
1112.846;    8.270;  -12.210;  666.240
1113.388;   10.389;  -11.390;  942.180
1113.930;    7.790;  -14.540;  694.200
1114.472;    7.307;  -12.640;  606.540
1115.013;    5.773;  -11.620;  551.280
1115.555;    6.731;  -13.640;  587.100
1116.097;    6.091;  -15.380;  579.480
1116.638;    6.974;  -12.640;  684.600
1117.180;    6.733;   -9.850;  667.740
1117.721;    6.739;  -13.690;  568.580
1118.262;    7.582;  -12.680;  677.960
1118.804;    7.527;  -12.530;  637.340
1119.345;    5.906;  -11.690;  578.400
1119.886;    7.594;  -13.380;  704.040
1120.427;    6.042;  -14.070;  589.020
1120.969;    5.562;  -13.500;  597.920
1121.510;    4.525;  -11.480;  563.060
1122.051;    6.379;  -12.830;  723.580
1122.592;    5.309;  -14.290;  655.420
1123.133;    4.309;  -12.400;  547.940
1123.673;    6.243;  -10.130;  706.480
1124.214;    5.583;  -12.930;  612.460
1124.755;    6.565;  -14.380;  639.460
1125.296;    5.096;  -14.000;  627.320
1125.836;    6.211;  -10.070;  691.500
1126.377;    5.418;  -12.640;  599.660
1126.918;    5.697;  -12.960;  614.980
1127.458;    4.578;  -13.350;  622.220
1127.999;    4.763;  -10.750;  656.980
1128.539;    5.156;  -12.350;  694.240
1129.079;    4.395;  -14.860;  632.720
1129.620;    3.891;  -13.840;  558.100
1130.160;    3.899;  -12.330;  539.480
1130.700;    4.893;  -14.530;  640.840
1131.240;    4.998;  -12.530;  643.700
1131.781;    3.879;  -14.450;  619.680
1132.321;    3.998;   -9.790;  599.120
1132.861;    2.847;  -14.860;  564.200
1133.401;    3.424;  -14.290;  593.940
1133.941;    4.408;  -11.750;  626.280
1134.481;    3.374;   -9.920;  597.580
1135.020;    3.443;  -12.290;  609.160
1135.560;    4.415;  -11.650;  674.940
1136.100;    2.783;  -16.270;  501.160
1136.640;    2.651;  -10.890;  510.480
1137.179;    3.566;  -14.180;  537.960
1137.719;    2.969;  -16.250;  605.400
1138.258;    3.228;  -14.230;  587.360
1138.798;    3.440;   -9.090;  663.780
1139.337;    2.122;  -15.130;  482.840
1139.877;    2.850;  -13.680;  642.360
1140.416;    5.242;  -11.320;  878.060
1140.955;    1.890;  -10.860;  535.380
1141.494;    3.653;  -12.920;  669.280
1142.034;    2.532;  -13.930;  583.520
1142.573;    3.239;  -11.440;  646.280
1143.112;    1.776;  -12.000;  553.480
1143.651;    2.425;  -13.670;  536.480
1144.190;    3.376;  -12.730;  691.640
1144.729;    2.114;  -14.560;  607.420
1145.267;    2.318;  -11.830;  584.900
1145.806;    3.025;  -12.230;  637.040
1146.345;    1.614;  -14.130;  635.020
1146.884;    1.564;  -11.590;  622.500
1147.422;    1.752;  -12.550;  533.060
1147.961;    3.424;  -11.180;  708.460
1148.500;    2.611;  -11.510;  669.720
1149.038;    1.822;  -11.640;  632.500
1149.577;    2.077;  -10.130;  698.640
1150.115;    0.186;  -13.970;  452.280
1150.653;    2.231;  -14.520;  607.340
1151.192;    1.292;  -12.810;  552.920
1151.730;    1.051;   -9.100;  652.560
1152.268;    1.109;  -12.220;  589.520
1152.806;    1.339;  -14.140;  571.180
1153.344;   -0.140;  -12.350;  577.640
1153.882;    0.833;   -8.980;  600.060
1154.421;    0.140;  -15.190;  470.620
1154.958;    0.140;  -15.210;  595.240
1155.496;    1.312;  -12.850;  645.280
1156.034;    1.102;   -9.940;  721.880
1156.572;    1.709;  -13.570;  667.060
1157.110;    0.136;  -14.590;  473.940
1157.647;    0.788;  -13.030;  676.960
1158.185;   -0.489;  -12.140;  564.320
1158.723;   -0.771;  -14.390;  509.200
1159.260;    0.948;  -14.090;  701.700
1159.798;    0.501;  -11.920;  658.160
1160.335;   -0.212;  -11.110;  631.820

