gmr_left
Integration time [ms]: 238.412
Averaging Nr. [scans]: 40
Smoothing Nr. [pixels]: 0
Data measured with spectrometer [name]: 7414430SP
Wave   ;Sample   ;Dark     ;Reference
[nm]   ;[counts] ;[counts] ;[counts] 

288.544;  490.399;  332.182;    6.613
289.143;  430.813;  271.583;   14.216
289.742;  514.978;  358.283;   11.816
290.341;  498.047;  338.184;   -4.936
290.940;  459.792;  301.359;    0.852
291.538;  544.190;  386.909;    1.792
292.137;  492.010;  339.183;    6.262
292.736;  606.322;  448.984;    8.164
293.335;  457.816;  303.109;   -6.418
293.934;  488.073;  331.034;   -2.904
294.532;  636.221;  479.809;   -5.162
295.131;  526.412;  376.861;  -10.283
295.730;  507.075;  361.060;  -16.141
296.328;  491.164;  345.711;  -14.740
296.927;  487.116;  342.761;   -8.768
297.525;  490.494;  342.961;  -15.255
298.124;  411.653;  272.787;  -22.063
298.722;  478.634;  336.861;  -14.796
299.321;  450.483;  303.761;  -10.466
299.919;  467.609;  329.786;  -10.979
300.518;  427.996;  293.262;  -12.077
301.116;  431.996;  297.361;  -13.509
301.715;  452.908;  315.411;  -11.939
302.313;  445.092;  306.661;  -15.424
302.911;  455.196;  329.612;  -19.833
303.509;  566.730;  439.211;   -3.567
304.108;  471.441;  342.436;   -9.553
304.706;  488.590;  367.686;   -8.582
305.304;  496.263;  366.712;  -12.348
305.902;  487.839;  359.286;  -14.411
306.500;  447.931;  325.311;   -7.194
307.098;  465.848;  342.011;   -9.322
307.696;  482.783;  361.986;  -19.192
308.294;  450.158;  331.561;   -9.736
308.892;  471.370;  349.686;  -15.482
309.490;  436.283;  314.911;  -14.107
310.088;  485.817;  372.612;  -15.862
310.686;  501.013;  389.461;  -10.781
311.284;  473.333;  356.336;  -14.878
311.882;  442.682;  336.862;   -9.948
312.480;  426.267;  321.162;  -15.503
313.078;  490.677;  388.612;  -17.262
313.675;  422.956;  320.411;   -3.694
314.273;  485.559;  384.962;  -18.246
314.871;  363.289;  268.837;  -15.190
315.468;  397.521;  299.362;  -12.633
316.066;  422.442;  321.511;   -5.765
316.664;  399.806;  302.362;  -14.317
317.261;  540.612;  448.487;   -8.677
317.859;  463.008;  378.637;  -11.804
318.456;  496.328;  411.961;   -3.107
319.054;  467.446;  378.962;   -3.062
319.651;  452.511;  371.737;   -6.706
320.249;  476.211;  398.562;   -5.206
320.846;  418.470;  345.061;   -4.679
321.443;  493.831;  418.661;   -7.920
322.041;  479.990;  400.187;  -14.105
322.638;  408.613;  339.787;   -6.263
323.235;  388.917;  314.961;   -7.424
323.833;  432.427;  363.186;  -14.765
324.430;  352.166;  280.436;  -10.550
325.027;  506.018;  440.611;   -9.951
325.624;  373.806;  298.761;   -3.712
326.221;  400.096;  318.936;   -9.368
326.818;  473.729;  400.711;   -5.637
327.415;  428.249;  346.260;   -6.699
328.012;  398.659;  319.885;   -5.713
328.609;  421.533;  339.260;   -9.983
329.206;  453.342;  366.561;   -7.154
329.803;  426.210;  339.636;   -1.682
330.400;  403.515;  313.485;   -2.741
330.997;  469.187;  377.636;   -4.339
331.594;  451.863;  363.311;  -10.278
332.191;  420.725;  324.736;   -6.967
332.787;  480.277;  386.261;   -0.480
333.384;  437.252;  342.112;  -10.333
333.981;  464.266;  375.163;  -19.900
334.578;  399.603;  310.587;  -19.816
335.174;  414.686;  319.387;  -15.844
335.771;  476.519;  384.438;  -12.670
336.367;  406.862;  320.113;  -21.124
336.964;  447.070;  369.313;  -18.226
337.561;  419.384;  329.313;  -13.311
338.157;  523.806;  432.764;  -19.006
338.754;  451.723;  371.839;  -19.418
339.350;  405.968;  324.864;  -29.433
339.946;  434.403;  348.714;  -16.622
340.543;  473.881;  399.465;  -16.744
341.139;  397.486;  331.215;  -21.841
341.735;  427.957;  363.566;  -25.012
342.332;  388.296;  316.015;  -19.156
342.928;  445.369;  376.415;  -20.443
343.524;  426.982;  357.341;  -14.397
344.120;  412.493;  353.591;  -20.654
344.716;  403.472;  332.640;   -5.730
345.313;  448.426;  378.515;  -10.929
345.909;  335.974;  276.840;  -19.843
346.505;  415.653;  349.565;  -19.645
347.101;  462.286;  394.639;   -9.618
347.697;  440.305;  377.889;  -10.305
348.293;  341.087;  275.590;  -23.189
348.889;  410.527;  352.389;  -18.418
349.485;  379.266;  316.289;  -10.476
350.081;  435.060;  364.839;  -17.320
350.676;  381.786;  319.940;  -21.088
351.272;  453.842;  385.314;  -12.821
351.868;  436.367;  359.189;  -13.165
352.464;  406.925;  339.314;  -12.464
353.059;  360.832;  297.664;  -22.547
353.655;  435.730;  371.639;   -9.379
354.251;  428.459;  356.313;   -8.266
354.846;  420.340;  350.714;  -17.705
355.442;  418.515;  355.915;   -9.317
356.038;  415.704;  352.164;  -11.049
356.633;  404.682;  340.389;  -10.006
357.229;  407.564;  340.089;  -13.120
357.824;  397.606;  327.589;  -15.647
358.420;  374.009;  310.939;  -19.204
359.015;  388.348;  318.914;  -12.263
359.610;  434.801;  365.289;  -16.421
360.206;  334.067;  270.590;  -20.074
360.801;  361.067;  291.064;  -13.277
361.396;  411.678;  343.139;   -5.822
361.992;  371.081;  306.264;  -11.247
362.587;  375.035;  308.515;  -21.502
363.182;  386.105;  322.764;   -7.461
363.777;  414.394;  351.864;   -8.719
364.372;  419.685;  358.189;  -14.590
364.967;  384.797;  321.715;  -15.145
365.563;  457.287;  388.039;   -7.192
366.158;  387.652;  320.264;   -5.662
366.753;  367.174;  295.314;   -8.378
367.348;  415.784;  357.064;  -14.990
367.942;  393.830;  327.764;   -6.005
368.537;  428.027;  361.689;  -11.504
369.132;  400.215;  329.614;  -10.576
369.727;  365.985;  298.440;  -12.573
370.322;  327.769;  266.940;  -11.560
370.917;  408.186;  339.490;  -10.388
371.511;  495.836;  427.164;   -9.161
372.106;  446.247;  379.790;  -10.245
372.701;  332.530;  272.315;  -10.158
373.296;  495.034;  427.564;   -4.719
373.890;  369.710;  307.915;  -11.802
374.485;  399.946;  337.115;  -13.500
375.079;  426.310;  362.789;   -6.276
375.674;  472.547;  401.664;   -0.447
376.268;  395.119;  332.240;   -6.916
376.863;  334.503;  276.716;  -14.483
377.457;  386.957;  314.690;   -6.903
378.052;  440.716;  374.315;   -9.844
378.646;  434.213;  370.840;  -12.601
379.240;  414.132;  351.240;  -14.715
379.835;  367.435;  308.715;  -12.331
380.429;  324.736;  266.490;   -9.074
381.023;  455.775;  393.115;   -1.729
381.617;  394.034;  332.440;  -13.714
382.212;  397.088;  334.815;   -7.060
382.806;  440.807;  377.590;   -2.303
383.400;  396.011;  331.115;   -0.815
383.994;  390.530;  329.140;   -4.429
384.588;  405.564;  348.039;   -6.261
385.182;  427.982;  362.014;    0.008
385.776;  416.626;  356.039;   -3.247
386.370;  397.812;  341.465;   -1.030
386.964;  397.945;  342.840;   -1.346
387.558;  351.170;  293.714;   -2.020
388.152;  397.968;  343.690;   -5.345
388.745;  469.477;  419.915;   -2.774
389.339;  438.970;  385.039;    3.510
389.933;  406.886;  347.289;    5.280
390.527;  500.448;  452.139;    2.610
391.120;  346.256;  295.940;   -7.914
391.714;  413.956;  363.840;   -1.903
392.308;  461.826;  405.564;    6.023
392.901;  380.116;  324.365;   -4.103
393.495;  349.108;  301.415;    3.284
394.089;  447.308;  399.790;    8.655
394.682;  405.060;  361.290;    2.312
395.275;  420.070;  373.240;   -7.402
395.869;  386.949;  342.490;   -1.072
396.462;  358.184;  315.340;    6.454
397.056;  452.986;  403.889;    8.494
397.649;  428.823;  381.015;    1.599
398.242;  416.611;  373.064;    3.153
398.836;  446.764;  402.914;   11.395
399.429;  363.329;  324.289;   14.695
400.022;  392.284;  345.590;    3.627
400.615;  468.160;  432.340;    8.383
401.208;  399.120;  354.989;   13.295
401.802;  407.317;  365.940;    6.211
402.395;  402.734;  361.290;    7.227
402.988;  405.632;  362.265;    2.700
403.581;  373.724;  336.689;   11.225
404.174;  399.128;  354.064;   18.922
404.767;  374.464;  339.265;   14.169
405.360;  360.233;  326.690;    8.999
405.953;  440.867;  403.039;   13.138
406.545;  423.359;  377.889;   13.937
407.138;  360.399;  313.990;   10.869
407.731;  355.996;  317.039;   12.768
408.324;  383.721;  343.789;   22.921
408.917;  401.382;  359.814;   15.308
409.509;  432.610;  395.314;   12.239
410.102;  370.461;  340.165;   13.741
410.695;  386.783;  347.989;   20.249
411.287;  347.049;  311.239;   21.793
411.880;  336.241;  302.339;   22.965
412.472;  352.322;  318.389;   15.082
413.065;  365.222;  336.289;   23.423
413.657;  332.265;  298.039;   21.077
414.250;  373.188;  336.714;   12.349
414.842;  387.858;  352.064;   20.423
415.434;  328.921;  296.714;   19.906
416.027;  375.686;  339.988;   26.574
416.619;  416.222;  384.414;   15.705
417.211;  336.171;  309.039;   17.791
417.804;  360.516;  325.263;   30.244
418.396;  352.495;  319.364;   24.177
418.988;  374.879;  348.488;   24.904
419.580;  324.394;  292.489;   20.692
420.172;  307.898;  278.713;   22.275
420.764;  385.797;  355.763;   26.773
421.356;  363.243;  338.413;   25.731
421.948;  389.302;  359.838;   24.876
422.540;  386.964;  355.188;   30.042
423.132;  341.368;  313.387;   32.728
423.724;  323.562;  290.788;   21.317
424.316;  358.111;  323.238;   29.359
424.908;  336.144;  304.287;   28.798
425.500;  373.585;  335.712;   30.512
426.092;  367.277;  336.912;   26.741
426.683;  395.057;  362.463;   27.029
427.275;  372.213;  336.387;   32.611
427.867;  382.573;  351.337;   33.796
428.458;  418.626;  385.937;   34.453
429.050;  387.218;  356.687;   34.255
429.642;  424.777;  391.712;   39.082
430.233;  320.732;  287.987;   41.138
430.825;  421.613;  384.287;   31.581
431.416;  399.532;  366.212;   35.755
432.008;  365.399;  337.812;   40.566
432.599;  377.173;  335.336;   46.322
433.190;  369.166;  333.212;   46.897
433.782;  334.719;  302.337;   41.069
434.373;  506.703;  470.836;   48.778
434.964;  335.573;  307.636;   50.078
435.556;  360.848;  329.587;   52.381
436.147;  432.394;  392.887;   38.251
436.738;  394.319;  360.061;   47.237
437.329;  415.249;  372.511;   61.304
437.920;  384.057;  345.062;   48.611
438.511;  317.908;  279.837;   44.910
439.103;  351.338;  315.036;   62.404
439.694;  387.548;  350.436;   63.075
440.285;  441.359;  400.436;   61.033
440.876;  481.267;  444.436;   57.249
441.466;  316.961;  290.086;   61.306
442.057;  380.777;  331.460;   65.773
442.648;  432.532;  386.736;   65.676
443.239;  351.784;  312.761;   55.963
443.830;  402.959;  361.860;   69.631
444.421;  372.408;  328.660;   69.943
445.011;  394.722;  350.386;   72.791
445.602;  422.209;  379.461;   68.848
446.193;  273.500;  228.810;   80.044
446.783;  362.828;  313.585;   82.599
447.374;  399.404;  357.311;   77.419
447.964;  406.078;  362.536;   72.605
448.555;  468.481;  424.460;   82.041
449.145;  379.336;  330.310;   76.230
449.736;  458.149;  414.985;   75.545
450.326;  410.785;  359.935;   67.945
450.917;  385.570;  333.685;   77.598
451.507;  348.240;  290.635;   68.027
452.097;  431.680;  383.935;   67.771
452.688;  425.367;  368.435;   62.884
453.278;  319.100;  275.160;   65.512
453.868;  459.063;  403.809;   71.796
454.458;  374.391;  318.910;   60.956
455.048;  409.590;  353.535;   62.356
455.639;  325.282;  268.759;   58.782
456.229;  405.765;  346.284;   65.209
456.819;  434.778;  368.959;   61.466
457.409;  444.417;  386.634;   59.967
457.999;  423.428;  361.034;   58.093
458.589;  390.469;  333.359;   59.536
459.179;  416.936;  349.659;   55.994
459.769;  357.679;  298.609;   43.624
460.358;  454.063;  390.959;   46.978
460.948;  395.604;  328.684;   49.821
461.538;  379.833;  310.534;   54.678
462.128;  375.365;  315.259;   49.309
462.717;  403.894;  337.158;   52.774
463.307;  414.008;  332.983;   48.101
463.897;  379.020;  311.684;   45.606
464.486;  485.354;  417.409;   45.010
465.076;  420.839;  353.758;   45.519
465.666;  376.487;  297.008;   50.058
466.255;  455.119;  380.084;   44.463
466.845;  379.855;  313.384;   41.206
467.434;  417.516;  343.333;   44.847
468.023;  374.344;  300.133;   46.760
468.613;  414.444;  335.959;   39.736
469.202;  369.303;  295.883;   46.461
469.791;  429.261;  345.133;   47.944
470.381;  429.401;  347.033;   47.529
470.970;  405.822;  332.058;   43.773
471.559;  428.373;  342.008;   41.646
472.148;  385.921;  303.683;   37.914
472.738;  442.296;  356.482;   48.071
473.327;  370.545;  281.358;   47.871
473.916;  427.668;  344.183;   37.716
474.505;  430.631;  347.732;   40.256
475.094;  474.239;  376.407;   43.269
475.683;  458.043;  365.032;   36.499
476.272;  424.474;  330.607;   44.542
476.861;  401.326;  312.082;   42.297
477.449;  422.558;  321.156;   46.878
478.038;  401.315;  303.132;   35.156
478.627;  408.342;  312.283;   42.514
479.216;  446.242;  339.082;   43.937
479.805;  455.227;  342.281;   51.393
480.393;  583.784;  478.332;   53.239
480.982;  505.107;  400.307;   38.955
481.571;  493.470;  389.631;   45.436
482.159;  407.059;  293.706;   51.007
482.748;  478.698;  366.357;   49.695
483.336;  505.050;  381.181;   48.280
483.925;  455.258;  334.082;   47.166
484.513;  441.649;  315.681;   55.404
485.102;  470.640;  343.207;   54.238
485.690;  586.819;  454.581;   55.748
486.278;  568.878;  440.606;   55.934
486.867;  467.811;  333.306;   57.106
487.455;  519.507;  388.156;   56.979
488.043;  435.481;  294.606;   57.564
488.631;  580.901;  434.606;   57.432
489.220;  530.102;  375.931;   63.646
489.808;  444.492;  280.831;   65.449
490.396;  537.790;  376.381;   61.977
490.984;  488.518;  312.181;   68.834
491.572;  552.088;  372.756;   70.775
492.160;  538.306;  353.331;   67.564
492.748;  518.373;  321.856;   66.808
493.336;  598.406;  385.406;   79.747
493.924;  560.766;  328.880;   88.688
494.512;  630.622;  377.506;   84.120
495.100;  644.015;  368.731;   86.250
495.687;  702.245;  385.755;  103.074
496.275;  667.536;  306.906;  108.717
496.863;  746.771;  320.381;  107.035
497.451;  821.768;  318.181;  117.993
498.038;  931.464;  337.580;  120.116
498.626; 1017.100;  323.705;  143.059
499.214; 1164.103;  350.431;  153.434
499.801; 1302.561;  340.156;  175.121
500.389; 1410.262;  273.880;  185.617
500.976; 1675.375;  353.806;  215.789
501.564; 1924.200;  344.506;  240.321
502.151; 2031.948;  238.081;  267.007
502.738; 2301.972;  318.731;  317.961
503.326; 2640.849;  325.180;  361.216
503.913; 3028.460;  343.006;  401.433
504.500; 3403.895;  355.181;  446.492
505.088; 3744.169;  301.106;  512.063
505.675; 4303.882;  330.580;  586.387
506.262; 4850.114;  325.506;  671.021
506.849; 5427.136;  335.756;  759.062
507.436; 6094.421;  380.255;  849.788
508.023; 6654.955;  334.181;  944.288
508.610; 7169.802;  374.231; 1020.690
509.197; 7807.922;  357.257; 1089.052
509.784; 8508.681;  331.206; 1133.776
510.371; 9266.634;  273.280; 1165.501
510.958;10240.166;  344.181; 1251.735
511.545;10366.099;  392.581; 1350.248
512.132;10496.649;  338.105; 1525.945
512.719;11055.210;  294.131; 1834.933
513.305;12020.758;  302.831; 1965.349
513.892;13130.965;  390.881; 1963.265
514.479;14051.553;  344.106; 2046.446
515.066;15036.015;  381.056; 2252.803
515.652;15992.241;  342.181; 2567.247
516.239;17027.947;  367.031; 2636.919
516.825;17542.338;  280.781; 2482.304
517.412;17812.031;  440.656; 2427.031
517.998;17555.354;  326.831; 2540.463
518.585;17452.473;  321.031; 2609.007
519.171;18454.141;  344.230; 2842.088
519.758;20396.840;  289.856; 3090.703
520.344;21920.080;  375.481; 3176.076
520.930;22270.953;  299.831; 3295.037
521.516;23040.984;  355.580; 3500.959
522.103;22979.424;  395.056; 3736.704
522.689;23753.658;  322.431; 3971.022
523.275;24776.867;  381.706; 4213.778
523.861;24779.471;  331.131; 4190.361
524.447;24737.547;  380.380; 4070.602
525.033;25376.705;  381.681; 4088.892
525.619;25259.945;  303.906; 4416.851
526.205;26057.400;  288.856; 4836.835
526.791;27635.295;  321.731; 4885.903
527.377;28361.754;  315.431; 4544.907
527.963;28707.559;  343.282; 4321.995
528.549;27933.002;  352.506; 4473.979
529.135;26806.184;  304.081; 4788.663
529.721;25863.494;  338.481; 4888.577
530.306;26497.102;  466.581; 4775.779
530.892;27767.840;  318.656; 4793.906
531.478;28687.699;  312.706; 4956.948
532.063;30291.355;  298.081; 5136.936
532.649;31811.191;  423.182; 5336.867
533.235;33389.789;  301.356; 5748.092
533.820;34719.418;  387.506; 6456.875
534.406;34599.977;  323.132; 6590.167
534.991;33990.395;  297.731; 6179.622
535.576;33094.836;  323.756; 6098.691
536.162;33090.898;  473.231; 6441.234
536.747;33710.273;  284.632; 6816.224
537.333;34886.078;  300.207; 6889.752
537.918;34424.473;  334.732; 7154.280
538.503;35086.293;  313.831; 7150.848
539.088;35383.898;  347.831; 7253.308
539.673;34715.113;  326.957; 7625.180
540.259;33750.977;  310.081; 8226.793
540.844;34985.453;  268.181; 8745.092
541.429;35064.863;  415.182; 8762.553
542.014;34820.852;  283.257; 8871.497
542.599;36015.523;  349.206; 8886.008
543.184;37834.004;  292.582; 9079.139
543.769;37612.781;  299.932; 9076.182
544.354;36615.797;  316.832; 8354.081
544.938;34851.445;  346.957; 8236.809
545.523;33514.891;  408.931; 8222.179
546.108;34602.336;  333.957; 8114.082
546.693;34926.109;  329.582; 8535.912
547.278;34473.598;  329.756; 9238.322
547.862;33391.047;  335.231; 9034.405
548.447;32553.666;  375.007; 7795.011
549.031;32349.646;  323.407; 7485.099
549.616;32666.762;  345.556; 7626.308
550.201;33096.531;  317.957; 7627.909
550.785;34201.512;  360.657; 7859.125
551.370;35554.027;  285.157; 7990.654
551.954;36029.340;  376.732; 8196.468
552.538;36691.039;  363.782; 7959.495
553.123;36463.516;  305.957; 7964.826
553.707;35685.824;  321.858; 8515.957
554.291;35153.355;  389.882; 8724.024
554.876;35208.922;  368.932; 8524.211
555.460;34928.980;  314.232; 8704.456
556.044;35302.352;  312.058; 9141.473
556.628;34655.168;  331.082; 9250.197
557.212;34166.859;  381.732; 9444.237
557.796;33129.430;  322.682; 9379.783
558.380;34732.168;  349.858; 9353.658
558.964;34683.844;  337.832; 9210.310
559.548;33523.820;  285.732; 8475.153
560.132;33480.957;  317.732; 7954.084
560.716;33929.480;  287.633; 7489.529
561.300;35599.008;  293.532; 7211.952
561.884;36561.668;  356.157; 7141.313
562.467;35407.355;  357.083; 7155.386
563.051;35156.734;  332.158; 7323.158
563.635;35411.418;  321.708; 7709.114
564.219;34985.344;  329.757; 7678.855
564.802;34548.465;  354.833; 7376.187
565.386;33631.594;  337.983; 7054.372
565.969;33084.176;  393.007; 6589.196
566.553;32302.795;  431.132; 6279.371
567.136;31873.725;  387.258; 5967.930
567.720;32227.596;  333.033; 5660.703
568.303;32090.660;  350.983; 5648.615
568.887;32693.088;  336.083; 5618.443
569.470;32482.959;  347.808; 5411.875
570.053;32574.010;  362.008; 5149.274
570.637;33043.969;  311.582; 5122.798
571.220;33262.242;  370.182; 4957.369
571.803;32495.801;  431.408; 4933.018
572.386;32438.326;  321.158; 4840.973
572.969;33136.031;  324.383; 4592.886
573.552;34023.922;  327.358; 4348.387
574.135;31538.742;  301.458; 4002.290
574.718;26850.186;  306.533; 3654.773
575.301;26446.148;  305.583; 3502.288
575.884;26042.109;  304.633; 3349.803
576.467;27323.346;  382.608; 3191.403
577.050;28437.955;  344.783; 3062.418
577.633;29583.770;  419.133; 3214.200
578.216;30293.115;  323.983; 3284.889
578.799;30082.666;  325.158; 3189.777
579.381;30361.031;  437.358; 3064.502
579.964;30582.572;  306.433; 2888.357
580.547;30835.178;  343.283; 2905.760
581.129;31521.238;  402.609; 2966.849
581.712;33333.680;  353.784; 2887.292
582.294;33819.645;  340.783; 2771.631
582.877;33659.438;  440.133; 2711.602
583.459;33152.551;  337.109; 2577.049
584.042;31656.014;  331.484; 2454.707
584.624;30662.008;  309.609; 2305.893
585.206;29711.168;  266.683; 2189.546
585.789;28206.734;  312.459; 2112.577
586.371;26775.850;  356.459; 2153.065
586.953;26967.285;  368.459; 2197.806
587.536;28217.564;  400.958; 2105.489
588.118;28688.451;  328.560; 1963.911
588.700;29430.467;  402.784; 1843.179
589.282;29282.854;  356.533; 1813.834
589.864;28908.721;  339.384; 1777.620
590.446;29044.529;  270.159; 1733.780
591.028;29605.162;  335.084; 1676.008
591.610;30493.107;  269.934; 1631.649
592.192;29912.859;  343.883; 1632.362
592.774;28157.482;  296.959; 1569.507
593.356;26573.580;  308.434; 1524.539
593.937;26476.922;  305.209; 1569.720
594.519;27282.152;  385.159; 1569.049
595.101;28494.877;  280.159; 1545.452
595.683;28545.547;  312.384; 1607.568
596.264;28862.141;  329.084; 1615.506
596.846;28731.764;  316.159; 1667.622
597.427;29219.080;  311.585; 1670.469
598.009;30623.582;  306.135; 1640.312
598.591;29441.604;  368.334; 1541.022
599.172;28663.814;  329.159; 1598.665
599.753;29163.574;  287.835; 1619.068
600.335;27898.750;  399.860; 1548.612
600.916;26121.994;  330.059; 1607.510
601.498;27168.889;  352.434; 1745.181
602.079;28348.496;  332.735; 1801.011
602.660;28469.156;  331.085; 1834.640
603.241;28014.318;  266.484; 1787.351
603.823;28142.154;  312.009; 1684.266
604.404;27773.736;  294.460; 1654.241
604.985;27943.410;  311.435; 1758.741
605.566;27105.496;  373.284; 1697.679
606.147;26701.979;  326.810; 1526.728
606.728;27989.904;  287.885; 1484.086
607.309;28470.223;  312.260; 1421.070
607.890;28116.438;  320.084; 1369.867
608.471;27904.691;  305.985; 1277.826
609.051;27410.568;  345.735; 1180.416
609.632;28087.520;  298.910; 1075.816
610.213;28884.025;  327.260; 1053.313
610.794;28086.430;  319.860;  979.442
611.374;27551.848;  353.585;  917.414
611.955;26776.283;  279.385;  819.987
612.536;26875.525;  350.760;  752.627
613.116;27826.643;  314.485;  690.799
613.697;28434.461;  306.310;  674.974
614.277;28049.367;  296.261;  663.846
614.858;26118.688;  315.435;  665.898
615.438;24774.334;  331.435;  660.712
616.019;24504.406;  396.911;  632.732
616.599;24523.451;  257.935;  551.759
617.179;25547.029;  288.785;  512.871
617.760;26101.162;  453.610;  473.655
618.340;25677.789;  327.786;  440.004
618.920;26867.859;  411.910;  429.731
619.500;26618.146;  317.361;  441.361
620.080;26817.537;  299.235;  425.202
620.660;26910.928;  298.436;  408.164
621.241;26909.262;  315.461;  387.161
621.821;27610.566;  335.836;  378.017
622.401;26861.486;  382.235;  379.188
622.980;26355.578;  283.836;  350.019
623.560;25546.928;  316.836;  336.446
624.140;23286.980;  340.235;  336.473
624.720;22265.881;  346.736;  334.974
625.300;21713.533;  297.610;  325.717
625.880;22981.219;  329.611;  308.519
626.459;25253.387;  329.936;  307.117
627.039;27421.723;  273.711;  290.890
627.619;30018.746;  432.161;  286.635
628.198;29789.252;  382.786;  282.535
628.778;27111.529;  359.011;  285.474
629.357;25509.240;  289.461;  284.103
629.937;25481.273;  314.761;  292.178
630.516;26933.021;  404.261;  290.749
631.096;27824.625;  305.311;  285.489
631.675;28598.652;  395.186;  287.022
632.254;28725.371;  305.012;  286.038
632.834;27838.918;  326.362;  276.451
633.413;26314.285;  400.736;  279.447
633.992;25745.842;  375.962;  264.508
634.571;25792.369;  361.012;  271.010
635.151;25858.717;  293.462;  277.338
635.730;25875.469;  321.436;  289.305
636.309;24616.910;  358.911;  285.306
636.888;23495.453;  354.262;  254.051
637.467;23054.344;  269.612;  230.324
638.046;23673.742;  400.486;  253.349
638.625;25619.045;  386.537;  246.866
639.204;25975.607;  345.112;  240.825
639.782;25250.777;  333.362;  261.970
640.361;24579.443;  391.961;  277.780
640.940;23361.076;  308.461;  270.101
641.519;23253.186;  360.011;  248.622
642.097;23097.520;  353.961;  239.843
642.676;23441.576;  338.986;  244.264
643.255;25208.035;  319.311;  234.985
643.833;27215.869;  360.561;  244.406
644.412;27379.178;  314.386;  244.927
644.990;25428.135;  338.211;  249.948
645.569;25241.869;  355.861;  249.569
646.147;25110.578;  372.611;  243.290
646.726;26119.035;  335.211;  249.511
647.304;26907.420;  321.061;  228.032
647.882;26483.328;  270.686;  214.552
648.461;25482.785;  342.686;  214.973
649.039;24221.895;  366.261;  223.394
649.617;23208.104;  357.161;  261.415
650.195;23002.387;  346.036;  298.736
650.773;24005.795;  314.336;  309.557
651.352;23756.129;  258.236;  297.978
651.930;21686.711;  257.711;  289.399
652.508;21777.770;  366.686;  285.620
653.086;22176.053;  350.436;  272.241
653.663;23266.563;  306.061;  265.062
654.241;24847.895;  282.711;  286.083
654.819;25734.529;  288.861;  286.404
655.397;26026.137;  297.536;  291.825
655.975;26142.971;  319.561;  299.145
656.553;26105.354;  400.861;  288.866
657.130;26752.938;  294.961;  304.087
657.708;26141.121;  344.761;  302.908
658.286;25496.004;  337.811;  294.629
658.863;25129.088;  338.536;  293.350
659.441;25336.420;  343.611;  318.671
660.018;25347.154;  327.111;  333.692
660.596;25091.088;  265.536;  335.013
661.173;25174.971;  309.686;  371.534
661.750;25044.580;  294.510;  365.155
662.328;25081.412;  357.635;  349.976
662.905;24305.070;  312.110;  332.997
663.482;23076.104;  325.085;  321.717
664.060;22635.363;  303.885;  314.438
664.637;23471.047;  362.985;  306.259
665.214;24524.980;  343.760;  314.580
665.791;25021.313;  318.410;  334.501
666.368;25124.521;  312.610;  329.222
666.945;24767.230;  360.485;  342.143
667.522;24258.613;  298.035;  370.964
668.099;23716.697;  321.685;  396.885
668.676;24272.779;  327.960;  391.706
669.253;24994.914;  403.010;  369.627
669.830;25461.271;  384.935;  360.348
670.407;25460.305;  321.710;  344.769
670.984;25295.539;  324.710;  322.890
671.560;24480.021;  366.585;  316.910
672.137;23444.055;  316.510;  322.531
672.714;22899.439;  348.160;  318.552
673.290;23040.322;  339.310;  324.473
673.867;22912.156;  305.735;  340.594
674.443;22499.664;  280.660;  319.515
675.020;22817.098;  334.360;  286.336
675.596;24322.406;  325.335;  247.557
676.173;24901.014;  284.685;  227.778
676.749;25298.223;  241.110;  224.399
677.326;24715.480;  276.485;  230.520
677.902;24054.965;  299.535;  241.841
678.478;24373.072;  287.935;  239.762
679.054;24011.480;  496.185;  248.583
679.631;23720.740;  350.035;  237.503
680.207;24307.273;  420.585;  245.924
680.783;23933.182;  257.685;  224.845
681.359;23782.990;  328.635;  209.666
681.935;23639.773;  333.235;  191.687
682.511;23759.682;  334.310;  210.008
683.087;23849.916;  353.460;  213.329
683.663;24132.549;  316.860;  216.850
684.239;23787.656;  282.010;  229.471
684.815;23772.041;  371.410;  248.792
685.390;23882.023;  420.910;  231.813
685.966;23918.906;  330.384;  221.234
686.542;23957.191;  293.884;  214.255
687.118;23177.199;  337.609;  212.276
687.693;22766.283;  354.159;  233.096
688.269;23011.791;  319.759;  246.917
688.844;22490.574;  348.934;  236.938
689.420;22103.432;  332.309;  242.059
689.995;22513.766;  412.309;  245.480
690.571;22500.225;  387.209;  244.701
691.146;22269.559;  318.634;  251.922
691.722;23416.891;  346.309;  284.743
692.297;23828.799;  309.209;  320.664
692.872;23566.207;  292.359;  313.885
693.448;22653.791;  286.509;  290.106
694.023;21788.775;  338.409;  304.327
694.598;21983.357;  330.909;  319.648
695.173;22788.541;  309.734;  323.169
695.748;23304.600;  262.034;  376.389
696.323;23307.084;  322.634;  397.610
696.898;23974.666;  380.859;  430.231
697.473;24341.250;  270.409;  454.952
698.048;23402.334;  315.859;  478.973
698.623;23305.742;  275.434;  477.094
699.198;23671.676;  332.634;  496.915
699.773;24426.934;  296.709;  490.236
700.348;25370.816;  286.534;  519.957
700.922;25011.975;  335.884;  575.678
701.497;24615.484;  329.484;  621.399
702.072;24549.992;  368.459;  664.420
702.646;24859.352;  358.209;  690.541
703.221;24409.908;  345.334;  748.862
703.795;23072.967;  292.784;  774.282
704.370;22682.201;  240.209;  799.803
704.944;23148.834;  308.359;  875.824
705.519;23647.742;  341.384;  902.945
706.093;24039.977;  295.009;  889.266
706.668;23551.584;  352.859;  903.487
707.242;23409.693;  362.059;  881.708
707.816;22925.826;  319.884;  892.329
708.390;23181.285;  325.334;  970.250
708.965;23224.768;  337.084;  984.671
709.539;22441.252;  317.284; 1026.092
710.113;21836.209;  331.783; 1067.913
710.687;22560.543;  359.383; 1166.434
711.261;23466.951;  281.883; 1190.854
711.835;23738.984;  289.733; 1197.275
712.409;24088.943;  268.058; 1308.096
712.983;24931.252;  265.958; 1461.617
713.557;24357.359;  264.508; 1611.838
714.131;24573.494;  313.533; 1554.359
714.704;24437.402;  298.083; 1520.780
715.278;23536.586;  328.983; 1575.101
715.852;22954.719;  353.558; 1689.822
716.425;23858.652;  415.733; 1829.143
716.999;24146.861;  263.658; 2008.664
717.573;23787.119;  348.733; 2000.485
718.146;24813.852;  407.658; 1914.506
718.720;25127.035;  336.808; 1818.026
719.293;24452.994;  347.408; 1734.147
719.867;24141.627;  302.283; 1716.968
720.440;24874.111;  390.233; 1918.589
721.013;25687.895;  307.233; 1975.410
721.587;25668.203;  270.283; 2073.331
722.160;25313.387;  369.008; 2357.852
722.733;25377.320;  340.358; 2657.073
723.306;25859.152;  324.358; 2703.894
723.880;26679.211;  337.958; 2549.415
724.453;27019.570;  381.208; 2414.336
725.026;27134.178;  305.433; 2298.557
725.599;26650.063;  334.183; 2168.778
726.172;26223.020;  349.033; 2106.099
726.745;27162.328;  346.783; 2253.320
727.318;26320.912;  364.533; 2404.740
727.891;25967.070;  335.333; 2680.161
728.463;26098.203;  334.933; 2838.882
729.036;25068.262;  296.258; 2755.103
729.609;24024.520;  294.583; 2731.824
730.182;23408.029;  360.033; 2855.645
730.754;24508.361;  246.233; 2946.866
731.327;25177.371;  351.758; 2840.187
731.900;24151.854;  271.533; 2647.608
732.472;23710.637;  323.433; 2473.929
733.045;23288.971;  313.083; 2445.750
733.617;23208.430;  262.832; 2511.771
734.190;22825.137;  346.907; 2581.592
734.762;23445.021;  316.282; 2710.813
735.334;24245.055;  329.782; 3005.733
735.907;23552.514;  333.132; 3154.954
736.479;22772.521;  370.857; 3171.675
737.051;23336.279;  347.357; 3217.496
737.623;25199.438;  357.882; 3246.217
738.195;25509.547;  299.482; 2985.238
738.768;24581.930;  252.782; 2727.559
739.340;24100.613;  304.857; 2666.880
739.912;23406.547;  357.657; 2769.601
740.484;22213.180;  350.757; 2731.422
741.056;22708.938;  312.057; 2963.043
741.628;24795.348;  289.782; 3361.364
742.199;26173.529;  383.907; 3641.185
742.771;25495.889;  280.457; 3932.005
743.343;25321.197;  292.832; 4319.926
743.915;25323.830;  344.282; 4706.647
744.487;25132.738;  347.457; 4874.968
745.058;24745.922;  353.457; 4616.589
745.630;24355.781;  348.382; 4253.410
746.201;24385.139;  304.807; 4056.131
746.773;24132.748;  349.032; 3772.952
747.344;23767.580;  322.357; 3642.473
747.916;24106.738;  333.257; 3752.294
748.487;24254.172;  359.432; 4106.215
749.059;23211.980;  284.982; 4457.835
749.630;22728.139;  297.432; 4366.457
750.201;23113.473;  320.057; 4600.078
750.773;23573.605;  303.332; 4658.499
751.344;23413.414;  327.382; 4609.319
751.915;22548.273;  322.882; 4526.440
752.486;22831.281;  293.582; 4536.061
753.057;22459.215;  329.332; 4383.282
753.628;21765.373;  295.257; 4296.503
754.199;21331.031;  310.882; 4383.224
754.770;20832.115;  353.057; 4653.545
755.341;19993.398;  360.857; 4831.666
755.912;19969.832;  319.107; 4831.387
756.483;20572.814;  345.682; 4735.808
757.054;21105.348;  311.757; 4685.029
757.625;21162.057;  283.281; 4994.250
758.195;20476.166;  271.456; 5051.471
758.766;20395.148;  334.106; 5317.792
759.337;20202.557;  271.731; 5646.512
759.907;20233.666;  273.281; 5404.133
760.478;20266.100;  301.906; 5090.954
761.048;20387.207;  350.156; 4871.175
761.619;20412.916;  343.981; 4589.396
762.189;20375.648;  323.481; 4171.317
762.760;19959.133;  353.681; 3872.538
763.330;20083.342;  348.956; 3832.259
763.900;20529.824;  336.956; 4150.180
764.471;20172.684;  288.831; 4529.801
765.041;19008.242;  377.656; 4715.922
765.611;19092.600;  345.006; 4681.442
766.181;20212.934;  313.381; 4717.063
766.751;19884.916;  326.356; 4710.285
767.321;19227.699;  281.681; 4450.305
767.891;19511.059;  335.006; 4274.126
768.461;19098.018;  317.181; 4215.047
769.031;18223.250;  319.931; 4173.068
769.601;17822.633;  371.706; 4174.689
770.171;17919.893;  271.681; 4229.310
770.741;18334.750;  308.231; 4352.031
771.311;17985.084;  349.906; 4336.652
771.880;17311.967;  290.606; 4300.873
772.450;17412.150;  293.831; 4387.194
773.020;18284.734;  265.356; 4220.415
773.589;18792.668;  304.181; 4075.835
774.159;18666.301;  303.806; 4105.756
774.729;17994.984;  302.231; 4114.978
775.298;17613.543;  295.981; 3693.298
775.867;17278.025;  299.481; 3343.119
776.437;16450.109;  327.631; 3062.040
777.006;16363.067;  274.856; 2927.161
777.576;16866.502;  344.456; 3046.482
778.145;17028.059;  343.356; 3230.203
778.714;16539.969;  322.006; 3253.324
779.283;16093.376;  348.206; 3129.745
779.853;16038.734;  314.331; 2983.566
780.422;16522.594;  318.631; 2929.887
780.991;16229.901;  342.380; 2863.908
781.560;15531.335;  388.455; 2948.029
782.129;14874.293;  340.005; 3074.149
782.698;14884.677;  380.505; 2893.970
783.267;14608.685;  307.955; 2721.391
783.836;14754.769;  330.805; 2659.712
784.404;14798.227;  279.880; 2622.233
784.973;14990.135;  237.455; 2600.754
785.542;14851.269;  315.855; 2528.475
786.111;14345.552;  374.280; 2404.396
786.679;13900.436;  344.680; 2365.717
787.248;13727.119;  267.330; 2498.438
787.817;13846.728;  303.955; 2645.659
788.385;13895.261;  369.230; 2709.280
788.954;14046.044;  275.655; 2620.500
789.522;14346.178;  355.780; 2625.422
790.090;14269.811;  278.980; 2743.843
790.659;13797.069;  306.080; 2635.163
791.227;13310.003;  311.805; 2495.484
791.795;13237.661;  331.755; 2413.705
792.364;13034.294;  290.980; 2345.326
792.932;13025.228;  340.980; 2350.447
793.500;12877.861;  316.380; 2429.768
794.068;12553.619;  268.080; 2513.589
794.636;12679.403;  295.280; 2664.310
795.204;12634.411;  262.980; 2721.431
795.772;12176.470;  290.305; 2802.052
796.340;11692.179;  299.005; 2847.173
796.908;11839.537;  261.530; 2997.194
797.476;12106.070;  284.905; 3151.615
798.044;12030.104;  253.155; 3110.735
798.612;11683.862;  314.105; 2931.656
799.180;11723.820;  325.680; 2785.777
799.747;11600.304;  319.580; 2899.098
800.315;11425.912;  274.780; 2955.519
800.883;11242.846;  252.155; 2948.940
801.450;11187.079;  315.580; 2965.361
802.018;11288.287;  334.130; 3070.582
802.585;10946.521;  322.055; 3156.103
803.153;10776.929;  289.680; 3199.524
803.720;10535.162;  296.830; 3168.845
804.287;10282.421;  306.930; 3248.366
804.855;10201.430;  359.104; 3406.187
805.422; 9887.563;  307.929; 3430.907
805.989; 9501.071;  290.679; 3453.528
806.556; 9444.130;  291.654; 3612.649
807.124; 9908.513;  357.604; 3736.570
807.691; 9945.071;  281.554; 3770.491
808.258; 9591.654;  319.179; 3705.012
808.825; 9372.313;  355.079; 3828.733
809.392; 9322.896;  385.954; 3986.754
809.959; 9177.755;  332.604; 4410.075
810.526; 8986.963;  389.054; 4774.996
811.093; 8592.997;  368.679; 4754.217
811.659; 8573.605;  315.429; 4661.238
812.226; 9133.938;  314.129; 4672.559
812.793; 9227.322;  327.529; 4822.979
813.360; 8756.080;  317.729; 5189.800
813.926; 8288.113;  328.854; 5310.622
814.493; 7790.997;  271.154; 5414.542
815.060; 7685.380;  255.704; 5548.963
815.626; 7873.589;  275.854; 5452.284
816.193; 7931.297;  325.404; 5339.305
816.759; 7795.556;  287.029; 5544.426
817.325; 7842.889;  257.729; 5706.547
817.892; 8091.172;  353.004; 5623.468
818.458; 8023.956;  337.154; 5586.689
819.024; 7867.789;  363.754; 5647.910
819.591; 7656.073;  321.029; 5762.031
820.157; 7346.156;  276.979; 6284.452
820.723; 7500.314;  336.229; 6906.973
821.289; 7792.673;  506.079; 7086.894
821.855; 7517.531;  346.254; 7054.915
822.421; 7442.790;  299.279; 7112.035
822.987; 7488.773;  280.329; 7256.156
823.553; 7458.057;  308.029; 7538.077
824.119; 7326.940;  357.979; 7594.298
824.685; 7179.098;  375.329; 7613.619
825.251; 7176.731;  349.804; 7644.140
825.816; 7126.415;  394.904; 7720.261
826.382; 6828.849;  353.229; 8014.282
826.948; 6568.032;  360.979; 8281.503
827.513; 6682.540;  312.229; 8289.624
828.079; 6840.099;  284.654; 8587.045
828.645; 6917.307;  331.953; 8821.865
829.210; 6936.465;  280.028; 9054.486
829.776; 6998.524;  341.478; 9054.607
830.341; 6785.532;  348.903; 9415.628
830.906; 6489.841;  366.128; 9932.449
831.472; 6294.224;  292.928;10150.271
832.037; 6433.357;  358.778; 9420.391
832.602; 6282.491;  297.278; 8664.912
833.167; 5989.699;  322.128; 8491.933
833.733; 5973.008;  355.203; 8872.854
834.298; 5766.966;  283.078; 9370.575
834.863; 5576.350;  335.253; 9610.695
835.428; 5589.458;  332.603; 9655.616
835.993; 5823.966;  346.478; 9437.838
836.558; 6017.774;  350.903; 9441.459
837.123; 6175.533;  435.803; 9600.979
837.688; 5956.566;  333.278; 9798.301
838.253; 5854.800;  336.928; 9902.921
838.817; 6024.708;  311.203;10339.742
839.382; 6337.742;  374.978;10548.363
839.947; 6279.750;  323.128;10252.484
840.511; 5959.608;  393.528;10040.005
841.076; 5456.617;  252.078;10099.926
841.641; 5501.600;  344.703;10347.347
842.205; 5619.784;  337.778;10817.368
842.770; 5834.117;  408.353;11435.289
843.334; 5915.601;  312.103;12072.409
843.898; 5934.059;  310.603;12635.431
844.463; 5915.417;  380.278;12537.252
845.027; 5860.176;  308.503;12759.673
845.591; 5928.184;  363.603;12821.993
846.156; 5816.842;  299.378;12520.914
846.720; 5567.251;  354.153;12390.436
847.284; 5500.909;  330.928;12956.456
847.848; 5509.393;  348.053;13240.177
848.412; 5283.926;  323.753;13216.998
848.976; 5296.435;  386.653;13014.619
849.540; 5410.668;  417.803;12355.740
850.104; 5419.426;  383.053;12208.761
850.668; 5110.285;  254.278;12106.882
851.232; 5144.168;  268.203;11862.103
851.796; 5268.352;  320.853;11700.523
852.359; 5235.460;  357.802;12375.944
852.923; 5206.143;  372.677;13087.966
853.487; 5035.102;  354.002;13297.187
854.050; 4753.510;  221.277;13851.207
854.614; 4773.869;  307.352;14854.229
855.177; 4803.027;  338.277;15802.149
855.741; 4647.760;  345.252;16603.570
856.304; 4418.569;  368.077;16359.891
856.868; 4218.127;  285.127;14365.512
857.431; 4383.635;  327.252;13361.333
857.995; 4496.819;  311.852;14130.554
858.558; 4527.102;  344.802;14883.175
859.121; 4381.585;  356.802;15754.195
859.684; 4132.869;  334.527;15995.017
860.247; 4114.027;  330.327;15149.537
860.810; 4074.786;  315.502;14640.358
861.374; 4244.669;  427.327;15551.079
861.937; 4128.453;  281.702;16519.801
862.500; 4317.011;  308.952;16796.521
863.062; 4342.895;  286.727;16538.742
863.625; 4331.878;  336.352;16716.764
864.188; 4162.686;  303.952;17055.084
864.751; 4069.370;  311.477;17197.705
865.314; 4028.553;  328.227;17151.625
865.876; 4023.411;  367.602;17783.547
866.439; 3947.045;  356.927;19283.467
867.002; 3934.903;  418.077;20256.389
867.564; 3828.237;  382.527;20485.410
868.127; 3740.345;  339.677;20789.730
868.689; 3550.178;  337.727;21981.951
869.252; 3487.112;  379.552;23803.771
869.814; 3371.670;  297.202;24974.094
870.377; 3503.729;  333.127;24690.314
870.939; 3718.037;  475.577;23963.436
871.501; 3576.045;  336.752;25167.156
872.063; 3388.629;  240.777;26995.477
872.626; 3351.337;  266.427;27443.098
873.188; 3334.496;  339.102;26718.418
873.750; 3216.679;  318.952;26558.840
874.312; 3224.237;  307.927;26701.561
874.874; 3379.921;  397.902;27970.582
875.436; 3340.354;  355.951;29173.402
875.998; 3321.788;  389.851;30376.623
876.560; 3159.071;  360.801;32507.344
877.122; 2892.804;  294.651;34833.066
877.683; 2803.438;  350.176;36458.285
878.245; 2721.621;  318.351;37248.207
878.807; 2887.155;  347.801;36758.027
879.369; 2921.913;  283.901;35223.551
879.930; 2861.921;  283.676;33824.969
880.492; 2941.580;  383.151;34436.492
881.053; 2790.688;  294.601;37745.313
881.615; 2680.272;  307.076;41184.633
882.176; 2535.105;  324.176;42871.555
882.738; 2522.864;  358.351;41693.074
883.299; 2413.772;  262.026;40289.895
883.860; 2355.605;  266.201;39231.215
884.422; 2368.014;  356.201;38264.039
884.983; 2248.897;  288.701;37171.859
885.544; 2256.330;  334.101;35842.379
886.105; 2250.114;  327.726;34810.000
886.666; 2240.597;  316.601;34519.020
887.227; 2138.306;  267.851;33905.641
887.788; 2111.539;  338.601;34502.965
888.349; 1946.897;  284.426;34241.785
888.910; 1893.981;  352.301;33722.203
889.471; 1751.064;  338.351;32539.625
890.032; 1680.698;  326.526;31528.346
890.593; 1686.081;  353.451;32655.068
891.153; 1692.414;  318.251;33882.289
891.714; 1642.923;  271.876;33318.711
892.275; 1602.781;  279.076;31848.930
892.835; 1602.240;  366.851;30339.752
893.396; 1541.573;  351.251;30074.973
893.956; 1421.831;  321.201;30338.393
894.517; 1382.390;  334.976;30864.113
895.077; 1364.323;  341.851;29766.734
895.638; 1392.382;  397.501;26379.557
896.198; 1243.465;  284.226;24056.277
896.758; 1272.598;  363.351;22961.898
897.319; 1166.557;  322.426;21772.020
897.879; 1127.040;  327.851;20877.539
898.439; 1048.549;  269.326;19509.461
898.999; 1125.432;  347.950;17297.582
899.559; 1096.790;  342.950;14712.002
900.119;  998.974;  283.975;12790.224
900.679; 1053.932;  392.525;11586.744
901.239;  994.291;  353.950;10776.465
901.799;  954.674;  331.000; 9691.687
902.359;  900.082;  294.300; 8725.907
902.919;  864.666;  289.650; 8305.728
903.479;  842.249;  290.550; 8172.649
904.038;  801.108;  279.900; 7913.870
904.598;  741.416;  237.225; 7262.291
905.158;  792.124;  307.100; 6609.012
905.717;  787.283;  319.925; 6236.133
906.277;  778.366;  329.425; 5829.054
906.836;  765.300;  346.525; 5396.674
907.396;  753.183;  345.100; 4964.195
907.955;  745.116;  344.600; 4528.917
908.515;  710.475;  310.200; 4223.837
909.074;  691.758;  311.450; 4023.958
909.633;  679.192;  317.675; 4065.379
910.192;  740.175;  398.125; 4066.300
910.752;  649.000;  311.025; 3971.600
911.311;  634.925;  302.425; 3839.600
911.870;  605.500;  294.400; 3684.500
912.429;  680.125;  367.100; 3635.600
912.988;  669.350;  360.725; 3689.800
913.547;  586.550;  291.250; 3737.700
914.106;  615.100;  328.775; 3740.300
914.665;  613.900;  328.125; 3604.600
915.224;  646.825;  367.300; 3358.700
915.782;  579.175;  303.450; 3188.400
916.341;  647.975;  375.900; 3091.400
916.900;  569.050;  309.825; 3044.800
917.458;  550.225;  290.900; 2888.600
918.017;  582.475;  323.825; 2818.900
918.576;  557.000;  306.850; 2838.600
919.134;  519.675;  270.925; 2880.100
919.693;  553.950;  303.825; 2996.300
920.251;  543.300;  294.975; 3183.100
920.809;  520.825;  280.075; 3247.000
921.368;  544.175;  306.550; 3156.600
921.926;  524.625;  286.775; 2964.900
922.484;  556.250;  321.075; 2846.300
923.042;  540.625;  309.775; 2890.400
923.601;  611.000;  378.950; 2987.700
924.159;  577.025;  343.425; 3049.800
924.717;  520.875;  283.975; 3087.000
925.275;  556.675;  320.000; 3093.400
925.833;  483.700;  253.450; 3182.400
926.391;  576.125;  344.775; 3397.900
926.949;  531.000;  295.650; 3575.400
927.506;  556.025;  326.450; 3713.400
928.064;  538.575;  311.175; 3871.300
928.622;  543.625;  309.725; 4092.800
929.180;  503.375;  275.125; 4499.300
929.737;  500.400;  266.100; 4813.200
930.295;  565.750;  337.375; 5084.100
930.853;  524.200;  283.675; 5185.000
931.410;  511.950;  273.025; 5313.100
931.968;  574.975;  344.250; 5339.600
932.525;  557.950;  327.375; 5399.900
933.082;  500.350;  265.950; 5457.500
933.640;  566.425;  328.025; 5692.900
934.197;  541.525;  309.200; 5821.200
934.754;  546.325;  305.600; 5617.900
935.312;  531.850;  289.325; 5512.400
935.869;  621.275;  374.375; 5582.400
936.426;  528.925;  289.250; 5650.100
936.983;  540.500;  298.200; 5657.400
937.540;  512.375;  269.650; 5564.300
938.097;  572.475;  327.175; 5574.000
938.654;  556.650;  301.500; 5665.900
939.211;  582.125;  331.500; 5931.600
939.768;  560.625;  310.250; 6153.600
940.324;  551.250;  298.750; 6397.600
940.881;  539.575;  285.525; 6454.200
941.438;  622.100;  365.925; 6206.900
941.995;  609.775;  349.275; 6003.900
942.551;  542.525;  272.650; 6228.300
943.108;  577.725;  313.650; 6603.500
943.664;  545.300;  277.825; 7188.100
944.221;  670.325;  401.575; 7579.900
944.777;  536.600;  269.500; 7658.100
945.334;  549.350;  282.525; 7670.400
945.890;  595.500;  317.025; 7525.100
946.446;  583.975;  313.075; 7261.500
947.003;  589.475;  323.250; 6949.200
947.559;  652.975;  383.950; 6773.100
948.115;  628.000;  358.575; 6668.400
948.671;  600.100;  322.300; 6488.400
949.227;  532.050;  259.975; 6236.600
949.783;  527.700;  255.075; 6008.900
950.339;  608.400;  331.025; 5934.100
950.895;  621.200;  351.200; 5933.500
951.451;  562.150;  295.350; 6074.700
952.007;  601.850;  338.975; 6066.400
952.563;  571.250;  298.450; 5884.100
953.118;  558.900;  287.425; 5733.800
953.674;  573.275;  306.625; 5734.300
954.230;  579.525;  314.075; 6039.700
954.785;  574.150;  312.725; 6383.500
955.341;  610.075;  351.075; 6568.200
955.897;  515.575;  254.200; 6488.600
956.452;  583.150;  328.625; 6239.200
957.008;  659.175;  404.550; 5954.600
957.563;  615.750;  367.550; 5816.700
958.118;  535.175;  282.450; 5828.200
958.674;  575.825;  322.825; 5717.400
959.229;  618.975;  367.175; 5506.800
959.784;  518.825;  267.275; 5292.200
960.339;  616.125;  364.800; 5101.900
960.894;  597.175;  341.450; 5093.200
961.449;  526.775;  280.925; 5227.900
962.004;  726.900;  490.500; 5349.300
962.559;  527.500;  284.775; 5514.900
963.114;  465.450;  222.725; 5717.300
963.669;  565.750;  317.925; 5841.400
964.224;  544.950;  299.750; 5805.900
964.779;  513.200;  267.100; 5723.400
965.334;  628.950;  380.675; 5779.500
965.888;  537.625;  292.650; 5948.500
966.443;  597.525;  350.425; 6344.200
966.998;  497.800;  257.300; 6666.300
967.552;  550.900;  312.450; 6710.100
968.107;  529.900;  293.775; 6593.500
968.661;  560.600;  326.450; 6344.100
969.216;  522.200;  284.875; 6062.400
969.770;  553.725;  322.850; 5785.500
970.324;  566.475;  329.125; 5426.800
970.879;  573.750;  344.225; 5016.800
971.433;  580.775;  343.925; 4904.500
971.987;  541.850;  314.875; 4991.000
972.541;  552.750;  331.825; 4978.500
973.095;  607.950;  388.575; 4832.000
973.649;  491.900;  265.950; 4767.900
974.203;  506.525;  281.000; 4881.200
974.757;  518.225;  301.075; 4969.500
975.311;  525.775;  310.600; 4953.000
975.865;  534.850;  311.625; 4884.300
976.419;  516.100;  300.375; 4739.800
976.973;  511.950;  297.375; 4698.100
977.526;  573.150;  357.650; 4631.100
978.080;  479.375;  267.000; 4621.600
978.634;  552.825;  342.325; 4650.200
979.187;  545.450;  335.325; 4669.200
979.741;  613.775;  401.000; 4658.000
980.294;  479.575;  272.800; 4579.100
980.848;  438.600;  232.750; 4452.800
981.401;  496.350;  297.025; 4271.900
981.955;  517.875;  316.275; 4087.800
982.508;  456.475;  256.725; 3973.900
983.061;  551.550;  358.500; 3928.600
983.615;  486.100;  283.725; 3851.200
984.168;  469.375;  269.550; 3734.800
984.721;  528.350;  334.400; 3628.300
985.274;  514.675;  326.400; 3564.300
985.827;  500.050;  308.675; 3558.100
986.380;  436.325;  247.075; 3559.900
986.933;  516.575;  332.400; 3688.700
987.486;  509.075;  328.700; 3778.500
988.039;  517.825;  335.625; 3559.900
988.591;  533.725;  355.000; 3219.300
989.144;  443.875;  263.175; 2902.900
989.697;  457.250;  282.775; 2722.600
990.250;  514.025;  343.775; 2618.000
990.802;  456.875;  284.350; 2523.900
991.355;  579.450;  416.225; 2436.500
991.907;  513.325;  353.175; 2412.200
992.460;  447.200;  290.125; 2387.900
993.012;  447.700;  292.925; 2365.800
993.565;  424.375;  269.025; 2311.100
994.117;  562.000;  415.075; 2308.700
994.669;  419.825;  272.775; 2249.300
995.221;  468.750;  325.775; 2158.100
995.774;  465.475;  323.950; 2085.600
996.326;  440.600;  302.975; 2068.100
996.878;  492.700;  364.650; 1975.300
997.430;  414.725;  280.975; 1929.500
997.982;  440.325;  314.375; 1861.900
998.534;  441.675;  312.325; 1830.200
999.086;  437.300;  309.400; 1823.200
999.638;  394.575;  264.475; 1815.000
1000.190;  417.400;  289.550; 1796.600
1000.741;  433.650;  315.700; 1738.800
1001.293;  402.750;  285.475; 1666.200
1001.845;  399.075;  282.400; 1566.500
1002.396;  440.500;  323.025; 1471.900
1002.948;  436.750;  319.025; 1398.000
1003.500;  423.500;  311.450; 1356.500
1004.051;  535.275;  427.075; 1294.200
1004.603;  467.975;  355.975; 1190.000
1005.154;  356.050;  256.550; 1063.900
1005.705;  422.225;  327.275;  968.300
1006.257;  409.050;  321.050;  889.800
1006.808;  400.425;  307.300;  801.500
1007.359;  449.825;  357.950;  716.400
1007.910;  382.025;  292.775;  639.100
1008.461;  431.525;  340.400;  561.600
1009.013;  347.750;  260.275;  500.400
1009.564;  464.250;  379.075;  476.100
1010.115;  346.675;  266.650;  431.600
1010.665;  357.475;  276.375;  409.300
1011.216;  389.475;  307.725;  399.700
1011.767;  410.850;  322.300;  388.100
1012.318;  426.875;  346.275;  381.400
1012.869;  395.200;  312.400;  375.400
1013.419;  356.375;  272.200;  357.600
1013.970;  391.575;  308.450;  358.300
1014.521;  359.900;  282.075;  344.100
1015.071;  394.950;  311.900;  322.800
1015.622;  369.175;  293.350;  320.600
1016.172;  350.625;  275.300;  301.700
1016.723;  359.325;  282.900;  289.800
1017.273;  355.100;  277.850;  287.600
1017.823;  377.500;  300.200;  278.700
1018.374;  355.675;  284.275;  274.400
1018.924;  414.425;  341.950;  283.200
1019.474;  419.700;  342.125;  278.500
1020.024;  380.025;  308.475;  274.700
1020.574;  418.400;  347.200;  272.700
1021.124;  393.725;  320.825;  278.400
1021.674;  327.275;  254.500;  269.200
1022.224;  416.350;  338.750;  267.800
1022.774;  383.975;  316.850;  258.100
1023.324;  440.575;  367.150;  260.000
1023.874;  514.375;  441.500;  260.700
1024.423;  355.150;  279.150;  252.700
1024.973;  349.775;  281.275;  234.700
1025.523;  359.575;  289.800;  226.500
1026.072;  350.600;  285.275;  225.500
1026.622;  392.300;  318.725;  210.100
1027.172;  409.025;  346.700;  213.000
1027.721;  346.650;  280.500;  207.700
1028.270;  389.775;  319.175;  205.400
1028.820;  370.175;  302.250;  201.000
1029.369;  352.975;  286.450;  201.000
1029.918;  375.525;  305.700;  198.400
1030.468;  331.350;  259.425;  199.200
1031.017;  370.525;  300.400;  192.600
1031.566;  349.900;  289.275;  197.400
1032.115;  401.850;  337.900;  188.300
1032.664;  351.925;  279.900;  193.700
1033.213;  423.375;  362.050;  191.900
1033.762;  367.400;  302.625;  184.500
1034.311;  393.450;  326.850;  194.300
1034.860;  398.250;  336.175;  192.300
1035.408;  418.150;  355.150;  182.600
1035.957;  413.325;  352.700;  173.900
1036.506;  302.925;  245.850;  185.200
1037.055;  488.050;  423.375;  182.500
1037.603;  383.150;  320.150;  167.600
1038.152;  310.150;  250.525;  168.200
1038.700;  331.525;  274.950;  169.600
1039.249;  396.950;  332.200;  164.300
1039.797;  366.650;  305.675;  169.600
1040.345;  407.925;  345.400;  167.100
1040.894;  359.300;  301.950;  164.400
1041.442;  367.375;  304.750;  158.300
1041.990;  321.750;  259.475;  160.000
1042.538;  306.575;  249.225;  156.800
1043.087;  330.200;  270.350;  146.600
1043.635;  393.175;  327.075;  162.400
1044.183;  337.550;  279.725;  156.300
1044.731;  327.050;  269.300;  158.100
1045.279;  382.925;  328.825;  154.500
1045.827;  519.850;  462.875;  146.200
1046.374;  292.375;  240.950;  154.000
1046.922;  337.725;  281.025;  149.000
1047.470;  401.300;  341.475;  154.900
1048.018;  374.125;  315.450;  148.400
1048.565;  408.975;  353.925;  146.300
1049.113;  318.600;  260.775;  156.100
1049.660;  364.325;  302.650;  154.300
1050.208;  393.875;  324.875;  149.400
1050.755;  348.375;  293.275;  157.500
1051.303;  395.300;  336.200;  157.700
1051.850;  365.650;  310.850;  152.800
1052.397;  272.350;  222.000;  146.300
1052.945;  353.550;  296.750;  149.500
1053.492;  422.675;  369.875;  149.300
1054.039;  415.125;  360.975;  163.100
1054.586;  321.075;  262.725;  150.400
1055.133;  397.425;  338.550;  153.500
1055.680;  367.325;  315.200;  155.600
1056.227;  310.875;  253.400;  148.700
1056.774;  459.950;  404.600;  151.500
1057.321;  301.050;  244.250;  143.700
1057.868;  367.050;  313.950;  145.300
1058.415;  375.425;  324.800;  153.500
1058.961;  389.100;  330.150;  149.900
1059.508;  370.350;  315.850;  147.300
1060.055;  329.550;  281.250;  151.000
1060.601;  361.100;  303.950;  148.700
1061.148;  352.600;  301.600;  153.800
1061.694;  335.000;  287.700;  150.500
1062.241;  336.150;  287.650;  149.100
1062.787;  380.875;  328.450;  153.000
1063.334;  469.025;  410.750;  153.200
1063.880;  380.925;  329.225;  148.400
1064.426;  405.525;  352.025;  149.200
1064.972;  343.250;  292.350;  156.400
1065.518;  329.675;  271.775;  144.700
1066.065;  361.625;  308.625;  139.400
1066.611;  343.275;  293.475;  139.300
1067.157;  367.300;  319.775;  138.400
1067.703;  386.100;  337.575;  142.700
1068.249;  348.650;  296.225;  136.700
1068.794;  358.575;  305.000;  139.400
1069.340;  332.225;  280.900;  142.700
1069.886;  344.675;  290.950;  135.600
1070.432;  307.225;  253.750;  133.400
1070.977;  342.600;  291.550;  138.200
1071.523;  329.000;  279.700;  132.400
1072.068;  334.275;  284.200;  132.700
1072.614;  301.700;  251.100;  127.000
1073.160;  394.650;  348.150;  131.300
1073.705;  327.850;  283.500;  135.700
1074.250;  317.050;  269.250;  133.000
1074.796;  373.225;  324.700;  138.000
1075.341;  382.875;  336.700;  137.300
1075.886;  340.075;  289.575;  134.300
1076.431;  375.100;  329.275;  138.200
1076.976;  365.425;  318.550;  132.200
1077.521;  331.100;  283.600;  138.900
1078.067;  333.400;  282.450;  128.600
1078.612;  379.175;  332.075;  138.900
1079.156;  340.675;  295.750;  128.900
1079.701;  398.175;  343.350;  129.700
1080.246;  396.125;  347.850;  128.600
1080.791;  360.775;  314.325;  122.600
1081.336;  375.025;  326.775;  122.000
1081.880;  372.675;  325.175;  123.900
1082.425;  328.550;  278.750;  120.600
1082.970;  409.675;  366.800;  124.500
1083.514;  341.325;  294.050;  112.000
1084.059;  329.750;  286.600;  120.700
1084.603;  328.000;  274.100;  116.000
1085.147;  369.750;  324.250;  116.300
1085.692;  409.925;  361.250;  108.200
1086.236;  288.200;  241.150;  114.600
1086.780;  430.825;  384.150;  118.900
1087.325;  377.975;  325.450;  120.400
1087.869;  353.575;  304.775;  110.500
1088.413;  403.375;  356.525;  114.000
1088.957;  303.500;  263.950;  114.300
1089.501;  437.625;  396.225;  114.600
1090.045;  414.800;  370.525;  114.200
1090.589;  322.050;  276.525;  105.500
1091.133;  390.475;  345.450;  111.800
1091.676;  338.325;  298.200;  110.900
1092.220;  344.100;  299.475;  110.100
1092.764;  407.650;  361.925;  108.100
1093.307;  383.250;  337.525;  109.900
1093.851;  315.800;  275.925;  107.500
1094.395;  391.575;  345.675;   96.200
1094.938;  360.700;  322.825;   99.300
1095.482;  318.200;  278.475;   97.700
1096.025;  409.150;  364.550;   84.900
1096.568;  453.425;  405.000;   88.500
1097.112;  287.625;  246.200;   95.700
1097.655;  339.825;  296.650;   97.300
1098.198;  340.350;  297.750;   92.600
1098.741;  348.775;  304.700;   91.800
1099.285;  372.650;  328.800;   88.000
1099.828;  247.875;  211.775;   91.700
1100.371;  353.150;  306.475;   89.900
1100.914;  392.125;  345.300;   91.500
1101.457;  383.350;  348.450;   88.100
1101.999;  329.275;  287.650;   86.400
1102.542;  363.400;  326.525;   90.800
1103.085;  372.300;  334.825;   95.400
1103.628;  431.325;  402.425;   97.700
1104.170;  335.550;  294.100;   84.000
1104.713;  369.975;  327.975;   93.900
1105.256;  311.825;  274.375;   93.000
1105.798;  280.950;  242.750;   85.600
1106.341;  421.875;  376.200;   87.100
1106.883;  299.700;  254.050;   85.200
1107.425;  380.550;  336.150;   85.000
1107.968;  350.675;  308.475;   84.300
1108.510;  397.075;  354.625;   88.200
1109.052;  349.425;  312.325;   86.600
1109.594;  313.775;  276.450;   79.400
1110.136;  364.475;  324.750;   81.700
1110.679;  355.600;  320.200;   75.500
1111.221;  344.325;  303.300;   88.500
1111.763;  314.175;  273.725;   87.700
1112.304;  310.075;  269.975;   89.700
1112.846;  380.925;  338.350;   81.900
1113.388;  539.725;  503.625;   86.400
1113.930;  397.725;  350.625;   84.700
1114.472;  342.175;  306.975;   78.900
1115.013;  313.950;  274.675;   78.100
1115.555;  332.300;  300.175;   84.900
1116.097;  327.500;  286.175;   79.200
1116.638;  391.475;  351.800;   83.700
1117.180;  378.400;  340.000;   85.500
1117.721;  324.350;  284.650;   78.800
1118.262;  386.250;  346.125;   77.400
1118.804;  358.075;  323.675;   81.400
1119.345;  329.250;  293.650;   77.800
1119.886;  405.200;  365.925;   81.200
1120.427;  333.425;  298.125;   77.200
1120.969;  337.075;  303.125;   75.200
1121.510;  317.700;  283.075;   80.900
1122.051;  415.700;  375.375;   77.300
1122.592;  374.625;  336.725;   73.300
1123.133;  307.100;  273.850;   90.100
1123.673;  407.950;  369.875;   75.000
1124.214;  348.425;  315.175;   80.600
1124.755;  362.750;  324.350;   78.000
1125.296;  351.150;  318.250;   77.500
1125.836;  399.800;  351.500;   80.400
1126.377;  341.450;  300.875;   75.600
1126.918;  349.025;  309.250;   78.900
1127.458;  352.575;  318.050;   78.000
1127.999;  374.175;  336.250;   76.100
1128.539;  396.775;  364.625;   81.400
1129.079;  363.850;  324.475;   77.400
1129.620;  314.350;  279.875;   68.000
1130.160;  302.975;  272.075;   77.500
1130.700;  362.075;  329.225;   76.300
1131.240;  368.300;  328.450;   66.800
1131.781;  350.500;  314.900;   70.600
1132.321;  339.000;  306.150;   77.200
1132.861;  317.575;  285.675;   70.400
1133.401;  340.200;  300.900;   68.700
1133.941;  354.525;  321.400;   68.500
1134.481;  341.150;  307.900;   75.900
1135.020;  348.350;  309.675;   66.600
1135.560;  383.150;  351.150;   68.100
1136.100;  286.900;  248.900;   64.900
1136.640;  287.900;  255.600;   72.500
1137.179;  303.450;  268.675;   69.700
1137.719;  340.475;  312.975;   68.400
1138.258;  329.450;  301.025;   67.000
1138.798;  373.825;  340.800;   69.600
1139.337;  270.975;  239.200;   64.000
1139.877;  365.975;  332.125;   64.500
1140.416;  496.400;  470.975;   74.900
1140.955;  298.025;  271.575;   67.200
1141.494;  381.625;  350.025;   69.900
1142.034;  331.800;  296.600;   59.100
1142.573;  373.175;  339.400;   65.900
1143.112;  313.550;  283.425;   70.600
1143.651;  307.875;  277.975;   67.100
1144.190;  389.075;  356.875;   56.700
1144.729;  341.975;  310.675;   61.800
1145.267;  327.650;  295.200;   62.500
1145.806;  358.675;  333.350;   68.500
1146.345;  361.025;  329.875;   58.300
1146.884;  355.750;  323.775;   63.100
1147.422;  299.575;  268.350;   54.800
1147.961;  409.450;  375.600;   67.600
1148.500;  380.800;  349.175;   64.700
1149.038;  362.400;  329.975;   61.000
1149.577;  393.925;  366.025;   65.100
1150.115;  252.950;  223.975;   58.100
1150.653;  343.925;  315.175;   60.500
1151.192;  315.150;  282.875;   56.600
1151.730;  373.975;  342.650;   62.300
1152.268;  333.325;  299.225;   55.500
1152.806;  323.500;  289.175;   58.200
1153.344;  322.000;  294.550;   55.000
1153.882;  338.650;  313.275;   64.200
1154.421;  266.350;  238.175;   60.300
1154.958;  333.675;  307.400;   58.100
1155.496;  361.025;  336.925;   55.800
1156.034;  406.400;  380.375;   61.000
1156.572;  380.025;  353.500;   56.200
1157.110;  262.275;  234.675;   53.200
1157.647;  386.100;  356.575;   57.400
1158.185;  320.750;  288.850;   55.500
1158.723;  288.050;  260.925;   58.000
1159.260;  394.200;  364.100;   53.700
1159.798;  369.025;  340.225;   51.700
1160.335;  354.750;  326.400;   59.600

