gmr_right
Integration time [ms]: 238.412
Averaging Nr. [scans]: 40
Smoothing Nr. [pixels]: 0
Data measured with spectrometer [name]: 7414430SP
Wave   ;Sample   ;Dark     ;Reference
[nm]   ;[counts] ;[counts] ;[counts] 

288.544;  498.422;  332.182;    6.613
289.143;  439.866;  271.583;   14.216
289.742;  521.751;  358.283;   11.816
290.341;  497.838;  338.184;   -4.936
290.940;  464.141;  301.359;    0.852
291.538;  546.833;  386.909;    1.792
292.137;  496.146;  339.183;    6.262
292.736;  606.488;  448.984;    8.164
293.335;  466.409;  303.109;   -6.418
293.934;  490.758;  331.034;   -2.904
294.532;  641.255;  479.809;   -5.162
295.131;  523.265;  376.861;  -10.283
295.730;  513.522;  361.060;  -16.141
296.328;  499.535;  345.711;  -14.740
296.927;  490.371;  342.761;   -8.768
297.525;  494.373;  342.961;  -15.255
298.124;  417.394;  272.787;  -22.063
298.722;  482.740;  336.861;  -14.796
299.321;  448.108;  303.761;  -10.466
299.919;  472.278;  329.786;  -10.979
300.518;  442.744;  293.262;  -12.077
301.116;  441.149;  297.361;  -13.509
301.715;  460.268;  315.411;  -11.939
302.313;  445.168;  306.661;  -15.424
302.911;  464.144;  329.612;  -19.833
303.509;  566.733;  439.211;   -3.567
304.108;  473.129;  342.436;   -9.553
304.706;  497.340;  367.686;   -8.582
305.304;  499.317;  366.712;  -12.348
305.902;  485.151;  359.286;  -14.411
306.500;  458.547;  325.311;   -7.194
307.098;  472.816;  342.011;   -9.322
307.696;  487.474;  361.986;  -19.192
308.294;  454.075;  331.561;   -9.736
308.892;  474.986;  349.686;  -15.482
309.490;  440.141;  314.911;  -14.107
310.088;  489.932;  372.612;  -15.862
310.686;  506.244;  389.461;  -10.781
311.284;  476.205;  356.336;  -14.878
311.882;  447.973;  336.862;   -9.948
312.480;  434.889;  321.162;  -15.503
313.078;  495.621;  388.612;  -17.262
313.675;  423.222;  320.411;   -3.694
314.273;  485.875;  384.962;  -18.246
314.871;  368.822;  268.837;  -15.190
315.468;  400.894;  299.362;  -12.633
316.066;  426.800;  321.511;   -5.765
316.664;  400.368;  302.362;  -14.317
317.261;  545.303;  448.487;   -8.677
317.859;  467.595;  378.637;  -11.804
318.456;  499.745;  411.961;   -3.107
319.054;  468.352;  378.962;   -3.062
319.651;  460.514;  371.737;   -6.706
320.249;  481.939;  398.562;   -5.206
320.846;  422.817;  345.061;   -4.679
321.443;  497.162;  418.661;   -7.920
322.041;  484.212;  400.187;  -14.105
322.638;  419.009;  339.787;   -6.263
323.235;  395.918;  314.961;   -7.424
323.833;  438.215;  363.186;  -14.765
324.430;  362.335;  280.436;  -10.550
325.027;  516.331;  440.611;   -9.951
325.624;  380.257;  298.761;   -3.712
326.221;  406.492;  318.936;   -9.368
326.818;  479.027;  400.711;   -5.637
327.415;  428.819;  346.260;   -6.699
328.012;  402.726;  319.885;   -5.713
328.609;  426.344;  339.260;   -9.983
329.206;  453.477;  366.561;   -7.154
329.803;  429.596;  339.636;   -1.682
330.400;  410.408;  313.485;   -2.741
330.997;  472.089;  377.636;   -4.339
331.594;  456.926;  363.311;  -10.278
332.191;  423.288;  324.736;   -6.967
332.787;  484.482;  386.261;   -0.480
333.384;  436.587;  342.112;  -10.333
333.981;  473.922;  375.163;  -19.900
334.578;  407.200;  310.587;  -19.816
335.174;  420.477;  319.387;  -15.844
335.771;  480.111;  384.438;  -12.670
336.367;  407.871;  320.113;  -21.124
336.964;  458.383;  369.313;  -18.226
337.561;  420.979;  329.313;  -13.311
338.157;  518.967;  432.764;  -19.006
338.754;  454.621;  371.839;  -19.418
339.350;  409.118;  324.864;  -29.433
339.946;  440.984;  348.714;  -16.622
340.543;  478.856;  399.465;  -16.744
341.139;  400.831;  331.215;  -21.841
341.735;  434.201;  363.566;  -25.012
342.332;  385.062;  316.015;  -19.156
342.928;  450.870;  376.415;  -20.443
343.524;  436.509;  357.341;  -14.397
344.120;  416.496;  353.591;  -20.654
344.716;  400.297;  332.640;   -5.730
345.313;  447.968;  378.515;  -10.929
345.909;  343.464;  276.840;  -19.843
346.505;  418.005;  349.565;  -19.645
347.101;  464.434;  394.639;   -9.618
347.697;  447.894;  377.889;  -10.305
348.293;  346.798;  275.590;  -23.189
348.889;  415.692;  352.389;  -18.418
349.485;  379.223;  316.289;  -10.476
350.081;  433.157;  364.839;  -17.320
350.676;  385.775;  319.940;  -21.088
351.272;  453.771;  385.314;  -12.821
351.868;  432.372;  359.189;  -13.165
352.464;  410.318;  339.314;  -12.464
353.059;  368.572;  297.664;  -22.547
353.655;  439.829;  371.639;   -9.379
354.251;  426.678;  356.313;   -8.266
354.846;  415.509;  350.714;  -17.705
355.442;  426.157;  355.915;   -9.317
356.038;  419.197;  352.164;  -11.049
356.633;  411.990;  340.389;  -10.006
357.229;  405.653;  340.089;  -13.120
357.824;  399.849;  327.589;  -15.647
358.420;  379.717;  310.939;  -19.204
359.015;  387.272;  318.914;  -12.263
359.610;  434.438;  365.289;  -16.421
360.206;  343.277;  270.590;  -20.074
360.801;  358.695;  291.064;  -13.277
361.396;  410.909;  343.139;   -5.822
361.992;  376.149;  306.264;  -11.247
362.587;  375.896;  308.515;  -21.502
363.182;  388.368;  322.764;   -7.461
363.777;  416.723;  351.864;   -8.719
364.372;  421.473;  358.189;  -14.590
364.967;  389.287;  321.715;  -15.145
365.563;  462.192;  388.039;   -7.192
366.158;  390.918;  320.264;   -5.662
366.753;  370.062;  295.314;   -8.378
367.348;  421.975;  357.064;  -14.990
367.942;  391.144;  327.764;   -6.005
368.537;  426.100;  361.689;  -11.504
369.132;  403.050;  329.614;  -10.576
369.727;  362.260;  298.440;  -12.573
370.322;  336.806;  266.940;  -11.560
370.917;  411.275;  339.490;  -10.388
371.511;  501.437;  427.164;   -9.161
372.106;  448.212;  379.790;  -10.245
372.701;  336.475;  272.315;  -10.158
373.296;  495.909;  427.564;   -4.719
373.890;  370.696;  307.915;  -11.802
374.485;  396.263;  337.115;  -13.500
375.079;  430.131;  362.789;   -6.276
375.674;  470.257;  401.664;   -0.447
376.268;  401.330;  332.240;   -6.916
376.863;  335.994;  276.716;  -14.483
377.457;  384.421;  314.690;   -6.903
378.052;  444.720;  374.315;   -9.844
378.646;  433.194;  370.840;  -12.601
379.240;  421.870;  351.240;  -14.715
379.835;  373.030;  308.715;  -12.331
380.429;  327.558;  266.490;   -9.074
381.023;  452.795;  393.115;   -1.729
381.617;  394.170;  332.440;  -13.714
382.212;  401.187;  334.815;   -7.060
382.806;  440.046;  377.590;   -2.303
383.400;  391.265;  331.115;   -0.815
383.994;  388.016;  329.140;   -4.429
384.588;  411.585;  348.039;   -6.261
385.182;  430.798;  362.014;    0.008
385.776;  418.778;  356.039;   -3.247
386.370;  403.030;  341.465;   -1.030
386.964;  399.262;  342.840;   -1.346
387.558;  351.746;  293.714;   -2.020
388.152;  397.691;  343.690;   -5.345
388.745;  476.916;  419.915;   -2.774
389.339;  440.437;  385.039;    3.510
389.933;  405.755;  347.289;    5.280
390.527;  505.660;  452.139;    2.610
391.120;  341.147;  295.940;   -7.914
391.714;  413.073;  363.840;   -1.903
392.308;  460.112;  405.564;    6.023
392.901;  379.263;  324.365;   -4.103
393.495;  349.467;  301.415;    3.284
394.089;  446.201;  399.790;    8.655
394.682;  407.977;  361.290;    2.312
395.275;  424.711;  373.240;   -7.402
395.869;  392.498;  342.490;   -1.072
396.462;  363.874;  315.340;    6.454
397.056;  456.413;  403.889;    8.494
397.649;  429.109;  381.015;    1.599
398.242;  417.520;  373.064;    3.153
398.836;  450.611;  402.914;   11.395
399.429;  364.746;  324.289;   14.695
400.022;  385.837;  345.590;    3.627
400.615;  471.788;  432.340;    8.383
401.208;  401.504;  354.989;   13.295
401.802;  404.544;  365.940;    6.211
402.395;  401.462;  361.290;    7.227
402.988;  408.003;  362.265;    2.700
403.581;  376.116;  336.689;   11.225
404.174;  399.983;  354.064;   18.922
404.767;  374.651;  339.265;   14.169
405.360;  361.050;  326.690;    8.999
405.953;  438.529;  403.039;   13.138
406.545;  419.410;  377.889;   13.937
407.138;  354.391;  313.990;   10.869
407.731;  359.993;  317.039;   12.768
408.324;  383.137;  343.789;   22.921
408.917;  395.923;  359.814;   15.308
409.509;  431.564;  395.314;   12.239
410.102;  371.241;  340.165;   13.741
410.695;  384.038;  347.989;   20.249
411.287;  345.421;  311.239;   21.793
411.880;  341.515;  302.339;   22.965
412.472;  350.324;  318.389;   15.082
413.065;  365.891;  336.289;   23.423
413.657;  334.544;  298.039;   21.077
414.250;  371.932;  336.714;   12.349
414.842;  385.754;  352.064;   20.423
415.434;  327.204;  296.714;   19.906
416.027;  370.142;  339.988;   26.574
416.619;  408.002;  384.414;   15.705
417.211;  338.246;  309.039;   17.791
417.804;  357.447;  325.263;   30.244
418.396;  347.790;  319.364;   24.177
418.988;  374.891;  348.488;   24.904
419.580;  323.425;  292.489;   20.692
420.172;  312.809;  278.713;   22.275
420.764;  380.704;  355.763;   26.773
421.356;  365.364;  338.413;   25.731
421.948;  385.829;  359.838;   24.876
422.540;  385.994;  355.188;   30.042
423.132;  343.257;  313.387;   32.728
423.724;  318.789;  290.788;   21.317
424.316;  351.334;  323.238;   29.359
424.908;  339.839;  304.287;   28.798
425.500;  367.805;  335.712;   30.512
426.092;  367.903;  336.912;   26.741
426.683;  395.445;  362.463;   27.029
427.275;  369.674;  336.387;   32.611
427.867;  380.605;  351.337;   33.796
428.458;  414.181;  385.937;   34.453
429.050;  390.994;  356.687;   34.255
429.642;  423.220;  391.712;   39.082
430.233;  322.117;  287.987;   41.138
430.825;  418.858;  384.287;   31.581
431.416;  398.254;  366.212;   35.755
432.008;  365.212;  337.812;   40.566
432.599;  370.040;  335.336;   46.322
433.190;  364.591;  333.212;   46.897
433.782;  333.798;  302.337;   41.069
434.373;  505.037;  470.836;   48.778
434.964;  340.516;  307.636;   50.078
435.556;  362.397;  329.587;   52.381
436.147;  429.285;  392.887;   38.251
436.738;  398.127;  360.061;   47.237
437.329;  408.599;  372.511;   61.304
437.920;  376.255;  345.062;   48.611
438.511;  316.178;  279.837;   44.910
439.103;  353.686;  315.036;   62.404
439.694;  382.859;  350.436;   63.075
440.285;  442.879;  400.436;   61.033
440.876;  482.158;  444.436;   57.249
441.466;  324.265;  290.086;   61.306
442.057;  380.376;  331.460;   65.773
442.648;  427.103;  386.736;   65.676
443.239;  349.422;  312.761;   55.963
443.830;  402.575;  361.860;   69.631
444.421;  374.579;  328.660;   69.943
445.011;  393.797;  350.386;   72.791
445.602;  423.314;  379.461;   68.848
446.193;  275.239;  228.810;   80.044
446.783;  357.334;  313.585;   82.599
447.374;  393.127;  357.311;   77.419
447.964;  407.996;  362.536;   72.605
448.555;  472.776;  424.460;   82.041
449.145;  373.946;  330.310;   76.230
449.736;  458.416;  414.985;   75.545
450.326;  413.556;  359.935;   67.945
450.917;  383.740;  333.685;   77.598
451.507;  343.335;  290.635;   68.027
452.097;  429.595;  383.935;   67.771
452.688;  421.563;  368.435;   62.884
453.278;  319.219;  275.160;   65.512
453.868;  451.569;  403.809;   71.796
454.458;  370.149;  318.910;   60.956
455.048;  406.901;  353.535;   62.356
455.639;  324.517;  268.759;   58.782
456.229;  407.146;  346.284;   65.209
456.819;  426.161;  368.959;   61.466
457.409;  440.499;  386.634;   59.967
457.999;  419.123;  361.034;   58.093
458.589;  385.828;  333.359;   59.536
459.179;  410.617;  349.659;   55.994
459.769;  358.191;  298.609;   43.624
460.358;  452.954;  390.959;   46.978
460.948;  391.310;  328.684;   49.821
461.538;  380.834;  310.534;   54.678
462.128;  379.246;  315.259;   49.309
462.717;  407.365;  337.158;   52.774
463.307;  409.412;  332.983;   48.101
463.897;  378.335;  311.684;   45.606
464.486;  485.483;  417.409;   45.010
465.076;  421.095;  353.758;   45.519
465.666;  370.161;  297.008;   50.058
466.255;  454.663;  380.084;   44.463
466.845;  381.500;  313.384;   41.206
467.434;  416.432;  343.333;   44.847
468.023;  374.234;  300.133;   46.760
468.613;  410.303;  335.959;   39.736
469.202;  368.575;  295.883;   46.461
469.791;  423.505;  345.133;   47.944
470.381;  427.732;  347.033;   47.529
470.970;  402.108;  332.058;   43.773
471.559;  421.121;  342.008;   41.646
472.148;  388.053;  303.683;   37.914
472.738;  437.231;  356.482;   48.071
473.327;  363.783;  281.358;   47.871
473.916;  421.887;  344.183;   37.716
474.505;  433.913;  347.732;   40.256
475.094;  468.658;  376.407;   43.269
475.683;  461.272;  365.032;   36.499
476.272;  423.588;  330.607;   44.542
476.861;  411.409;  312.082;   42.297
477.449;  422.712;  321.156;   46.878
478.038;  395.554;  303.132;   35.156
478.627;  408.432;  312.283;   42.514
479.216;  440.786;  339.082;   43.937
479.805;  450.176;  342.281;   51.393
480.393;  584.873;  478.332;   53.239
480.982;  505.860;  400.307;   38.955
481.571;  497.454;  389.631;   45.436
482.159;  409.601;  293.706;   51.007
482.748;  480.134;  366.357;   49.695
483.336;  502.222;  381.181;   48.280
483.925;  451.710;  334.082;   47.166
484.513;  446.205;  315.681;   55.404
485.102;  467.415;  343.207;   54.238
485.690;  584.283;  454.581;   55.748
486.278;  574.342;  440.606;   55.934
486.867;  474.846;  333.306;   57.106
487.455;  525.139;  388.156;   56.979
488.043;  433.908;  294.606;   57.564
488.631;  582.216;  434.606;   57.432
489.220;  533.270;  375.931;   63.646
489.808;  436.687;  280.831;   65.449
490.396;  538.151;  376.381;   61.977
490.984;  478.077;  312.181;   68.834
491.572;  549.851;  372.756;   70.775
492.160;  534.633;  353.331;   67.564
492.748;  513.388;  321.856;   66.808
493.336;  596.468;  385.406;   79.747
493.924;  560.276;  328.880;   88.688
494.512;  621.867;  377.506;   84.120
495.100;  645.066;  368.731;   86.250
495.687;  697.865;  385.755;  103.074
496.275;  666.423;  306.906;  108.717
496.863;  737.352;  320.381;  107.035
497.451;  823.284;  318.181;  117.993
498.038;  928.017;  337.580;  120.116
498.626; 1006.603;  323.705;  143.059
499.214; 1154.742;  350.431;  153.434
499.801; 1278.304;  340.156;  175.121
500.389; 1398.496;  273.880;  185.617
500.976; 1662.694;  353.806;  215.789
501.564; 1908.590;  344.506;  240.321
502.151; 2019.336;  238.081;  267.007
502.738; 2282.285;  318.731;  317.961
503.326; 2628.481;  325.180;  361.216
503.913; 3002.208;  343.006;  401.433
504.500; 3373.480;  355.181;  446.492
505.088; 3720.941;  301.106;  512.063
505.675; 4275.559;  330.580;  586.387
506.262; 4803.228;  325.506;  671.021
506.849; 5397.372;  335.756;  759.062
507.436; 6055.271;  380.255;  849.788
508.023; 6590.613;  334.181;  944.288
508.610; 7092.595;  374.231; 1020.690
509.197; 7732.212;  357.257; 1089.052
509.784; 8446.284;  331.206; 1133.776
510.371; 9193.213;  273.280; 1165.501
510.958;10171.606;  344.181; 1251.735
511.545;10281.329;  392.581; 1350.248
512.132;10452.620;  338.105; 1525.945
512.719;11021.458;  294.131; 1834.933
513.305;12005.471;  302.831; 1965.349
513.892;13179.300;  390.881; 1963.265
514.479;14158.370;  344.106; 2046.446
515.066;15234.838;  381.056; 2252.803
515.652;16241.058;  342.181; 2567.247
516.239;17203.939;  367.031; 2636.919
516.825;17528.314;  280.781; 2482.304
517.412;17669.908;  440.656; 2427.031
517.998;17332.758;  326.831; 2540.463
518.585;17214.910;  321.031; 2609.007
519.171;18194.375;  344.230; 2842.088
519.758;20142.186;  289.856; 3090.703
520.344;21640.484;  375.481; 3176.076
520.930;22026.648;  299.831; 3295.037
521.516;22783.643;  355.580; 3500.959
522.103;22732.305;  395.056; 3736.704
522.689;23503.484;  322.431; 3971.022
523.275;24542.150;  381.706; 4213.778
523.861;24527.938;  331.131; 4190.361
524.447;24493.252;  380.380; 4070.602
525.033;25189.072;  381.681; 4088.892
525.619;25004.361;  303.906; 4416.851
526.205;25787.096;  288.856; 4836.835
526.791;27389.207;  321.731; 4885.903
527.377;28103.582;  315.431; 4544.907
527.963;28484.121;  343.282; 4321.995
528.549;27732.170;  352.506; 4473.979
529.135;26576.752;  304.081; 4788.663
529.721;25634.674;  338.481; 4888.577
530.306;26272.119;  466.581; 4775.779
530.892;27490.543;  318.656; 4793.906
531.478;28491.377;  312.706; 4956.948
532.063;30017.793;  298.081; 5136.936
532.649;31493.826;  423.182; 5336.867
533.235;33042.238;  301.356; 5748.092
533.820;34354.645;  387.506; 6456.875
534.406;34280.516;  323.132; 6590.167
534.991;33703.047;  297.731; 6179.622
535.576;32819.539;  323.756; 6098.691
536.162;32792.371;  473.231; 6441.234
536.747;33400.422;  284.632; 6816.224
537.333;34606.559;  300.207; 6889.752
537.918;34115.398;  334.732; 7154.280
538.503;34771.758;  313.831; 7150.848
539.088;35104.867;  347.831; 7253.308
539.673;34501.285;  326.957; 7625.180
540.259;33514.398;  310.081; 8226.793
540.844;34776.121;  268.181; 8745.092
541.429;34850.922;  415.182; 8762.553
542.014;34585.113;  283.257; 8871.497
542.599;35795.813;  349.206; 8886.008
543.184;37635.801;  292.582; 9079.139
543.769;37483.570;  299.932; 9076.182
544.354;36495.555;  316.832; 8354.081
544.938;34767.191;  346.957; 8236.809
545.523;33422.680;  408.931; 8222.179
546.108;34510.766;  333.957; 8114.082
546.693;34924.586;  329.582; 8535.912
547.278;34498.621;  329.756; 9238.322
547.862;33379.086;  335.231; 9034.405
548.447;32620.826;  375.007; 7795.011
549.031;32484.643;  323.407; 7485.099
549.616;32886.926;  345.556; 7626.308
550.201;33490.734;  317.957; 7627.909
550.785;34782.910;  360.657; 7859.125
551.370;36478.637;  285.157; 7990.654
551.954;37169.730;  376.732; 8196.468
552.538;37729.367;  363.782; 7959.495
553.123;37160.383;  305.957; 7964.826
553.707;35954.023;  321.858; 8515.957
554.291;35134.195;  389.882; 8724.024
554.876;35023.648;  368.932; 8524.211
555.460;34686.586;  314.232; 8704.456
556.044;35064.402;  312.058; 9141.473
556.628;34379.969;  331.082; 9250.197
557.212;33877.719;  381.732; 9444.237
557.796;32814.402;  322.682; 9379.783
558.380;34445.031;  349.858; 9353.658
558.964;34382.398;  337.832; 9210.310
559.548;33278.891;  285.732; 8475.153
560.132;33186.602;  317.732; 7954.084
560.716;33592.102;  287.633; 7489.529
561.300;35134.555;  293.532; 7211.952
561.884;35992.152;  356.157; 7141.313
562.467;34712.082;  357.083; 7155.386
563.051;34382.816;  332.158; 7323.158
563.635;34739.258;  321.708; 7709.114
564.219;34488.824;  329.757; 7678.855
564.802;34302.449;  354.833; 7376.187
565.386;33492.934;  337.983; 7054.372
565.969;33029.059;  393.007; 6589.196
566.553;32255.906;  431.132; 6279.371
567.136;31817.459;  387.258; 5967.930
567.720;32150.676;  333.033; 5660.703
568.303;32089.615;  350.983; 5648.615
568.887;32682.400;  336.083; 5618.443
569.470;32490.002;  347.808; 5411.875
570.053;32562.000;  362.008; 5149.274
570.637;32993.645;  311.582; 5122.798
571.220;33242.656;  370.182; 4957.369
571.803;32532.533;  431.408; 4933.018
572.386;32489.557;  321.158; 4840.973
572.969;33163.305;  324.383; 4592.886
573.552;34007.641;  327.358; 4348.387
574.135;31495.701;  301.458; 4002.290
574.718;26863.346;  306.533; 3654.773
575.301;26460.355;  305.583; 3502.288
575.884;26057.363;  304.633; 3349.803
576.467;27341.352;  382.608; 3191.403
577.050;28473.951;  344.783; 3062.418
577.633;29544.771;  419.133; 3214.200
578.216;30314.902;  323.983; 3284.889
578.799;30108.623;  325.158; 3189.777
579.381;30398.416;  437.358; 3064.502
579.964;30636.373;  306.433; 2888.357
580.547;30920.275;  343.283; 2905.760
581.129;31594.639;  402.609; 2966.849
581.712;33400.973;  353.784; 2887.292
582.294;33924.871;  340.783; 2771.631
582.877;33786.059;  440.133; 2711.602
583.459;33309.027;  337.109; 2577.049
584.042;31792.441;  331.484; 2454.707
584.624;30748.441;  309.609; 2305.893
585.206;29768.178;  266.683; 2189.546
585.789;28284.781;  312.459; 2112.577
586.371;26802.039;  356.459; 2153.065
586.953;26977.418;  368.459; 2197.806
587.536;28306.326;  400.958; 2105.489
588.118;28755.215;  328.560; 1963.911
588.700;29528.002;  402.784; 1843.179
589.282;29403.764;  356.533; 1813.834
589.864;28960.467;  339.384; 1777.620
590.446;29154.793;  270.159; 1733.780
591.028;29678.623;  335.084; 1676.008
591.610;30569.920;  269.934; 1631.649
592.192;29996.721;  343.883; 1632.362
592.774;28235.574;  296.959; 1569.507
593.356;26664.074;  308.434; 1524.539
593.937;26561.139;  305.209; 1569.720
594.519;27370.748;  385.159; 1569.049
595.101;28564.732;  280.159; 1545.452
595.683;28634.947;  312.384; 1607.568
596.264;28923.014;  329.084; 1615.506
596.846;28841.352;  316.159; 1667.622
597.427;29315.516;  311.585; 1670.469
598.009;30728.510;  306.135; 1640.312
598.591;29538.438;  368.334; 1541.022
599.172;28725.924;  329.159; 1598.665
599.753;29232.195;  287.835; 1619.068
600.335;27955.943;  399.860; 1548.612
600.916;26197.920;  330.059; 1607.510
601.498;27241.834;  352.434; 1745.181
602.079;28387.918;  332.735; 1801.011
602.660;28472.049;  331.085; 1834.640
603.241;27965.912;  266.484; 1787.351
603.823;28028.861;  312.009; 1684.266
604.404;27516.270;  294.460; 1654.241
604.985;27607.848;  311.435; 1758.741
605.566;26867.373;  373.284; 1697.679
606.147;26556.924;  326.810; 1526.728
606.728;28031.752;  287.885; 1484.086
607.309;28617.602;  312.260; 1421.070
607.890;28287.455;  320.084; 1369.867
608.471;28128.383;  305.985; 1277.826
609.051;27624.633;  345.735; 1180.416
609.632;28299.480;  298.910; 1075.816
610.213;29115.494;  327.260; 1053.313
610.794;28343.029;  319.860;  979.442
611.374;27814.148;  353.585;  917.414
611.955;27030.826;  279.385;  819.987
612.536;27105.900;  350.760;  752.627
613.116;28073.469;  314.485;  690.799
613.697;28696.096;  306.310;  674.974
614.277;28322.574;  296.261;  663.846
614.858;26382.148;  315.435;  665.898
615.438;25010.508;  331.435;  660.712
616.019;24744.705;  396.911;  632.732
616.599;24765.670;  257.935;  551.759
617.179;25827.719;  288.785;  512.871
617.760;26363.602;  453.610;  473.655
618.340;25973.635;  327.786;  440.004
618.920;27195.775;  411.910;  429.731
619.500;26933.430;  317.361;  441.361
620.080;27113.582;  299.235;  425.202
620.660;27220.506;  298.436;  408.164
621.241;27167.539;  315.461;  387.161
621.821;27937.111;  335.836;  378.017
622.401;27113.551;  382.235;  379.188
622.980;26627.705;  283.836;  350.019
623.560;25740.416;  316.836;  336.446
624.140;23522.924;  340.235;  336.473
624.720;22483.377;  346.736;  334.974
625.300;21896.719;  297.610;  325.717
625.880;23183.891;  329.611;  308.519
626.459;25452.691;  329.936;  307.117
627.039;27643.195;  273.711;  290.890
627.619;30278.123;  432.161;  286.635
628.198;29997.465;  382.786;  282.535
628.778;27408.852;  359.011;  285.474
629.357;25748.180;  289.461;  284.103
629.937;25708.316;  314.761;  292.178
630.516;27188.326;  404.261;  290.749
631.096;28063.914;  305.311;  285.489
631.675;28851.186;  395.186;  287.022
632.254;29052.627;  305.012;  286.038
632.834;28145.535;  326.362;  276.451
633.413;26566.436;  400.736;  279.447
633.992;26014.865;  375.962;  264.508
634.571;26100.568;  361.012;  271.010
635.151;26145.682;  293.462;  277.338
635.730;26077.758;  321.436;  289.305
636.309;24895.918;  358.911;  285.306
636.888;23780.775;  354.262;  254.051
637.467;23362.998;  269.612;  230.324
638.046;23982.582;  400.486;  253.349
638.625;26002.191;  386.537;  246.866
639.204;26295.336;  345.112;  240.825
639.782;25629.369;  333.362;  261.970
640.361;24898.051;  391.961;  277.780
640.940;23690.391;  308.461;  270.101
641.519;23578.004;  360.011;  248.622
642.097;23432.418;  353.961;  239.843
642.676;23742.432;  338.986;  244.264
643.255;25529.520;  319.311;  234.985
643.833;27560.334;  360.561;  244.406
644.412;27689.197;  314.386;  244.927
644.990;25731.486;  338.211;  249.948
645.569;25523.949;  355.861;  249.569
646.147;25435.889;  372.611;  243.290
646.726;26422.102;  335.211;  249.511
647.304;27246.865;  321.061;  228.032
647.882;26870.379;  270.686;  214.552
648.461;25784.469;  342.686;  214.973
649.039;24519.457;  366.261;  223.394
649.617;23505.945;  357.161;  261.415
650.195;23259.033;  346.036;  298.736
650.773;24242.648;  314.336;  309.557
651.352;24017.236;  258.236;  297.978
651.930;21912.051;  257.711;  289.399
652.508;21986.139;  366.686;  285.620
653.086;22408.078;  350.436;  272.241
653.663;23492.467;  306.061;  265.062
654.241;25166.154;  282.711;  286.083
654.819;26102.168;  288.861;  286.404
655.397;26358.383;  297.536;  291.825
655.975;26444.246;  319.561;  299.145
656.553;26430.834;  400.861;  288.866
657.130;27030.623;  294.961;  304.087
657.708;26468.863;  344.761;  302.908
658.286;25789.551;  337.811;  294.629
658.863;25401.115;  338.536;  293.350
659.441;25633.379;  343.611;  318.671
660.018;25679.418;  327.111;  333.692
660.596;25470.631;  265.536;  335.013
661.173;25548.094;  309.686;  371.534
661.750;25376.258;  294.510;  365.155
662.328;25466.422;  357.635;  349.976
662.905;24632.410;  312.110;  332.997
663.482;23395.225;  325.085;  321.717
664.060;22943.014;  303.885;  314.438
664.637;23721.777;  362.985;  306.259
665.214;24781.691;  343.760;  314.580
665.791;25269.180;  318.410;  334.501
666.368;25424.992;  312.610;  329.222
666.945;25042.381;  360.485;  342.143
667.522;24479.545;  298.035;  370.964
668.099;23957.959;  321.685;  396.885
668.676;24528.973;  327.960;  391.706
669.253;25241.736;  403.010;  369.627
669.830;25733.250;  384.935;  360.348
670.407;25702.715;  321.710;  344.769
670.984;25514.604;  324.710;  322.890
671.560;24723.316;  366.585;  316.910
672.137;23675.180;  316.510;  322.531
672.714;23127.469;  348.160;  318.552
673.290;23275.158;  339.310;  324.473
673.867;23196.195;  305.735;  340.594
674.443;22833.609;  280.660;  319.515
675.020;23129.100;  334.360;  286.336
675.596;24649.813;  325.335;  247.557
676.173;25215.150;  284.685;  227.778
676.749;25595.164;  241.110;  224.399
677.326;25080.229;  276.485;  230.520
677.902;24388.617;  299.535;  241.841
678.478;24715.605;  287.935;  239.762
679.054;24337.945;  496.185;  248.583
679.631;24088.857;  350.035;  237.503
680.207;24569.223;  420.585;  245.924
680.783;24227.061;  257.685;  224.845
681.359;24110.725;  328.635;  209.666
681.935;24022.514;  333.235;  191.687
682.511;24104.152;  334.310;  210.008
683.087;24151.891;  353.460;  213.329
683.663;24443.904;  316.860;  216.850
684.239;24024.793;  282.010;  229.471
684.815;24029.881;  371.410;  248.792
685.390;24205.621;  420.910;  231.813
685.966;24266.584;  330.384;  221.234
686.542;24338.447;  293.884;  214.255
687.118;23535.711;  337.609;  212.276
687.693;23128.500;  354.159;  233.096
688.269;23406.514;  319.759;  246.917
688.844;22870.328;  348.934;  236.938
689.420;22447.541;  332.309;  242.059
689.995;22897.381;  412.309;  245.480
690.571;22908.969;  387.209;  244.701
691.146;22687.033;  318.634;  251.922
691.722;23813.146;  346.309;  284.743
692.297;24280.510;  309.209;  320.664
692.872;24215.324;  292.359;  313.885
693.448;23698.863;  286.509;  290.106
694.023;23315.701;  338.409;  304.327
694.598;23857.465;  330.909;  319.648
695.173;24591.904;  309.734;  323.169
695.748;24702.367;  262.034;  376.389
696.323;24188.631;  322.634;  397.610
696.898;24508.369;  380.859;  430.231
697.473;24809.209;  270.409;  454.952
698.048;23884.873;  315.859;  478.973
698.623;23762.785;  275.434;  477.094
699.198;24136.350;  332.634;  496.915
699.773;24861.264;  296.709;  490.236
700.348;25732.377;  286.534;  519.957
700.922;25349.816;  335.884;  575.678
701.497;24930.904;  329.484;  621.399
702.072;24816.117;  368.459;  664.420
702.646;25197.381;  358.209;  690.541
703.221;24763.096;  345.334;  748.862
703.795;23457.484;  292.784;  774.282
704.370;23030.049;  240.209;  799.803
704.944;23463.563;  308.359;  875.824
705.519;23986.551;  341.384;  902.945
706.093;24435.164;  295.009;  889.266
706.668;23977.678;  352.859;  903.487
707.242;23821.016;  362.059;  881.708
707.816;23170.256;  319.884;  892.329
708.390;23509.719;  325.334;  970.250
708.965;23505.508;  337.084;  984.671
709.539;22762.246;  317.284; 1026.092
710.113;22151.859;  331.783; 1067.913
710.687;22906.748;  359.383; 1166.434
711.261;23802.512;  281.883; 1190.854
711.835;24072.326;  289.733; 1197.275
712.409;24412.215;  268.058; 1308.096
712.983;25131.553;  265.958; 1461.617
713.557;24623.867;  264.508; 1611.838
714.131;24779.531;  313.533; 1554.359
714.704;24627.270;  298.083; 1520.780
715.278;23916.934;  328.983; 1575.101
715.852;23355.797;  353.558; 1689.822
716.425;24251.611;  415.733; 1829.143
716.999;24422.500;  263.658; 2008.664
717.573;24149.588;  348.733; 2000.485
718.146;25251.777;  407.658; 1914.506
718.720;25492.816;  336.808; 1818.026
719.293;24874.504;  347.408; 1734.147
719.867;24585.094;  302.283; 1716.968
720.440;25385.156;  390.233; 1918.589
721.013;26213.746;  307.233; 1975.410
721.587;26229.084;  270.283; 2073.331
722.160;25947.572;  369.008; 2357.852
722.733;25932.262;  340.358; 2657.073
723.306;26474.100;  324.358; 2703.894
723.880;27318.564;  337.958; 2549.415
724.453;27558.053;  381.208; 2414.336
725.026;27702.891;  305.433; 2298.557
725.599;27195.154;  334.183; 2168.778
726.172;26670.494;  349.033; 2106.099
726.745;27596.158;  346.783; 2253.320
727.318;26903.596;  364.533; 2404.740
727.891;26506.234;  335.333; 2680.161
728.463;26605.975;  334.933; 2838.882
729.036;25592.988;  296.258; 2755.103
729.609;24607.752;  294.583; 2731.824
730.182;24139.266;  360.033; 2855.645
730.754;25225.928;  246.233; 2946.866
731.327;25874.367;  351.758; 2840.187
731.900;24903.807;  271.533; 2647.608
732.472;24399.645;  323.433; 2473.929
733.045;23936.809;  313.083; 2445.750
733.617;24050.896;  262.832; 2511.771
734.190;23433.285;  346.907; 2581.592
734.762;23990.949;  316.282; 2710.813
735.334;25019.639;  329.782; 3005.733
735.907;24418.127;  333.132; 3154.954
736.479;23548.340;  370.857; 3171.675
737.051;24039.229;  347.357; 3217.496
737.623;26065.068;  357.882; 3246.217
738.195;26366.107;  299.482; 2985.238
738.768;25446.945;  252.782; 2727.559
739.340;24928.859;  304.857; 2666.880
739.912;24194.723;  357.657; 2769.601
740.484;23027.813;  350.757; 2731.422
741.056;23487.625;  312.057; 2963.043
741.628;25792.639;  289.782; 3361.364
742.199;27306.053;  383.907; 3641.185
742.771;26540.816;  280.457; 3932.005
743.343;26438.506;  292.832; 4319.926
743.915;26559.119;  344.282; 4706.647
744.487;25954.533;  347.457; 4874.968
745.058;25527.947;  353.457; 4616.589
745.630;25241.160;  348.382; 4253.410
746.201;25256.248;  304.807; 4056.131
746.773;25040.588;  349.032; 3772.952
747.344;24647.326;  322.357; 3642.473
747.916;24891.465;  333.257; 3752.294
748.487;24955.254;  359.432; 4106.215
749.059;23824.492;  284.982; 4457.835
749.630;23415.682;  297.432; 4366.457
750.201;24021.869;  320.057; 4600.078
750.773;24472.334;  303.332; 4658.499
751.344;24213.172;  327.382; 4609.319
751.915;23515.035;  322.882; 4526.440
752.486;23753.400;  293.582; 4536.061
753.057;23401.938;  329.332; 4383.282
753.628;22676.527;  295.257; 4296.503
754.199;21993.916;  310.882; 4383.224
754.770;21487.629;  353.057; 4653.545
755.341;20936.068;  360.857; 4831.666
755.912;20546.531;  319.107; 4831.387
756.483;21216.721;  345.682; 4735.808
757.054;21824.209;  311.757; 4685.029
757.625;21647.123;  283.281; 4994.250
758.195;20966.262;  271.456; 5051.471
758.766;20946.676;  334.106; 5317.792
759.337;21042.840;  271.731; 5646.512
759.907;21515.502;  273.281; 5404.133
760.478;21427.592;  301.906; 5090.954
761.048;21257.881;  350.156; 4871.175
761.619;21034.170;  343.981; 4589.396
762.189;21077.908;  323.481; 4171.317
762.760;20851.846;  353.681; 3872.538
763.330;21032.211;  348.956; 3832.259
763.900;21557.648;  336.956; 4150.180
764.471;21078.563;  288.831; 4529.801
765.041;19865.502;  377.656; 4715.922
765.611;20092.789;  345.006; 4681.442
766.181;21340.254;  313.381; 4717.063
766.751;21010.568;  326.356; 4710.285
767.321;20128.131;  281.681; 4450.305
767.891;20459.971;  335.006; 4274.126
768.461;20209.783;  317.181; 4215.047
769.031;19298.848;  319.931; 4173.068
769.601;18909.686;  371.706; 4174.689
770.171;18942.574;  271.681; 4229.310
770.741;19190.563;  308.231; 4352.031
771.311;18701.178;  349.906; 4336.652
771.880;17734.816;  290.606; 4300.873
772.450;18010.480;  293.831; 4387.194
773.020;19219.943;  265.356; 4220.415
773.589;19534.857;  304.181; 4075.835
774.159;19416.420;  303.806; 4105.756
774.729;19187.059;  302.231; 4114.978
775.298;18864.947;  295.981; 3693.298
775.867;18334.662;  299.481; 3343.119
776.437;17332.051;  327.631; 3062.040
777.006;16798.914;  274.856; 2927.161
777.576;16636.527;  344.456; 3046.482
778.145;16604.416;  343.356; 3230.203
778.714;16072.056;  322.006; 3253.324
779.283;16082.669;  348.206; 3129.745
779.853;16529.684;  314.331; 2983.566
780.422;17052.197;  318.631; 2929.887
780.991;17084.936;  342.380; 2863.908
781.560;16558.324;  388.455; 2948.029
782.129;15734.263;  340.005; 3074.149
782.698;15871.376;  380.505; 2893.970
783.267;15775.590;  307.955; 2721.391
783.836;15698.004;  330.805; 2659.712
784.404;15719.792;  279.880; 2622.233
784.973;16061.106;  237.455; 2600.754
785.542;15919.845;  315.855; 2528.475
786.111;15460.759;  374.280; 2404.396
786.679;14782.697;  344.680; 2365.717
787.248;14447.561;  267.330; 2498.438
787.817;14465.375;  303.955; 2645.659
788.385;14642.113;  369.230; 2709.280
788.954;14625.302;  275.655; 2620.500
789.522;14885.866;  355.780; 2625.422
790.090;14815.555;  278.980; 2743.843
790.659;14389.543;  306.080; 2635.163
791.227;13999.707;  311.805; 2495.484
791.795;13944.346;  331.755; 2413.705
792.364;13693.310;  290.980; 2345.326
792.932;13672.223;  340.980; 2350.447
793.500;13365.487;  316.380; 2429.768
794.068;13143.751;  268.080; 2513.589
794.636;13510.614;  295.280; 2664.310
795.204;13286.578;  262.980; 2721.431
795.772;12587.592;  290.305; 2802.052
796.340;12272.105;  299.005; 2847.173
796.908;12597.520;  261.530; 2997.194
797.476;12753.208;  284.905; 3151.615
798.044;12519.472;  253.155; 3110.735
798.612;12180.385;  314.105; 2931.656
799.180;12347.349;  325.680; 2785.777
799.747;12118.913;  319.580; 2899.098
800.315;11863.102;  274.780; 2955.519
800.883;11754.540;  252.155; 2948.940
801.450;11884.854;  315.580; 2965.361
802.018;12003.742;  334.130; 3070.582
802.585;11579.231;  322.055; 3156.103
803.153;11295.720;  289.680; 3199.524
803.720;11057.559;  296.830; 3168.845
804.287;10861.598;  306.930; 3248.366
804.855;10941.211;  359.104; 3406.187
805.422;10488.000;  307.929; 3430.907
805.989; 9898.113;  290.679; 3453.528
806.556; 9692.752;  291.654; 3612.649
807.124;10315.341;  357.604; 3736.570
807.691;10600.529;  281.554; 3770.491
808.258;10206.118;  319.179; 3705.012
808.825; 9963.257;  355.079; 3828.733
809.392; 9712.396;  385.954; 3986.754
809.959; 9448.010;  332.604; 4410.075
810.526; 9293.548;  389.054; 4774.996
811.093; 9059.587;  368.679; 4754.217
811.659; 9106.400;  315.429; 4661.238
812.226; 9463.689;  314.129; 4672.559
812.793; 9690.453;  327.529; 4822.979
813.360; 9229.117;  317.729; 5189.800
813.926; 8746.455;  328.854; 5310.622
814.493; 8343.194;  271.154; 5414.542
815.060; 8237.833;  255.704; 5548.963
815.626; 8427.646;  275.854; 5452.284
816.193; 8395.335;  325.404; 5339.305
816.759; 8134.474;  287.029; 5544.426
817.325; 8259.338;  257.729; 5706.547
817.892; 8701.126;  353.004; 5623.468
818.458; 8498.040;  337.154; 5586.689
819.024; 8313.504;  363.754; 5647.910
819.591; 8140.893;  321.029; 5762.031
820.157; 7960.606;  276.979; 6284.452
820.723; 8059.045;  336.229; 6906.973
821.289; 8389.983;  506.079; 7086.894
821.855; 8031.722;  346.254; 7054.915
822.421; 7975.436;  299.279; 7112.035
822.987; 8151.975;  280.329; 7256.156
823.553; 8110.213;  308.029; 7538.077
824.119; 7884.352;  357.979; 7594.298
824.685; 7912.541;  375.329; 7613.619
825.251; 7932.655;  349.804; 7644.140
825.816; 7836.943;  394.904; 7720.261
826.382; 7346.382;  353.229; 8014.282
826.948; 7007.946;  360.979; 8281.503
827.513; 7083.359;  312.229; 8289.624
828.079; 7343.623;  284.654; 8587.045
828.645; 7629.812;  331.953; 8821.865
829.210; 7621.351;  280.028; 9054.486
829.776; 7501.839;  341.478; 9054.607
830.341; 7221.628;  348.903; 9415.628
830.906; 7059.942;  366.128; 9932.449
831.472; 7085.931;  292.928;10150.271
832.037; 7184.919;  358.778; 9420.391
832.602; 7000.208;  297.278; 8664.912
833.167; 6686.822;  322.128; 8491.933
833.733; 6619.160;  355.203; 8872.854
834.298; 6314.374;  283.078; 9370.575
834.863; 6136.538;  335.253; 9610.695
835.428; 5977.176;  332.603; 9655.616
835.993; 6057.965;  346.478; 9437.838
836.558; 6189.029;  350.903; 9441.459
837.123; 6410.567;  435.803; 9600.979
837.688; 6283.331;  333.278; 9798.301
838.253; 6155.770;  336.928; 9902.921
838.817; 6231.409;  311.203;10339.742
839.382; 6660.547;  374.978;10548.363
839.947; 6577.761;  323.128;10252.484
840.511; 6360.625;  393.528;10040.005
841.076; 5740.039;  252.078;10099.926
841.641; 5819.902;  344.703;10347.347
842.205; 5866.066;  337.778;10817.368
842.770; 6052.155;  408.353;11435.289
843.334; 6234.468;  312.103;12072.409
843.898; 6321.907;  310.603;12635.431
844.463; 6283.696;  380.278;12537.252
845.027; 6152.209;  308.503;12759.673
845.591; 6118.973;  363.603;12821.993
846.156; 6006.462;  299.378;12520.914
846.720; 6055.625;  354.153;12390.436
847.284; 6086.214;  330.928;12956.456
847.848; 5975.853;  348.053;13240.177
848.412; 5748.367;  323.753;13216.998
848.976; 5815.655;  386.653;13014.619
849.540; 5792.244;  417.803;12355.740
850.104; 5599.058;  383.053;12208.761
850.668; 5365.422;  254.278;12106.882
851.232; 5479.510;  268.203;11862.103
851.796; 5714.624;  320.853;11700.523
852.359; 5761.438;  357.802;12375.944
852.923; 5634.501;  372.677;13087.966
853.487; 5331.365;  354.002;13297.187
854.050; 5070.754;  221.277;13851.207
854.614; 5132.243;  307.352;14854.229
855.177; 5096.256;  338.277;15802.149
855.741; 4916.895;  345.252;16603.570
856.304; 4683.659;  368.077;16359.891
856.868; 4534.547;  285.127;14365.512
857.431; 4751.536;  327.252;13361.333
857.995; 4808.800;  311.852;14130.554
858.558; 4801.139;  344.802;14883.175
859.121; 4729.777;  356.802;15754.195
859.684; 4498.191;  334.527;15995.017
860.247; 4415.930;  330.327;15149.537
860.810; 4492.718;  315.502;14640.358
861.374; 4686.057;  427.327;15551.079
861.937; 4503.696;  281.702;16519.801
862.500; 4703.935;  308.952;16796.521
863.062; 4696.948;  286.727;16538.742
863.625; 4622.587;  336.352;16716.764
864.188; 4449.875;  303.952;17055.084
864.751; 4481.814;  311.477;17197.705
865.314; 4378.228;  328.227;17151.625
865.876; 4309.767;  367.602;17783.547
866.439; 4255.681;  356.927;19283.467
867.002; 4284.244;  418.077;20256.389
867.564; 4129.183;  382.527;20485.410
868.127; 4010.422;  339.677;20789.730
868.689; 3799.935;  337.727;21981.951
869.252; 3713.949;  379.552;23803.771
869.814; 3654.738;  297.202;24974.094
870.377; 3795.777;  333.127;24690.314
870.939; 3960.315;  475.577;23963.436
871.501; 3748.504;  336.752;25167.156
872.063; 3488.193;  240.777;26995.477
872.626; 3520.531;  266.427;27443.098
873.188; 3559.920;  339.102;26718.418
873.750; 3436.584;  318.952;26558.840
874.312; 3422.373;  307.927;26701.561
874.874; 3620.361;  397.902;27970.582
875.436; 3567.025;  355.951;29173.402
875.998; 3508.364;  389.851;30376.623
876.560; 3374.302;  360.801;32507.344
877.122; 3086.766;  294.651;34833.066
877.683; 3001.980;  350.176;36458.285
878.245; 2952.918;  318.351;37248.207
878.807; 3031.582;  347.801;36758.027
879.369; 3045.471;  283.901;35223.551
879.930; 3037.160;  283.676;33824.969
880.492; 3142.973;  383.151;34436.492
881.053; 3000.662;  294.601;37745.313
881.615; 2827.676;  307.076;41184.633
882.176; 2673.665;  324.176;42871.555
882.738; 2676.228;  358.351;41693.074
883.299; 2559.892;  262.026;40289.895
883.860; 2503.181;  266.201;39231.215
884.422; 2552.469;  356.201;38264.039
884.983; 2440.808;  288.701;37171.859
885.544; 2428.547;  334.101;35842.379
886.105; 2400.760;  327.726;34810.000
886.666; 2332.149;  316.601;34519.020
887.227; 2240.438;  267.851;33905.641
887.788; 2222.277;  338.601;34502.965
888.349; 2029.615;  284.426;34241.785
888.910; 1987.454;  352.301;33722.203
889.471; 1842.043;  338.351;32539.625
890.032; 1787.556;  326.526;31528.346
890.593; 1782.795;  353.451;32655.068
891.153; 1781.434;  318.251;33882.289
891.714; 1716.598;  271.876;33318.711
892.275; 1658.486;  279.076;31848.930
892.835; 1677.325;  366.851;30339.752
893.396; 1636.814;  351.251;30074.973
893.956; 1529.427;  321.201;30338.393
894.517; 1491.891;  334.976;30864.113
895.077; 1469.655;  341.851;29766.734
895.638; 1479.644;  397.501;26379.557
896.198; 1317.782;  284.226;24056.277
896.758; 1342.696;  363.351;22961.898
897.319; 1239.860;  322.426;21772.020
897.879; 1195.948;  327.851;20877.539
898.439; 1103.662;  269.326;19509.461
898.999; 1179.351;  347.950;17297.582
899.559; 1160.240;  342.950;14712.002
900.119; 1081.103;  283.975;12790.224
900.679; 1138.142;  392.525;11586.744
901.239; 1062.331;  353.950;10776.465
901.799; 1005.269;  331.000; 9691.687
902.359;  937.233;  294.300; 8725.907
902.919;  902.472;  289.650; 8305.728
903.479;  882.510;  290.550; 8172.649
904.038;  841.699;  279.900; 7913.870
904.598;  788.338;  237.225; 7262.291
905.158;  833.177;  307.100; 6609.012
905.717;  817.490;  319.925; 6236.133
906.277;  808.104;  329.425; 5829.054
906.836;  793.368;  346.525; 5396.674
907.396;  779.931;  345.100; 4964.195
907.955;  759.595;  344.600; 4528.917
908.515;  722.709;  310.200; 4223.837
909.074;  701.548;  311.450; 4023.958
909.633;  692.461;  317.675; 4065.379
910.192;  769.350;  398.125; 4066.300
910.752;  668.800;  311.025; 3971.600
911.311;  651.875;  302.425; 3839.600
911.870;  625.575;  294.400; 3684.500
912.429;  690.725;  367.100; 3635.600
912.988;  675.275;  360.725; 3689.800
913.547;  600.825;  291.250; 3737.700
914.106;  627.550;  328.775; 3740.300
914.665;  623.825;  328.125; 3604.600
915.224;  651.925;  367.300; 3358.700
915.782;  587.275;  303.450; 3188.400
916.341;  658.750;  375.900; 3091.400
916.900;  583.650;  309.825; 3044.800
917.458;  563.500;  290.900; 2888.600
918.017;  592.325;  323.825; 2818.900
918.576;  570.700;  306.850; 2838.600
919.134;  528.975;  270.925; 2880.100
919.693;  564.375;  303.825; 2996.300
920.251;  555.275;  294.975; 3183.100
920.809;  533.175;  280.075; 3247.000
921.368;  551.300;  306.550; 3156.600
921.926;  534.950;  286.775; 2964.900
922.484;  565.075;  321.075; 2846.300
923.042;  558.525;  309.775; 2890.400
923.601;  625.825;  378.950; 2987.700
924.159;  582.775;  343.425; 3049.800
924.717;  528.675;  283.975; 3087.000
925.275;  559.800;  320.000; 3093.400
925.833;  493.750;  253.450; 3182.400
926.391;  578.625;  344.775; 3397.900
926.949;  547.550;  295.650; 3575.400
927.506;  569.200;  326.450; 3713.400
928.064;  553.775;  311.175; 3871.300
928.622;  552.075;  309.725; 4092.800
929.180;  516.775;  275.125; 4499.300
929.737;  509.575;  266.100; 4813.200
930.295;  585.125;  337.375; 5084.100
930.853;  533.600;  283.675; 5185.000
931.410;  516.125;  273.025; 5313.100
931.968;  587.150;  344.250; 5339.600
932.525;  572.675;  327.375; 5399.900
933.082;  513.500;  265.950; 5457.500
933.640;  576.475;  328.025; 5692.900
934.197;  562.975;  309.200; 5821.200
934.754;  557.300;  305.600; 5617.900
935.312;  541.675;  289.325; 5512.400
935.869;  631.075;  374.375; 5582.400
936.426;  545.050;  289.250; 5650.100
936.983;  548.250;  298.200; 5657.400
937.540;  525.025;  269.650; 5564.300
938.097;  591.975;  327.175; 5574.000
938.654;  567.000;  301.500; 5665.900
939.211;  599.400;  331.500; 5931.600
939.768;  579.950;  310.250; 6153.600
940.324;  569.650;  298.750; 6397.600
940.881;  555.875;  285.525; 6454.200
941.438;  638.375;  365.925; 6206.900
941.995;  628.600;  349.275; 6003.900
942.551;  558.050;  272.650; 6228.300
943.108;  599.525;  313.650; 6603.500
943.664;  559.250;  277.825; 7188.100
944.221;  688.525;  401.575; 7579.900
944.777;  548.325;  269.500; 7658.100
945.334;  564.975;  282.525; 7670.400
945.890;  592.825;  317.025; 7525.100
946.446;  603.700;  313.075; 7261.500
947.003;  609.650;  323.250; 6949.200
947.559;  668.150;  383.950; 6773.100
948.115;  646.150;  358.575; 6668.400
948.671;  618.550;  322.300; 6488.400
949.227;  555.075;  259.975; 6236.600
949.783;  543.850;  255.075; 6008.900
950.339;  614.375;  331.025; 5934.100
950.895;  633.600;  351.200; 5933.500
951.451;  580.525;  295.350; 6074.700
952.007;  621.925;  338.975; 6066.400
952.563;  586.900;  298.450; 5884.100
953.118;  572.325;  287.425; 5733.800
953.674;  590.975;  306.625; 5734.300
954.230;  599.500;  314.075; 6039.700
954.785;  593.575;  312.725; 6383.500
955.341;  630.000;  351.075; 6568.200
955.897;  533.950;  254.200; 6488.600
956.452;  601.125;  328.625; 6239.200
957.008;  678.200;  404.550; 5954.600
957.563;  634.925;  367.550; 5816.700
958.118;  559.400;  282.450; 5828.200
958.674;  600.475;  322.825; 5717.400
959.229;  640.575;  367.175; 5506.800
959.784;  545.125;  267.275; 5292.200
960.339;  637.900;  364.800; 5101.900
960.894;  608.950;  341.450; 5093.200
961.449;  540.775;  280.925; 5227.900
962.004;  740.600;  490.500; 5349.300
962.559;  544.175;  284.775; 5514.900
963.114;  479.225;  222.725; 5717.300
963.669;  570.675;  317.925; 5841.400
964.224;  557.300;  299.750; 5805.900
964.779;  532.650;  267.100; 5723.400
965.334;  637.750;  380.675; 5779.500
965.888;  545.800;  292.650; 5948.500
966.443;  598.300;  350.425; 6344.200
966.998;  505.000;  257.300; 6666.300
967.552;  565.925;  312.450; 6710.100
968.107;  542.300;  293.775; 6593.500
968.661;  574.600;  326.450; 6344.100
969.216;  539.300;  284.875; 6062.400
969.770;  573.675;  322.850; 5785.500
970.324;  577.875;  329.125; 5426.800
970.879;  591.375;  344.225; 5016.800
971.433;  592.200;  343.925; 4904.500
971.987;  556.025;  314.875; 4991.000
972.541;  572.625;  331.825; 4978.500
973.095;  624.725;  388.575; 4832.000
973.649;  504.700;  265.950; 4767.900
974.203;  525.200;  281.000; 4881.200
974.757;  537.625;  301.075; 4969.500
975.311;  544.100;  310.600; 4953.000
975.865;  552.425;  311.625; 4884.300
976.419;  536.425;  300.375; 4739.800
976.973;  530.475;  297.375; 4698.100
977.526;  581.725;  357.650; 4631.100
978.080;  495.200;  267.000; 4621.600
978.634;  565.550;  342.325; 4650.200
979.187;  555.550;  335.325; 4669.200
979.741;  623.675;  401.000; 4658.000
980.294;  488.850;  272.800; 4579.100
980.848;  446.550;  232.750; 4452.800
981.401;  503.375;  297.025; 4271.900
981.955;  523.075;  316.275; 4087.800
982.508;  468.475;  256.725; 3973.900
983.061;  565.925;  358.500; 3928.600
983.615;  494.475;  283.725; 3851.200
984.168;  474.750;  269.550; 3734.800
984.721;  537.150;  334.400; 3628.300
985.274;  525.725;  326.400; 3564.300
985.827;  510.875;  308.675; 3558.100
986.380;  442.225;  247.075; 3559.900
986.933;  533.250;  332.400; 3688.700
987.486;  522.750;  328.700; 3778.500
988.039;  524.275;  335.625; 3559.900
988.591;  540.100;  355.000; 3219.300
989.144;  450.075;  263.175; 2902.900
989.697;  460.850;  282.775; 2722.600
990.250;  516.375;  343.775; 2618.000
990.802;  462.425;  284.350; 2523.900
991.355;  585.125;  416.225; 2436.500
991.907;  521.862;  353.175; 2412.200
992.460;  458.600;  290.125; 2387.900
993.012;  453.200;  292.925; 2365.800
993.565;  430.550;  269.025; 2311.100
994.117;  567.325;  415.075; 2308.700
994.669;  425.375;  272.775; 2249.300
995.221;  476.600;  325.775; 2158.100
995.774;  477.800;  323.950; 2085.600
996.326;  447.525;  302.975; 2068.100
996.878;  501.225;  364.650; 1975.300
997.430;  418.300;  280.975; 1929.500
997.982;  451.225;  314.375; 1861.900
998.534;  444.275;  312.325; 1830.200
999.086;  440.275;  309.400; 1823.200
999.638;  396.075;  264.475; 1815.000
1000.190;  423.300;  289.550; 1796.600
1000.741;  445.800;  315.700; 1738.800
1001.293;  414.225;  285.475; 1666.200
1001.845;  407.225;  282.400; 1566.500
1002.396;  445.525;  323.025; 1471.900
1002.948;  434.650;  319.025; 1398.000
1003.500;  430.575;  311.450; 1356.500
1004.051;  542.650;  427.075; 1294.200
1004.603;  471.025;  355.975; 1190.000
1005.154;  360.525;  256.550; 1063.900
1005.705;  430.325;  327.275;  968.300
1006.257;  417.625;  321.050;  889.800
1006.808;  411.875;  307.300;  801.500
1007.359;  455.450;  357.950;  716.400
1007.910;  378.825;  292.775;  639.100
1008.461;  434.850;  340.400;  561.600
1009.013;  346.775;  260.275;  500.400
1009.564;  467.300;  379.075;  476.100
1010.115;  345.600;  266.650;  431.600
1010.665;  352.700;  276.375;  409.300
1011.216;  394.125;  307.725;  399.700
1011.767;  406.900;  322.300;  388.100
1012.318;  432.425;  346.275;  381.400
1012.869;  397.375;  312.400;  375.400
1013.419;  352.550;  272.200;  357.600
1013.970;  394.975;  308.450;  358.300
1014.521;  360.525;  282.075;  344.100
1015.071;  398.075;  311.900;  322.800
1015.622;  369.500;  293.350;  320.600
1016.172;  350.775;  275.300;  301.700
1016.723;  358.875;  282.900;  289.800
1017.273;  352.950;  277.850;  287.600
1017.823;  381.525;  300.200;  278.700
1018.374;  358.050;  284.275;  274.400
1018.924;  419.200;  341.950;  283.200
1019.474;  417.575;  342.125;  278.500
1020.024;  386.000;  308.475;  274.700
1020.574;  419.125;  347.200;  272.700
1021.124;  399.125;  320.825;  278.400
1021.674;  325.025;  254.500;  269.200
1022.224;  417.250;  338.750;  267.800
1022.774;  391.175;  316.850;  258.100
1023.324;  445.125;  367.150;  260.000
1023.874;  518.600;  441.500;  260.700
1024.423;  359.675;  279.150;  252.700
1024.973;  353.250;  281.275;  234.700
1025.523;  362.700;  289.800;  226.500
1026.072;  356.350;  285.275;  225.500
1026.622;  395.450;  318.725;  210.100
1027.172;  418.125;  346.700;  213.000
1027.721;  348.575;  280.500;  207.700
1028.270;  385.950;  319.175;  205.400
1028.820;  373.000;  302.250;  201.000
1029.369;  355.850;  286.450;  201.000
1029.918;  377.100;  305.700;  198.400
1030.468;  327.225;  259.425;  199.200
1031.017;  373.800;  300.400;  192.600
1031.566;  354.300;  289.275;  197.400
1032.115;  406.250;  337.900;  188.300
1032.664;  348.375;  279.900;  193.700
1033.213;  427.500;  362.050;  191.900
1033.762;  372.175;  302.625;  184.500
1034.311;  393.225;  326.850;  194.300
1034.860;  405.950;  336.175;  192.300
1035.408;  421.350;  355.150;  182.600
1035.957;  415.800;  352.700;  173.900
1036.506;  309.100;  245.850;  185.200
1037.055;  490.525;  423.375;  182.500
1037.603;  388.200;  320.150;  167.600
1038.152;  313.225;  250.525;  168.200
1038.700;  333.800;  274.950;  169.600
1039.249;  399.325;  332.200;  164.300
1039.797;  366.875;  305.675;  169.600
1040.345;  407.100;  345.400;  167.100
1040.894;  365.275;  301.950;  164.400
1041.442;  367.625;  304.750;  158.300
1041.990;  327.250;  259.475;  160.000
1042.538;  313.575;  249.225;  156.800
1043.087;  326.350;  270.350;  146.600
1043.635;  390.800;  327.075;  162.400
1044.183;  341.575;  279.725;  156.300
1044.731;  332.575;  269.300;  158.100
1045.279;  388.900;  328.825;  154.500
1045.827;  521.575;  462.875;  146.200
1046.374;  300.750;  240.950;  154.000
1046.922;  342.300;  281.025;  149.000
1047.470;  403.075;  341.475;  154.900
1048.018;  374.325;  315.450;  148.400
1048.565;  415.450;  353.925;  146.300
1049.113;  319.775;  260.775;  156.100
1049.660;  357.050;  302.650;  154.300
1050.208;  391.375;  324.875;  149.400
1050.755;  346.175;  293.275;  157.500
1051.303;  395.325;  336.200;  157.700
1051.850;  371.050;  310.850;  152.800
1052.397;  274.350;  222.000;  146.300
1052.945;  359.100;  296.750;  149.500
1053.492;  431.550;  369.875;  149.300
1054.039;  413.350;  360.975;  163.100
1054.586;  325.250;  262.725;  150.400
1055.133;  403.775;  338.550;  153.500
1055.680;  374.600;  315.200;  155.600
1056.227;  310.650;  253.400;  148.700
1056.774;  457.725;  404.600;  151.500
1057.321;  302.100;  244.250;  143.700
1057.868;  371.700;  313.950;  145.300
1058.415;  376.525;  324.800;  153.500
1058.961;  393.000;  330.150;  149.900
1059.508;  369.000;  315.850;  147.300
1060.055;  336.175;  281.250;  151.000
1060.601;  360.600;  303.950;  148.700
1061.148;  357.650;  301.600;  153.800
1061.694;  343.325;  287.700;  150.500
1062.241;  341.925;  287.650;  149.100
1062.787;  383.550;  328.450;  153.000
1063.334;  472.025;  410.750;  153.200
1063.880;  391.825;  329.225;  148.400
1064.426;  407.725;  352.025;  149.200
1064.972;  349.325;  292.350;  156.400
1065.518;  326.700;  271.775;  144.700
1066.065;  364.300;  308.625;  139.400
1066.611;  344.500;  293.475;  139.300
1067.157;  366.175;  319.775;  138.400
1067.703;  386.700;  337.575;  142.700
1068.249;  348.050;  296.225;  136.700
1068.794;  362.550;  305.000;  139.400
1069.340;  327.150;  280.900;  142.700
1069.886;  340.100;  290.950;  135.600
1070.432;  308.850;  253.750;  133.400
1070.977;  344.450;  291.550;  138.200
1071.523;  324.500;  279.700;  132.400
1072.068;  335.650;  284.200;  132.700
1072.614;  302.050;  251.100;  127.000
1073.160;  397.150;  348.150;  131.300
1073.705;  329.650;  283.500;  135.700
1074.250;  317.525;  269.250;  133.000
1074.796;  376.400;  324.700;  138.000
1075.341;  383.900;  336.700;  137.300
1075.886;  341.250;  289.575;  134.300
1076.431;  376.425;  329.275;  138.200
1076.976;  367.700;  318.550;  132.200
1077.521;  331.525;  283.600;  138.900
1078.067;  333.425;  282.450;  128.600
1078.612;  377.625;  332.075;  138.900
1079.156;  341.125;  295.750;  128.900
1079.701;  394.350;  343.350;  129.700
1080.246;  398.500;  347.850;  128.600
1080.791;  361.175;  314.325;  122.600
1081.336;  382.050;  326.775;  122.000
1081.880;  372.850;  325.175;  123.900
1082.425;  327.050;  278.750;  120.600
1082.970;  410.200;  366.800;  124.500
1083.514;  341.750;  294.050;  112.000
1084.059;  336.350;  286.600;  120.700
1084.603;  326.150;  274.100;  116.000
1085.147;  373.850;  324.250;  116.300
1085.692;  411.000;  361.250;  108.200
1086.236;  296.075;  241.150;  114.600
1086.780;  436.600;  384.150;  118.900
1087.325;  380.050;  325.450;  120.400
1087.869;  351.075;  304.775;  110.500
1088.413;  405.875;  356.525;  114.000
1088.957;  306.700;  263.950;  114.300
1089.501;  444.425;  396.225;  114.600
1090.045;  416.150;  370.525;  114.200
1090.589;  325.375;  276.525;  105.500
1091.133;  387.750;  345.450;  111.800
1091.676;  338.175;  298.200;  110.900
1092.220;  345.075;  299.475;  110.100
1092.764;  408.500;  361.925;  108.100
1093.307;  381.500;  337.525;  109.900
1093.851;  321.450;  275.925;  107.500
1094.395;  393.725;  345.675;   96.200
1094.938;  360.350;  322.825;   99.300
1095.482;  317.000;  278.475;   97.700
1096.025;  410.550;  364.550;   84.900
1096.568;  452.500;  405.000;   88.500
1097.112;  289.700;  246.200;   95.700
1097.655;  341.750;  296.650;   97.300
1098.198;  342.025;  297.750;   92.600
1098.741;  348.750;  304.700;   91.800
1099.285;  373.550;  328.800;   88.000
1099.828;  256.850;  211.775;   91.700
1100.371;  346.825;  306.475;   89.900
1100.914;  394.000;  345.300;   91.500
1101.457;  389.900;  348.450;   88.100
1101.999;  327.475;  287.650;   86.400
1102.542;  367.475;  326.525;   90.800
1103.085;  373.325;  334.825;   95.400
1103.628;  438.075;  402.425;   97.700
1104.170;  337.650;  294.100;   84.000
1104.713;  375.300;  327.975;   93.900
1105.256;  318.675;  274.375;   93.000
1105.798;  288.625;  242.750;   85.600
1106.341;  418.975;  376.200;   87.100
1106.883;  298.150;  254.050;   85.200
1107.425;  385.750;  336.150;   85.000
1107.968;  357.575;  308.475;   84.300
1108.510;  400.050;  354.625;   88.200
1109.052;  350.850;  312.325;   86.600
1109.594;  314.000;  276.450;   79.400
1110.136;  370.475;  324.750;   81.700
1110.679;  361.500;  320.200;   75.500
1111.221;  342.600;  303.300;   88.500
1111.763;  313.725;  273.725;   87.700
1112.304;  306.925;  269.975;   89.700
1112.846;  378.100;  338.350;   81.900
1113.388;  544.950;  503.625;   86.400
1113.930;  392.800;  350.625;   84.700
1114.472;  345.025;  306.975;   78.900
1115.013;  314.175;  274.675;   78.100
1115.555;  336.700;  300.175;   84.900
1116.097;  328.775;  286.175;   79.200
1116.638;  394.175;  351.800;   83.700
1117.180;  379.500;  340.000;   85.500
1117.721;  325.925;  284.650;   78.800
1118.262;  384.675;  346.125;   77.400
1118.804;  366.325;  323.675;   81.400
1119.345;  326.125;  293.650;   77.800
1119.886;  404.400;  365.925;   81.200
1120.427;  335.700;  298.125;   77.200
1120.969;  341.500;  303.125;   75.200
1121.510;  319.925;  283.075;   80.900
1122.051;  415.425;  375.375;   77.300
1122.592;  370.400;  336.725;   73.300
1123.133;  311.350;  273.850;   90.100
1123.673;  400.900;  369.875;   75.000
1124.214;  346.175;  315.175;   80.600
1124.755;  367.350;  324.350;   78.000
1125.296;  352.425;  318.250;   77.500
1125.836;  392.225;  351.500;   80.400
1126.377;  337.225;  300.875;   75.600
1126.918;  348.175;  309.250;   78.900
1127.458;  357.050;  318.050;   78.000
1127.999;  375.250;  336.250;   76.100
1128.539;  395.000;  364.625;   81.400
1129.079;  360.350;  324.475;   77.400
1129.620;  318.100;  279.875;   68.000
1130.160;  306.200;  272.075;   77.500
1130.700;  363.925;  329.225;   76.300
1131.240;  363.700;  328.450;   66.800
1131.781;  354.525;  314.900;   70.600
1132.321;  340.725;  306.150;   77.200
1132.861;  323.225;  285.675;   70.400
1133.401;  335.525;  300.900;   68.700
1133.941;  357.125;  321.400;   68.500
1134.481;  343.100;  307.900;   75.900
1135.020;  344.225;  309.675;   66.600
1135.560;  383.975;  351.150;   68.100
1136.100;  281.675;  248.900;   64.900
1136.640;  288.050;  255.600;   72.500
1137.179;  306.575;  268.675;   69.700
1137.719;  340.550;  312.975;   68.400
1138.258;  333.325;  301.025;   67.000
1138.798;  377.050;  340.800;   69.600
1139.337;  272.875;  239.200;   64.000
1139.877;  364.575;  332.125;   64.500
1140.416;  504.775;  470.975;   74.900
1140.955;  300.800;  271.575;   67.200
1141.494;  381.150;  350.025;   69.900
1142.034;  330.150;  296.600;   59.100
1142.573;  374.175;  339.400;   65.900
1143.112;  311.500;  283.425;   70.600
1143.651;  302.475;  277.975;   67.100
1144.190;  391.250;  356.875;   56.700
1144.729;  340.075;  310.675;   61.800
1145.267;  326.250;  295.200;   62.500
1145.806;  361.600;  333.350;   68.500
1146.345;  362.975;  329.875;   58.300
1146.884;  353.350;  323.775;   63.100
1147.422;  300.850;  268.350;   54.800
1147.961;  404.275;  375.600;   67.600
1148.500;  386.025;  349.175;   64.700
1149.038;  365.050;  329.975;   61.000
1149.577;  395.375;  366.025;   65.100
1150.115;  253.175;  223.975;   58.100
1150.653;  342.275;  315.175;   60.500
1151.192;  313.575;  282.875;   56.600
1151.730;  371.800;  342.650;   62.300
1152.268;  329.075;  299.225;   55.500
1152.806;  320.775;  289.175;   58.200
1153.344;  327.075;  294.550;   55.000
1153.882;  340.975;  313.275;   64.200
1154.421;  263.325;  238.175;   60.300
1154.958;  341.050;  307.400;   58.100
1155.496;  367.025;  336.925;   55.800
1156.034;  402.275;  380.375;   61.000
1156.572;  382.475;  353.500;   56.200
1157.110;  263.825;  234.675;   53.200
1157.647;  384.500;  356.575;   57.400
1158.185;  318.400;  288.850;   55.500
1158.723;  288.850;  260.925;   58.000
1159.260;  393.550;  364.100;   53.700
1159.798;  373.500;  340.225;   51.700
1160.335;  357.425;  326.400;   59.600

