membrane
Integration time [ms]: 238.412
Averaging Nr. [scans]: 40
Smoothing Nr. [pixels]: 0
Data measured with spectrometer [name]: 7414430SP
Wave   ;Sample   ;Dark     ;Reference
[nm]   ;[counts] ;[counts] ;[counts] 

288.544;  502.705;  332.182;    6.613
289.143;  442.529;  271.583;   14.216
289.742;  525.965;  358.283;   11.816
290.341;  506.783;  338.184;   -4.936
290.940;  468.864;  301.359;    0.852
291.538;  557.902;  386.909;    1.792
292.137;  500.764;  339.183;    6.262
292.736;  610.808;  448.984;    8.164
293.335;  468.134;  303.109;   -6.418
293.934;  503.933;  331.034;   -2.904
294.532;  645.154;  479.809;   -5.162
295.131;  527.024;  376.861;  -10.283
295.730;  521.206;  361.060;  -16.141
296.328;  502.244;  345.711;  -14.740
296.927;  494.907;  342.761;   -8.768
297.525;  499.557;  342.961;  -15.255
298.124;  424.912;  272.787;  -22.063
298.722;  488.052;  336.861;  -14.796
299.321;  455.822;  303.761;  -10.466
299.919;  477.168;  329.786;  -10.979
300.518;  441.463;  293.262;  -12.077
301.116;  447.512;  297.361;  -13.509
301.715;  463.279;  315.411;  -11.939
302.313;  452.455;  306.661;  -15.424
302.911;  465.639;  329.612;  -19.833
303.509;  583.345;  439.211;   -3.567
304.108;  481.240;  342.436;   -9.553
304.706;  504.551;  367.686;   -8.582
305.304;  504.510;  366.712;  -12.348
305.902;  497.811;  359.286;  -14.411
306.500;  461.361;  325.311;   -7.194
307.098;  472.981;  342.011;   -9.322
307.696;  491.515;  361.986;  -19.192
308.294;  465.514;  331.561;   -9.736
308.892;  478.847;  349.686;  -15.482
309.490;  445.407;  314.911;  -14.107
310.088;  493.525;  372.612;  -15.862
310.686;  508.357;  389.461;  -10.781
311.284;  477.421;  356.336;  -14.878
311.882;  457.666;  336.862;   -9.948
312.480;  439.585;  321.162;  -15.503
313.078;  502.715;  388.612;  -17.262
313.675;  430.536;  320.411;   -3.694
314.273;  495.446;  384.962;  -18.246
314.871;  372.667;  268.837;  -15.190
315.468;  407.389;  299.362;  -12.633
316.066;  431.089;  321.511;   -5.765
316.664;  402.090;  302.362;  -14.317
317.261;  548.845;  448.487;   -8.677
317.859;  470.340;  378.637;  -11.804
318.456;  504.086;  411.961;   -3.107
319.054;  473.271;  378.962;   -3.062
319.651;  462.981;  371.737;   -6.706
320.249;  489.181;  398.562;   -5.206
320.846;  428.708;  345.061;   -4.679
321.443;  497.054;  418.661;   -7.920
322.041;  484.830;  400.187;  -14.105
322.638;  423.651;  339.787;   -6.263
323.235;  394.380;  314.961;   -7.424
323.833;  445.579;  363.186;  -14.765
324.430;  363.951;  280.436;  -10.550
325.027;  522.195;  440.611;   -9.951
325.624;  378.641;  298.761;   -3.712
326.221;  407.378;  318.936;   -9.368
326.818;  488.715;  400.711;   -5.637
327.415;  435.702;  346.260;   -6.699
328.012;  402.882;  319.885;   -5.713
328.609;  427.678;  339.260;   -9.983
329.206;  460.412;  366.561;   -7.154
329.803;  430.133;  339.636;   -1.682
330.400;  413.166;  313.485;   -2.741
330.997;  475.750;  377.636;   -4.339
331.594;  464.667;  363.311;  -10.278
332.191;  429.124;  324.736;   -6.967
332.787;  492.370;  386.261;   -0.480
333.384;  443.457;  342.112;  -10.333
333.981;  467.673;  375.163;  -19.900
334.578;  414.148;  310.587;  -19.816
335.174;  418.926;  319.387;  -15.844
335.771;  479.340;  384.438;  -12.670
336.367;  412.178;  320.113;  -21.124
336.964;  460.663;  369.313;  -18.226
337.561;  424.735;  329.313;  -13.311
338.157;  525.455;  432.764;  -19.006
338.754;  461.086;  371.839;  -19.418
339.350;  414.082;  324.864;  -29.433
339.946;  441.194;  348.714;  -16.622
340.543;  483.400;  399.465;  -16.744
341.139;  409.904;  331.215;  -21.841
341.735;  439.550;  363.566;  -25.012
342.332;  387.410;  316.015;  -19.156
342.928;  455.741;  376.415;  -20.443
343.524;  435.984;  357.341;  -14.397
344.120;  418.121;  353.591;  -20.654
344.716;  403.141;  332.640;   -5.730
345.313;  455.338;  378.515;  -10.929
345.909;  346.735;  276.840;  -19.843
346.505;  425.473;  349.565;  -19.645
347.101;  463.475;  394.639;   -9.618
347.697;  449.283;  377.889;  -10.305
348.293;  346.364;  275.590;  -23.189
348.889;  422.408;  352.389;  -18.418
349.485;  382.611;  316.289;  -10.476
350.081;  435.270;  364.839;  -17.320
350.676;  394.742;  319.940;  -21.088
351.272;  461.882;  385.314;  -12.821
351.868;  436.581;  359.189;  -13.165
352.464;  412.105;  339.314;  -12.464
353.059;  367.336;  297.664;  -22.547
353.655;  444.939;  371.639;   -9.379
354.251;  434.261;  356.313;   -8.266
354.846;  417.172;  350.714;  -17.705
355.442;  426.249;  355.915;   -9.317
356.038;  421.734;  352.164;  -11.049
356.633;  415.052;  340.389;  -10.006
357.229;  409.616;  340.089;  -13.120
357.824;  403.864;  327.589;  -15.647
358.420;  380.157;  310.939;  -19.204
359.015;  389.260;  318.914;  -12.263
359.610;  435.900;  365.289;  -16.421
360.206;  341.044;  270.590;  -20.074
360.801;  364.808;  291.064;  -13.277
361.396;  417.744;  343.139;   -5.822
361.992;  381.414;  306.264;  -11.247
362.587;  380.539;  308.515;  -21.502
363.182;  389.909;  322.764;   -7.461
363.777;  420.712;  351.864;   -8.719
364.372;  424.237;  358.189;  -14.590
364.967;  390.180;  321.715;  -15.145
365.563;  467.204;  388.039;   -7.192
366.158;  394.007;  320.264;   -5.662
366.753;  373.649;  295.314;   -8.378
367.348;  427.865;  357.064;  -14.990
367.942;  397.932;  327.764;   -6.005
368.537;  433.616;  361.689;  -11.504
369.132;  406.139;  329.614;  -10.576
369.727;  366.104;  298.440;  -12.573
370.322;  337.422;  266.940;  -11.560
370.917;  407.292;  339.490;  -10.388
371.511;  499.952;  427.164;   -9.161
372.106;  450.730;  379.790;  -10.245
372.701;  340.069;  272.315;  -10.158
373.296;  498.073;  427.564;   -4.719
373.890;  377.414;  307.915;  -11.802
374.485;  404.534;  337.115;  -13.500
375.079;  430.271;  362.789;   -6.276
375.674;  474.072;  401.664;   -0.447
376.268;  399.673;  332.240;   -6.916
376.863;  336.618;  276.716;  -14.483
377.457;  385.237;  314.690;   -6.903
378.052;  446.164;  374.315;   -9.844
378.646;  434.213;  370.840;  -12.601
379.240;  416.689;  351.240;  -14.715
379.835;  372.022;  308.715;  -12.331
380.429;  333.776;  266.490;   -9.074
381.023;  457.340;  393.115;   -1.729
381.617;  397.991;  332.440;  -13.714
382.212;  408.629;  334.815;   -7.060
382.806;  439.487;  377.590;   -2.303
383.400;  392.261;  331.115;   -0.815
383.994;  387.937;  329.140;   -4.429
384.588;  406.851;  348.039;   -6.261
385.182;  424.735;  362.014;    0.008
385.776;  417.893;  356.039;   -3.247
386.370;  400.024;  341.465;   -1.030
386.964;  404.353;  342.840;   -1.346
387.558;  351.959;  293.714;   -2.020
388.152;  397.809;  343.690;   -5.345
388.745;  477.609;  419.915;   -2.774
389.339;  443.202;  385.039;    3.510
389.933;  405.317;  347.289;    5.280
390.527;  506.901;  452.139;    2.610
391.120;  350.242;  295.940;   -7.914
391.714;  415.065;  363.840;   -1.903
392.308;  460.851;  405.564;    6.023
392.901;  372.405;  324.365;   -4.103
393.495;  351.262;  301.415;    3.284
394.089;  452.419;  399.790;    8.655
394.682;  414.445;  361.290;    2.312
395.275;  425.229;  373.240;   -7.402
395.869;  391.892;  342.490;   -1.072
396.462;  362.291;  315.340;    6.454
397.056;  454.876;  403.889;    8.494
397.649;  434.978;  381.015;    1.599
398.242;  422.260;  373.064;    3.153
398.836;  452.500;  402.914;   11.395
399.429;  366.260;  324.289;   14.695
400.022;  389.982;  345.590;    3.627
400.615;  475.181;  432.340;    8.383
401.208;  405.568;  354.989;   13.295
401.802;  410.486;  365.940;    6.211
402.395;  400.357;  361.290;    7.227
402.988;  407.398;  362.265;    2.700
403.581;  378.057;  336.689;   11.225
404.174;  398.445;  354.064;   18.922
404.767;  377.918;  339.265;   14.169
405.360;  364.045;  326.690;    8.999
405.953;  443.667;  403.039;   13.138
406.545;  426.997;  377.889;   13.937
407.138;  358.258;  313.990;   10.869
407.731;  361.359;  317.039;   12.768
408.324;  389.747;  343.789;   22.921
408.917;  397.535;  359.814;   15.308
409.509;  428.905;  395.314;   12.239
410.102;  376.085;  340.165;   13.741
410.695;  388.298;  347.989;   20.249
411.287;  347.331;  311.239;   21.793
411.880;  341.427;  302.339;   22.965
412.472;  355.364;  318.389;   15.082
413.065;  369.430;  336.289;   23.423
413.657;  333.528;  298.039;   21.077
414.250;  374.616;  336.714;   12.349
414.842;  389.341;  352.064;   20.423
415.434;  331.388;  296.714;   19.906
416.027;  377.096;  339.988;   26.574
416.619;  412.835;  384.414;   15.705
417.211;  342.854;  309.039;   17.791
417.804;  361.449;  325.263;   30.244
418.396;  350.874;  319.364;   24.177
418.988;  377.698;  348.488;   24.904
419.580;  327.285;  292.489;   20.692
420.172;  313.365;  278.713;   22.275
420.764;  388.657;  355.763;   26.773
421.356;  369.868;  338.413;   25.731
421.948;  391.461;  359.838;   24.876
422.540;  396.245;  355.188;   30.042
423.132;  345.357;  313.387;   32.728
423.724;  321.469;  290.788;   21.317
424.316;  357.037;  323.238;   29.359
424.908;  344.387;  304.287;   28.798
425.500;  372.253;  335.712;   30.512
426.092;  369.200;  336.912;   26.741
426.683;  402.546;  362.463;   27.029
427.275;  372.744;  336.387;   32.611
427.867;  382.775;  351.337;   33.796
428.458;  426.301;  385.937;   34.453
429.050;  396.042;  356.687;   34.255
429.642;  430.791;  391.712;   39.082
430.233;  317.011;  287.987;   41.138
430.825;  422.727;  384.287;   31.581
431.416;  405.527;  366.212;   35.755
432.008;  367.730;  337.812;   40.566
432.599;  374.107;  335.336;   46.322
433.190;  365.238;  333.212;   46.897
433.782;  340.469;  302.337;   41.069
434.373;  510.902;  470.836;   48.778
434.964;  342.106;  307.636;   50.078
435.556;  365.066;  329.587;   52.381
436.147;  434.203;  392.887;   38.251
436.738;  402.144;  360.061;   47.237
437.329;  414.710;  372.511;   61.304
437.920;  385.126;  345.062;   48.611
438.511;  325.623;  279.837;   44.910
439.103;  358.148;  315.036;   62.404
439.694;  389.320;  350.436;   63.075
440.285;  443.966;  400.436;   61.033
440.876;  488.298;  444.436;   57.249
441.466;  330.704;  290.086;   61.306
442.057;  377.458;  331.460;   65.773
442.648;  430.215;  386.736;   65.676
443.239;  355.212;  312.761;   55.963
443.830;  405.208;  361.860;   69.631
444.421;  378.334;  328.660;   69.943
445.011;  397.185;  350.386;   72.791
445.602;  427.078;  379.461;   68.848
446.193;  278.122;  228.810;   80.044
446.783;  363.187;  313.585;   82.599
447.374;  396.439;  357.311;   77.419
447.964;  411.909;  362.536;   72.605
448.555;  471.429;  424.460;   82.041
449.145;  381.303;  330.310;   76.230
449.736;  464.250;  414.985;   75.545
450.326;  415.714;  359.935;   67.945
450.917;  390.892;  333.685;   77.598
451.507;  345.063;  290.635;   68.027
452.097;  433.350;  383.935;   67.771
452.688;  428.317;  368.435;   62.884
453.278;  322.922;  275.160;   65.512
453.868;  463.244;  403.809;   71.796
454.458;  374.828;  318.910;   60.956
455.048;  407.955;  353.535;   62.356
455.639;  325.842;  268.759;   58.782
456.229;  410.644;  346.284;   65.209
456.819;  436.759;  368.959;   61.466
457.409;  445.798;  386.634;   59.967
457.999;  435.419;  361.034;   58.093
458.589;  397.899;  333.359;   59.536
459.179;  417.239;  349.659;   55.994
459.769;  362.566;  298.609;   43.624
460.358;  465.549;  390.959;   46.978
460.948;  396.380;  328.684;   49.821
461.538;  382.828;  310.534;   54.678
462.128;  388.544;  315.259;   49.309
462.717;  414.879;  337.158;   52.774
463.307;  408.849;  332.983;   48.101
463.897;  378.879;  311.684;   45.606
464.486;  486.782;  417.409;   45.010
465.076;  428.337;  353.758;   45.519
465.666;  378.047;  297.008;   50.058
466.255;  459.081;  380.084;   44.463
466.845;  393.469;  313.384;   41.206
467.434;  422.948;  343.333;   44.847
468.023;  380.423;  300.133;   46.760
468.613;  417.549;  335.959;   39.736
469.202;  378.941;  295.883;   46.461
469.791;  433.891;  345.133;   47.944
470.381;  429.393;  347.033;   47.529
470.970;  413.445;  332.058;   43.773
471.559;  432.586;  342.008;   41.646
472.148;  394.813;  303.683;   37.914
472.738;  442.290;  356.482;   48.071
473.327;  371.293;  281.358;   47.871
473.916;  432.075;  344.183;   37.716
474.505;  441.371;  347.732;   40.256
475.094;  477.489;  376.407;   43.269
475.683;  467.106;  365.032;   36.499
476.272;  428.072;  330.607;   44.542
476.861;  413.340;  312.082;   42.297
477.449;  430.161;  321.156;   46.878
478.038;  406.538;  303.132;   35.156
478.627;  419.717;  312.283;   42.514
479.216;  451.238;  339.082;   43.937
479.805;  453.977;  342.281;   51.393
480.393;  591.929;  478.332;   53.239
480.982;  517.018;  400.307;   38.955
481.571;  508.204;  389.631;   45.436
482.159;  412.976;  293.706;   51.007
482.748;  487.263;  366.357;   49.695
483.336;  503.474;  381.181;   48.280
483.925;  463.563;  334.082;   47.166
484.513;  446.151;  315.681;   55.404
485.102;  476.094;  343.207;   54.238
485.690;  589.030;  454.581;   55.748
486.278;  579.814;  440.606;   55.934
486.867;  476.045;  333.306;   57.106
487.455;  534.364;  388.156;   56.979
488.043;  447.658;  294.606;   57.564
488.631;  592.287;  434.606;   57.432
489.220;  542.215;  375.931;   63.646
489.808;  446.211;  280.831;   65.449
490.396;  557.299;  376.381;   61.977
490.984;  498.400;  312.181;   68.834
491.572;  569.972;  372.756;   70.775
492.160;  554.808;  353.331;   67.564
492.748;  535.539;  321.856;   66.808
493.336;  618.464;  385.406;   79.747
493.924;  578.444;  328.880;   88.688
494.512;  645.940;  377.506;   84.120
495.100;  668.817;  368.731;   86.250
495.687;  728.159;  385.755;  103.074
496.275;  699.193;  306.906;  108.717
496.863;  777.052;  320.381;  107.035
497.451;  861.734;  318.181;  117.993
498.038;  990.309;  337.580;  120.116
498.626; 1076.872;  323.705;  143.059
499.214; 1228.039;  350.431;  153.434
499.801; 1389.104;  340.156;  175.121
500.389; 1514.590;  273.880;  185.617
500.976; 1805.389;  353.806;  215.789
501.564; 2084.089;  344.506;  240.321
502.151; 2212.736;  238.081;  267.007
502.738; 2493.830;  318.731;  317.961
503.326; 2867.674;  325.180;  361.216
503.913; 3287.754;  343.006;  401.433
504.500; 3720.354;  355.181;  446.492
505.088; 4101.439;  301.106;  512.063
505.675; 4704.801;  330.580;  586.387
506.262; 5300.078;  325.506;  671.021
506.849; 5944.144;  335.756;  759.062
507.436; 6692.015;  380.255;  849.788
508.023; 7273.432;  334.181;  944.288
508.610; 7827.491;  374.231; 1020.690
509.197; 8508.240;  357.257; 1089.052
509.784; 9308.557;  331.206; 1133.776
510.371;10147.079;  273.280; 1165.501
510.958;11221.855;  344.181; 1251.735
511.545;11357.627;  392.581; 1350.248
512.132;11510.988;  338.105; 1525.945
512.719;12150.029;  294.131; 1834.933
513.305;13235.169;  302.831; 1965.349
513.892;14543.426;  390.881; 1963.265
514.479;15618.640;  344.106; 2046.446
515.066;16766.908;  381.056; 2252.803
515.652;17839.178;  342.181; 2567.247
516.239;18931.361;  367.031; 2636.919
516.825;19278.336;  280.781; 2482.304
517.412;19434.203;  440.656; 2427.031
517.998;19085.980;  326.831; 2540.463
518.585;18930.586;  321.031; 2609.007
519.171;19967.869;  344.230; 2842.088
519.758;22117.031;  289.856; 3090.703
520.344;23778.355;  375.481; 3176.076
520.930;24180.799;  299.831; 3295.037
521.516;25036.887;  355.580; 3500.959
522.103;24928.650;  395.056; 3736.704
522.689;25725.959;  322.431; 3971.022
523.275;26889.352;  381.706; 4213.778
523.861;26924.283;  331.131; 4190.361
524.447;26840.945;  380.380; 4070.602
525.033;27584.846;  381.681; 4088.892
525.619;27341.613;  303.906; 4416.851
526.205;28195.020;  288.856; 4836.835
526.791;29933.576;  321.731; 4885.903
527.377;30636.307;  315.431; 4544.907
527.963;31023.074;  343.282; 4321.995
528.549;30174.396;  352.506; 4473.979
529.135;28954.125;  304.081; 4788.663
529.721;27916.447;  338.481; 4888.577
530.306;28622.920;  466.581; 4775.779
530.892;30008.166;  318.656; 4793.906
531.478;30997.598;  312.706; 4956.948
532.063;32608.869;  298.081; 5136.936
532.649;34191.379;  423.182; 5336.867
533.235;35875.113;  301.356; 5748.092
533.820;37316.613;  387.506; 6456.875
534.406;37152.844;  323.132; 6590.167
534.991;36495.898;  297.731; 6179.622
535.576;35569.738;  323.756; 6098.691
536.162;35527.895;  473.231; 6441.234
536.747;36197.953;  284.632; 6816.224
537.333;37470.063;  300.207; 6889.752
537.918;36929.453;  334.732; 7154.280
538.503;37646.082;  313.831; 7150.848
539.088;37965.668;  347.831; 7253.308
539.673;37349.063;  326.957; 7625.180
540.259;36243.098;  310.081; 8226.793
540.844;37531.172;  268.181; 8745.092
541.429;37626.902;  415.182; 8762.553
542.014;37378.492;  283.257; 8871.497
542.599;38689.914;  349.206; 8886.008
543.184;40675.555;  292.582; 9079.139
543.769;40397.648;  299.932; 9076.182
544.354;39368.633;  316.832; 8354.081
544.938;37450.297;  346.957; 8236.809
545.523;35979.578;  408.931; 8222.179
546.108;37116.895;  333.957; 8114.082
546.693;37595.969;  329.582; 8535.912
547.278;37130.121;  329.756; 9238.322
547.862;35928.133;  335.231; 9034.405
548.447;35058.633;  375.007; 7795.011
549.031;34938.125;  323.407; 7485.099
549.616;35387.879;  345.556; 7626.308
550.201;35985.113;  317.957; 7627.909
550.785;37455.016;  360.657; 7859.125
551.370;39179.570;  285.157; 7990.654
551.954;39934.660;  376.732; 8196.468
552.538;40526.320;  363.782; 7959.495
553.123;39882.141;  305.957; 7964.826
553.707;38604.059;  321.858; 8515.957
554.291;37705.676;  389.882; 8724.024
554.876;37609.102;  368.932; 8524.211
555.460;37227.672;  314.232; 8704.456
556.044;37593.266;  312.058; 9141.473
556.628;36936.750;  331.082; 9250.197
557.212;36309.973;  381.732; 9444.237
557.796;35156.184;  322.682; 9379.783
558.380;36832.691;  349.858; 9353.658
558.964;36746.527;  337.832; 9210.310
559.548;35568.746;  285.732; 8475.153
560.132;35491.234;  317.732; 7954.084
560.716;35963.566;  287.633; 7489.529
561.300;37723.559;  293.532; 7211.952
561.884;38698.609;  356.157; 7141.313
562.467;37490.020;  357.083; 7155.386
563.051;37257.277;  332.158; 7323.158
563.635;37566.766;  321.708; 7709.114
564.219;37148.934;  329.757; 7678.855
564.802;36605.637;  354.833; 7376.187
565.386;35671.223;  337.983; 7054.372
565.969;35020.461;  393.007; 6589.196
566.553;34184.742;  431.132; 6279.371
567.136;33714.621;  387.258; 5967.930
567.720;34096.715;  333.033; 5660.703
568.303;34017.504;  350.983; 5648.615
568.887;34702.359;  336.083; 5618.443
569.470;34467.867;  347.808; 5411.875
570.053;34453.613;  362.008; 5149.274
570.637;34921.504;  311.582; 5122.798
571.220;35140.012;  370.182; 4957.369
571.803;34393.898;  431.408; 4933.018
572.386;34416.520;  321.158; 4840.973
572.969;35124.465;  324.383; 4592.886
573.552;36011.402;  327.358; 4348.387
574.135;33291.395;  301.458; 4002.290
574.718;28376.258;  306.533; 3654.773
575.301;27934.057;  305.583; 3502.288
575.884;27491.854;  304.633; 3349.803
576.467;28874.590;  382.608; 3191.403
577.050;30038.467;  344.783; 3062.418
577.633;31163.633;  419.133; 3214.200
578.216;31957.717;  323.983; 3284.889
578.799;31712.365;  325.158; 3189.777
579.381;31995.355;  437.358; 3064.502
579.964;32224.133;  306.433; 2888.357
580.547;32508.141;  343.283; 2905.760
581.129;33267.684;  402.609; 2966.849
581.712;35211.566;  353.784; 2887.292
582.294;35646.785;  340.783; 2771.631
582.877;35516.672;  440.133; 2711.602
583.459;35025.770;  337.109; 2577.049
584.042;33408.137;  331.484; 2454.707
584.624;32291.787;  309.609; 2305.893
585.206;31289.418;  266.683; 2189.546
585.789;29691.076;  312.459; 2112.577
586.371;28110.135;  356.459; 2153.065
586.953;28291.736;  368.459; 2197.806
587.536;29671.766;  400.958; 2105.489
588.118;30146.365;  328.560; 1963.911
588.700;30927.998;  402.784; 1843.179
589.282;30807.531;  356.533; 1813.834
589.864;30369.709;  339.384; 1777.620
590.446;30544.865;  270.159; 1733.780
591.028;31144.195;  335.084; 1676.008
591.610;32062.238;  269.934; 1631.649
592.192;31460.539;  343.883; 1632.362
592.774;29587.420;  296.959; 1569.507
593.356;27936.900;  308.434; 1524.539
593.937;27841.883;  305.209; 1569.720
594.519;28647.068;  385.159; 1569.049
595.101;29893.031;  280.159; 1545.452
595.683;29926.072;  312.384; 1607.568
596.264;30225.357;  329.084; 1615.506
596.846;30145.672;  316.159; 1667.622
597.427;30645.742;  311.585; 1670.469
598.009;32087.111;  306.135; 1640.312
598.591;30796.383;  368.334; 1541.022
599.172;30005.771;  329.159; 1598.665
599.753;30478.021;  287.835; 1619.068
600.335;29146.447;  399.860; 1548.612
600.916;27355.121;  330.059; 1607.510
601.498;28396.758;  352.434; 1745.181
602.079;29665.346;  332.735; 1801.011
602.660;29730.652;  331.085; 1834.640
603.241;29282.684;  266.484; 1787.351
603.823;29437.859;  312.009; 1684.266
604.404;29051.797;  294.460; 1654.241
604.985;29259.500;  311.435; 1758.741
605.566;28389.494;  373.284; 1697.679
606.147;27967.879;  326.810; 1526.728
606.728;29278.584;  287.885; 1484.086
607.309;29810.629;  312.260; 1421.070
607.890;29390.930;  320.084; 1369.867
608.471;29183.711;  305.985; 1277.826
609.051;28656.816;  345.735; 1180.416
609.632;29374.664;  298.910; 1075.816
610.213;30193.496;  327.260; 1053.313
610.794;29339.082;  319.860;  979.442
611.374;28787.578;  353.585;  917.414
611.955;27997.957;  279.385;  819.987
612.536;28064.227;  350.760;  752.627
613.116;28980.373;  314.485;  690.799
613.697;29666.053;  306.310;  674.974
614.277;29301.535;  296.261;  663.846
614.858;27310.227;  315.435;  665.898
615.438;25854.561;  331.435;  660.712
616.019;25571.965;  396.911;  632.732
616.599;25615.854;  257.935;  551.759
617.179;26628.100;  288.785;  512.871
617.760;27217.629;  453.610;  473.655
618.340;26770.619;  327.786;  440.004
618.920;28012.959;  411.910;  429.731
619.500;27792.566;  317.361;  441.361
620.080;27958.090;  299.235;  425.202
620.660;28086.096;  298.436;  408.164
621.241;28048.600;  315.461;  387.161
621.821;28759.570;  335.836;  378.017
622.401;27922.760;  382.235;  379.188
622.980;27349.592;  283.836;  350.019
623.560;26535.303;  316.836;  336.446
624.140;24210.182;  340.235;  336.473
624.720;23100.361;  346.736;  334.974
625.300;22508.053;  297.610;  325.717
625.880;23825.729;  329.611;  308.519
626.459;26155.326;  329.936;  307.117
627.039;28448.031;  273.711;  290.890
627.619;31106.414;  432.161;  286.635
628.198;30841.328;  382.786;  282.535
628.778;28108.811;  359.011;  285.474
629.357;26459.189;  289.461;  284.103
629.937;26434.455;  314.761;  292.178
630.516;27953.967;  404.261;  290.749
631.096;28834.473;  305.311;  285.489
631.675;29593.453;  395.186;  287.022
632.254;29776.596;  305.012;  286.038
632.834;28841.578;  326.362;  276.451
633.413;27227.496;  400.736;  279.447
633.992;26685.707;  375.962;  264.508
634.571;26745.287;  361.012;  271.010
635.151;26802.574;  293.462;  277.338
635.730;26749.895;  321.436;  289.305
636.309;25488.107;  358.911;  285.306
636.888;24372.742;  354.262;  254.051
637.467;23921.619;  269.612;  230.324
638.046;24583.395;  400.486;  253.349
638.625;26616.033;  386.537;  246.866
639.204;26958.758;  345.112;  240.825
639.782;26237.492;  333.362;  261.970
640.361;25467.268;  391.961;  277.780
640.940;24206.432;  308.461;  270.101
641.519;24135.895;  360.011;  248.622
642.097;23945.008;  353.961;  239.843
642.676;24241.922;  338.986;  244.264
643.255;26016.260;  319.311;  234.985
643.833;28084.449;  360.561;  244.406
644.412;28243.688;  314.386;  244.927
644.990;26245.926;  338.211;  249.948
645.569;26101.889;  355.861;  249.569
646.147;26010.803;  372.611;  243.290
646.726;26949.291;  335.211;  249.511
647.304;27753.104;  321.061;  228.032
647.882;27365.768;  270.686;  214.552
648.461;26308.531;  342.686;  214.973
649.039;25001.045;  366.261;  223.394
649.617;23969.033;  357.161;  261.415
650.195;23687.371;  346.036;  298.736
650.773;24674.936;  314.336;  309.557
651.352;24425.523;  258.236;  297.978
651.930;22349.512;  257.711;  289.399
652.508;22424.201;  366.686;  285.620
653.086;22797.164;  350.436;  272.241
653.663;23893.754;  306.061;  265.062
654.241;25548.242;  282.711;  286.083
654.819;26470.506;  288.861;  286.404
655.397;26698.645;  297.536;  291.825
655.975;26820.008;  319.561;  299.145
656.553;26783.271;  400.861;  288.866
657.130;27463.184;  294.961;  304.087
657.708;26892.473;  344.761;  302.908
658.286;26163.736;  337.811;  294.629
658.863;25785.150;  338.536;  293.350
659.441;26001.338;  343.611;  318.671
660.018;26065.477;  327.111;  333.692
660.596;25783.865;  265.536;  335.013
661.173;25855.828;  309.686;  371.534
661.750;25712.117;  294.510;  365.155
662.328;25721.131;  357.635;  349.976
662.905;24907.844;  312.110;  332.997
663.482;23667.082;  325.085;  321.717
664.060;23202.172;  303.885;  314.438
664.637;24048.859;  362.985;  306.259
665.214;25091.273;  343.760;  314.580
665.791;25530.088;  318.410;  334.501
666.368;25691.326;  312.610;  329.222
666.945;25304.514;  360.485;  342.143
667.522;24750.803;  298.035;  370.964
668.099;24211.891;  321.685;  396.885
668.676;24746.754;  327.960;  391.706
669.253;25529.242;  403.010;  369.627
669.830;26006.957;  384.935;  360.348
670.407;25933.770;  321.710;  344.769
670.984;25816.059;  324.710;  322.890
671.560;25032.498;  366.585;  316.910
672.137;23986.736;  316.510;  322.531
672.714;23331.250;  348.160;  318.552
673.290;23438.613;  339.310;  324.473
673.867;23387.877;  305.735;  340.594
674.443;23004.664;  280.660;  319.515
675.020;23266.928;  334.360;  286.336
675.596;24783.217;  325.335;  247.557
676.173;25364.805;  284.685;  227.778
676.749;25797.119;  241.110;  224.399
677.326;25267.883;  276.485;  230.520
677.902;24564.746;  299.535;  241.841
678.478;24854.859;  287.935;  239.762
679.054;24462.648;  496.185;  248.583
679.631;24248.861;  350.035;  237.503
680.207;24810.025;  420.585;  245.924
680.783;24404.914;  257.685;  224.845
681.359;24300.576;  328.635;  209.666
681.935;24162.916;  333.235;  191.687
682.511;24239.430;  334.310;  210.008
683.087;24267.367;  353.460;  213.329
683.663;24576.256;  316.860;  216.850
684.239;24141.119;  282.010;  229.471
684.815;24125.934;  371.410;  248.792
685.390;24316.496;  420.910;  231.813
685.966;24369.609;  330.384;  221.234
686.542;24349.123;  293.884;  214.255
687.118;23603.188;  337.609;  212.276
687.693;23159.176;  354.159;  233.096
688.269;23431.840;  319.759;  246.917
688.844;22997.027;  348.934;  236.938
689.420;22621.816;  332.309;  242.059
689.995;23046.480;  412.309;  245.480
690.571;23007.143;  387.209;  244.701
691.146;22752.832;  318.634;  251.922
691.722;23867.045;  346.309;  284.743
692.297;24445.533;  309.209;  320.664
692.872;24278.223;  292.359;  313.885
693.448;23756.461;  286.509;  290.106
694.023;23436.898;  338.409;  304.327
694.598;23875.113;  330.909;  319.648
695.173;24631.977;  309.734;  323.169
695.748;24719.289;  262.034;  376.389
696.323;24292.629;  322.634;  397.610
696.898;24628.668;  380.859;  430.231
697.473;24861.031;  270.409;  454.952
698.048;23839.693;  315.859;  478.973
698.623;23726.082;  275.434;  477.094
699.198;24086.672;  332.634;  496.915
699.773;24785.359;  296.709;  490.236
700.348;25709.424;  286.534;  519.957
700.922;25366.961;  335.884;  575.678
701.497;25024.225;  329.484;  621.399
702.072;24864.414;  368.459;  664.420
702.646;25250.502;  358.209;  690.541
703.221;24747.766;  345.334;  748.862
703.795;23446.305;  292.784;  774.282
704.370;23032.842;  240.209;  799.803
704.944;23448.906;  308.359;  875.824
705.519;23994.494;  341.384;  902.945
706.093;24361.107;  295.009;  889.266
706.668;23955.746;  352.859;  903.487
707.242;23755.811;  362.059;  881.708
707.816;23144.174;  319.884;  892.329
708.390;23409.938;  325.334;  970.250
708.965;23468.951;  337.084;  984.671
709.539;22651.764;  317.284; 1026.092
710.113;22009.703;  331.783; 1067.913
710.687;22795.617;  359.383; 1166.434
711.261;23671.105;  281.883; 1190.854
711.835;23969.518;  289.733; 1197.275
712.409;24327.531;  268.058; 1308.096
712.983;25073.996;  265.958; 1461.617
713.557;24573.385;  264.508; 1611.838
714.131;24784.348;  313.533; 1554.359
714.704;24621.711;  298.083; 1520.780
715.278;23834.949;  328.983; 1575.101
715.852;23320.789;  353.558; 1689.822
716.425;24273.777;  415.733; 1829.143
716.999;24437.215;  263.658; 2008.664
717.573;24057.953;  348.733; 2000.485
718.146;25130.242;  407.658; 1914.506
718.720;25395.307;  336.808; 1818.026
719.293;24880.619;  347.408; 1734.147
719.867;24494.434;  302.283; 1716.968
720.440;25272.521;  390.233; 1918.589
721.013;26174.834;  307.233; 1975.410
721.587;26037.873;  270.283; 2073.331
722.160;25732.461;  369.008; 2357.852
722.733;25755.525;  340.358; 2657.073
723.306;26328.613;  324.358; 2703.894
723.880;27062.277;  337.958; 2549.415
724.453;27369.240;  381.208; 2414.336
725.026;27452.430;  305.433; 2298.557
725.599;26978.693;  334.183; 2168.778
726.172;26551.105;  349.033; 2106.099
726.745;27553.195;  346.783; 2253.320
727.318;26848.584;  364.533; 2404.740
727.891;26516.371;  335.333; 2680.161
728.463;26525.135;  334.933; 2838.882
729.036;25605.350;  296.258; 2755.103
729.609;24561.887;  294.583; 2731.824
730.182;23940.426;  360.033; 2855.645
730.754;24949.014;  246.233; 2946.866
731.327;25672.678;  351.758; 2840.187
731.900;24687.992;  271.533; 2647.608
732.472;24270.756;  323.433; 2473.929
733.045;23820.668;  313.083; 2445.750
733.617;23589.656;  262.832; 2511.771
734.190;23096.420;  346.907; 2581.592
734.762;23976.510;  316.282; 2710.813
735.334;24826.447;  329.782; 3005.733
735.907;24033.236;  333.132; 3154.954
736.479;23271.199;  370.857; 3171.675
737.051;23885.789;  347.357; 3217.496
737.623;25954.727;  357.882; 3246.217
738.195;26327.666;  299.482; 2985.238
738.768;25503.654;  252.782; 2727.559
739.340;24962.293;  304.857; 2666.880
739.912;24374.455;  357.657; 2769.601
740.484;23129.219;  350.757; 2731.422
741.056;23468.033;  312.057; 2963.043
741.628;25684.996;  289.782; 3361.364
742.199;27039.285;  383.907; 3641.185
742.771;26308.598;  280.457; 3932.005
743.343;26108.611;  292.832; 4319.926
743.915;26040.525;  344.282; 4706.647
744.487;25727.889;  347.457; 4874.968
745.058;25229.303;  353.457; 4616.589
745.630;25218.041;  348.382; 4253.410
746.201;25127.705;  304.807; 4056.131
746.773;24846.094;  349.032; 3772.952
747.344;24378.807;  322.357; 3642.473
747.916;24858.395;  333.257; 3752.294
748.487;24721.609;  359.432; 4106.215
749.059;23531.322;  284.982; 4457.835
749.630;23327.711;  297.432; 4366.457
750.201;23766.600;  320.057; 4600.078
750.773;23969.363;  303.332; 4658.499
751.344;23846.801;  327.382; 4609.319
751.915;23309.689;  322.882; 4526.440
752.486;23719.652;  293.582; 4536.061
753.057;23168.217;  329.332; 4383.282
753.628;22513.430;  295.257; 4296.503
754.199;21795.770;  310.882; 4383.224
754.770;21286.283;  353.057; 4653.545
755.341;20832.021;  360.857; 4831.666
755.912;20611.660;  319.107; 4831.387
756.483;21178.273;  345.682; 4735.808
757.054;21697.912;  311.757; 4685.029
757.625;21523.000;  283.281; 4994.250
758.195;20960.264;  271.456; 5051.471
758.766;21093.201;  334.106; 5317.792
759.337;21084.416;  271.731; 5646.512
759.907;21270.529;  273.281; 5404.133
760.478;21377.742;  301.906; 5090.954
761.048;21314.207;  350.156; 4871.175
761.619;21289.645;  343.981; 4589.396
762.189;21368.184;  323.481; 4171.317
762.760;20754.596;  353.681; 3872.538
763.330;20813.836;  348.956; 3832.259
763.900;21482.574;  336.956; 4150.180
764.471;21249.813;  288.831; 4529.801
765.041;20358.900;  377.656; 4715.922
765.611;20497.014;  345.006; 4681.442
766.181;21534.678;  313.381; 4717.063
766.751;21019.291;  326.356; 4710.285
767.321;20103.330;  281.681; 4450.305
767.891;20434.193;  335.006; 4274.126
768.461;20086.932;  317.181; 4215.047
769.031;19214.920;  319.931; 4173.068
769.601;18651.559;  371.706; 4174.689
770.171;18629.998;  271.681; 4229.310
770.741;19085.686;  308.231; 4352.031
771.311;18910.275;  349.906; 4336.652
771.880;17903.938;  290.606; 4300.873
772.450;18033.627;  293.831; 4387.194
773.020;19222.340;  265.356; 4220.415
773.589;19652.178;  304.181; 4075.835
774.159;19410.143;  303.806; 4105.756
774.729;18932.656;  302.231; 4114.978
775.298;18531.244;  295.981; 3693.298
775.867;18227.182;  299.481; 3343.119
776.437;17417.672;  327.631; 3062.040
777.006;17336.834;  274.856; 2927.161
777.576;17581.523;  344.456; 3046.482
778.145;17472.236;  343.356; 3230.203
778.714;17169.650;  322.006; 3253.324
779.283;16889.113;  348.206; 3129.745
779.853;16843.627;  314.331; 2983.566
780.422;17143.365;  318.631; 2929.887
780.991;16938.629;  342.380; 2863.908
781.560;16299.718;  388.455; 2948.029
782.129;15968.731;  340.005; 3074.149
782.698;16251.819;  380.505; 2893.970
783.267;15973.958;  307.955; 2721.391
783.836;16063.447;  330.805; 2659.712
784.404;16125.261;  279.880; 2622.233
784.973;16026.299;  237.455; 2600.754
785.542;15743.962;  315.855; 2528.475
786.111;15361.026;  374.280; 2404.396
786.679;14785.939;  344.680; 2365.717
787.248;14386.528;  267.330; 2498.438
787.817;14116.566;  303.955; 2645.659
788.385;14547.080;  369.230; 2709.280
788.954;14911.493;  275.655; 2620.500
789.522;15009.957;  355.780; 2625.422
790.090;14705.096;  278.980; 2743.843
790.659;14244.809;  306.080; 2635.163
791.227;13973.447;  311.805; 2495.484
791.795;13955.211;  331.755; 2413.705
792.364;13927.649;  290.980; 2345.326
792.932;13751.713;  340.980; 2350.447
793.500;13423.651;  316.380; 2429.768
794.068;13326.516;  268.080; 2513.589
794.636;13498.329;  295.280; 2664.310
795.204;13259.893;  262.980; 2721.431
795.772;12614.331;  290.305; 2802.052
796.340;12129.244;  299.005; 2847.173
796.908;12395.357;  261.530; 2997.194
797.476;12509.696;  284.905; 3151.615
798.044;12385.060;  253.155; 3110.735
798.612;12188.948;  314.105; 2931.656
799.180;12215.412;  325.680; 2785.777
799.747;12167.176;  319.580; 2899.098
800.315;12157.539;  274.780; 2955.519
800.883;12175.478;  252.155; 2948.940
801.450;12089.091;  315.580; 2965.361
802.018;11923.154;  334.130; 3070.582
802.585;11356.618;  322.055; 3156.103
803.153;11174.606;  289.680; 3199.524
803.720;11088.970;  296.830; 3168.845
804.287;11108.684;  306.930; 3248.366
804.855;10945.197;  359.104; 3406.187
805.422;10614.561;  307.929; 3430.907
805.989; 9850.174;  290.679; 3453.528
806.556; 9500.688;  291.654; 3612.649
807.124;10124.776;  357.604; 3736.570
807.691;10292.989;  281.554; 3770.491
808.258;10016.153;  319.179; 3705.012
808.825; 9854.792;  355.079; 3828.733
809.392; 9995.230;  385.954; 3986.754
809.959; 9720.869;  332.604; 4410.075
810.526; 9311.308;  389.054; 4774.996
811.093; 8996.820;  368.679; 4754.217
811.659; 8951.034;  315.429; 4661.238
812.226; 9325.123;  314.129; 4672.559
812.793; 9463.137;  327.529; 4822.979
813.360; 9069.800;  317.729; 5189.800
813.926; 8683.389;  328.854; 5310.622
814.493; 8272.877;  271.154; 5414.542
815.060; 8079.291;  255.704; 5548.963
815.626; 8208.754;  275.854; 5452.284
816.193; 8217.393;  325.404; 5339.305
816.759; 7970.681;  287.029; 5544.426
817.325; 8093.495;  257.729; 5706.547
817.892; 8576.183;  353.004; 5623.468
818.458; 8475.871;  337.154; 5586.689
819.024; 8366.860;  363.754; 5647.910
819.591; 8199.773;  321.029; 5762.031
820.157; 7901.462;  276.979; 6284.452
820.723; 7839.551;  336.229; 6906.973
821.289; 8167.189;  506.079; 7086.894
821.855; 8026.603;  346.254; 7054.915
822.421; 7884.716;  299.279; 7112.035
822.987; 8069.205;  280.329; 7256.156
823.553; 8157.568;  308.029; 7538.077
824.119; 7946.932;  357.979; 7594.298
824.685; 7858.370;  375.329; 7613.619
825.251; 7788.208;  349.804; 7644.140
825.816; 7538.047;  394.904; 7720.261
826.382; 7159.186;  353.229; 8014.282
826.948; 7045.899;  360.979; 8281.503
827.513; 7287.488;  312.229; 8289.624
828.079; 7361.351;  284.654; 8587.045
828.645; 7464.640;  331.953; 8821.865
829.210; 7375.104;  280.028; 9054.486
829.776; 7407.742;  341.478; 9054.607
830.341; 7256.430;  348.903; 9415.628
830.906; 7146.269;  366.128; 9932.449
831.472; 7065.482;  292.928;10150.271
832.037; 7109.296;  358.778; 9420.391
832.602; 6855.984;  297.278; 8664.912
833.167; 6612.273;  322.128; 8491.933
833.733; 6555.336;  355.203; 8872.854
834.298; 6243.000;  283.078; 9370.575
834.863; 6053.664;  335.253; 9610.695
835.428; 5971.552;  332.603; 9655.616
835.993; 6112.541;  346.478; 9437.838
836.558; 6221.579;  350.903; 9441.459
837.123; 6430.167;  435.803; 9600.979
837.688; 6232.581;  333.278; 9798.301
838.253; 6159.895;  336.928; 9902.921
838.817; 6443.583;  311.203;10339.742
839.382; 6723.947;  374.978;10548.363
839.947; 6652.485;  323.128;10252.484
840.511; 6370.699;  393.528;10040.005
841.076; 6010.362;  252.078;10099.926
841.641; 5875.776;  344.703;10347.347
842.205; 5767.939;  337.778;10817.368
842.770; 6162.128;  408.353;11435.289
843.334; 6349.241;  312.103;12072.409
843.898; 6419.355;  310.603;12635.431
844.463; 6475.769;  380.278;12537.252
845.027; 6437.257;  308.503;12759.673
845.591; 6448.120;  363.603;12821.993
846.156; 6239.809;  299.378;12520.914
846.720; 5945.373;  354.153;12390.436
847.284; 5862.536;  330.928;12956.456
847.848; 5964.399;  348.053;13240.177
848.412; 5755.663;  323.753;13216.998
848.976; 5744.876;  386.653;13014.619
849.540; 5784.665;  417.803;12355.740
850.104; 5746.929;  383.053;12208.761
850.668; 5502.942;  254.278;12106.882
851.232; 5461.081;  268.203;11862.103
851.796; 5594.719;  320.853;11700.523
852.359; 5649.783;  357.802;12375.944
852.923; 5617.696;  372.677;13087.966
853.487; 5410.484;  354.002;13297.187
854.050; 5034.398;  221.277;13851.207
854.614; 5082.387;  307.352;14854.229
855.177; 5107.650;  338.277;15802.149
855.741; 4900.139;  345.252;16603.570
856.304; 4642.427;  368.077;16359.891
856.868; 4452.791;  285.127;14365.512
857.431; 4616.004;  327.252;13361.333
857.995; 4787.493;  311.852;14130.554
858.558; 4926.456;  344.802;14883.175
859.121; 4832.520;  356.802;15754.195
859.684; 4645.758;  334.527;15995.017
860.247; 4567.672;  330.327;15149.537
860.810; 4489.311;  315.502;14640.358
861.374; 4597.999;  427.327;15551.079
861.937; 4499.112;  281.702;16519.801
862.500; 4673.851;  308.952;16796.521
863.062; 4663.339;  286.727;16538.742
863.625; 4578.778;  336.352;16716.764
864.188; 4453.792;  303.952;17055.084
864.751; 4542.780;  311.477;17197.705
865.314; 4489.594;  328.227;17151.625
865.876; 4393.582;  367.602;17783.547
866.439; 4199.570;  356.927;19283.467
867.002; 4168.484;  418.077;20256.389
867.564; 4061.748;  382.527;20485.410
868.127; 4003.961;  339.677;20789.730
868.689; 3846.900;  337.727;21981.951
869.252; 3774.088;  379.552;23803.771
869.814; 3677.152;  297.202;24974.094
870.377; 3792.140;  333.127;24690.314
870.939; 3950.379;  475.577;23963.436
871.501; 3774.767;  336.752;25167.156
872.063; 3574.756;  240.777;26995.477
872.626; 3540.544;  266.427;27443.098
873.188; 3578.308;  339.102;26718.418
873.750; 3468.396;  318.952;26558.840
874.312; 3449.085;  307.927;26701.561
874.874; 3614.223;  397.902;27970.582
875.436; 3488.212;  355.951;29173.402
875.998; 3496.125;  389.851;30376.623
876.560; 3444.839;  360.801;32507.344
877.122; 3265.877;  294.651;34833.066
877.683; 3131.541;  350.176;36458.285
878.245; 2988.254;  318.351;37248.207
878.807; 3018.893;  347.801;36758.027
879.369; 2984.031;  283.901;35223.551
879.930; 2967.645;  283.676;33824.969
880.492; 3080.858;  383.151;34436.492
881.053; 3007.922;  294.601;37745.313
881.615; 2920.835;  307.076;41184.633
882.176; 2839.924;  324.176;42871.555
882.738; 2793.413;  358.351;41693.074
883.299; 2628.351;  262.026;40289.895
883.860; 2558.765;  266.201;39231.215
884.422; 2624.053;  356.201;38264.039
884.983; 2509.242;  288.701;37171.859
885.544; 2452.755;  334.101;35842.379
886.105; 2383.744;  327.726;34810.000
886.666; 2345.682;  316.601;34519.020
887.227; 2266.146;  267.851;33905.641
887.788; 2245.384;  338.601;34502.965
888.349; 2046.148;  284.426;34241.785
888.910; 1995.661;  352.301;33722.203
889.471; 1894.150;  338.351;32539.625
890.032; 1848.888;  326.526;31528.346
890.593; 1861.327;  353.451;32655.068
891.153; 1834.515;  318.251;33882.289
891.714; 1750.629;  271.876;33318.711
892.275; 1676.567;  279.076;31848.930
892.835; 1699.231;  366.851;30339.752
893.396; 1645.294;  351.251;30074.973
893.956; 1533.133;  321.201;30338.393
894.517; 1507.646;  334.976;30864.113
895.077; 1487.510;  341.851;29766.734
895.638; 1505.173;  397.501;26379.557
896.198; 1352.287;  284.226;24056.277
896.758; 1379.176;  363.351;22961.898
897.319; 1259.114;  322.426;21772.020
897.879; 1213.353;  327.851;20877.539
898.439; 1128.141;  269.326;19509.461
898.999; 1190.480;  347.950;17297.582
899.559; 1155.818;  342.950;14712.002
900.119; 1060.557;  283.975;12790.224
900.679; 1131.270;  392.525;11586.744
901.239; 1060.809;  353.950;10776.465
901.799;  989.897;  331.000; 9691.687
902.359;  941.261;  294.300; 8725.907
902.919;  907.824;  289.650; 8305.728
903.479;  887.613;  290.550; 8172.649
904.038;  847.426;  279.900; 7913.870
904.598;  775.465;  237.225; 7262.291
905.158;  825.478;  307.100; 6609.012
905.717;  818.667;  319.925; 6236.133
906.277;  811.605;  329.425; 5829.054
906.836;  810.494;  346.525; 5396.674
907.396;  782.982;  345.100; 4964.195
907.955;  768.096;  344.600; 4528.917
908.515;  719.334;  310.200; 4223.837
909.074;  713.298;  311.450; 4023.958
909.633;  695.461;  317.675; 4065.379
910.192;  763.675;  398.125; 4066.300
910.752;  668.925;  311.025; 3971.600
911.311;  657.025;  302.425; 3839.600
911.870;  633.425;  294.400; 3684.500
912.429;  698.175;  367.100; 3635.600
912.988;  679.300;  360.725; 3689.800
913.547;  602.100;  291.250; 3737.700
914.106;  634.500;  328.775; 3740.300
914.665;  623.300;  328.125; 3604.600
915.224;  656.825;  367.300; 3358.700
915.782;  590.625;  303.450; 3188.400
916.341;  658.325;  375.900; 3091.400
916.900;  581.150;  309.825; 3044.800
917.458;  561.225;  290.900; 2888.600
918.017;  597.450;  323.825; 2818.900
918.576;  575.300;  306.850; 2838.600
919.134;  529.475;  270.925; 2880.100
919.693;  565.925;  303.825; 2996.300
920.251;  553.500;  294.975; 3183.100
920.809;  532.250;  280.075; 3247.000
921.368;  554.275;  306.550; 3156.600
921.926;  535.825;  286.775; 2964.900
922.484;  571.800;  321.075; 2846.300
923.042;  559.325;  309.775; 2890.400
923.601;  624.000;  378.950; 2987.700
924.159;  591.325;  343.425; 3049.800
924.717;  534.075;  283.975; 3087.000
925.275;  565.850;  320.000; 3093.400
925.833;  492.200;  253.450; 3182.400
926.391;  585.050;  344.775; 3397.900
926.949;  543.175;  295.650; 3575.400
927.506;  568.750;  326.450; 3713.400
928.064;  552.650;  311.175; 3871.300
928.622;  556.100;  309.725; 4092.800
929.180;  514.800;  275.125; 4499.300
929.737;  511.675;  266.100; 4813.200
930.295;  581.700;  337.375; 5084.100
930.853;  535.525;  283.675; 5185.000
931.410;  518.075;  273.025; 5313.100
931.968;  595.050;  344.250; 5339.600
932.525;  578.475;  327.375; 5399.900
933.082;  511.700;  265.950; 5457.500
933.640;  583.375;  328.025; 5692.900
934.197;  558.800;  309.200; 5821.200
934.754;  556.775;  305.600; 5617.900
935.312;  541.175;  289.325; 5512.400
935.869;  626.950;  374.375; 5582.400
936.426;  547.650;  289.250; 5650.100
936.983;  558.725;  298.200; 5657.400
937.540;  527.675;  269.650; 5564.300
938.097;  593.300;  327.175; 5574.000
938.654;  566.400;  301.500; 5665.900
939.211;  595.000;  331.500; 5931.600
939.768;  579.675;  310.250; 6153.600
940.324;  569.275;  298.750; 6397.600
940.881;  554.000;  285.525; 6454.200
941.438;  632.875;  365.925; 6206.900
941.995;  635.200;  349.275; 6003.900
942.551;  561.925;  272.650; 6228.300
943.108;  594.150;  313.650; 6603.500
943.664;  560.325;  277.825; 7188.100
944.221;  686.175;  401.575; 7579.900
944.777;  559.475;  269.500; 7658.100
945.334;  565.250;  282.525; 7670.400
945.890;  600.350;  317.025; 7525.100
946.446;  602.250;  313.075; 7261.500
947.003;  619.400;  323.250; 6949.200
947.559;  670.875;  383.950; 6773.100
948.115;  645.425;  358.575; 6668.400
948.671;  614.300;  322.300; 6488.400
949.227;  551.075;  259.975; 6236.600
949.783;  542.000;  255.075; 6008.900
950.339;  615.925;  331.025; 5934.100
950.895;  635.800;  351.200; 5933.500
951.451;  579.750;  295.350; 6074.700
952.007;  623.700;  338.975; 6066.400
952.563;  591.150;  298.450; 5884.100
953.118;  580.475;  287.425; 5733.800
953.674;  602.475;  306.625; 5734.300
954.230;  609.000;  314.075; 6039.700
954.785;  600.450;  312.725; 6383.500
955.341;  634.250;  351.075; 6568.200
955.897;  543.300;  254.200; 6488.600
956.452;  604.775;  328.625; 6239.200
957.008;  681.300;  404.550; 5954.600
957.563;  645.250;  367.550; 5816.700
958.118;  560.350;  282.450; 5828.200
958.674;  594.850;  322.825; 5717.400
959.229;  639.825;  367.175; 5506.800
959.784;  542.200;  267.275; 5292.200
960.339;  640.850;  364.800; 5101.900
960.894;  612.725;  341.450; 5093.200
961.449;  552.775;  280.925; 5227.900
962.004;  752.850;  490.500; 5349.300
962.559;  552.350;  284.775; 5514.900
963.114;  479.750;  222.725; 5717.300
963.669;  578.625;  317.925; 5841.400
964.224;  561.000;  299.750; 5805.900
964.779;  544.425;  267.100; 5723.400
965.334;  651.850;  380.675; 5779.500
965.888;  557.800;  292.650; 5948.500
966.443;  607.475;  350.425; 6344.200
966.998;  514.650;  257.300; 6666.300
967.552;  570.050;  312.450; 6710.100
968.107;  547.875;  293.775; 6593.500
968.661;  572.350;  326.450; 6344.100
969.216;  532.575;  284.875; 6062.400
969.770;  571.725;  322.850; 5785.500
970.324;  573.200;  329.125; 5426.800
970.879;  586.075;  344.225; 5016.800
971.433;  590.250;  343.925; 4904.500
971.987;  559.825;  314.875; 4991.000
972.541;  569.425;  331.825; 4978.500
973.095;  627.025;  388.575; 4832.000
973.649;  506.250;  265.950; 4767.900
974.203;  519.175;  281.000; 4881.200
974.757;  530.750;  301.075; 4969.500
975.311;  546.350;  310.600; 4953.000
975.865;  555.500;  311.625; 4884.300
976.419;  533.675;  300.375; 4739.800
976.973;  524.300;  297.375; 4698.100
977.526;  588.100;  357.650; 4631.100
978.080;  495.375;  267.000; 4621.600
978.634;  561.675;  342.325; 4650.200
979.187;  554.675;  335.325; 4669.200
979.741;  621.875;  401.000; 4658.000
980.294;  487.275;  272.800; 4579.100
980.848;  444.525;  232.750; 4452.800
981.401;  499.900;  297.025; 4271.900
981.955;  525.925;  316.275; 4087.800
982.508;  467.075;  256.725; 3973.900
983.061;  572.325;  358.500; 3928.600
983.615;  495.550;  283.725; 3851.200
984.168;  471.750;  269.550; 3734.800
984.721;  537.975;  334.400; 3628.300
985.274;  528.900;  326.400; 3564.300
985.827;  506.950;  308.675; 3558.100
986.380;  443.875;  247.075; 3559.900
986.933;  526.900;  332.400; 3688.700
987.486;  519.875;  328.700; 3778.500
988.039;  521.350;  335.625; 3559.900
988.591;  539.750;  355.000; 3219.300
989.144;  451.525;  263.175; 2902.900
989.697;  462.925;  282.775; 2722.600
990.250;  519.275;  343.775; 2618.000
990.802;  456.850;  284.350; 2523.900
991.355;  589.800;  416.225; 2436.500
991.907;  524.688;  353.175; 2412.200
992.460;  459.575;  290.125; 2387.900
993.012;  458.675;  292.925; 2365.800
993.565;  429.300;  269.025; 2311.100
994.117;  568.825;  415.075; 2308.700
994.669;  423.575;  272.775; 2249.300
995.221;  477.100;  325.775; 2158.100
995.774;  476.750;  323.950; 2085.600
996.326;  447.300;  302.975; 2068.100
996.878;  502.725;  364.650; 1975.300
997.430;  424.075;  280.975; 1929.500
997.982;  449.125;  314.375; 1861.900
998.534;  448.525;  312.325; 1830.200
999.086;  444.125;  309.400; 1823.200
999.638;  399.050;  264.475; 1815.000
1000.190;  421.300;  289.550; 1796.600
1000.741;  442.575;  315.700; 1738.800
1001.293;  405.275;  285.475; 1666.200
1001.845;  411.400;  282.400; 1566.500
1002.396;  449.450;  323.025; 1471.900
1002.948;  443.900;  319.025; 1398.000
1003.500;  427.800;  311.450; 1356.500
1004.051;  541.425;  427.075; 1294.200
1004.603;  470.500;  355.975; 1190.000
1005.154;  358.950;  256.550; 1063.900
1005.705;  424.100;  327.275;  968.300
1006.257;  417.775;  321.050;  889.800
1006.808;  409.075;  307.300;  801.500
1007.359;  457.375;  357.950;  716.400
1007.910;  381.450;  292.775;  639.100
1008.461;  436.400;  340.400;  561.600
1009.013;  347.350;  260.275;  500.400
1009.564;  469.250;  379.075;  476.100
1010.115;  350.300;  266.650;  431.600
1010.665;  356.475;  276.375;  409.300
1011.216;  397.525;  307.725;  399.700
1011.767;  410.500;  322.300;  388.100
1012.318;  433.100;  346.275;  381.400
1012.869;  400.375;  312.400;  375.400
1013.419;  350.750;  272.200;  357.600
1013.970;  395.175;  308.450;  358.300
1014.521;  358.150;  282.075;  344.100
1015.071;  397.300;  311.900;  322.800
1015.622;  370.225;  293.350;  320.600
1016.172;  351.950;  275.300;  301.700
1016.723;  355.475;  282.900;  289.800
1017.273;  355.025;  277.850;  287.600
1017.823;  379.800;  300.200;  278.700
1018.374;  363.250;  284.275;  274.400
1018.924;  415.550;  341.950;  283.200
1019.474;  417.800;  342.125;  278.500
1020.024;  387.700;  308.475;  274.700
1020.574;  424.400;  347.200;  272.700
1021.124;  392.550;  320.825;  278.400
1021.674;  328.675;  254.500;  269.200
1022.224;  415.025;  338.750;  267.800
1022.774;  390.750;  316.850;  258.100
1023.324;  440.400;  367.150;  260.000
1023.874;  515.575;  441.500;  260.700
1024.423;  358.300;  279.150;  252.700
1024.973;  357.925;  281.275;  234.700
1025.523;  361.325;  289.800;  226.500
1026.072;  350.750;  285.275;  225.500
1026.622;  392.450;  318.725;  210.100
1027.172;  414.975;  346.700;  213.000
1027.721;  346.025;  280.500;  207.700
1028.270;  387.025;  319.175;  205.400
1028.820;  375.950;  302.250;  201.000
1029.369;  359.275;  286.450;  201.000
1029.918;  377.375;  305.700;  198.400
1030.468;  328.900;  259.425;  199.200
1031.017;  368.050;  300.400;  192.600
1031.566;  357.225;  289.275;  197.400
1032.115;  406.575;  337.900;  188.300
1032.664;  347.875;  279.900;  193.700
1033.213;  423.525;  362.050;  191.900
1033.762;  369.850;  302.625;  184.500
1034.311;  392.000;  326.850;  194.300
1034.860;  402.525;  336.175;  192.300
1035.408;  421.750;  355.150;  182.600
1035.957;  416.225;  352.700;  173.900
1036.506;  306.875;  245.850;  185.200
1037.055;  491.200;  423.375;  182.500
1037.603;  383.275;  320.150;  167.600
1038.152;  312.525;  250.525;  168.200
1038.700;  333.650;  274.950;  169.600
1039.249;  394.975;  332.200;  164.300
1039.797;  364.950;  305.675;  169.600
1040.345;  409.450;  345.400;  167.100
1040.894;  362.900;  301.950;  164.400
1041.442;  366.725;  304.750;  158.300
1041.990;  328.825;  259.475;  160.000
1042.538;  307.325;  249.225;  156.800
1043.087;  327.900;  270.350;  146.600
1043.635;  392.225;  327.075;  162.400
1044.183;  340.550;  279.725;  156.300
1044.731;  334.950;  269.300;  158.100
1045.279;  387.125;  328.825;  154.500
1045.827;  520.650;  462.875;  146.200
1046.374;  294.850;  240.950;  154.000
1046.922;  345.475;  281.025;  149.000
1047.470;  398.725;  341.475;  154.900
1048.018;  375.350;  315.450;  148.400
1048.565;  415.175;  353.925;  146.300
1049.113;  320.425;  260.775;  156.100
1049.660;  356.875;  302.650;  154.300
1050.208;  387.075;  324.875;  149.400
1050.755;  350.175;  293.275;  157.500
1051.303;  401.525;  336.200;  157.700
1051.850;  369.350;  310.850;  152.800
1052.397;  274.575;  222.000;  146.300
1052.945;  357.100;  296.750;  149.500
1053.492;  433.500;  369.875;  149.300
1054.039;  417.500;  360.975;  163.100
1054.586;  321.800;  262.725;  150.400
1055.133;  404.050;  338.550;  153.500
1055.680;  374.575;  315.200;  155.600
1056.227;  312.100;  253.400;  148.700
1056.774;  462.125;  404.600;  151.500
1057.321;  298.125;  244.250;  143.700
1057.868;  373.825;  313.950;  145.300
1058.415;  372.675;  324.800;  153.500
1058.961;  393.925;  330.150;  149.900
1059.508;  370.450;  315.850;  147.300
1060.055;  336.925;  281.250;  151.000
1060.601;  363.025;  303.950;  148.700
1061.148;  354.775;  301.600;  153.800
1061.694;  342.500;  287.700;  150.500
1062.241;  342.925;  287.650;  149.100
1062.787;  385.325;  328.450;  153.000
1063.334;  470.875;  410.750;  153.200
1063.880;  381.600;  329.225;  148.400
1064.426;  415.125;  352.025;  149.200
1064.972;  340.800;  292.350;  156.400
1065.518;  326.025;  271.775;  144.700
1066.065;  362.500;  308.625;  139.400
1066.611;  342.775;  293.475;  139.300
1067.157;  367.675;  319.775;  138.400
1067.703;  383.300;  337.575;  142.700
1068.249;  348.425;  296.225;  136.700
1068.794;  359.100;  305.000;  139.400
1069.340;  331.425;  280.900;  142.700
1069.886;  344.900;  290.950;  135.600
1070.432;  307.325;  253.750;  133.400
1070.977;  346.975;  291.550;  138.200
1071.523;  321.550;  279.700;  132.400
1072.068;  331.025;  284.200;  132.700
1072.614;  300.275;  251.100;  127.000
1073.160;  396.600;  348.150;  131.300
1073.705;  328.950;  283.500;  135.700
1074.250;  320.125;  269.250;  133.000
1074.796;  376.225;  324.700;  138.000
1075.341;  384.150;  336.700;  137.300
1075.886;  340.450;  289.575;  134.300
1076.431;  378.025;  329.275;  138.200
1076.976;  372.500;  318.550;  132.200
1077.521;  335.900;  283.600;  138.900
1078.067;  330.850;  282.450;  128.600
1078.612;  385.300;  332.075;  138.900
1079.156;  345.475;  295.750;  128.900
1079.701;  394.875;  343.350;  129.700
1080.246;  398.875;  347.850;  128.600
1080.791;  360.200;  314.325;  122.600
1081.336;  378.500;  326.775;  122.000
1081.880;  374.100;  325.175;  123.900
1082.425;  327.750;  278.750;  120.600
1082.970;  409.525;  366.800;  124.500
1083.514;  346.675;  294.050;  112.000
1084.059;  337.725;  286.600;  120.700
1084.603;  323.475;  274.100;  116.000
1085.147;  371.425;  324.250;  116.300
1085.692;  412.150;  361.250;  108.200
1086.236;  285.975;  241.150;  114.600
1086.780;  431.700;  384.150;  118.900
1087.325;  376.225;  325.450;  120.400
1087.869;  353.150;  304.775;  110.500
1088.413;  405.875;  356.525;  114.000
1088.957;  302.975;  263.950;  114.300
1089.501;  441.375;  396.225;  114.600
1090.045;  418.200;  370.525;  114.200
1090.589;  325.525;  276.525;  105.500
1091.133;  389.400;  345.450;  111.800
1091.676;  340.800;  298.200;  110.900
1092.220;  347.150;  299.475;  110.100
1092.764;  410.350;  361.925;  108.100
1093.307;  384.950;  337.525;  109.900
1093.851;  313.500;  275.925;  107.500
1094.395;  393.375;  345.675;   96.200
1094.938;  364.100;  322.825;   99.300
1095.482;  316.350;  278.475;   97.700
1096.025;  407.800;  364.550;   84.900
1096.568;  451.875;  405.000;   88.500
1097.112;  293.325;  246.200;   95.700
1097.655;  338.200;  296.650;   97.300
1098.198;  342.275;  297.750;   92.600
1098.741;  349.850;  304.700;   91.800
1099.285;  377.000;  328.800;   88.000
1099.828;  250.700;  211.775;   91.700
1100.371;  350.600;  306.475;   89.900
1100.914;  391.325;  345.300;   91.500
1101.457;  392.900;  348.450;   88.100
1101.999;  328.800;  287.650;   86.400
1102.542;  370.475;  326.525;   90.800
1103.085;  371.900;  334.825;   95.400
1103.628;  437.825;  402.425;   97.700
1104.170;  337.050;  294.100;   84.000
1104.713;  375.275;  327.975;   93.900
1105.256;  314.425;  274.375;   93.000
1105.798;  285.225;  242.750;   85.600
1106.341;  420.500;  376.200;   87.100
1106.883;  299.675;  254.050;   85.200
1107.425;  384.675;  336.150;   85.000
1107.968;  349.250;  308.475;   84.300
1108.510;  395.450;  354.625;   88.200
1109.052;  348.800;  312.325;   86.600
1109.594;  317.275;  276.450;   79.400
1110.136;  367.425;  324.750;   81.700
1110.679;  360.600;  320.200;   75.500
1111.221;  339.475;  303.300;   88.500
1111.763;  315.700;  273.725;   87.700
1112.304;  308.575;  269.975;   89.700
1112.846;  379.900;  338.350;   81.900
1113.388;  544.675;  503.625;   86.400
1113.930;  397.575;  350.625;   84.700
1114.472;  347.025;  306.975;   78.900
1115.013;  312.975;  274.675;   78.100
1115.555;  334.650;  300.175;   84.900
1116.097;  328.550;  286.175;   79.200
1116.638;  393.050;  351.800;   83.700
1117.180;  379.925;  340.000;   85.500
1117.721;  323.250;  284.650;   78.800
1118.262;  387.900;  346.125;   77.400
1118.804;  369.525;  323.675;   81.400
1119.345;  326.625;  293.650;   77.800
1119.886;  404.825;  365.925;   81.200
1120.427;  335.550;  298.125;   77.200
1120.969;  340.050;  303.125;   75.200
1121.510;  317.750;  283.075;   80.900
1122.051;  412.650;  375.375;   77.300
1122.592;  370.725;  336.725;   73.300
1123.133;  309.525;  273.850;   90.100
1123.673;  403.650;  369.875;   75.000
1124.214;  348.050;  315.175;   80.600
1124.755;  369.200;  324.350;   78.000
1125.296;  349.600;  318.250;   77.500
1125.836;  397.475;  351.500;   80.400
1126.377;  342.300;  300.875;   75.600
1126.918;  351.375;  309.250;   78.900
1127.458;  352.900;  318.050;   78.000
1127.999;  373.050;  336.250;   76.100
1128.539;  394.750;  364.625;   81.400
1129.079;  366.900;  324.475;   77.400
1129.620;  312.275;  279.875;   68.000
1130.160;  305.125;  272.075;   77.500
1130.700;  365.325;  329.225;   76.300
1131.240;  365.950;  328.450;   66.800
1131.781;  353.550;  314.900;   70.600
1132.321;  342.600;  306.150;   77.200
1132.861;  318.850;  285.675;   70.400
1133.401;  338.050;  300.900;   68.700
1133.941;  358.225;  321.400;   68.500
1134.481;  337.950;  307.900;   75.900
1135.020;  345.550;  309.675;   66.600
1135.560;  384.825;  351.150;   68.100
1136.100;  283.900;  248.900;   64.900
1136.640;  289.650;  255.600;   72.500
1137.179;  301.025;  268.675;   69.700
1137.719;  340.300;  312.975;   68.400
1138.258;  333.475;  301.025;   67.000
1138.798;  377.050;  340.800;   69.600
1139.337;  274.200;  239.200;   64.000
1139.877;  366.475;  332.125;   64.500
1140.416;  504.400;  470.975;   74.900
1140.955;  299.275;  271.575;   67.200
1141.494;  382.550;  350.025;   69.900
1142.034;  330.150;  296.600;   59.100
1142.573;  368.950;  339.400;   65.900
1143.112;  311.250;  283.425;   70.600
1143.651;  308.600;  277.975;   67.100
1144.190;  391.650;  356.875;   56.700
1144.729;  342.975;  310.675;   61.800
1145.267;  326.075;  295.200;   62.500
1145.806;  357.350;  333.350;   68.500
1146.345;  357.175;  329.875;   58.300
1146.884;  353.575;  323.775;   63.100
1147.422;  299.025;  268.350;   54.800
1147.961;  403.775;  375.600;   67.600
1148.500;  378.625;  349.175;   64.700
1149.038;  361.925;  329.975;   61.000
1149.577;  395.625;  366.025;   65.100
1150.115;  253.250;  223.975;   58.100
1150.653;  348.600;  315.175;   60.500
1151.192;  311.325;  282.875;   56.600
1151.730;  370.175;  342.650;   62.300
1152.268;  332.775;  299.225;   55.500
1152.806;  320.700;  289.175;   58.200
1153.344;  328.800;  294.550;   55.000
1153.882;  338.325;  313.275;   64.200
1154.421;  267.100;  238.175;   60.300
1154.958;  337.675;  307.400;   58.100
1155.496;  364.625;  336.925;   55.800
1156.034;  404.825;  380.375;   61.000
1156.572;  381.400;  353.500;   56.200
1157.110;  263.750;  234.675;   53.200
1157.647;  382.375;  356.575;   57.400
1158.185;  318.825;  288.850;   55.500
1158.723;  284.725;  260.925;   58.000
1159.260;  392.650;  364.100;   53.700
1159.798;  371.675;  340.225;   51.700
1160.335;  355.875;  326.400;   59.600

